"success","trial_type","trial_index","time_elapsed","internal_node_id","assignmentID","mturkID","hitID","view_history","rt","stimulus","key_press","reactionTime","a","r","s","cond","reward_cond","reward_cond_actual","reward_matrix_idx","responses"
"true","fullscreen","0","2419","0.0-0.0","3OWEPKL08AYSHY92KKRPFJVBJVK7NZ","A345VDWYMDWTGD","3PIOQ99R7Y8STPN46QFY0SD7JTFNU0","","","","","","","","","","","","",""
"","instructions","1","8000","0.0-1.0","3OWEPKL08AYSHY92KKRPFJVBJVK7NZ","A345VDWYMDWTGD","3PIOQ99R7Y8STPN46QFY0SD7JTFNU0","[{""page_index"":0,""viewing_time"":1045.0999999046326},{""page_index"":1,""viewing_time"":567},{""page_index"":2,""viewing_time"":432.80000019073486},{""page_index"":3,""viewing_time"":398.90000009536743},{""page_index"":4,""viewing_time"":768.3999996185303},{""page_index"":5,""viewing_time"":764.6000003814697},{""page_index"":6,""viewing_time"":868},{""page_index"":7,""viewing_time"":732.6999998092651}]","5578.300000190735","","","","","","","","","","",""
"","image-keyboard-response","2","8858","0.0-2.0","3OWEPKL08AYSHY92KKRPFJVBJVK7NZ","A345VDWYMDWTGD","3PIOQ99R7Y8STPN46QFY0SD7JTFNU0","","855.3000001907349","img/flower1.png","76","857.1000003814697","3","1","1","1","1,0.333,0.333,0.333,1,0.333,0.333,0.333,1","1,0.333,0.333,0.333,1,0.333,0.333,0.333,1","1",""
"","html-keyboard-response","3","9162","0.0-3.0","3OWEPKL08AYSHY92KKRPFJVBJVK7NZ","A345VDWYMDWTGD","3PIOQ99R7Y8STPN46QFY0SD7JTFNU0","","null","<img src=""img/flower1.png"" style=""width:200px; border:14px solid green;"">","null","","","","","","","","",""
"","image-keyboard-response","4","9244","0.0-4.0","3OWEPKL08AYSHY92KKRPFJVBJVK7NZ","A345VDWYMDWTGD","3PIOQ99R7Y8STPN46QFY0SD7JTFNU0","","81.69999980926514","img/flower3.png","75","82.30000019073486","2","0","3","1","1,0.333,0.333,0.333,1,0.333,0.333,0.333,1","1,0.333,0.333,0.333,1,0.333,0.333,0.333,1","1",""
"","html-keyboard-response","5","9548","0.0-5.0","3OWEPKL08AYSHY92KKRPFJVBJVK7NZ","A345VDWYMDWTGD","3PIOQ99R7Y8STPN46QFY0SD7JTFNU0","","null","<img src=""img/flower3.png"" style=""width:200px;border:14px solid red;"">","null","","","","","","","","",""
"","image-keyboard-response","6","9639","0.0-6.0","3OWEPKL08AYSHY92KKRPFJVBJVK7NZ","A345VDWYMDWTGD","3PIOQ99R7Y8STPN46QFY0SD7JTFNU0","","87.7999997138977","img/flower1.png","74","90.09999990463257","1","1","1","1","1,0.333,0.333,0.333,1,0.333,0.333,0.333,1","1,0.333,0.333,0.333,1,0.333,0.333,0.333,1","1",""
"","html-keyboard-response","7","9943","0.0-7.0","3OWEPKL08AYSHY92KKRPFJVBJVK7NZ","A345VDWYMDWTGD","3PIOQ99R7Y8STPN46QFY0SD7JTFNU0","","null","<img src=""img/flower1.png"" style=""width:200px; border:14px solid green;"">","null","","","","","","","","",""
"","image-keyboard-response","8","9968","0.0-8.0","3OWEPKL08AYSHY92KKRPFJVBJVK7NZ","A345VDWYMDWTGD","3PIOQ99R7Y8STPN46QFY0SD7JTFNU0","","22.90000009536743","img/flower3.png","76","24.700000286102295","3","1","3","1","1,0.333,0.333,0.333,1,0.333,0.333,0.333,1","1,0.333,0.333,0.333,1,0.333,0.333,0.333,1","1",""
"","html-keyboard-response","9","10276","0.0-9.0","3OWEPKL08AYSHY92KKRPFJVBJVK7NZ","A345VDWYMDWTGD","3PIOQ99R7Y8STPN46QFY0SD7JTFNU0","","null","<img src=""img/flower3.png"" style=""width:200px; border:14px solid green;"">","null","","","","","","","","",""
"","image-keyboard-response","10","10439","0.0-10.0","3OWEPKL08AYSHY92KKRPFJVBJVK7NZ","A345VDWYMDWTGD","3PIOQ99R7Y8STPN46QFY0SD7JTFNU0","","160.7000002861023","img/flower2.png","76","162.69999980926514","3","0","2","1","1,0.333,0.333,0.333,1,0.333,0.333,0.333,1","1,0.333,0.333,0.333,1,0.333,0.333,0.333,1","1",""
"","html-keyboard-response","11","10746","0.0-11.0","3OWEPKL08AYSHY92KKRPFJVBJVK7NZ","A345VDWYMDWTGD","3PIOQ99R7Y8STPN46QFY0SD7JTFNU0","","null","<img src=""img/flower2.png"" style=""width:200px;border:14px solid red;"">","null","","","","","","","","",""
"","image-keyboard-response","12","10828","0.0-12.0","3OWEPKL08AYSHY92KKRPFJVBJVK7NZ","A345VDWYMDWTGD","3PIOQ99R7Y8STPN46QFY0SD7JTFNU0","","79.89999961853027","img/flower2.png","74","81.59999990463257","1","0","2","1","1,0.333,0.333,0.333,1,0.333,0.333,0.333,1","1,0.333,0.333,0.333,1,0.333,0.333,0.333,1","1",""
"","html-keyboard-response","13","11136","0.0-13.0","3OWEPKL08AYSHY92KKRPFJVBJVK7NZ","A345VDWYMDWTGD","3PIOQ99R7Y8STPN46QFY0SD7JTFNU0","","null","<img src=""img/flower2.png"" style=""width:200px;border:14px solid red;"">","null","","","","","","","","",""
"","image-keyboard-response","14","11296","0.0-14.0","3OWEPKL08AYSHY92KKRPFJVBJVK7NZ","A345VDWYMDWTGD","3PIOQ99R7Y8STPN46QFY0SD7JTFNU0","","157.40000009536743","img/flower1.png","75","159.2999997138977","2","0","1","1","1,0.333,0.333,0.333,1,0.333,0.333,0.333,1","1,0.333,0.333,0.333,1,0.333,0.333,0.333,1","1",""
"","html-keyboard-response","15","11603","0.0-15.0","3OWEPKL08AYSHY92KKRPFJVBJVK7NZ","A345VDWYMDWTGD","3PIOQ99R7Y8STPN46QFY0SD7JTFNU0","","null","<img src=""img/flower1.png"" style=""width:200px;border:14px solid red;"">","null","","","","","","","","",""
"","image-keyboard-response","16","11823","0.0-16.0","3OWEPKL08AYSHY92KKRPFJVBJVK7NZ","A345VDWYMDWTGD","3PIOQ99R7Y8STPN46QFY0SD7JTFNU0","","218.09999990463257","img/flower3.png","76","219.89999961853027","3","1","3","1","1,0.333,0.333,0.333,1,0.333,0.333,0.333,1","1,0.333,0.333,0.333,1,0.333,0.333,0.333,1","1",""
"","html-keyboard-response","17","12127","0.0-17.0","3OWEPKL08AYSHY92KKRPFJVBJVK7NZ","A345VDWYMDWTGD","3PIOQ99R7Y8STPN46QFY0SD7JTFNU0","","null","<img src=""img/flower3.png"" style=""width:200px; border:14px solid green;"">","null","","","","","","","","",""
"","image-keyboard-response","18","12467","0.0-18.0","3OWEPKL08AYSHY92KKRPFJVBJVK7NZ","A345VDWYMDWTGD","3PIOQ99R7Y8STPN46QFY0SD7JTFNU0","","338.5","img/flower3.png","75","340.19999980926514","2","0","3","1","1,0.333,0.333,0.333,1,0.333,0.333,0.333,1","1,0.333,0.333,0.333,1,0.333,0.333,0.333,1","1",""
"","html-keyboard-response","19","12774","0.0-19.0","3OWEPKL08AYSHY92KKRPFJVBJVK7NZ","A345VDWYMDWTGD","3PIOQ99R7Y8STPN46QFY0SD7JTFNU0","","null","<img src=""img/flower3.png"" style=""width:200px;border:14px solid red;"">","null","","","","","","","","",""
"","image-keyboard-response","20","12877","0.0-20.0","3OWEPKL08AYSHY92KKRPFJVBJVK7NZ","A345VDWYMDWTGD","3PIOQ99R7Y8STPN46QFY0SD7JTFNU0","","100.90000009536743","img/flower2.png","74","102.59999990463257","1","0","2","1","1,0.333,0.333,0.333,1,0.333,0.333,0.333,1","1,0.333,0.333,0.333,1,0.333,0.333,0.333,1","1",""
"","html-keyboard-response","21","13184","0.0-21.0","3OWEPKL08AYSHY92KKRPFJVBJVK7NZ","A345VDWYMDWTGD","3PIOQ99R7Y8STPN46QFY0SD7JTFNU0","","null","<img src=""img/flower2.png"" style=""width:200px;border:14px solid red;"">","null","","","","","","","","",""
"","image-keyboard-response","22","13344","0.0-22.0","3OWEPKL08AYSHY92KKRPFJVBJVK7NZ","A345VDWYMDWTGD","3PIOQ99R7Y8STPN46QFY0SD7JTFNU0","","157.59999990463257","img/flower1.png","76","159.40000009536743","3","0","1","1","1,0.333,0.333,0.333,1,0.333,0.333,0.333,1","1,0.333,0.333,0.333,1,0.333,0.333,0.333,1","1",""
"","html-keyboard-response","23","13650","0.0-23.0","3OWEPKL08AYSHY92KKRPFJVBJVK7NZ","A345VDWYMDWTGD","3PIOQ99R7Y8STPN46QFY0SD7JTFNU0","","null","<img src=""img/flower1.png"" style=""width:200px;border:14px solid red;"">","null","","","","","","","","",""
"","image-keyboard-response","24","13792","0.0-24.0","3OWEPKL08AYSHY92KKRPFJVBJVK7NZ","A345VDWYMDWTGD","3PIOQ99R7Y8STPN46QFY0SD7JTFNU0","","140.2000002861023","img/flower3.png","75","142","2","0","3","1","1,0.333,0.333,0.333,1,0.333,0.333,0.333,1","1,0.333,0.333,0.333,1,0.333,0.333,0.333,1","1",""
"","html-keyboard-response","25","14094","0.0-25.0","3OWEPKL08AYSHY92KKRPFJVBJVK7NZ","A345VDWYMDWTGD","3PIOQ99R7Y8STPN46QFY0SD7JTFNU0","","null","<img src=""img/flower3.png"" style=""width:200px;border:14px solid red;"">","null","","","","","","","","",""
"","image-keyboard-response","26","14160","0.0-26.0","3OWEPKL08AYSHY92KKRPFJVBJVK7NZ","A345VDWYMDWTGD","3PIOQ99R7Y8STPN46QFY0SD7JTFNU0","","63.90000009536743","img/flower1.png","74","65.40000009536743","1","1","1","1","1,0.333,0.333,0.333,1,0.333,0.333,0.333,1","1,0.333,0.333,0.333,1,0.333,0.333,0.333,1","1",""
"","html-keyboard-response","27","14466","0.0-27.0","3OWEPKL08AYSHY92KKRPFJVBJVK7NZ","A345VDWYMDWTGD","3PIOQ99R7Y8STPN46QFY0SD7JTFNU0","","null","<img src=""img/flower1.png"" style=""width:200px; border:14px solid green;"">","null","","","","","","","","",""
"","image-keyboard-response","28","14539","0.0-28.0","3OWEPKL08AYSHY92KKRPFJVBJVK7NZ","A345VDWYMDWTGD","3PIOQ99R7Y8STPN46QFY0SD7JTFNU0","","70.39999961853027","img/flower1.png","76","72.19999980926514","3","0","1","1","1,0.333,0.333,0.333,1,0.333,0.333,0.333,1","1,0.333,0.333,0.333,1,0.333,0.333,0.333,1","1",""
"","html-keyboard-response","29","14841","0.0-29.0","3OWEPKL08AYSHY92KKRPFJVBJVK7NZ","A345VDWYMDWTGD","3PIOQ99R7Y8STPN46QFY0SD7JTFNU0","","null","<img src=""img/flower1.png"" style=""width:200px;border:14px solid red;"">","null","","","","","","","","",""
"","image-keyboard-response","30","14995","0.0-30.0","3OWEPKL08AYSHY92KKRPFJVBJVK7NZ","A345VDWYMDWTGD","3PIOQ99R7Y8STPN46QFY0SD7JTFNU0","","152.90000009536743","img/flower1.png","74","153.7999997138977","1","1","1","1","1,0.333,0.333,0.333,1,0.333,0.333,0.333,1","1,0.333,0.333,0.333,1,0.333,0.333,0.333,1","1",""
"","html-keyboard-response","31","15303","0.0-31.0","3OWEPKL08AYSHY92KKRPFJVBJVK7NZ","A345VDWYMDWTGD","3PIOQ99R7Y8STPN46QFY0SD7JTFNU0","","null","<img src=""img/flower1.png"" style=""width:200px; border:14px solid green;"">","null","","","","","","","","",""
"","image-keyboard-response","32","15405","0.0-32.0","3OWEPKL08AYSHY92KKRPFJVBJVK7NZ","A345VDWYMDWTGD","3PIOQ99R7Y8STPN46QFY0SD7JTFNU0","","99.40000009536743","img/flower1.png","76","101.40000009536743","3","0","1","1","1,0.333,0.333,0.333,1,0.333,0.333,0.333,1","1,0.333,0.333,0.333,1,0.333,0.333,0.333,1","1",""
"","html-keyboard-response","33","15712","0.0-33.0","3OWEPKL08AYSHY92KKRPFJVBJVK7NZ","A345VDWYMDWTGD","3PIOQ99R7Y8STPN46QFY0SD7JTFNU0","","null","<img src=""img/flower1.png"" style=""width:200px;border:14px solid red;"">","null","","","","","","","","",""
"","image-keyboard-response","34","15809","0.0-34.0","3OWEPKL08AYSHY92KKRPFJVBJVK7NZ","A345VDWYMDWTGD","3PIOQ99R7Y8STPN46QFY0SD7JTFNU0","","94.5","img/flower1.png","74","96.09999990463257","1","1","1","1","1,0.333,0.333,0.333,1,0.333,0.333,0.333,1","1,0.333,0.333,0.333,1,0.333,0.333,0.333,1","1",""
"","html-keyboard-response","35","16112","0.0-35.0","3OWEPKL08AYSHY92KKRPFJVBJVK7NZ","A345VDWYMDWTGD","3PIOQ99R7Y8STPN46QFY0SD7JTFNU0","","null","<img src=""img/flower1.png"" style=""width:200px; border:14px solid green;"">","null","","","","","","","","",""
"","image-keyboard-response","36","16162","0.0-36.0","3OWEPKL08AYSHY92KKRPFJVBJVK7NZ","A345VDWYMDWTGD","3PIOQ99R7Y8STPN46QFY0SD7JTFNU0","","49.40000009536743","img/flower2.png","75","49.80000019073486","2","1","2","1","1,0.333,0.333,0.333,1,0.333,0.333,0.333,1","1,0.333,0.333,0.333,1,0.333,0.333,0.333,1","1",""
"","html-keyboard-response","37","16469","0.0-37.0","3OWEPKL08AYSHY92KKRPFJVBJVK7NZ","A345VDWYMDWTGD","3PIOQ99R7Y8STPN46QFY0SD7JTFNU0","","null","<img src=""img/flower2.png"" style=""width:200px; border:14px solid green;"">","null","","","","","","","","",""
"","image-keyboard-response","38","16545","0.0-38.0","3OWEPKL08AYSHY92KKRPFJVBJVK7NZ","A345VDWYMDWTGD","3PIOQ99R7Y8STPN46QFY0SD7JTFNU0","","74.40000009536743","img/flower2.png","74","76.30000019073486","1","0","2","1","1,0.333,0.333,0.333,1,0.333,0.333,0.333,1","1,0.333,0.333,0.333,1,0.333,0.333,0.333,1","1",""
"","html-keyboard-response","39","16849","0.0-39.0","3OWEPKL08AYSHY92KKRPFJVBJVK7NZ","A345VDWYMDWTGD","3PIOQ99R7Y8STPN46QFY0SD7JTFNU0","","null","<img src=""img/flower2.png"" style=""width:200px;border:14px solid red;"">","null","","","","","","","","",""
"","image-keyboard-response","40","16953","0.0-40.0","3OWEPKL08AYSHY92KKRPFJVBJVK7NZ","A345VDWYMDWTGD","3PIOQ99R7Y8STPN46QFY0SD7JTFNU0","","103.60000038146973","img/flower2.png","75","104.09999990463257","2","1","2","1","1,0.333,0.333,0.333,1,0.333,0.333,0.333,1","1,0.333,0.333,0.333,1,0.333,0.333,0.333,1","1",""
"","html-keyboard-response","41","17258","0.0-41.0","3OWEPKL08AYSHY92KKRPFJVBJVK7NZ","A345VDWYMDWTGD","3PIOQ99R7Y8STPN46QFY0SD7JTFNU0","","null","<img src=""img/flower2.png"" style=""width:200px; border:14px solid green;"">","null","","","","","","","","",""
"","image-keyboard-response","42","17298","0.0-42.0","3OWEPKL08AYSHY92KKRPFJVBJVK7NZ","A345VDWYMDWTGD","3PIOQ99R7Y8STPN46QFY0SD7JTFNU0","","38.40000009536743","img/flower3.png","76","40.09999990463257","3","1","3","1","1,0.333,0.333,0.333,1,0.333,0.333,0.333,1","1,0.333,0.333,0.333,1,0.333,0.333,0.333,1","1",""
"","html-keyboard-response","43","17603","0.0-43.0","3OWEPKL08AYSHY92KKRPFJVBJVK7NZ","A345VDWYMDWTGD","3PIOQ99R7Y8STPN46QFY0SD7JTFNU0","","null","<img src=""img/flower3.png"" style=""width:200px; border:14px solid green;"">","null","","","","","","","","",""
"","image-keyboard-response","44","17692","0.0-44.0","3OWEPKL08AYSHY92KKRPFJVBJVK7NZ","A345VDWYMDWTGD","3PIOQ99R7Y8STPN46QFY0SD7JTFNU0","","87.59999990463257","img/flower2.png","76","89.30000019073486","3","0","2","1","1,0.333,0.333,0.333,1,0.333,0.333,0.333,1","1,0.333,0.333,0.333,1,0.333,0.333,0.333,1","1",""
"","html-keyboard-response","45","18000","0.0-45.0","3OWEPKL08AYSHY92KKRPFJVBJVK7NZ","A345VDWYMDWTGD","3PIOQ99R7Y8STPN46QFY0SD7JTFNU0","","null","<img src=""img/flower2.png"" style=""width:200px;border:14px solid red;"">","null","","","","","","","","",""
"","image-keyboard-response","46","18034","0.0-46.0","3OWEPKL08AYSHY92KKRPFJVBJVK7NZ","A345VDWYMDWTGD","3PIOQ99R7Y8STPN46QFY0SD7JTFNU0","","31.09999990463257","img/flower3.png","75","33","2","0","3","1","1,0.333,0.333,0.333,1,0.333,0.333,0.333,1","1,0.333,0.333,0.333,1,0.333,0.333,0.333,1","1",""
"","html-keyboard-response","47","18341","0.0-47.0","3OWEPKL08AYSHY92KKRPFJVBJVK7NZ","A345VDWYMDWTGD","3PIOQ99R7Y8STPN46QFY0SD7JTFNU0","","null","<img src=""img/flower3.png"" style=""width:200px;border:14px solid red;"">","null","","","","","","","","",""
"","image-keyboard-response","48","18752","0.0-48.0","3OWEPKL08AYSHY92KKRPFJVBJVK7NZ","A345VDWYMDWTGD","3PIOQ99R7Y8STPN46QFY0SD7JTFNU0","","409","img/flower3.png","75","410.59999990463257","2","1","3","1","1,0.333,0.333,0.333,1,0.333,0.333,0.333,1","1,0.333,0.333,0.333,1,0.333,0.333,0.333,1","1",""
"","html-keyboard-response","49","19060","0.0-49.0","3OWEPKL08AYSHY92KKRPFJVBJVK7NZ","A345VDWYMDWTGD","3PIOQ99R7Y8STPN46QFY0SD7JTFNU0","","null","<img src=""img/flower3.png"" style=""width:200px; border:14px solid green;"">","null","","","","","","","","",""
"","image-keyboard-response","50","19139","0.0-50.0","3OWEPKL08AYSHY92KKRPFJVBJVK7NZ","A345VDWYMDWTGD","3PIOQ99R7Y8STPN46QFY0SD7JTFNU0","","76.69999980926514","img/flower2.png","74","78.5","1","0","2","1","1,0.333,0.333,0.333,1,0.333,0.333,0.333,1","1,0.333,0.333,0.333,1,0.333,0.333,0.333,1","1",""
"","html-keyboard-response","51","19446","0.0-51.0","3OWEPKL08AYSHY92KKRPFJVBJVK7NZ","A345VDWYMDWTGD","3PIOQ99R7Y8STPN46QFY0SD7JTFNU0","","null","<img src=""img/flower2.png"" style=""width:200px;border:14px solid red;"">","null","","","","","","","","",""
"","image-keyboard-response","52","19582","0.0-52.0","3OWEPKL08AYSHY92KKRPFJVBJVK7NZ","A345VDWYMDWTGD","3PIOQ99R7Y8STPN46QFY0SD7JTFNU0","","134.10000038146973","img/flower1.png","76","135.80000019073486","3","0","1","1","1,0.333,0.333,0.333,1,0.333,0.333,0.333,1","1,0.333,0.333,0.333,1,0.333,0.333,0.333,1","1",""
"","html-keyboard-response","53","19888","0.0-53.0","3OWEPKL08AYSHY92KKRPFJVBJVK7NZ","A345VDWYMDWTGD","3PIOQ99R7Y8STPN46QFY0SD7JTFNU0","","null","<img src=""img/flower1.png"" style=""width:200px;border:14px solid red;"">","null","","","","","","","","",""
"","image-keyboard-response","54","19931","0.0-54.0","3OWEPKL08AYSHY92KKRPFJVBJVK7NZ","A345VDWYMDWTGD","3PIOQ99R7Y8STPN46QFY0SD7JTFNU0","","40.299999713897705","img/flower3.png","75","42.299999713897705","2","1","3","1","1,0.333,0.333,0.333,1,0.333,0.333,0.333,1","1,0.333,0.333,0.333,1,0.333,0.333,0.333,1","1",""
"","html-keyboard-response","55","20238","0.0-55.0","3OWEPKL08AYSHY92KKRPFJVBJVK7NZ","A345VDWYMDWTGD","3PIOQ99R7Y8STPN46QFY0SD7JTFNU0","","null","<img src=""img/flower3.png"" style=""width:200px; border:14px solid green;"">","null","","","","","","","","",""
"","image-keyboard-response","56","20321","0.0-56.0","3OWEPKL08AYSHY92KKRPFJVBJVK7NZ","A345VDWYMDWTGD","3PIOQ99R7Y8STPN46QFY0SD7JTFNU0","","80.30000019073486","img/flower2.png","74","82.09999990463257","1","0","2","1","1,0.333,0.333,0.333,1,0.333,0.333,0.333,1","1,0.333,0.333,0.333,1,0.333,0.333,0.333,1","1",""
"","html-keyboard-response","57","20628","0.0-57.0","3OWEPKL08AYSHY92KKRPFJVBJVK7NZ","A345VDWYMDWTGD","3PIOQ99R7Y8STPN46QFY0SD7JTFNU0","","null","<img src=""img/flower2.png"" style=""width:200px;border:14px solid red;"">","null","","","","","","","","",""
"","image-keyboard-response","58","20705","0.0-58.0","3OWEPKL08AYSHY92KKRPFJVBJVK7NZ","A345VDWYMDWTGD","3PIOQ99R7Y8STPN46QFY0SD7JTFNU0","","74.80000019073486","img/flower3.png","75","76.69999980926514","2","1","3","1","1,0.333,0.333,0.333,1,0.333,0.333,0.333,1","1,0.333,0.333,0.333,1,0.333,0.333,0.333,1","1",""
"","html-keyboard-response","59","21009","0.0-59.0","3OWEPKL08AYSHY92KKRPFJVBJVK7NZ","A345VDWYMDWTGD","3PIOQ99R7Y8STPN46QFY0SD7JTFNU0","","null","<img src=""img/flower3.png"" style=""width:200px; border:14px solid green;"">","null","","","","","","","","",""
"","image-keyboard-response","60","21098","0.0-60.0","3OWEPKL08AYSHY92KKRPFJVBJVK7NZ","A345VDWYMDWTGD","3PIOQ99R7Y8STPN46QFY0SD7JTFNU0","","87.69999980926514","img/flower1.png","75","89.19999980926514","2","0","1","1","1,0.333,0.333,0.333,1,0.333,0.333,0.333,1","1,0.333,0.333,0.333,1,0.333,0.333,0.333,1","1",""
"","html-keyboard-response","61","21406","0.0-61.0","3OWEPKL08AYSHY92KKRPFJVBJVK7NZ","A345VDWYMDWTGD","3PIOQ99R7Y8STPN46QFY0SD7JTFNU0","","null","<img src=""img/flower1.png"" style=""width:200px;border:14px solid red;"">","null","","","","","","","","",""
"","image-keyboard-response","62","21435","0.0-62.0","3OWEPKL08AYSHY92KKRPFJVBJVK7NZ","A345VDWYMDWTGD","3PIOQ99R7Y8STPN46QFY0SD7JTFNU0","","27.700000286102295","img/flower1.png","76","29.200000286102295","3","1","1","1","1,0.333,0.333,0.333,1,0.333,0.333,0.333,1","1,0.333,0.333,0.333,1,0.333,0.333,0.333,1","1",""
"","html-keyboard-response","63","21742","0.0-63.0","3OWEPKL08AYSHY92KKRPFJVBJVK7NZ","A345VDWYMDWTGD","3PIOQ99R7Y8STPN46QFY0SD7JTFNU0","","null","<img src=""img/flower1.png"" style=""width:200px; border:14px solid green;"">","null","","","","","","","","",""
"","image-keyboard-response","64","21893","0.0-64.0","3OWEPKL08AYSHY92KKRPFJVBJVK7NZ","A345VDWYMDWTGD","3PIOQ99R7Y8STPN46QFY0SD7JTFNU0","","148","img/flower2.png","76","149.80000019073486","3","1","2","1","1,0.333,0.333,0.333,1,0.333,0.333,0.333,1","1,0.333,0.333,0.333,1,0.333,0.333,0.333,1","1",""
"","html-keyboard-response","65","22201","0.0-65.0","3OWEPKL08AYSHY92KKRPFJVBJVK7NZ","A345VDWYMDWTGD","3PIOQ99R7Y8STPN46QFY0SD7JTFNU0","","null","<img src=""img/flower2.png"" style=""width:200px; border:14px solid green;"">","null","","","","","","","","",""
"","image-keyboard-response","66","22323","0.0-66.0","3OWEPKL08AYSHY92KKRPFJVBJVK7NZ","A345VDWYMDWTGD","3PIOQ99R7Y8STPN46QFY0SD7JTFNU0","","120.39999961853027","img/flower3.png","75","122","2","0","3","1","1,0.333,0.333,0.333,1,0.333,0.333,0.333,1","1,0.333,0.333,0.333,1,0.333,0.333,0.333,1","1",""
"","html-keyboard-response","67","22627","0.0-67.0","3OWEPKL08AYSHY92KKRPFJVBJVK7NZ","A345VDWYMDWTGD","3PIOQ99R7Y8STPN46QFY0SD7JTFNU0","","null","<img src=""img/flower3.png"" style=""width:200px;border:14px solid red;"">","null","","","","","","","","",""
"","image-keyboard-response","68","22670","0.0-68.0","3OWEPKL08AYSHY92KKRPFJVBJVK7NZ","A345VDWYMDWTGD","3PIOQ99R7Y8STPN46QFY0SD7JTFNU0","","41.200000286102295","img/flower1.png","74","43","1","1","1","1","1,0.333,0.333,0.333,1,0.333,0.333,0.333,1","1,0.333,0.333,0.333,1,0.333,0.333,0.333,1","1",""
"","html-keyboard-response","69","22977","0.0-69.0","3OWEPKL08AYSHY92KKRPFJVBJVK7NZ","A345VDWYMDWTGD","3PIOQ99R7Y8STPN46QFY0SD7JTFNU0","","null","<img src=""img/flower1.png"" style=""width:200px; border:14px solid green;"">","null","","","","","","","","",""
"","image-keyboard-response","70","23054","0.0-70.0","3OWEPKL08AYSHY92KKRPFJVBJVK7NZ","A345VDWYMDWTGD","3PIOQ99R7Y8STPN46QFY0SD7JTFNU0","","75.19999980926514","img/flower2.png","75","76.90000009536743","2","1","2","1","1,0.333,0.333,0.333,1,0.333,0.333,0.333,1","1,0.333,0.333,0.333,1,0.333,0.333,0.333,1","1",""
"","html-keyboard-response","71","23358","0.0-71.0","3OWEPKL08AYSHY92KKRPFJVBJVK7NZ","A345VDWYMDWTGD","3PIOQ99R7Y8STPN46QFY0SD7JTFNU0","","null","<img src=""img/flower2.png"" style=""width:200px; border:14px solid green;"">","null","","","","","","","","",""
"","image-keyboard-response","72","23669","0.0-72.0","3OWEPKL08AYSHY92KKRPFJVBJVK7NZ","A345VDWYMDWTGD","3PIOQ99R7Y8STPN46QFY0SD7JTFNU0","","309.5","img/flower1.png","76","310.5","3","1","1","1","1,0.333,0.333,0.333,1,0.333,0.333,0.333,1","1,0.333,0.333,0.333,1,0.333,0.333,0.333,1","1",""
"","html-keyboard-response","73","23977","0.0-73.0","3OWEPKL08AYSHY92KKRPFJVBJVK7NZ","A345VDWYMDWTGD","3PIOQ99R7Y8STPN46QFY0SD7JTFNU0","","null","<img src=""img/flower1.png"" style=""width:200px; border:14px solid green;"">","null","","","","","","","","",""
"","image-keyboard-response","74","23982","0.0-74.0","3OWEPKL08AYSHY92KKRPFJVBJVK7NZ","A345VDWYMDWTGD","3PIOQ99R7Y8STPN46QFY0SD7JTFNU0","","3.799999713897705","img/flower3.png","76","5.200000286102295","3","1","3","1","1,0.333,0.333,0.333,1,0.333,0.333,0.333,1","1,0.333,0.333,0.333,1,0.333,0.333,0.333,1","1",""
"","html-keyboard-response","75","24289","0.0-75.0","3OWEPKL08AYSHY92KKRPFJVBJVK7NZ","A345VDWYMDWTGD","3PIOQ99R7Y8STPN46QFY0SD7JTFNU0","","null","<img src=""img/flower3.png"" style=""width:200px; border:14px solid green;"">","null","","","","","","","","",""
"","image-keyboard-response","76","24452","0.0-76.0","3OWEPKL08AYSHY92KKRPFJVBJVK7NZ","A345VDWYMDWTGD","3PIOQ99R7Y8STPN46QFY0SD7JTFNU0","","161.59999990463257","img/flower2.png","75","163.40000009536743","2","1","2","1","1,0.333,0.333,0.333,1,0.333,0.333,0.333,1","1,0.333,0.333,0.333,1,0.333,0.333,0.333,1","1",""
"","html-keyboard-response","77","24760","0.0-77.0","3OWEPKL08AYSHY92KKRPFJVBJVK7NZ","A345VDWYMDWTGD","3PIOQ99R7Y8STPN46QFY0SD7JTFNU0","","null","<img src=""img/flower2.png"" style=""width:200px; border:14px solid green;"">","null","","","","","","","","",""
"","image-keyboard-response","78","24783","0.0-78.0","3OWEPKL08AYSHY92KKRPFJVBJVK7NZ","A345VDWYMDWTGD","3PIOQ99R7Y8STPN46QFY0SD7JTFNU0","","20.90000009536743","img/flower3.png","74","22.40000009536743","1","1","3","1","1,0.333,0.333,0.333,1,0.333,0.333,0.333,1","1,0.333,0.333,0.333,1,0.333,0.333,0.333,1","1",""
"","html-keyboard-response","79","25087","0.0-79.0","3OWEPKL08AYSHY92KKRPFJVBJVK7NZ","A345VDWYMDWTGD","3PIOQ99R7Y8STPN46QFY0SD7JTFNU0","","null","<img src=""img/flower3.png"" style=""width:200px; border:14px solid green;"">","null","","","","","","","","",""
"","image-keyboard-response","80","25242","0.0-80.0","3OWEPKL08AYSHY92KKRPFJVBJVK7NZ","A345VDWYMDWTGD","3PIOQ99R7Y8STPN46QFY0SD7JTFNU0","","152.2000002861023","img/flower1.png","75","154","2","0","1","1","1,0.333,0.333,0.333,1,0.333,0.333,0.333,1","1,0.333,0.333,0.333,1,0.333,0.333,0.333,1","1",""
"","html-keyboard-response","81","25549","0.0-81.0","3OWEPKL08AYSHY92KKRPFJVBJVK7NZ","A345VDWYMDWTGD","3PIOQ99R7Y8STPN46QFY0SD7JTFNU0","","null","<img src=""img/flower1.png"" style=""width:200px;border:14px solid red;"">","null","","","","","","","","",""
"","image-keyboard-response","82","25585","0.0-82.0","3OWEPKL08AYSHY92KKRPFJVBJVK7NZ","A345VDWYMDWTGD","3PIOQ99R7Y8STPN46QFY0SD7JTFNU0","","34.5","img/flower3.png","76","36.19999980926514","3","1","3","1","1,0.333,0.333,0.333,1,0.333,0.333,0.333,1","1,0.333,0.333,0.333,1,0.333,0.333,0.333,1","1",""
"","html-keyboard-response","83","25891","0.0-83.0","3OWEPKL08AYSHY92KKRPFJVBJVK7NZ","A345VDWYMDWTGD","3PIOQ99R7Y8STPN46QFY0SD7JTFNU0","","null","<img src=""img/flower3.png"" style=""width:200px; border:14px solid green;"">","null","","","","","","","","",""
"","image-keyboard-response","84","26127","0.0-84.0","3OWEPKL08AYSHY92KKRPFJVBJVK7NZ","A345VDWYMDWTGD","3PIOQ99R7Y8STPN46QFY0SD7JTFNU0","","233.59999990463257","img/flower3.png","75","235.30000019073486","2","0","3","1","1,0.333,0.333,0.333,1,0.333,0.333,0.333,1","1,0.333,0.333,0.333,1,0.333,0.333,0.333,1","1",""
"","html-keyboard-response","85","26434","0.0-85.0","3OWEPKL08AYSHY92KKRPFJVBJVK7NZ","A345VDWYMDWTGD","3PIOQ99R7Y8STPN46QFY0SD7JTFNU0","","null","<img src=""img/flower3.png"" style=""width:200px;border:14px solid red;"">","null","","","","","","","","",""
"","image-keyboard-response","86","26497","0.0-86.0","3OWEPKL08AYSHY92KKRPFJVBJVK7NZ","A345VDWYMDWTGD","3PIOQ99R7Y8STPN46QFY0SD7JTFNU0","","61.60000038146973","img/flower1.png","76","63.30000019073486","3","0","1","1","1,0.333,0.333,0.333,1,0.333,0.333,0.333,1","1,0.333,0.333,0.333,1,0.333,0.333,0.333,1","1",""
"","html-keyboard-response","87","26804","0.0-87.0","3OWEPKL08AYSHY92KKRPFJVBJVK7NZ","A345VDWYMDWTGD","3PIOQ99R7Y8STPN46QFY0SD7JTFNU0","","null","<img src=""img/flower1.png"" style=""width:200px;border:14px solid red;"">","null","","","","","","","","",""
"","image-keyboard-response","88","27230","0.0-88.0","3OWEPKL08AYSHY92KKRPFJVBJVK7NZ","A345VDWYMDWTGD","3PIOQ99R7Y8STPN46QFY0SD7JTFNU0","","423.19999980926514","img/flower2.png","74","425.1000003814697","1","0","2","1","1,0.333,0.333,0.333,1,0.333,0.333,0.333,1","1,0.333,0.333,0.333,1,0.333,0.333,0.333,1","1",""
"","html-keyboard-response","89","27537","0.0-89.0","3OWEPKL08AYSHY92KKRPFJVBJVK7NZ","A345VDWYMDWTGD","3PIOQ99R7Y8STPN46QFY0SD7JTFNU0","","null","<img src=""img/flower2.png"" style=""width:200px;border:14px solid red;"">","null","","","","","","","","",""
"","image-keyboard-response","90","27680","0.0-90.0","3OWEPKL08AYSHY92KKRPFJVBJVK7NZ","A345VDWYMDWTGD","3PIOQ99R7Y8STPN46QFY0SD7JTFNU0","","140.2999997138977","img/flower3.png","76","142.09999990463257","3","1","3","1","1,0.333,0.333,0.333,1,0.333,0.333,0.333,1","1,0.333,0.333,0.333,1,0.333,0.333,0.333,1","1",""
"","html-keyboard-response","91","27987","0.0-91.0","3OWEPKL08AYSHY92KKRPFJVBJVK7NZ","A345VDWYMDWTGD","3PIOQ99R7Y8STPN46QFY0SD7JTFNU0","","null","<img src=""img/flower3.png"" style=""width:200px; border:14px solid green;"">","null","","","","","","","","",""
"","image-keyboard-response","92","28077","0.0-92.0","3OWEPKL08AYSHY92KKRPFJVBJVK7NZ","A345VDWYMDWTGD","3PIOQ99R7Y8STPN46QFY0SD7JTFNU0","","87.5","img/flower2.png","75","89.09999990463257","2","1","2","1","1,0.333,0.333,0.333,1,0.333,0.333,0.333,1","1,0.333,0.333,0.333,1,0.333,0.333,0.333,1","1",""
"","html-keyboard-response","93","28384","0.0-93.0","3OWEPKL08AYSHY92KKRPFJVBJVK7NZ","A345VDWYMDWTGD","3PIOQ99R7Y8STPN46QFY0SD7JTFNU0","","null","<img src=""img/flower2.png"" style=""width:200px; border:14px solid green;"">","null","","","","","","","","",""
"","image-keyboard-response","94","28507","0.0-94.0","3OWEPKL08AYSHY92KKRPFJVBJVK7NZ","A345VDWYMDWTGD","3PIOQ99R7Y8STPN46QFY0SD7JTFNU0","","120.69999980926514","img/flower2.png","76","122.39999961853027","3","1","2","1","1,0.333,0.333,0.333,1,0.333,0.333,0.333,1","1,0.333,0.333,0.333,1,0.333,0.333,0.333,1","1",""
"","html-keyboard-response","95","28814","0.0-95.0","3OWEPKL08AYSHY92KKRPFJVBJVK7NZ","A345VDWYMDWTGD","3PIOQ99R7Y8STPN46QFY0SD7JTFNU0","","null","<img src=""img/flower2.png"" style=""width:200px; border:14px solid green;"">","null","","","","","","","","",""
"","image-keyboard-response","96","29059","0.0-96.0","3OWEPKL08AYSHY92KKRPFJVBJVK7NZ","A345VDWYMDWTGD","3PIOQ99R7Y8STPN46QFY0SD7JTFNU0","","242.69999980926514","img/flower1.png","76","244.59999990463257","3","1","1","1","1,0.333,0.333,0.333,1,0.333,0.333,0.333,1","1,0.333,0.333,0.333,1,0.333,0.333,0.333,1","1",""
"","html-keyboard-response","97","29364","0.0-97.0","3OWEPKL08AYSHY92KKRPFJVBJVK7NZ","A345VDWYMDWTGD","3PIOQ99R7Y8STPN46QFY0SD7JTFNU0","","null","<img src=""img/flower1.png"" style=""width:200px; border:14px solid green;"">","null","","","","","","","","",""
"","image-keyboard-response","98","29431","0.0-98.0","3OWEPKL08AYSHY92KKRPFJVBJVK7NZ","A345VDWYMDWTGD","3PIOQ99R7Y8STPN46QFY0SD7JTFNU0","","65","img/flower3.png","75","66.2999997138977","2","1","3","1","1,0.333,0.333,0.333,1,0.333,0.333,0.333,1","1,0.333,0.333,0.333,1,0.333,0.333,0.333,1","1",""
"","html-keyboard-response","99","29737","0.0-99.0","3OWEPKL08AYSHY92KKRPFJVBJVK7NZ","A345VDWYMDWTGD","3PIOQ99R7Y8STPN46QFY0SD7JTFNU0","","null","<img src=""img/flower3.png"" style=""width:200px; border:14px solid green;"">","null","","","","","","","","",""
"","image-keyboard-response","100","29819","0.0-100.0","3OWEPKL08AYSHY92KKRPFJVBJVK7NZ","A345VDWYMDWTGD","3PIOQ99R7Y8STPN46QFY0SD7JTFNU0","","80.09999990463257","img/flower2.png","76","81.7999997138977","3","0","2","1","1,0.333,0.333,0.333,1,0.333,0.333,0.333,1","1,0.333,0.333,0.333,1,0.333,0.333,0.333,1","1",""
"","html-keyboard-response","101","30127","0.0-101.0","3OWEPKL08AYSHY92KKRPFJVBJVK7NZ","A345VDWYMDWTGD","3PIOQ99R7Y8STPN46QFY0SD7JTFNU0","","null","<img src=""img/flower2.png"" style=""width:200px;border:14px solid red;"">","null","","","","","","","","",""
"","image-keyboard-response","102","30191","0.0-102.0","3OWEPKL08AYSHY92KKRPFJVBJVK7NZ","A345VDWYMDWTGD","3PIOQ99R7Y8STPN46QFY0SD7JTFNU0","","62.299999713897705","img/flower1.png","74","64","1","1","1","1","1,0.333,0.333,0.333,1,0.333,0.333,0.333,1","1,0.333,0.333,0.333,1,0.333,0.333,0.333,1","1",""
"","html-keyboard-response","103","30499","0.0-103.0","3OWEPKL08AYSHY92KKRPFJVBJVK7NZ","A345VDWYMDWTGD","3PIOQ99R7Y8STPN46QFY0SD7JTFNU0","","null","<img src=""img/flower1.png"" style=""width:200px; border:14px solid green;"">","null","","","","","","","","",""
"","image-keyboard-response","104","30754","0.0-104.0","3OWEPKL08AYSHY92KKRPFJVBJVK7NZ","A345VDWYMDWTGD","3PIOQ99R7Y8STPN46QFY0SD7JTFNU0","","253.40000009536743","img/flower3.png","75","255","2","1","3","1","1,0.333,0.333,0.333,1,0.333,0.333,0.333,1","1,0.333,0.333,0.333,1,0.333,0.333,0.333,1","1",""
"","html-keyboard-response","105","31060","0.0-105.0","3OWEPKL08AYSHY92KKRPFJVBJVK7NZ","A345VDWYMDWTGD","3PIOQ99R7Y8STPN46QFY0SD7JTFNU0","","null","<img src=""img/flower3.png"" style=""width:200px; border:14px solid green;"">","null","","","","","","","","",""
"","image-keyboard-response","106","31213","0.0-106.0","3OWEPKL08AYSHY92KKRPFJVBJVK7NZ","A345VDWYMDWTGD","3PIOQ99R7Y8STPN46QFY0SD7JTFNU0","","151.2999997138977","img/flower3.png","74","152.7999997138977","1","1","3","1","1,0.333,0.333,0.333,1,0.333,0.333,0.333,1","1,0.333,0.333,0.333,1,0.333,0.333,0.333,1","1",""
"","html-keyboard-response","107","31515","0.0-107.0","3OWEPKL08AYSHY92KKRPFJVBJVK7NZ","A345VDWYMDWTGD","3PIOQ99R7Y8STPN46QFY0SD7JTFNU0","","null","<img src=""img/flower3.png"" style=""width:200px; border:14px solid green;"">","null","","","","","","","","",""
"","image-keyboard-response","108","31642","0.0-108.0","3OWEPKL08AYSHY92KKRPFJVBJVK7NZ","A345VDWYMDWTGD","3PIOQ99R7Y8STPN46QFY0SD7JTFNU0","","125.09999990463257","img/flower1.png","75","126.19999980926514","2","0","1","1","1,0.333,0.333,0.333,1,0.333,0.333,0.333,1","1,0.333,0.333,0.333,1,0.333,0.333,0.333,1","1",""
"","html-keyboard-response","109","31949","0.0-109.0","3OWEPKL08AYSHY92KKRPFJVBJVK7NZ","A345VDWYMDWTGD","3PIOQ99R7Y8STPN46QFY0SD7JTFNU0","","null","<img src=""img/flower1.png"" style=""width:200px;border:14px solid red;"">","null","","","","","","","","",""
"","image-keyboard-response","110","32104","0.0-110.0","3OWEPKL08AYSHY92KKRPFJVBJVK7NZ","A345VDWYMDWTGD","3PIOQ99R7Y8STPN46QFY0SD7JTFNU0","","153","img/flower1.png","76","155","3","0","1","1","1,0.333,0.333,0.333,1,0.333,0.333,0.333,1","1,0.333,0.333,0.333,1,0.333,0.333,0.333,1","1",""
"","html-keyboard-response","111","32410","0.0-111.0","3OWEPKL08AYSHY92KKRPFJVBJVK7NZ","A345VDWYMDWTGD","3PIOQ99R7Y8STPN46QFY0SD7JTFNU0","","null","<img src=""img/flower1.png"" style=""width:200px;border:14px solid red;"">","null","","","","","","","","",""
"","image-keyboard-response","112","32865","0.0-112.0","3OWEPKL08AYSHY92KKRPFJVBJVK7NZ","A345VDWYMDWTGD","3PIOQ99R7Y8STPN46QFY0SD7JTFNU0","","453.59999990463257","img/flower1.png","76","454.90000009536743","3","0","1","1","1,0.333,0.333,0.333,1,0.333,0.333,0.333,1","1,0.333,0.333,0.333,1,0.333,0.333,0.333,1","1",""
"","html-keyboard-response","113","33172","0.0-113.0","3OWEPKL08AYSHY92KKRPFJVBJVK7NZ","A345VDWYMDWTGD","3PIOQ99R7Y8STPN46QFY0SD7JTFNU0","","null","<img src=""img/flower1.png"" style=""width:200px;border:14px solid red;"">","null","","","","","","","","",""
"","image-keyboard-response","114","33409","0.0-114.0","3OWEPKL08AYSHY92KKRPFJVBJVK7NZ","A345VDWYMDWTGD","3PIOQ99R7Y8STPN46QFY0SD7JTFNU0","","234.69999980926514","img/flower3.png","74","236.5","1","0","3","1","1,0.333,0.333,0.333,1,0.333,0.333,0.333,1","1,0.333,0.333,0.333,1,0.333,0.333,0.333,1","1",""
"","html-keyboard-response","115","33717","0.0-115.0","3OWEPKL08AYSHY92KKRPFJVBJVK7NZ","A345VDWYMDWTGD","3PIOQ99R7Y8STPN46QFY0SD7JTFNU0","","null","<img src=""img/flower3.png"" style=""width:200px;border:14px solid red;"">","null","","","","","","","","",""
"","image-keyboard-response","116","33919","0.0-116.0","3OWEPKL08AYSHY92KKRPFJVBJVK7NZ","A345VDWYMDWTGD","3PIOQ99R7Y8STPN46QFY0SD7JTFNU0","","200.5","img/flower2.png","75","202.19999980926514","2","1","2","1","1,0.333,0.333,0.333,1,0.333,0.333,0.333,1","1,0.333,0.333,0.333,1,0.333,0.333,0.333,1","1",""
"","html-keyboard-response","117","34226","0.0-117.0","3OWEPKL08AYSHY92KKRPFJVBJVK7NZ","A345VDWYMDWTGD","3PIOQ99R7Y8STPN46QFY0SD7JTFNU0","","null","<img src=""img/flower2.png"" style=""width:200px; border:14px solid green;"">","null","","","","","","","","",""
"","image-keyboard-response","118","34390","0.0-118.0","3OWEPKL08AYSHY92KKRPFJVBJVK7NZ","A345VDWYMDWTGD","3PIOQ99R7Y8STPN46QFY0SD7JTFNU0","","161.7999997138977","img/flower1.png","76","163.60000038146973","3","1","1","1","1,0.333,0.333,0.333,1,0.333,0.333,0.333,1","1,0.333,0.333,0.333,1,0.333,0.333,0.333,1","1",""
"","html-keyboard-response","119","34696","0.0-119.0","3OWEPKL08AYSHY92KKRPFJVBJVK7NZ","A345VDWYMDWTGD","3PIOQ99R7Y8STPN46QFY0SD7JTFNU0","","null","<img src=""img/flower1.png"" style=""width:200px; border:14px solid green;"">","null","","","","","","","","",""
"","image-keyboard-response","120","34827","0.0-120.0","3OWEPKL08AYSHY92KKRPFJVBJVK7NZ","A345VDWYMDWTGD","3PIOQ99R7Y8STPN46QFY0SD7JTFNU0","","129.7999997138977","img/flower2.png","75","131.40000009536743","2","1","2","1","1,0.333,0.333,0.333,1,0.333,0.333,0.333,1","1,0.333,0.333,0.333,1,0.333,0.333,0.333,1","1",""
"","html-keyboard-response","121","35131","0.0-121.0","3OWEPKL08AYSHY92KKRPFJVBJVK7NZ","A345VDWYMDWTGD","3PIOQ99R7Y8STPN46QFY0SD7JTFNU0","","null","<img src=""img/flower2.png"" style=""width:200px; border:14px solid green;"">","null","","","","","","","","",""
"","image-keyboard-response","122","35236","0.0-122.0","3OWEPKL08AYSHY92KKRPFJVBJVK7NZ","A345VDWYMDWTGD","3PIOQ99R7Y8STPN46QFY0SD7JTFNU0","","102.5","img/flower2.png","76","104.19999980926514","3","0","2","1","1,0.333,0.333,0.333,1,0.333,0.333,0.333,1","1,0.333,0.333,0.333,1,0.333,0.333,0.333,1","1",""
"","html-keyboard-response","123","35543","0.0-123.0","3OWEPKL08AYSHY92KKRPFJVBJVK7NZ","A345VDWYMDWTGD","3PIOQ99R7Y8STPN46QFY0SD7JTFNU0","","null","<img src=""img/flower2.png"" style=""width:200px;border:14px solid red;"">","null","","","","","","","","",""
"","image-keyboard-response","124","35683","0.0-124.0","3OWEPKL08AYSHY92KKRPFJVBJVK7NZ","A345VDWYMDWTGD","3PIOQ99R7Y8STPN46QFY0SD7JTFNU0","","137.90000009536743","img/flower2.png","75","139.59999990463257","2","1","2","1","1,0.333,0.333,0.333,1,0.333,0.333,0.333,1","1,0.333,0.333,0.333,1,0.333,0.333,0.333,1","1",""
"","html-keyboard-response","125","35990","0.0-125.0","3OWEPKL08AYSHY92KKRPFJVBJVK7NZ","A345VDWYMDWTGD","3PIOQ99R7Y8STPN46QFY0SD7JTFNU0","","null","<img src=""img/flower2.png"" style=""width:200px; border:14px solid green;"">","null","","","","","","","","",""
"","image-keyboard-response","126","36087","0.0-126.0","3OWEPKL08AYSHY92KKRPFJVBJVK7NZ","A345VDWYMDWTGD","3PIOQ99R7Y8STPN46QFY0SD7JTFNU0","","94.40000009536743","img/flower1.png","76","96.09999990463257","3","0","1","1","1,0.333,0.333,0.333,1,0.333,0.333,0.333,1","1,0.333,0.333,0.333,1,0.333,0.333,0.333,1","1",""
"","html-keyboard-response","127","36394","0.0-127.0","3OWEPKL08AYSHY92KKRPFJVBJVK7NZ","A345VDWYMDWTGD","3PIOQ99R7Y8STPN46QFY0SD7JTFNU0","","null","<img src=""img/flower1.png"" style=""width:200px;border:14px solid red;"">","null","","","","","","","","",""
"","image-keyboard-response","128","36568","0.0-128.0","3OWEPKL08AYSHY92KKRPFJVBJVK7NZ","A345VDWYMDWTGD","3PIOQ99R7Y8STPN46QFY0SD7JTFNU0","","171.40000009536743","img/flower3.png","75","173.19999980926514","2","0","3","1","1,0.333,0.333,0.333,1,0.333,0.333,0.333,1","1,0.333,0.333,0.333,1,0.333,0.333,0.333,1","1",""
"","html-keyboard-response","129","36875","0.0-129.0","3OWEPKL08AYSHY92KKRPFJVBJVK7NZ","A345VDWYMDWTGD","3PIOQ99R7Y8STPN46QFY0SD7JTFNU0","","null","<img src=""img/flower3.png"" style=""width:200px;border:14px solid red;"">","null","","","","","","","","",""
"","image-keyboard-response","130","36963","0.0-130.0","3OWEPKL08AYSHY92KKRPFJVBJVK7NZ","A345VDWYMDWTGD","3PIOQ99R7Y8STPN46QFY0SD7JTFNU0","","87.09999990463257","img/flower2.png","75","87.69999980926514","2","1","2","1","1,0.333,0.333,0.333,1,0.333,0.333,0.333,1","1,0.333,0.333,0.333,1,0.333,0.333,0.333,1","1",""
"","html-keyboard-response","131","37269","0.0-131.0","3OWEPKL08AYSHY92KKRPFJVBJVK7NZ","A345VDWYMDWTGD","3PIOQ99R7Y8STPN46QFY0SD7JTFNU0","","null","<img src=""img/flower2.png"" style=""width:200px; border:14px solid green;"">","null","","","","","","","","",""
"","image-keyboard-response","132","37356","0.0-132.0","3OWEPKL08AYSHY92KKRPFJVBJVK7NZ","A345VDWYMDWTGD","3PIOQ99R7Y8STPN46QFY0SD7JTFNU0","","86.40000009536743","img/flower2.png","74","86.7999997138977","1","0","2","1","1,0.333,0.333,0.333,1,0.333,0.333,0.333,1","1,0.333,0.333,0.333,1,0.333,0.333,0.333,1","1",""
"","html-keyboard-response","133","37663","0.0-133.0","3OWEPKL08AYSHY92KKRPFJVBJVK7NZ","A345VDWYMDWTGD","3PIOQ99R7Y8STPN46QFY0SD7JTFNU0","","null","<img src=""img/flower2.png"" style=""width:200px;border:14px solid red;"">","null","","","","","","","","",""
"","image-keyboard-response","134","37796","0.0-134.0","3OWEPKL08AYSHY92KKRPFJVBJVK7NZ","A345VDWYMDWTGD","3PIOQ99R7Y8STPN46QFY0SD7JTFNU0","","132.5","img/flower3.png","75","133.5","2","0","3","1","1,0.333,0.333,0.333,1,0.333,0.333,0.333,1","1,0.333,0.333,0.333,1,0.333,0.333,0.333,1","1",""
"","html-keyboard-response","135","38103","0.0-135.0","3OWEPKL08AYSHY92KKRPFJVBJVK7NZ","A345VDWYMDWTGD","3PIOQ99R7Y8STPN46QFY0SD7JTFNU0","","null","<img src=""img/flower3.png"" style=""width:200px;border:14px solid red;"">","null","","","","","","","","",""
"","image-keyboard-response","136","38173","0.0-136.0","3OWEPKL08AYSHY92KKRPFJVBJVK7NZ","A345VDWYMDWTGD","3PIOQ99R7Y8STPN46QFY0SD7JTFNU0","","68","img/flower3.png","76","69.90000009536743","3","1","3","1","1,0.333,0.333,0.333,1,0.333,0.333,0.333,1","1,0.333,0.333,0.333,1,0.333,0.333,0.333,1","1",""
"","html-keyboard-response","137","38481","0.0-137.0","3OWEPKL08AYSHY92KKRPFJVBJVK7NZ","A345VDWYMDWTGD","3PIOQ99R7Y8STPN46QFY0SD7JTFNU0","","null","<img src=""img/flower3.png"" style=""width:200px; border:14px solid green;"">","null","","","","","","","","",""
"","image-keyboard-response","138","38684","0.0-138.0","3OWEPKL08AYSHY92KKRPFJVBJVK7NZ","A345VDWYMDWTGD","3PIOQ99R7Y8STPN46QFY0SD7JTFNU0","","200.7999997138977","img/flower3.png","75","202.7000002861023","2","0","3","1","1,0.333,0.333,0.333,1,0.333,0.333,0.333,1","1,0.333,0.333,0.333,1,0.333,0.333,0.333,1","1",""
"","html-keyboard-response","139","38992","0.0-139.0","3OWEPKL08AYSHY92KKRPFJVBJVK7NZ","A345VDWYMDWTGD","3PIOQ99R7Y8STPN46QFY0SD7JTFNU0","","null","<img src=""img/flower3.png"" style=""width:200px;border:14px solid red;"">","null","","","","","","","","",""
"","image-keyboard-response","140","39062","0.0-140.0","3OWEPKL08AYSHY92KKRPFJVBJVK7NZ","A345VDWYMDWTGD","3PIOQ99R7Y8STPN46QFY0SD7JTFNU0","","67.90000009536743","img/flower1.png","76","69.90000009536743","3","0","1","1","1,0.333,0.333,0.333,1,0.333,0.333,0.333,1","1,0.333,0.333,0.333,1,0.333,0.333,0.333,1","1",""
"","html-keyboard-response","141","39368","0.0-141.0","3OWEPKL08AYSHY92KKRPFJVBJVK7NZ","A345VDWYMDWTGD","3PIOQ99R7Y8STPN46QFY0SD7JTFNU0","","null","<img src=""img/flower1.png"" style=""width:200px;border:14px solid red;"">","null","","","","","","","","",""
"","image-keyboard-response","142","40437","0.0-142.0","3OWEPKL08AYSHY92KKRPFJVBJVK7NZ","A345VDWYMDWTGD","3PIOQ99R7Y8STPN46QFY0SD7JTFNU0","","1067.0999999046326","img/flower2.png","76","1068.9000000953674","3","0","2","1","1,0.333,0.333,0.333,1,0.333,0.333,0.333,1","1,0.333,0.333,0.333,1,0.333,0.333,0.333,1","1",""
"","html-keyboard-response","143","40744","0.0-143.0","3OWEPKL08AYSHY92KKRPFJVBJVK7NZ","A345VDWYMDWTGD","3PIOQ99R7Y8STPN46QFY0SD7JTFNU0","","null","<img src=""img/flower2.png"" style=""width:200px;border:14px solid red;"">","null","","","","","","","","",""
"","image-keyboard-response","144","40835","0.0-144.0","3OWEPKL08AYSHY92KKRPFJVBJVK7NZ","A345VDWYMDWTGD","3PIOQ99R7Y8STPN46QFY0SD7JTFNU0","","89.69999980926514","img/flower1.png","75","91.7000002861023","2","0","1","1","1,0.333,0.333,0.333,1,0.333,0.333,0.333,1","1,0.333,0.333,0.333,1,0.333,0.333,0.333,1","1",""
"","html-keyboard-response","145","41138","0.0-145.0","3OWEPKL08AYSHY92KKRPFJVBJVK7NZ","A345VDWYMDWTGD","3PIOQ99R7Y8STPN46QFY0SD7JTFNU0","","null","<img src=""img/flower1.png"" style=""width:200px;border:14px solid red;"">","null","","","","","","","","",""
"","image-keyboard-response","146","41258","0.0-146.0","3OWEPKL08AYSHY92KKRPFJVBJVK7NZ","A345VDWYMDWTGD","3PIOQ99R7Y8STPN46QFY0SD7JTFNU0","","117.2000002861023","img/flower1.png","74","119.09999990463257","1","1","1","1","1,0.333,0.333,0.333,1,0.333,0.333,0.333,1","1,0.333,0.333,0.333,1,0.333,0.333,0.333,1","1",""
"","html-keyboard-response","147","41565","0.0-147.0","3OWEPKL08AYSHY92KKRPFJVBJVK7NZ","A345VDWYMDWTGD","3PIOQ99R7Y8STPN46QFY0SD7JTFNU0","","null","<img src=""img/flower1.png"" style=""width:200px; border:14px solid green;"">","null","","","","","","","","",""
"","image-keyboard-response","148","41817","0.0-148.0","3OWEPKL08AYSHY92KKRPFJVBJVK7NZ","A345VDWYMDWTGD","3PIOQ99R7Y8STPN46QFY0SD7JTFNU0","","250.2999997138977","img/flower2.png","75","252.19999980926514","2","1","2","1","1,0.333,0.333,0.333,1,0.333,0.333,0.333,1","1,0.333,0.333,0.333,1,0.333,0.333,0.333,1","1",""
"","html-keyboard-response","149","42123","0.0-149.0","3OWEPKL08AYSHY92KKRPFJVBJVK7NZ","A345VDWYMDWTGD","3PIOQ99R7Y8STPN46QFY0SD7JTFNU0","","null","<img src=""img/flower2.png"" style=""width:200px; border:14px solid green;"">","null","","","","","","","","",""
"","image-keyboard-response","150","42334","0.0-150.0","3OWEPKL08AYSHY92KKRPFJVBJVK7NZ","A345VDWYMDWTGD","3PIOQ99R7Y8STPN46QFY0SD7JTFNU0","","208.40000009536743","img/flower1.png","76","210.2999997138977","3","0","1","1","1,0.333,0.333,0.333,1,0.333,0.333,0.333,1","1,0.333,0.333,0.333,1,0.333,0.333,0.333,1","1",""
"","html-keyboard-response","151","42641","0.0-151.0","3OWEPKL08AYSHY92KKRPFJVBJVK7NZ","A345VDWYMDWTGD","3PIOQ99R7Y8STPN46QFY0SD7JTFNU0","","null","<img src=""img/flower1.png"" style=""width:200px;border:14px solid red;"">","null","","","","","","","","",""
"","image-keyboard-response","152","43076","0.0-152.0","3OWEPKL08AYSHY92KKRPFJVBJVK7NZ","A345VDWYMDWTGD","3PIOQ99R7Y8STPN46QFY0SD7JTFNU0","","433.59999990463257","img/flower3.png","75","435.2000002861023","2","1","3","1","1,0.333,0.333,0.333,1,0.333,0.333,0.333,1","1,0.333,0.333,0.333,1,0.333,0.333,0.333,1","1",""
"","html-keyboard-response","153","43384","0.0-153.0","3OWEPKL08AYSHY92KKRPFJVBJVK7NZ","A345VDWYMDWTGD","3PIOQ99R7Y8STPN46QFY0SD7JTFNU0","","null","<img src=""img/flower3.png"" style=""width:200px; border:14px solid green;"">","null","","","","","","","","",""
"","image-keyboard-response","154","43445","0.0-154.0","3OWEPKL08AYSHY92KKRPFJVBJVK7NZ","A345VDWYMDWTGD","3PIOQ99R7Y8STPN46QFY0SD7JTFNU0","","59.19999980926514","img/flower2.png","74","60.89999961853027","1","0","2","1","1,0.333,0.333,0.333,1,0.333,0.333,0.333,1","1,0.333,0.333,0.333,1,0.333,0.333,0.333,1","1",""
"","html-keyboard-response","155","43752","0.0-155.0","3OWEPKL08AYSHY92KKRPFJVBJVK7NZ","A345VDWYMDWTGD","3PIOQ99R7Y8STPN46QFY0SD7JTFNU0","","null","<img src=""img/flower2.png"" style=""width:200px;border:14px solid red;"">","null","","","","","","","","",""
"","image-keyboard-response","156","44018","0.0-156.0","3OWEPKL08AYSHY92KKRPFJVBJVK7NZ","A345VDWYMDWTGD","3PIOQ99R7Y8STPN46QFY0SD7JTFNU0","","263.5","img/flower2.png","76","265.30000019073486","3","1","2","1","1,0.333,0.333,0.333,1,0.333,0.333,0.333,1","1,0.333,0.333,0.333,1,0.333,0.333,0.333,1","1",""
"","html-keyboard-response","157","44325","0.0-157.0","3OWEPKL08AYSHY92KKRPFJVBJVK7NZ","A345VDWYMDWTGD","3PIOQ99R7Y8STPN46QFY0SD7JTFNU0","","null","<img src=""img/flower2.png"" style=""width:200px; border:14px solid green;"">","null","","","","","","","","",""
"","image-keyboard-response","158","44624","0.0-158.0","3OWEPKL08AYSHY92KKRPFJVBJVK7NZ","A345VDWYMDWTGD","3PIOQ99R7Y8STPN46QFY0SD7JTFNU0","","296.40000009536743","img/flower3.png","76","298.19999980926514","3","1","3","1","1,0.333,0.333,0.333,1,0.333,0.333,0.333,1","1,0.333,0.333,0.333,1,0.333,0.333,0.333,1","1",""
"","html-keyboard-response","159","44932","0.0-159.0","3OWEPKL08AYSHY92KKRPFJVBJVK7NZ","A345VDWYMDWTGD","3PIOQ99R7Y8STPN46QFY0SD7JTFNU0","","null","<img src=""img/flower3.png"" style=""width:200px; border:14px solid green;"">","null","","","","","","","","",""
"","image-keyboard-response","160","45023","0.0-160.0","3OWEPKL08AYSHY92KKRPFJVBJVK7NZ","A345VDWYMDWTGD","3PIOQ99R7Y8STPN46QFY0SD7JTFNU0","","89.40000009536743","img/flower1.png","75","90.7000002861023","2","0","1","1","1,0.333,0.333,0.333,1,0.333,0.333,0.333,1","1,0.333,0.333,0.333,1,0.333,0.333,0.333,1","1",""
"","html-keyboard-response","161","45326","0.0-161.0","3OWEPKL08AYSHY92KKRPFJVBJVK7NZ","A345VDWYMDWTGD","3PIOQ99R7Y8STPN46QFY0SD7JTFNU0","","null","<img src=""img/flower1.png"" style=""width:200px;border:14px solid red;"">","null","","","","","","","","",""
"","image-keyboard-response","162","45847","0.0-162.0","3OWEPKL08AYSHY92KKRPFJVBJVK7NZ","A345VDWYMDWTGD","3PIOQ99R7Y8STPN46QFY0SD7JTFNU0","","519.3000001907349","img/flower2.png","75","520.7999997138977","2","1","2","1","1,0.333,0.333,0.333,1,0.333,0.333,0.333,1","1,0.333,0.333,0.333,1,0.333,0.333,0.333,1","1",""
"","html-keyboard-response","163","46154","0.0-163.0","3OWEPKL08AYSHY92KKRPFJVBJVK7NZ","A345VDWYMDWTGD","3PIOQ99R7Y8STPN46QFY0SD7JTFNU0","","null","<img src=""img/flower2.png"" style=""width:200px; border:14px solid green;"">","null","","","","","","","","",""
"","image-keyboard-response","164","46197","0.0-164.0","3OWEPKL08AYSHY92KKRPFJVBJVK7NZ","A345VDWYMDWTGD","3PIOQ99R7Y8STPN46QFY0SD7JTFNU0","","42.59999990463257","img/flower3.png","76","43.19999980926514","3","1","3","1","1,0.333,0.333,0.333,1,0.333,0.333,0.333,1","1,0.333,0.333,0.333,1,0.333,0.333,0.333,1","1",""
"","html-keyboard-response","165","46504","0.0-165.0","3OWEPKL08AYSHY92KKRPFJVBJVK7NZ","A345VDWYMDWTGD","3PIOQ99R7Y8STPN46QFY0SD7JTFNU0","","null","<img src=""img/flower3.png"" style=""width:200px; border:14px solid green;"">","null","","","","","","","","",""
"","image-keyboard-response","166","46668","0.0-166.0","3OWEPKL08AYSHY92KKRPFJVBJVK7NZ","A345VDWYMDWTGD","3PIOQ99R7Y8STPN46QFY0SD7JTFNU0","","162","img/flower2.png","75","163.80000019073486","2","1","2","1","1,0.333,0.333,0.333,1,0.333,0.333,0.333,1","1,0.333,0.333,0.333,1,0.333,0.333,0.333,1","1",""
"","html-keyboard-response","167","46975","0.0-167.0","3OWEPKL08AYSHY92KKRPFJVBJVK7NZ","A345VDWYMDWTGD","3PIOQ99R7Y8STPN46QFY0SD7JTFNU0","","null","<img src=""img/flower2.png"" style=""width:200px; border:14px solid green;"">","null","","","","","","","","",""
"","image-keyboard-response","168","47152","0.0-168.0","3OWEPKL08AYSHY92KKRPFJVBJVK7NZ","A345VDWYMDWTGD","3PIOQ99R7Y8STPN46QFY0SD7JTFNU0","","175.90000009536743","img/flower1.png","76","176.5","3","0","1","1","1,0.333,0.333,0.333,1,0.333,0.333,0.333,1","1,0.333,0.333,0.333,1,0.333,0.333,0.333,1","1",""
"","html-keyboard-response","169","47459","0.0-169.0","3OWEPKL08AYSHY92KKRPFJVBJVK7NZ","A345VDWYMDWTGD","3PIOQ99R7Y8STPN46QFY0SD7JTFNU0","","null","<img src=""img/flower1.png"" style=""width:200px;border:14px solid red;"">","null","","","","","","","","",""
"","image-keyboard-response","170","47853","0.0-170.0","3OWEPKL08AYSHY92KKRPFJVBJVK7NZ","A345VDWYMDWTGD","3PIOQ99R7Y8STPN46QFY0SD7JTFNU0","","392.2000002861023","img/flower3.png","76","393.80000019073486","3","1","3","1","1,0.333,0.333,0.333,1,0.333,0.333,0.333,1","1,0.333,0.333,0.333,1,0.333,0.333,0.333,1","1",""
"","html-keyboard-response","171","48160","0.0-171.0","3OWEPKL08AYSHY92KKRPFJVBJVK7NZ","A345VDWYMDWTGD","3PIOQ99R7Y8STPN46QFY0SD7JTFNU0","","null","<img src=""img/flower3.png"" style=""width:200px; border:14px solid green;"">","null","","","","","","","","",""
"","image-keyboard-response","172","48185","0.0-172.0","3OWEPKL08AYSHY92KKRPFJVBJVK7NZ","A345VDWYMDWTGD","3PIOQ99R7Y8STPN46QFY0SD7JTFNU0","","22.699999809265137","img/flower3.png","75","24.299999713897705","2","1","3","1","1,0.333,0.333,0.333,1,0.333,0.333,0.333,1","1,0.333,0.333,0.333,1,0.333,0.333,0.333,1","1",""
"","html-keyboard-response","173","48491","0.0-173.0","3OWEPKL08AYSHY92KKRPFJVBJVK7NZ","A345VDWYMDWTGD","3PIOQ99R7Y8STPN46QFY0SD7JTFNU0","","null","<img src=""img/flower3.png"" style=""width:200px; border:14px solid green;"">","null","","","","","","","","",""
"","image-keyboard-response","174","48709","0.0-174.0","3OWEPKL08AYSHY92KKRPFJVBJVK7NZ","A345VDWYMDWTGD","3PIOQ99R7Y8STPN46QFY0SD7JTFNU0","","215.7999997138977","img/flower3.png","76","217.69999980926514","3","1","3","1","1,0.333,0.333,0.333,1,0.333,0.333,0.333,1","1,0.333,0.333,0.333,1,0.333,0.333,0.333,1","1",""
"","html-keyboard-response","175","49017","0.0-175.0","3OWEPKL08AYSHY92KKRPFJVBJVK7NZ","A345VDWYMDWTGD","3PIOQ99R7Y8STPN46QFY0SD7JTFNU0","","null","<img src=""img/flower3.png"" style=""width:200px; border:14px solid green;"">","null","","","","","","","","",""
"","image-keyboard-response","176","49392","0.0-176.0","3OWEPKL08AYSHY92KKRPFJVBJVK7NZ","A345VDWYMDWTGD","3PIOQ99R7Y8STPN46QFY0SD7JTFNU0","","373.3999996185303","img/flower2.png","76","375.09999990463257","3","1","2","1","1,0.333,0.333,0.333,1,0.333,0.333,0.333,1","1,0.333,0.333,0.333,1,0.333,0.333,0.333,1","1",""
"","html-keyboard-response","177","49700","0.0-177.0","3OWEPKL08AYSHY92KKRPFJVBJVK7NZ","A345VDWYMDWTGD","3PIOQ99R7Y8STPN46QFY0SD7JTFNU0","","null","<img src=""img/flower2.png"" style=""width:200px; border:14px solid green;"">","null","","","","","","","","",""
"","image-keyboard-response","178","49827","0.0-178.0","3OWEPKL08AYSHY92KKRPFJVBJVK7NZ","A345VDWYMDWTGD","3PIOQ99R7Y8STPN46QFY0SD7JTFNU0","","125.10000038146973","img/flower2.png","76","126.90000009536743","3","0","2","1","1,0.333,0.333,0.333,1,0.333,0.333,0.333,1","1,0.333,0.333,0.333,1,0.333,0.333,0.333,1","1",""
"","html-keyboard-response","179","50135","0.0-179.0","3OWEPKL08AYSHY92KKRPFJVBJVK7NZ","A345VDWYMDWTGD","3PIOQ99R7Y8STPN46QFY0SD7JTFNU0","","null","<img src=""img/flower2.png"" style=""width:200px;border:14px solid red;"">","null","","","","","","","","",""
"","image-keyboard-response","180","50278","0.0-180.0","3OWEPKL08AYSHY92KKRPFJVBJVK7NZ","A345VDWYMDWTGD","3PIOQ99R7Y8STPN46QFY0SD7JTFNU0","","140.69999980926514","img/flower1.png","76","142.59999990463257","3","0","1","1","1,0.333,0.333,0.333,1,0.333,0.333,0.333,1","1,0.333,0.333,0.333,1,0.333,0.333,0.333,1","1",""
"","html-keyboard-response","181","50586","0.0-181.0","3OWEPKL08AYSHY92KKRPFJVBJVK7NZ","A345VDWYMDWTGD","3PIOQ99R7Y8STPN46QFY0SD7JTFNU0","","null","<img src=""img/flower1.png"" style=""width:200px;border:14px solid red;"">","null","","","","","","","","",""
"","html-keyboard-response","182","52667","0.0-182.0","3OWEPKL08AYSHY92KKRPFJVBJVK7NZ","A345VDWYMDWTGD","3PIOQ99R7Y8STPN46QFY0SD7JTFNU0","","","","","","","","","","","","",""
"","image-keyboard-response","183","53738","0.0-183.0","3OWEPKL08AYSHY92KKRPFJVBJVK7NZ","A345VDWYMDWTGD","3PIOQ99R7Y8STPN46QFY0SD7JTFNU0","","1069.4000000953674","img/flower6.png","75","1071.2000002861023","2","0","2","2","1,0,0,1,1,0,1,0,1","0,0,1,1,0,1,0,1,1","2",""
"","html-keyboard-response","184","54045","0.0-184.0","3OWEPKL08AYSHY92KKRPFJVBJVK7NZ","A345VDWYMDWTGD","3PIOQ99R7Y8STPN46QFY0SD7JTFNU0","","null","<img src=""img/flower6.png"" style=""width:200px;border:14px solid red;"">","null","","","","","","","","",""
"","image-keyboard-response","185","54093","0.0-185.0","3OWEPKL08AYSHY92KKRPFJVBJVK7NZ","A345VDWYMDWTGD","3PIOQ99R7Y8STPN46QFY0SD7JTFNU0","","45.69999980926514","img/flower6.png","74","47.69999980926514","1","1","2","2","1,0,0,1,1,0,1,0,1","0,0,1,1,0,1,0,1,1","2",""
"","html-keyboard-response","186","54400","0.0-186.0","3OWEPKL08AYSHY92KKRPFJVBJVK7NZ","A345VDWYMDWTGD","3PIOQ99R7Y8STPN46QFY0SD7JTFNU0","","null","<img src=""img/flower6.png"" style=""width:200px; border:14px solid green;"">","null","","","","","","","","",""
"","image-keyboard-response","187","54484","0.0-187.0","3OWEPKL08AYSHY92KKRPFJVBJVK7NZ","A345VDWYMDWTGD","3PIOQ99R7Y8STPN46QFY0SD7JTFNU0","","82.09999990463257","img/flower5.png","76","83.69999980926514","3","1","1","2","1,0,0,1,1,0,1,0,1","0,0,1,1,0,1,0,1,1","2",""
"","html-keyboard-response","188","54791","0.0-188.0","3OWEPKL08AYSHY92KKRPFJVBJVK7NZ","A345VDWYMDWTGD","3PIOQ99R7Y8STPN46QFY0SD7JTFNU0","","null","<img src=""img/flower5.png"" style=""width:200px; border:14px solid green;"">","null","","","","","","","","",""
"","image-keyboard-response","189","54893","0.0-189.0","3OWEPKL08AYSHY92KKRPFJVBJVK7NZ","A345VDWYMDWTGD","3PIOQ99R7Y8STPN46QFY0SD7JTFNU0","","100.30000019073486","img/flower4.png","76","101.5","3","1","3","2","1,0,0,1,1,0,1,0,1","0,0,1,1,0,1,0,1,1","2",""
"","html-keyboard-response","190","55200","0.0-190.0","3OWEPKL08AYSHY92KKRPFJVBJVK7NZ","A345VDWYMDWTGD","3PIOQ99R7Y8STPN46QFY0SD7JTFNU0","","null","<img src=""img/flower4.png"" style=""width:200px; border:14px solid green;"">","null","","","","","","","","",""
"","image-keyboard-response","191","55299","0.0-191.0","3OWEPKL08AYSHY92KKRPFJVBJVK7NZ","A345VDWYMDWTGD","3PIOQ99R7Y8STPN46QFY0SD7JTFNU0","","97.40000009536743","img/flower4.png","75","99.19999980926514","2","1","3","2","1,0,0,1,1,0,1,0,1","0,0,1,1,0,1,0,1,1","2",""
"","html-keyboard-response","192","55607","0.0-192.0","3OWEPKL08AYSHY92KKRPFJVBJVK7NZ","A345VDWYMDWTGD","3PIOQ99R7Y8STPN46QFY0SD7JTFNU0","","null","<img src=""img/flower4.png"" style=""width:200px; border:14px solid green;"">","null","","","","","","","","",""
"","image-keyboard-response","193","55968","0.0-193.0","3OWEPKL08AYSHY92KKRPFJVBJVK7NZ","A345VDWYMDWTGD","3PIOQ99R7Y8STPN46QFY0SD7JTFNU0","","358.40000009536743","img/flower5.png","76","360.2999997138977","3","1","1","2","1,0,0,1,1,0,1,0,1","0,0,1,1,0,1,0,1,1","2",""
"","html-keyboard-response","194","56275","0.0-194.0","3OWEPKL08AYSHY92KKRPFJVBJVK7NZ","A345VDWYMDWTGD","3PIOQ99R7Y8STPN46QFY0SD7JTFNU0","","null","<img src=""img/flower5.png"" style=""width:200px; border:14px solid green;"">","null","","","","","","","","",""
"","image-keyboard-response","195","56391","0.0-195.0","3OWEPKL08AYSHY92KKRPFJVBJVK7NZ","A345VDWYMDWTGD","3PIOQ99R7Y8STPN46QFY0SD7JTFNU0","","114.40000009536743","img/flower4.png","76","116","3","1","3","2","1,0,0,1,1,0,1,0,1","0,0,1,1,0,1,0,1,1","2",""
"","html-keyboard-response","196","56699","0.0-196.0","3OWEPKL08AYSHY92KKRPFJVBJVK7NZ","A345VDWYMDWTGD","3PIOQ99R7Y8STPN46QFY0SD7JTFNU0","","null","<img src=""img/flower4.png"" style=""width:200px; border:14px solid green;"">","null","","","","","","","","",""
"","image-keyboard-response","197","56707","0.0-197.0","3OWEPKL08AYSHY92KKRPFJVBJVK7NZ","A345VDWYMDWTGD","3PIOQ99R7Y8STPN46QFY0SD7JTFNU0","","6.400000095367432","img/flower4.png","75","7.699999809265137","2","1","3","2","1,0,0,1,1,0,1,0,1","0,0,1,1,0,1,0,1,1","2",""
"","html-keyboard-response","198","57013","0.0-198.0","3OWEPKL08AYSHY92KKRPFJVBJVK7NZ","A345VDWYMDWTGD","3PIOQ99R7Y8STPN46QFY0SD7JTFNU0","","null","<img src=""img/flower4.png"" style=""width:200px; border:14px solid green;"">","null","","","","","","","","",""
"","image-keyboard-response","199","57081","0.0-199.0","3OWEPKL08AYSHY92KKRPFJVBJVK7NZ","A345VDWYMDWTGD","3PIOQ99R7Y8STPN46QFY0SD7JTFNU0","","65.90000009536743","img/flower5.png","74","67.69999980926514","1","0","1","2","1,0,0,1,1,0,1,0,1","0,0,1,1,0,1,0,1,1","2",""
"","html-keyboard-response","200","57389","0.0-200.0","3OWEPKL08AYSHY92KKRPFJVBJVK7NZ","A345VDWYMDWTGD","3PIOQ99R7Y8STPN46QFY0SD7JTFNU0","","null","<img src=""img/flower5.png"" style=""width:200px;border:14px solid red;"">","null","","","","","","","","",""
"","image-keyboard-response","201","57445","0.0-201.0","3OWEPKL08AYSHY92KKRPFJVBJVK7NZ","A345VDWYMDWTGD","3PIOQ99R7Y8STPN46QFY0SD7JTFNU0","","54.30000019073486","img/flower4.png","76","56.19999980926514","3","1","3","2","1,0,0,1,1,0,1,0,1","0,0,1,1,0,1,0,1,1","2",""
"","html-keyboard-response","202","57752","0.0-202.0","3OWEPKL08AYSHY92KKRPFJVBJVK7NZ","A345VDWYMDWTGD","3PIOQ99R7Y8STPN46QFY0SD7JTFNU0","","null","<img src=""img/flower4.png"" style=""width:200px; border:14px solid green;"">","null","","","","","","","","",""
"","image-keyboard-response","203","57861","0.0-203.0","3OWEPKL08AYSHY92KKRPFJVBJVK7NZ","A345VDWYMDWTGD","3PIOQ99R7Y8STPN46QFY0SD7JTFNU0","","106.69999980926514","img/flower5.png","76","108.5","3","1","1","2","1,0,0,1,1,0,1,0,1","0,0,1,1,0,1,0,1,1","2",""
"","html-keyboard-response","204","58168","0.0-204.0","3OWEPKL08AYSHY92KKRPFJVBJVK7NZ","A345VDWYMDWTGD","3PIOQ99R7Y8STPN46QFY0SD7JTFNU0","","null","<img src=""img/flower5.png"" style=""width:200px; border:14px solid green;"">","null","","","","","","","","",""
"","image-keyboard-response","205","58191","0.0-205.0","3OWEPKL08AYSHY92KKRPFJVBJVK7NZ","A345VDWYMDWTGD","3PIOQ99R7Y8STPN46QFY0SD7JTFNU0","","20.199999809265137","img/flower5.png","75","21.5","2","0","1","2","1,0,0,1,1,0,1,0,1","0,0,1,1,0,1,0,1,1","2",""
"","html-keyboard-response","206","58497","0.0-206.0","3OWEPKL08AYSHY92KKRPFJVBJVK7NZ","A345VDWYMDWTGD","3PIOQ99R7Y8STPN46QFY0SD7JTFNU0","","null","<img src=""img/flower5.png"" style=""width:200px;border:14px solid red;"">","null","","","","","","","","",""
"","image-keyboard-response","207","58530","0.0-207.0","3OWEPKL08AYSHY92KKRPFJVBJVK7NZ","A345VDWYMDWTGD","3PIOQ99R7Y8STPN46QFY0SD7JTFNU0","","30.59999990463257","img/flower6.png","74","32.40000009536743","1","1","2","2","1,0,0,1,1,0,1,0,1","0,0,1,1,0,1,0,1,1","2",""
"","html-keyboard-response","208","58834","0.0-208.0","3OWEPKL08AYSHY92KKRPFJVBJVK7NZ","A345VDWYMDWTGD","3PIOQ99R7Y8STPN46QFY0SD7JTFNU0","","null","<img src=""img/flower6.png"" style=""width:200px; border:14px solid green;"">","null","","","","","","","","",""
"","image-keyboard-response","209","59174","0.0-209.0","3OWEPKL08AYSHY92KKRPFJVBJVK7NZ","A345VDWYMDWTGD","3PIOQ99R7Y8STPN46QFY0SD7JTFNU0","","338.30000019073486","img/flower5.png","75","339.5","2","0","1","2","1,0,0,1,1,0,1,0,1","0,0,1,1,0,1,0,1,1","2",""
"","html-keyboard-response","210","59481","0.0-210.0","3OWEPKL08AYSHY92KKRPFJVBJVK7NZ","A345VDWYMDWTGD","3PIOQ99R7Y8STPN46QFY0SD7JTFNU0","","null","<img src=""img/flower5.png"" style=""width:200px;border:14px solid red;"">","null","","","","","","","","",""
"","image-keyboard-response","211","59629","0.0-211.0","3OWEPKL08AYSHY92KKRPFJVBJVK7NZ","A345VDWYMDWTGD","3PIOQ99R7Y8STPN46QFY0SD7JTFNU0","","145.59999990463257","img/flower6.png","75","147.59999990463257","2","0","2","2","1,0,0,1,1,0,1,0,1","0,0,1,1,0,1,0,1,1","2",""
"","html-keyboard-response","212","59932","0.0-212.0","3OWEPKL08AYSHY92KKRPFJVBJVK7NZ","A345VDWYMDWTGD","3PIOQ99R7Y8STPN46QFY0SD7JTFNU0","","null","<img src=""img/flower6.png"" style=""width:200px;border:14px solid red;"">","null","","","","","","","","",""
"","image-keyboard-response","213","60328","0.0-213.0","3OWEPKL08AYSHY92KKRPFJVBJVK7NZ","A345VDWYMDWTGD","3PIOQ99R7Y8STPN46QFY0SD7JTFNU0","","394.40000009536743","img/flower5.png","75","396.09999990463257","2","0","1","2","1,0,0,1,1,0,1,0,1","0,0,1,1,0,1,0,1,1","2",""
"","html-keyboard-response","214","60636","0.0-214.0","3OWEPKL08AYSHY92KKRPFJVBJVK7NZ","A345VDWYMDWTGD","3PIOQ99R7Y8STPN46QFY0SD7JTFNU0","","null","<img src=""img/flower5.png"" style=""width:200px;border:14px solid red;"">","null","","","","","","","","",""
"","image-keyboard-response","215","60649","0.0-215.0","3OWEPKL08AYSHY92KKRPFJVBJVK7NZ","A345VDWYMDWTGD","3PIOQ99R7Y8STPN46QFY0SD7JTFNU0","","10.699999809265137","img/flower4.png","74","12.400000095367432","1","0","3","2","1,0,0,1,1,0,1,0,1","0,0,1,1,0,1,0,1,1","2",""
"","html-keyboard-response","216","60956","0.0-216.0","3OWEPKL08AYSHY92KKRPFJVBJVK7NZ","A345VDWYMDWTGD","3PIOQ99R7Y8STPN46QFY0SD7JTFNU0","","null","<img src=""img/flower4.png"" style=""width:200px;border:14px solid red;"">","null","","","","","","","","",""
"","image-keyboard-response","217","61153","0.0-217.0","3OWEPKL08AYSHY92KKRPFJVBJVK7NZ","A345VDWYMDWTGD","3PIOQ99R7Y8STPN46QFY0SD7JTFNU0","","194.30000019073486","img/flower6.png","74","196","1","1","2","2","1,0,0,1,1,0,1,0,1","0,0,1,1,0,1,0,1,1","2",""
"","html-keyboard-response","218","61457","0.0-218.0","3OWEPKL08AYSHY92KKRPFJVBJVK7NZ","A345VDWYMDWTGD","3PIOQ99R7Y8STPN46QFY0SD7JTFNU0","","null","<img src=""img/flower6.png"" style=""width:200px; border:14px solid green;"">","null","","","","","","","","",""
"","image-keyboard-response","219","61568","0.0-219.0","3OWEPKL08AYSHY92KKRPFJVBJVK7NZ","A345VDWYMDWTGD","3PIOQ99R7Y8STPN46QFY0SD7JTFNU0","","108.5","img/flower4.png","74","110.30000019073486","1","0","3","2","1,0,0,1,1,0,1,0,1","0,0,1,1,0,1,0,1,1","2",""
"","html-keyboard-response","220","61875","0.0-220.0","3OWEPKL08AYSHY92KKRPFJVBJVK7NZ","A345VDWYMDWTGD","3PIOQ99R7Y8STPN46QFY0SD7JTFNU0","","null","<img src=""img/flower4.png"" style=""width:200px;border:14px solid red;"">","null","","","","","","","","",""
"","image-keyboard-response","221","61928","0.0-221.0","3OWEPKL08AYSHY92KKRPFJVBJVK7NZ","A345VDWYMDWTGD","3PIOQ99R7Y8STPN46QFY0SD7JTFNU0","","52.200000286102295","img/flower4.png","75","52.799999713897705","2","1","3","2","1,0,0,1,1,0,1,0,1","0,0,1,1,0,1,0,1,1","2",""
"","html-keyboard-response","222","62235","0.0-222.0","3OWEPKL08AYSHY92KKRPFJVBJVK7NZ","A345VDWYMDWTGD","3PIOQ99R7Y8STPN46QFY0SD7JTFNU0","","null","<img src=""img/flower4.png"" style=""width:200px; border:14px solid green;"">","null","","","","","","","","",""
"","image-keyboard-response","223","62269","0.0-223.0","3OWEPKL08AYSHY92KKRPFJVBJVK7NZ","A345VDWYMDWTGD","3PIOQ99R7Y8STPN46QFY0SD7JTFNU0","","32.700000286102295","img/flower5.png","76","34.59999990463257","3","1","1","2","1,0,0,1,1,0,1,0,1","0,0,1,1,0,1,0,1,1","2",""
"","html-keyboard-response","224","62577","0.0-224.0","3OWEPKL08AYSHY92KKRPFJVBJVK7NZ","A345VDWYMDWTGD","3PIOQ99R7Y8STPN46QFY0SD7JTFNU0","","null","<img src=""img/flower5.png"" style=""width:200px; border:14px solid green;"">","null","","","","","","","","",""
"","image-keyboard-response","225","62741","0.0-225.0","3OWEPKL08AYSHY92KKRPFJVBJVK7NZ","A345VDWYMDWTGD","3PIOQ99R7Y8STPN46QFY0SD7JTFNU0","","161.09999990463257","img/flower6.png","76","162.90000009536743","3","1","2","2","1,0,0,1,1,0,1,0,1","0,0,1,1,0,1,0,1,1","2",""
"","html-keyboard-response","226","63048","0.0-226.0","3OWEPKL08AYSHY92KKRPFJVBJVK7NZ","A345VDWYMDWTGD","3PIOQ99R7Y8STPN46QFY0SD7JTFNU0","","null","<img src=""img/flower6.png"" style=""width:200px; border:14px solid green;"">","null","","","","","","","","",""
"","image-keyboard-response","227","63184","0.0-227.0","3OWEPKL08AYSHY92KKRPFJVBJVK7NZ","A345VDWYMDWTGD","3PIOQ99R7Y8STPN46QFY0SD7JTFNU0","","133.40000009536743","img/flower4.png","76","135.30000019073486","3","1","3","2","1,0,0,1,1,0,1,0,1","0,0,1,1,0,1,0,1,1","2",""
"","html-keyboard-response","228","63492","0.0-228.0","3OWEPKL08AYSHY92KKRPFJVBJVK7NZ","A345VDWYMDWTGD","3PIOQ99R7Y8STPN46QFY0SD7JTFNU0","","null","<img src=""img/flower4.png"" style=""width:200px; border:14px solid green;"">","null","","","","","","","","",""
"","image-keyboard-response","229","63739","0.0-229.0","3OWEPKL08AYSHY92KKRPFJVBJVK7NZ","A345VDWYMDWTGD","3PIOQ99R7Y8STPN46QFY0SD7JTFNU0","","245.30000019073486","img/flower5.png","76","247","3","1","1","2","1,0,0,1,1,0,1,0,1","0,0,1,1,0,1,0,1,1","2",""
"","html-keyboard-response","230","64046","0.0-230.0","3OWEPKL08AYSHY92KKRPFJVBJVK7NZ","A345VDWYMDWTGD","3PIOQ99R7Y8STPN46QFY0SD7JTFNU0","","null","<img src=""img/flower5.png"" style=""width:200px; border:14px solid green;"">","null","","","","","","","","",""
"","image-keyboard-response","231","64079","0.0-231.0","3OWEPKL08AYSHY92KKRPFJVBJVK7NZ","A345VDWYMDWTGD","3PIOQ99R7Y8STPN46QFY0SD7JTFNU0","","30.5","img/flower4.png","76","32.200000286102295","3","1","3","2","1,0,0,1,1,0,1,0,1","0,0,1,1,0,1,0,1,1","2",""
"","html-keyboard-response","232","64387","0.0-232.0","3OWEPKL08AYSHY92KKRPFJVBJVK7NZ","A345VDWYMDWTGD","3PIOQ99R7Y8STPN46QFY0SD7JTFNU0","","null","<img src=""img/flower4.png"" style=""width:200px; border:14px solid green;"">","null","","","","","","","","",""
"","image-keyboard-response","233","64604","0.0-233.0","3OWEPKL08AYSHY92KKRPFJVBJVK7NZ","A345VDWYMDWTGD","3PIOQ99R7Y8STPN46QFY0SD7JTFNU0","","215.30000019073486","img/flower5.png","76","217.19999980926514","3","1","1","2","1,0,0,1,1,0,1,0,1","0,0,1,1,0,1,0,1,1","2",""
"","html-keyboard-response","234","64911","0.0-234.0","3OWEPKL08AYSHY92KKRPFJVBJVK7NZ","A345VDWYMDWTGD","3PIOQ99R7Y8STPN46QFY0SD7JTFNU0","","null","<img src=""img/flower5.png"" style=""width:200px; border:14px solid green;"">","null","","","","","","","","",""
"","image-keyboard-response","235","65071","0.0-235.0","3OWEPKL08AYSHY92KKRPFJVBJVK7NZ","A345VDWYMDWTGD","3PIOQ99R7Y8STPN46QFY0SD7JTFNU0","","157.90000009536743","img/flower4.png","76","159.80000019073486","3","1","3","2","1,0,0,1,1,0,1,0,1","0,0,1,1,0,1,0,1,1","2",""
"","html-keyboard-response","236","65377","0.0-236.0","3OWEPKL08AYSHY92KKRPFJVBJVK7NZ","A345VDWYMDWTGD","3PIOQ99R7Y8STPN46QFY0SD7JTFNU0","","null","<img src=""img/flower4.png"" style=""width:200px; border:14px solid green;"">","null","","","","","","","","",""
"","image-keyboard-response","237","65503","0.0-237.0","3OWEPKL08AYSHY92KKRPFJVBJVK7NZ","A345VDWYMDWTGD","3PIOQ99R7Y8STPN46QFY0SD7JTFNU0","","123.7999997138977","img/flower6.png","76","125.5","3","1","2","2","1,0,0,1,1,0,1,0,1","0,0,1,1,0,1,0,1,1","2",""
"","html-keyboard-response","238","65811","0.0-238.0","3OWEPKL08AYSHY92KKRPFJVBJVK7NZ","A345VDWYMDWTGD","3PIOQ99R7Y8STPN46QFY0SD7JTFNU0","","null","<img src=""img/flower6.png"" style=""width:200px; border:14px solid green;"">","null","","","","","","","","",""
"","image-keyboard-response","239","66035","0.0-239.0","3OWEPKL08AYSHY92KKRPFJVBJVK7NZ","A345VDWYMDWTGD","3PIOQ99R7Y8STPN46QFY0SD7JTFNU0","","222.19999980926514","img/flower6.png","74","223.7000002861023","1","1","2","2","1,0,0,1,1,0,1,0,1","0,0,1,1,0,1,0,1,1","2",""
"","html-keyboard-response","240","66338","0.0-240.0","3OWEPKL08AYSHY92KKRPFJVBJVK7NZ","A345VDWYMDWTGD","3PIOQ99R7Y8STPN46QFY0SD7JTFNU0","","null","<img src=""img/flower6.png"" style=""width:200px; border:14px solid green;"">","null","","","","","","","","",""
"","image-keyboard-response","241","66357","0.0-241.0","3OWEPKL08AYSHY92KKRPFJVBJVK7NZ","A345VDWYMDWTGD","3PIOQ99R7Y8STPN46QFY0SD7JTFNU0","","17.09999990463257","img/flower6.png","75","18.799999713897705","2","0","2","2","1,0,0,1,1,0,1,0,1","0,0,1,1,0,1,0,1,1","2",""
"","html-keyboard-response","242","66660","0.0-242.0","3OWEPKL08AYSHY92KKRPFJVBJVK7NZ","A345VDWYMDWTGD","3PIOQ99R7Y8STPN46QFY0SD7JTFNU0","","null","<img src=""img/flower6.png"" style=""width:200px;border:14px solid red;"">","null","","","","","","","","",""
"","image-keyboard-response","243","66889","0.0-243.0","3OWEPKL08AYSHY92KKRPFJVBJVK7NZ","A345VDWYMDWTGD","3PIOQ99R7Y8STPN46QFY0SD7JTFNU0","","227.5","img/flower5.png","76","229.39999961853027","3","1","1","2","1,0,0,1,1,0,1,0,1","0,0,1,1,0,1,0,1,1","2",""
"","html-keyboard-response","244","67198","0.0-244.0","3OWEPKL08AYSHY92KKRPFJVBJVK7NZ","A345VDWYMDWTGD","3PIOQ99R7Y8STPN46QFY0SD7JTFNU0","","null","<img src=""img/flower5.png"" style=""width:200px; border:14px solid green;"">","null","","","","","","","","",""
"","image-keyboard-response","245","67324","0.0-245.0","3OWEPKL08AYSHY92KKRPFJVBJVK7NZ","A345VDWYMDWTGD","3PIOQ99R7Y8STPN46QFY0SD7JTFNU0","","124.19999980926514","img/flower4.png","76","126","3","1","3","2","1,0,0,1,1,0,1,0,1","0,0,1,1,0,1,0,1,1","2",""
"","html-keyboard-response","246","67631","0.0-246.0","3OWEPKL08AYSHY92KKRPFJVBJVK7NZ","A345VDWYMDWTGD","3PIOQ99R7Y8STPN46QFY0SD7JTFNU0","","null","<img src=""img/flower4.png"" style=""width:200px; border:14px solid green;"">","null","","","","","","","","",""
"","image-keyboard-response","247","67734","0.0-247.0","3OWEPKL08AYSHY92KKRPFJVBJVK7NZ","A345VDWYMDWTGD","3PIOQ99R7Y8STPN46QFY0SD7JTFNU0","","100.40000009536743","img/flower5.png","75","102.2000002861023","2","0","1","2","1,0,0,1,1,0,1,0,1","0,0,1,1,0,1,0,1,1","2",""
"","html-keyboard-response","248","68041","0.0-248.0","3OWEPKL08AYSHY92KKRPFJVBJVK7NZ","A345VDWYMDWTGD","3PIOQ99R7Y8STPN46QFY0SD7JTFNU0","","null","<img src=""img/flower5.png"" style=""width:200px;border:14px solid red;"">","null","","","","","","","","",""
"","image-keyboard-response","249","68061","0.0-249.0","3OWEPKL08AYSHY92KKRPFJVBJVK7NZ","A345VDWYMDWTGD","3PIOQ99R7Y8STPN46QFY0SD7JTFNU0","","18","img/flower4.png","74","19.799999713897705","1","0","3","2","1,0,0,1,1,0,1,0,1","0,0,1,1,0,1,0,1,1","2",""
"","html-keyboard-response","250","68368","0.0-250.0","3OWEPKL08AYSHY92KKRPFJVBJVK7NZ","A345VDWYMDWTGD","3PIOQ99R7Y8STPN46QFY0SD7JTFNU0","","null","<img src=""img/flower4.png"" style=""width:200px;border:14px solid red;"">","null","","","","","","","","",""
"","image-keyboard-response","251","68434","0.0-251.0","3OWEPKL08AYSHY92KKRPFJVBJVK7NZ","A345VDWYMDWTGD","3PIOQ99R7Y8STPN46QFY0SD7JTFNU0","","64.09999990463257","img/flower5.png","75","66","2","0","1","2","1,0,0,1,1,0,1,0,1","0,0,1,1,0,1,0,1,1","2",""
"","html-keyboard-response","252","68742","0.0-252.0","3OWEPKL08AYSHY92KKRPFJVBJVK7NZ","A345VDWYMDWTGD","3PIOQ99R7Y8STPN46QFY0SD7JTFNU0","","null","<img src=""img/flower5.png"" style=""width:200px;border:14px solid red;"">","null","","","","","","","","",""
"","image-keyboard-response","253","68766","0.0-253.0","3OWEPKL08AYSHY92KKRPFJVBJVK7NZ","A345VDWYMDWTGD","3PIOQ99R7Y8STPN46QFY0SD7JTFNU0","","22.59999990463257","img/flower6.png","76","24","3","1","2","2","1,0,0,1,1,0,1,0,1","0,0,1,1,0,1,0,1,1","2",""
"","html-keyboard-response","254","69073","0.0-254.0","3OWEPKL08AYSHY92KKRPFJVBJVK7NZ","A345VDWYMDWTGD","3PIOQ99R7Y8STPN46QFY0SD7JTFNU0","","null","<img src=""img/flower6.png"" style=""width:200px; border:14px solid green;"">","null","","","","","","","","",""
"","image-keyboard-response","255","69164","0.0-255.0","3OWEPKL08AYSHY92KKRPFJVBJVK7NZ","A345VDWYMDWTGD","3PIOQ99R7Y8STPN46QFY0SD7JTFNU0","","89","img/flower6.png","76","90.80000019073486","3","1","2","2","1,0,0,1,1,0,1,0,1","0,0,1,1,0,1,0,1,1","2",""
"","html-keyboard-response","256","69471","0.0-256.0","3OWEPKL08AYSHY92KKRPFJVBJVK7NZ","A345VDWYMDWTGD","3PIOQ99R7Y8STPN46QFY0SD7JTFNU0","","null","<img src=""img/flower6.png"" style=""width:200px; border:14px solid green;"">","null","","","","","","","","",""
"","image-keyboard-response","257","69704","0.0-257.0","3OWEPKL08AYSHY92KKRPFJVBJVK7NZ","A345VDWYMDWTGD","3PIOQ99R7Y8STPN46QFY0SD7JTFNU0","","230.2000002861023","img/flower4.png","75","232.19999980926514","2","1","3","2","1,0,0,1,1,0,1,0,1","0,0,1,1,0,1,0,1,1","2",""
"","html-keyboard-response","258","70011","0.0-258.0","3OWEPKL08AYSHY92KKRPFJVBJVK7NZ","A345VDWYMDWTGD","3PIOQ99R7Y8STPN46QFY0SD7JTFNU0","","null","<img src=""img/flower4.png"" style=""width:200px; border:14px solid green;"">","null","","","","","","","","",""
"","image-keyboard-response","259","70051","0.0-259.0","3OWEPKL08AYSHY92KKRPFJVBJVK7NZ","A345VDWYMDWTGD","3PIOQ99R7Y8STPN46QFY0SD7JTFNU0","","39.799999713897705","img/flower4.png","76","40.09999990463257","3","1","3","2","1,0,0,1,1,0,1,0,1","0,0,1,1,0,1,0,1,1","2",""
"","html-keyboard-response","260","70356","0.0-260.0","3OWEPKL08AYSHY92KKRPFJVBJVK7NZ","A345VDWYMDWTGD","3PIOQ99R7Y8STPN46QFY0SD7JTFNU0","","null","<img src=""img/flower4.png"" style=""width:200px; border:14px solid green;"">","null","","","","","","","","",""
"","image-keyboard-response","261","70416","0.0-261.0","3OWEPKL08AYSHY92KKRPFJVBJVK7NZ","A345VDWYMDWTGD","3PIOQ99R7Y8STPN46QFY0SD7JTFNU0","","59.09999990463257","img/flower6.png","76","59.60000038146973","3","1","2","2","1,0,0,1,1,0,1,0,1","0,0,1,1,0,1,0,1,1","2",""
"","html-keyboard-response","262","70721","0.0-262.0","3OWEPKL08AYSHY92KKRPFJVBJVK7NZ","A345VDWYMDWTGD","3PIOQ99R7Y8STPN46QFY0SD7JTFNU0","","null","<img src=""img/flower6.png"" style=""width:200px; border:14px solid green;"">","null","","","","","","","","",""
"","image-keyboard-response","263","70790","0.0-263.0","3OWEPKL08AYSHY92KKRPFJVBJVK7NZ","A345VDWYMDWTGD","3PIOQ99R7Y8STPN46QFY0SD7JTFNU0","","68.7000002861023","img/flower4.png","75","68.90000009536743","2","1","3","2","1,0,0,1,1,0,1,0,1","0,0,1,1,0,1,0,1,1","2",""
"","html-keyboard-response","264","71097","0.0-264.0","3OWEPKL08AYSHY92KKRPFJVBJVK7NZ","A345VDWYMDWTGD","3PIOQ99R7Y8STPN46QFY0SD7JTFNU0","","null","<img src=""img/flower4.png"" style=""width:200px; border:14px solid green;"">","null","","","","","","","","",""
"","image-keyboard-response","265","71128","0.0-265.0","3OWEPKL08AYSHY92KKRPFJVBJVK7NZ","A345VDWYMDWTGD","3PIOQ99R7Y8STPN46QFY0SD7JTFNU0","","28.700000286102295","img/flower5.png","74","30.5","1","0","1","2","1,0,0,1,1,0,1,0,1","0,0,1,1,0,1,0,1,1","2",""
"","html-keyboard-response","266","71433","0.0-266.0","3OWEPKL08AYSHY92KKRPFJVBJVK7NZ","A345VDWYMDWTGD","3PIOQ99R7Y8STPN46QFY0SD7JTFNU0","","null","<img src=""img/flower5.png"" style=""width:200px;border:14px solid red;"">","null","","","","","","","","",""
"","image-keyboard-response","267","71449","0.0-267.0","3OWEPKL08AYSHY92KKRPFJVBJVK7NZ","A345VDWYMDWTGD","3PIOQ99R7Y8STPN46QFY0SD7JTFNU0","","13.100000381469727","img/flower5.png","75","14.900000095367432","2","0","1","2","1,0,0,1,1,0,1,0,1","0,0,1,1,0,1,0,1,1","2",""
"","html-keyboard-response","268","71755","0.0-268.0","3OWEPKL08AYSHY92KKRPFJVBJVK7NZ","A345VDWYMDWTGD","3PIOQ99R7Y8STPN46QFY0SD7JTFNU0","","null","<img src=""img/flower5.png"" style=""width:200px;border:14px solid red;"">","null","","","","","","","","",""
"","image-keyboard-response","269","72230","0.0-269.0","3OWEPKL08AYSHY92KKRPFJVBJVK7NZ","A345VDWYMDWTGD","3PIOQ99R7Y8STPN46QFY0SD7JTFNU0","","473.30000019073486","img/flower5.png","76","474.90000009536743","3","1","1","2","1,0,0,1,1,0,1,0,1","0,0,1,1,0,1,0,1,1","2",""
"","html-keyboard-response","270","72537","0.0-270.0","3OWEPKL08AYSHY92KKRPFJVBJVK7NZ","A345VDWYMDWTGD","3PIOQ99R7Y8STPN46QFY0SD7JTFNU0","","null","<img src=""img/flower5.png"" style=""width:200px; border:14px solid green;"">","null","","","","","","","","",""
"","image-keyboard-response","271","72703","0.0-271.0","3OWEPKL08AYSHY92KKRPFJVBJVK7NZ","A345VDWYMDWTGD","3PIOQ99R7Y8STPN46QFY0SD7JTFNU0","","165","img/flower4.png","76","166.40000009536743","3","1","3","2","1,0,0,1,1,0,1,0,1","0,0,1,1,0,1,0,1,1","2",""
"","html-keyboard-response","272","73011","0.0-272.0","3OWEPKL08AYSHY92KKRPFJVBJVK7NZ","A345VDWYMDWTGD","3PIOQ99R7Y8STPN46QFY0SD7JTFNU0","","null","<img src=""img/flower4.png"" style=""width:200px; border:14px solid green;"">","null","","","","","","","","",""
"","image-keyboard-response","273","73099","0.0-273.0","3OWEPKL08AYSHY92KKRPFJVBJVK7NZ","A345VDWYMDWTGD","3PIOQ99R7Y8STPN46QFY0SD7JTFNU0","","86.69999980926514","img/flower5.png","76","87.59999990463257","3","1","1","2","1,0,0,1,1,0,1,0,1","0,0,1,1,0,1,0,1,1","2",""
"","html-keyboard-response","274","73405","0.0-274.0","3OWEPKL08AYSHY92KKRPFJVBJVK7NZ","A345VDWYMDWTGD","3PIOQ99R7Y8STPN46QFY0SD7JTFNU0","","null","<img src=""img/flower5.png"" style=""width:200px; border:14px solid green;"">","null","","","","","","","","",""
"","image-keyboard-response","275","73465","0.0-275.0","3OWEPKL08AYSHY92KKRPFJVBJVK7NZ","A345VDWYMDWTGD","3PIOQ99R7Y8STPN46QFY0SD7JTFNU0","","57.59999990463257","img/flower4.png","76","59.39999961853027","3","1","3","2","1,0,0,1,1,0,1,0,1","0,0,1,1,0,1,0,1,1","2",""
"","html-keyboard-response","276","73773","0.0-276.0","3OWEPKL08AYSHY92KKRPFJVBJVK7NZ","A345VDWYMDWTGD","3PIOQ99R7Y8STPN46QFY0SD7JTFNU0","","null","<img src=""img/flower4.png"" style=""width:200px; border:14px solid green;"">","null","","","","","","","","",""
"","image-keyboard-response","277","73939","0.0-277.0","3OWEPKL08AYSHY92KKRPFJVBJVK7NZ","A345VDWYMDWTGD","3PIOQ99R7Y8STPN46QFY0SD7JTFNU0","","163.90000009536743","img/flower6.png","76","165.69999980926514","3","1","2","2","1,0,0,1,1,0,1,0,1","0,0,1,1,0,1,0,1,1","2",""
"","html-keyboard-response","278","74245","0.0-278.0","3OWEPKL08AYSHY92KKRPFJVBJVK7NZ","A345VDWYMDWTGD","3PIOQ99R7Y8STPN46QFY0SD7JTFNU0","","null","<img src=""img/flower6.png"" style=""width:200px; border:14px solid green;"">","null","","","","","","","","",""
"","image-keyboard-response","279","74386","0.0-279.0","3OWEPKL08AYSHY92KKRPFJVBJVK7NZ","A345VDWYMDWTGD","3PIOQ99R7Y8STPN46QFY0SD7JTFNU0","","138.59999990463257","img/flower6.png","75","140.5","2","0","2","2","1,0,0,1,1,0,1,0,1","0,0,1,1,0,1,0,1,1","2",""
"","html-keyboard-response","280","74694","0.0-280.0","3OWEPKL08AYSHY92KKRPFJVBJVK7NZ","A345VDWYMDWTGD","3PIOQ99R7Y8STPN46QFY0SD7JTFNU0","","null","<img src=""img/flower6.png"" style=""width:200px;border:14px solid red;"">","null","","","","","","","","",""
"","image-keyboard-response","281","74819","0.0-281.0","3OWEPKL08AYSHY92KKRPFJVBJVK7NZ","A345VDWYMDWTGD","3PIOQ99R7Y8STPN46QFY0SD7JTFNU0","","122.60000038146973","img/flower5.png","75","124.69999980926514","2","0","1","2","1,0,0,1,1,0,1,0,1","0,0,1,1,0,1,0,1,1","2",""
"","html-keyboard-response","282","75127","0.0-282.0","3OWEPKL08AYSHY92KKRPFJVBJVK7NZ","A345VDWYMDWTGD","3PIOQ99R7Y8STPN46QFY0SD7JTFNU0","","null","<img src=""img/flower5.png"" style=""width:200px;border:14px solid red;"">","null","","","","","","","","",""
"","image-keyboard-response","283","75435","0.0-283.0","3OWEPKL08AYSHY92KKRPFJVBJVK7NZ","A345VDWYMDWTGD","3PIOQ99R7Y8STPN46QFY0SD7JTFNU0","","305.90000009536743","img/flower6.png","74","308","1","1","2","2","1,0,0,1,1,0,1,0,1","0,0,1,1,0,1,0,1,1","2",""
"","html-keyboard-response","284","75741","0.0-284.0","3OWEPKL08AYSHY92KKRPFJVBJVK7NZ","A345VDWYMDWTGD","3PIOQ99R7Y8STPN46QFY0SD7JTFNU0","","null","<img src=""img/flower6.png"" style=""width:200px; border:14px solid green;"">","null","","","","","","","","",""
"","image-keyboard-response","285","76187","0.0-285.0","3OWEPKL08AYSHY92KKRPFJVBJVK7NZ","A345VDWYMDWTGD","3PIOQ99R7Y8STPN46QFY0SD7JTFNU0","","443.40000009536743","img/flower6.png","76","445.09999990463257","3","1","2","2","1,0,0,1,1,0,1,0,1","0,0,1,1,0,1,0,1,1","2",""
"","html-keyboard-response","286","76494","0.0-286.0","3OWEPKL08AYSHY92KKRPFJVBJVK7NZ","A345VDWYMDWTGD","3PIOQ99R7Y8STPN46QFY0SD7JTFNU0","","null","<img src=""img/flower6.png"" style=""width:200px; border:14px solid green;"">","null","","","","","","","","",""
"","image-keyboard-response","287","76615","0.0-287.0","3OWEPKL08AYSHY92KKRPFJVBJVK7NZ","A345VDWYMDWTGD","3PIOQ99R7Y8STPN46QFY0SD7JTFNU0","","118.59999990463257","img/flower4.png","76","120.60000038146973","3","1","3","2","1,0,0,1,1,0,1,0,1","0,0,1,1,0,1,0,1,1","2",""
"","html-keyboard-response","288","76922","0.0-288.0","3OWEPKL08AYSHY92KKRPFJVBJVK7NZ","A345VDWYMDWTGD","3PIOQ99R7Y8STPN46QFY0SD7JTFNU0","","null","<img src=""img/flower4.png"" style=""width:200px; border:14px solid green;"">","null","","","","","","","","",""
"","image-keyboard-response","289","77093","0.0-289.0","3OWEPKL08AYSHY92KKRPFJVBJVK7NZ","A345VDWYMDWTGD","3PIOQ99R7Y8STPN46QFY0SD7JTFNU0","","168.7999997138977","img/flower6.png","75","170.5","2","0","2","2","1,0,0,1,1,0,1,0,1","0,0,1,1,0,1,0,1,1","2",""
"","html-keyboard-response","290","77401","0.0-290.0","3OWEPKL08AYSHY92KKRPFJVBJVK7NZ","A345VDWYMDWTGD","3PIOQ99R7Y8STPN46QFY0SD7JTFNU0","","null","<img src=""img/flower6.png"" style=""width:200px;border:14px solid red;"">","null","","","","","","","","",""
"","image-keyboard-response","291","77439","0.0-291.0","3OWEPKL08AYSHY92KKRPFJVBJVK7NZ","A345VDWYMDWTGD","3PIOQ99R7Y8STPN46QFY0SD7JTFNU0","","36.19999980926514","img/flower5.png","75","37.90000009536743","2","0","1","2","1,0,0,1,1,0,1,0,1","0,0,1,1,0,1,0,1,1","2",""
"","html-keyboard-response","292","77746","0.0-292.0","3OWEPKL08AYSHY92KKRPFJVBJVK7NZ","A345VDWYMDWTGD","3PIOQ99R7Y8STPN46QFY0SD7JTFNU0","","null","<img src=""img/flower5.png"" style=""width:200px;border:14px solid red;"">","null","","","","","","","","",""
"","image-keyboard-response","293","77766","0.0-293.0","3OWEPKL08AYSHY92KKRPFJVBJVK7NZ","A345VDWYMDWTGD","3PIOQ99R7Y8STPN46QFY0SD7JTFNU0","","17.5","img/flower6.png","74","19.09999990463257","1","1","2","2","1,0,0,1,1,0,1,0,1","0,0,1,1,0,1,0,1,1","2",""
"","html-keyboard-response","294","78069","0.0-294.0","3OWEPKL08AYSHY92KKRPFJVBJVK7NZ","A345VDWYMDWTGD","3PIOQ99R7Y8STPN46QFY0SD7JTFNU0","","null","<img src=""img/flower6.png"" style=""width:200px; border:14px solid green;"">","null","","","","","","","","",""
"","image-keyboard-response","295","78622","0.0-295.0","3OWEPKL08AYSHY92KKRPFJVBJVK7NZ","A345VDWYMDWTGD","3PIOQ99R7Y8STPN46QFY0SD7JTFNU0","","550.3000001907349","img/flower6.png","76","552.1999998092651","3","1","2","2","1,0,0,1,1,0,1,0,1","0,0,1,1,0,1,0,1,1","2",""
"","html-keyboard-response","296","78929","0.0-296.0","3OWEPKL08AYSHY92KKRPFJVBJVK7NZ","A345VDWYMDWTGD","3PIOQ99R7Y8STPN46QFY0SD7JTFNU0","","null","<img src=""img/flower6.png"" style=""width:200px; border:14px solid green;"">","null","","","","","","","","",""
"","image-keyboard-response","297","79036","0.0-297.0","3OWEPKL08AYSHY92KKRPFJVBJVK7NZ","A345VDWYMDWTGD","3PIOQ99R7Y8STPN46QFY0SD7JTFNU0","","105.19999980926514","img/flower5.png","74","106.90000009536743","1","0","1","2","1,0,0,1,1,0,1,0,1","0,0,1,1,0,1,0,1,1","2",""
"","html-keyboard-response","298","79339","0.0-298.0","3OWEPKL08AYSHY92KKRPFJVBJVK7NZ","A345VDWYMDWTGD","3PIOQ99R7Y8STPN46QFY0SD7JTFNU0","","null","<img src=""img/flower5.png"" style=""width:200px;border:14px solid red;"">","null","","","","","","","","",""
"","image-keyboard-response","299","79437","0.0-299.0","3OWEPKL08AYSHY92KKRPFJVBJVK7NZ","A345VDWYMDWTGD","3PIOQ99R7Y8STPN46QFY0SD7JTFNU0","","95.09999990463257","img/flower4.png","76","96.89999961853027","3","1","3","2","1,0,0,1,1,0,1,0,1","0,0,1,1,0,1,0,1,1","2",""
"","html-keyboard-response","300","79745","0.0-300.0","3OWEPKL08AYSHY92KKRPFJVBJVK7NZ","A345VDWYMDWTGD","3PIOQ99R7Y8STPN46QFY0SD7JTFNU0","","null","<img src=""img/flower4.png"" style=""width:200px; border:14px solid green;"">","null","","","","","","","","",""
"","image-keyboard-response","301","79826","0.0-301.0","3OWEPKL08AYSHY92KKRPFJVBJVK7NZ","A345VDWYMDWTGD","3PIOQ99R7Y8STPN46QFY0SD7JTFNU0","","78.59999990463257","img/flower5.png","76","80.5","3","1","1","2","1,0,0,1,1,0,1,0,1","0,0,1,1,0,1,0,1,1","2",""
"","html-keyboard-response","302","80133","0.0-302.0","3OWEPKL08AYSHY92KKRPFJVBJVK7NZ","A345VDWYMDWTGD","3PIOQ99R7Y8STPN46QFY0SD7JTFNU0","","null","<img src=""img/flower5.png"" style=""width:200px; border:14px solid green;"">","null","","","","","","","","",""
"","image-keyboard-response","303","80159","0.0-303.0","3OWEPKL08AYSHY92KKRPFJVBJVK7NZ","A345VDWYMDWTGD","3PIOQ99R7Y8STPN46QFY0SD7JTFNU0","","24.59999990463257","img/flower6.png","75","25.09999990463257","2","0","2","2","1,0,0,1,1,0,1,0,1","0,0,1,1,0,1,0,1,1","2",""
"","html-keyboard-response","304","80466","0.0-304.0","3OWEPKL08AYSHY92KKRPFJVBJVK7NZ","A345VDWYMDWTGD","3PIOQ99R7Y8STPN46QFY0SD7JTFNU0","","null","<img src=""img/flower6.png"" style=""width:200px;border:14px solid red;"">","null","","","","","","","","",""
"","image-keyboard-response","305","80645","0.0-305.0","3OWEPKL08AYSHY92KKRPFJVBJVK7NZ","A345VDWYMDWTGD","3PIOQ99R7Y8STPN46QFY0SD7JTFNU0","","177.40000009536743","img/flower5.png","75","179.09999990463257","2","0","1","2","1,0,0,1,1,0,1,0,1","0,0,1,1,0,1,0,1,1","2",""
"","html-keyboard-response","306","80950","0.0-306.0","3OWEPKL08AYSHY92KKRPFJVBJVK7NZ","A345VDWYMDWTGD","3PIOQ99R7Y8STPN46QFY0SD7JTFNU0","","null","<img src=""img/flower5.png"" style=""width:200px;border:14px solid red;"">","null","","","","","","","","",""
"","image-keyboard-response","307","80978","0.0-307.0","3OWEPKL08AYSHY92KKRPFJVBJVK7NZ","A345VDWYMDWTGD","3PIOQ99R7Y8STPN46QFY0SD7JTFNU0","","26","img/flower4.png","76","27.600000381469727","3","1","3","2","1,0,0,1,1,0,1,0,1","0,0,1,1,0,1,0,1,1","2",""
"","html-keyboard-response","308","81282","0.0-308.0","3OWEPKL08AYSHY92KKRPFJVBJVK7NZ","A345VDWYMDWTGD","3PIOQ99R7Y8STPN46QFY0SD7JTFNU0","","null","<img src=""img/flower4.png"" style=""width:200px; border:14px solid green;"">","null","","","","","","","","",""
"","image-keyboard-response","309","81378","0.0-309.0","3OWEPKL08AYSHY92KKRPFJVBJVK7NZ","A345VDWYMDWTGD","3PIOQ99R7Y8STPN46QFY0SD7JTFNU0","","93.2999997138977","img/flower6.png","74","95.30000019073486","1","1","2","2","1,0,0,1,1,0,1,0,1","0,0,1,1,0,1,0,1,1","2",""
"","html-keyboard-response","310","81685","0.0-310.0","3OWEPKL08AYSHY92KKRPFJVBJVK7NZ","A345VDWYMDWTGD","3PIOQ99R7Y8STPN46QFY0SD7JTFNU0","","null","<img src=""img/flower6.png"" style=""width:200px; border:14px solid green;"">","null","","","","","","","","",""
"","image-keyboard-response","311","81739","0.0-311.0","3OWEPKL08AYSHY92KKRPFJVBJVK7NZ","A345VDWYMDWTGD","3PIOQ99R7Y8STPN46QFY0SD7JTFNU0","","51.30000019073486","img/flower6.png","76","53.09999990463257","3","1","2","2","1,0,0,1,1,0,1,0,1","0,0,1,1,0,1,0,1,1","2",""
"","html-keyboard-response","312","82044","0.0-312.0","3OWEPKL08AYSHY92KKRPFJVBJVK7NZ","A345VDWYMDWTGD","3PIOQ99R7Y8STPN46QFY0SD7JTFNU0","","null","<img src=""img/flower6.png"" style=""width:200px; border:14px solid green;"">","null","","","","","","","","",""
"","image-keyboard-response","313","82396","0.0-313.0","3OWEPKL08AYSHY92KKRPFJVBJVK7NZ","A345VDWYMDWTGD","3PIOQ99R7Y8STPN46QFY0SD7JTFNU0","","349.90000009536743","img/flower4.png","74","352","1","0","3","2","1,0,0,1,1,0,1,0,1","0,0,1,1,0,1,0,1,1","2",""
"","html-keyboard-response","314","82704","0.0-314.0","3OWEPKL08AYSHY92KKRPFJVBJVK7NZ","A345VDWYMDWTGD","3PIOQ99R7Y8STPN46QFY0SD7JTFNU0","","null","<img src=""img/flower4.png"" style=""width:200px;border:14px solid red;"">","null","","","","","","","","",""
"","image-keyboard-response","315","82801","0.0-315.0","3OWEPKL08AYSHY92KKRPFJVBJVK7NZ","A345VDWYMDWTGD","3PIOQ99R7Y8STPN46QFY0SD7JTFNU0","","95.30000019073486","img/flower4.png","76","97.2999997138977","3","1","3","2","1,0,0,1,1,0,1,0,1","0,0,1,1,0,1,0,1,1","2",""
"","html-keyboard-response","316","83107","0.0-316.0","3OWEPKL08AYSHY92KKRPFJVBJVK7NZ","A345VDWYMDWTGD","3PIOQ99R7Y8STPN46QFY0SD7JTFNU0","","null","<img src=""img/flower4.png"" style=""width:200px; border:14px solid green;"">","null","","","","","","","","",""
"","image-keyboard-response","317","83353","0.0-317.0","3OWEPKL08AYSHY92KKRPFJVBJVK7NZ","A345VDWYMDWTGD","3PIOQ99R7Y8STPN46QFY0SD7JTFNU0","","244.09999990463257","img/flower4.png","75","245.90000009536743","2","1","3","2","1,0,0,1,1,0,1,0,1","0,0,1,1,0,1,0,1,1","2",""
"","html-keyboard-response","318","83661","0.0-318.0","3OWEPKL08AYSHY92KKRPFJVBJVK7NZ","A345VDWYMDWTGD","3PIOQ99R7Y8STPN46QFY0SD7JTFNU0","","null","<img src=""img/flower4.png"" style=""width:200px; border:14px solid green;"">","null","","","","","","","","",""
"","image-keyboard-response","319","83770","0.0-319.0","3OWEPKL08AYSHY92KKRPFJVBJVK7NZ","A345VDWYMDWTGD","3PIOQ99R7Y8STPN46QFY0SD7JTFNU0","","107.09999990463257","img/flower6.png","76","108.89999961853027","3","1","2","2","1,0,0,1,1,0,1,0,1","0,0,1,1,0,1,0,1,1","2",""
"","html-keyboard-response","320","84078","0.0-320.0","3OWEPKL08AYSHY92KKRPFJVBJVK7NZ","A345VDWYMDWTGD","3PIOQ99R7Y8STPN46QFY0SD7JTFNU0","","null","<img src=""img/flower6.png"" style=""width:200px; border:14px solid green;"">","null","","","","","","","","",""
"","image-keyboard-response","321","84116","0.0-321.0","3OWEPKL08AYSHY92KKRPFJVBJVK7NZ","A345VDWYMDWTGD","3PIOQ99R7Y8STPN46QFY0SD7JTFNU0","","35.59999990463257","img/flower4.png","75","37.5","2","1","3","2","1,0,0,1,1,0,1,0,1","0,0,1,1,0,1,0,1,1","2",""
"","html-keyboard-response","322","84422","0.0-322.0","3OWEPKL08AYSHY92KKRPFJVBJVK7NZ","A345VDWYMDWTGD","3PIOQ99R7Y8STPN46QFY0SD7JTFNU0","","null","<img src=""img/flower4.png"" style=""width:200px; border:14px solid green;"">","null","","","","","","","","",""
"","image-keyboard-response","323","84507","0.0-323.0","3OWEPKL08AYSHY92KKRPFJVBJVK7NZ","A345VDWYMDWTGD","3PIOQ99R7Y8STPN46QFY0SD7JTFNU0","","83.30000019073486","img/flower5.png","75","85.30000019073486","2","0","1","2","1,0,0,1,1,0,1,0,1","0,0,1,1,0,1,0,1,1","2",""
"","html-keyboard-response","324","84815","0.0-324.0","3OWEPKL08AYSHY92KKRPFJVBJVK7NZ","A345VDWYMDWTGD","3PIOQ99R7Y8STPN46QFY0SD7JTFNU0","","null","<img src=""img/flower5.png"" style=""width:200px;border:14px solid red;"">","null","","","","","","","","",""
"","image-keyboard-response","325","85285","0.0-325.0","3OWEPKL08AYSHY92KKRPFJVBJVK7NZ","A345VDWYMDWTGD","3PIOQ99R7Y8STPN46QFY0SD7JTFNU0","","468","img/flower6.png","76","470","3","1","2","2","1,0,0,1,1,0,1,0,1","0,0,1,1,0,1,0,1,1","2",""
"","html-keyboard-response","326","85593","0.0-326.0","3OWEPKL08AYSHY92KKRPFJVBJVK7NZ","A345VDWYMDWTGD","3PIOQ99R7Y8STPN46QFY0SD7JTFNU0","","null","<img src=""img/flower6.png"" style=""width:200px; border:14px solid green;"">","null","","","","","","","","",""
"","image-keyboard-response","327","85771","0.0-327.0","3OWEPKL08AYSHY92KKRPFJVBJVK7NZ","A345VDWYMDWTGD","3PIOQ99R7Y8STPN46QFY0SD7JTFNU0","","175.40000009536743","img/flower6.png","76","177.2999997138977","3","1","2","2","1,0,0,1,1,0,1,0,1","0,0,1,1,0,1,0,1,1","2",""
"","html-keyboard-response","328","86079","0.0-328.0","3OWEPKL08AYSHY92KKRPFJVBJVK7NZ","A345VDWYMDWTGD","3PIOQ99R7Y8STPN46QFY0SD7JTFNU0","","null","<img src=""img/flower6.png"" style=""width:200px; border:14px solid green;"">","null","","","","","","","","",""
"","image-keyboard-response","329","86130","0.0-329.0","3OWEPKL08AYSHY92KKRPFJVBJVK7NZ","A345VDWYMDWTGD","3PIOQ99R7Y8STPN46QFY0SD7JTFNU0","","49.5","img/flower4.png","75","51.40000009536743","2","1","3","2","1,0,0,1,1,0,1,0,1","0,0,1,1,0,1,0,1,1","2",""
"","html-keyboard-response","330","86438","0.0-330.0","3OWEPKL08AYSHY92KKRPFJVBJVK7NZ","A345VDWYMDWTGD","3PIOQ99R7Y8STPN46QFY0SD7JTFNU0","","null","<img src=""img/flower4.png"" style=""width:200px; border:14px solid green;"">","null","","","","","","","","",""
"","image-keyboard-response","331","86483","0.0-331.0","3OWEPKL08AYSHY92KKRPFJVBJVK7NZ","A345VDWYMDWTGD","3PIOQ99R7Y8STPN46QFY0SD7JTFNU0","","43","img/flower5.png","74","44.80000019073486","1","0","1","2","1,0,0,1,1,0,1,0,1","0,0,1,1,0,1,0,1,1","2",""
"","html-keyboard-response","332","86790","0.0-332.0","3OWEPKL08AYSHY92KKRPFJVBJVK7NZ","A345VDWYMDWTGD","3PIOQ99R7Y8STPN46QFY0SD7JTFNU0","","null","<img src=""img/flower5.png"" style=""width:200px;border:14px solid red;"">","null","","","","","","","","",""
"","image-keyboard-response","333","86843","0.0-333.0","3OWEPKL08AYSHY92KKRPFJVBJVK7NZ","A345VDWYMDWTGD","3PIOQ99R7Y8STPN46QFY0SD7JTFNU0","","50","img/flower5.png","75","51.90000009536743","2","0","1","2","1,0,0,1,1,0,1,0,1","0,0,1,1,0,1,0,1,1","2",""
"","html-keyboard-response","334","87149","0.0-334.0","3OWEPKL08AYSHY92KKRPFJVBJVK7NZ","A345VDWYMDWTGD","3PIOQ99R7Y8STPN46QFY0SD7JTFNU0","","null","<img src=""img/flower5.png"" style=""width:200px;border:14px solid red;"">","null","","","","","","","","",""
"","image-keyboard-response","335","87152","0.0-335.0","3OWEPKL08AYSHY92KKRPFJVBJVK7NZ","A345VDWYMDWTGD","3PIOQ99R7Y8STPN46QFY0SD7JTFNU0","","1.9000000953674316","img/flower6.png","76","2.5999999046325684","3","1","2","2","1,0,0,1,1,0,1,0,1","0,0,1,1,0,1,0,1,1","2",""
"","html-keyboard-response","336","87458","0.0-336.0","3OWEPKL08AYSHY92KKRPFJVBJVK7NZ","A345VDWYMDWTGD","3PIOQ99R7Y8STPN46QFY0SD7JTFNU0","","null","<img src=""img/flower6.png"" style=""width:200px; border:14px solid green;"">","null","","","","","","","","",""
"","image-keyboard-response","337","87623","0.0-337.0","3OWEPKL08AYSHY92KKRPFJVBJVK7NZ","A345VDWYMDWTGD","3PIOQ99R7Y8STPN46QFY0SD7JTFNU0","","163","img/flower4.png","76","165","3","1","3","2","1,0,0,1,1,0,1,0,1","0,0,1,1,0,1,0,1,1","2",""
"","html-keyboard-response","338","87930","0.0-338.0","3OWEPKL08AYSHY92KKRPFJVBJVK7NZ","A345VDWYMDWTGD","3PIOQ99R7Y8STPN46QFY0SD7JTFNU0","","null","<img src=""img/flower4.png"" style=""width:200px; border:14px solid green;"">","null","","","","","","","","",""
"","image-keyboard-response","339","88128","0.0-339.0","3OWEPKL08AYSHY92KKRPFJVBJVK7NZ","A345VDWYMDWTGD","3PIOQ99R7Y8STPN46QFY0SD7JTFNU0","","195.80000019073486","img/flower6.png","76","197.7999997138977","3","1","2","2","1,0,0,1,1,0,1,0,1","0,0,1,1,0,1,0,1,1","2",""
"","html-keyboard-response","340","88436","0.0-340.0","3OWEPKL08AYSHY92KKRPFJVBJVK7NZ","A345VDWYMDWTGD","3PIOQ99R7Y8STPN46QFY0SD7JTFNU0","","null","<img src=""img/flower6.png"" style=""width:200px; border:14px solid green;"">","null","","","","","","","","",""
"","image-keyboard-response","341","88573","0.0-341.0","3OWEPKL08AYSHY92KKRPFJVBJVK7NZ","A345VDWYMDWTGD","3PIOQ99R7Y8STPN46QFY0SD7JTFNU0","","135.30000019073486","img/flower6.png","76","137.2999997138977","3","1","2","2","1,0,0,1,1,0,1,0,1","0,0,1,1,0,1,0,1,1","2",""
"","html-keyboard-response","342","88881","0.0-342.0","3OWEPKL08AYSHY92KKRPFJVBJVK7NZ","A345VDWYMDWTGD","3PIOQ99R7Y8STPN46QFY0SD7JTFNU0","","null","<img src=""img/flower6.png"" style=""width:200px; border:14px solid green;"">","null","","","","","","","","",""
"","image-keyboard-response","343","89142","0.0-343.0","3OWEPKL08AYSHY92KKRPFJVBJVK7NZ","A345VDWYMDWTGD","3PIOQ99R7Y8STPN46QFY0SD7JTFNU0","","259.30000019073486","img/flower6.png","76","261.2000002861023","3","1","2","2","1,0,0,1,1,0,1,0,1","0,0,1,1,0,1,0,1,1","2",""
"","html-keyboard-response","344","89450","0.0-344.0","3OWEPKL08AYSHY92KKRPFJVBJVK7NZ","A345VDWYMDWTGD","3PIOQ99R7Y8STPN46QFY0SD7JTFNU0","","null","<img src=""img/flower6.png"" style=""width:200px; border:14px solid green;"">","null","","","","","","","","",""
"","image-keyboard-response","345","89510","0.0-345.0","3OWEPKL08AYSHY92KKRPFJVBJVK7NZ","A345VDWYMDWTGD","3PIOQ99R7Y8STPN46QFY0SD7JTFNU0","","57.59999990463257","img/flower4.png","76","59.5","3","1","3","2","1,0,0,1,1,0,1,0,1","0,0,1,1,0,1,0,1,1","2",""
"","html-keyboard-response","346","89817","0.0-346.0","3OWEPKL08AYSHY92KKRPFJVBJVK7NZ","A345VDWYMDWTGD","3PIOQ99R7Y8STPN46QFY0SD7JTFNU0","","null","<img src=""img/flower4.png"" style=""width:200px; border:14px solid green;"">","null","","","","","","","","",""
"","image-keyboard-response","347","89911","0.0-347.0","3OWEPKL08AYSHY92KKRPFJVBJVK7NZ","A345VDWYMDWTGD","3PIOQ99R7Y8STPN46QFY0SD7JTFNU0","","91.80000019073486","img/flower6.png","74","93.59999990463257","1","1","2","2","1,0,0,1,1,0,1,0,1","0,0,1,1,0,1,0,1,1","2",""
"","html-keyboard-response","348","90216","0.0-348.0","3OWEPKL08AYSHY92KKRPFJVBJVK7NZ","A345VDWYMDWTGD","3PIOQ99R7Y8STPN46QFY0SD7JTFNU0","","null","<img src=""img/flower6.png"" style=""width:200px; border:14px solid green;"">","null","","","","","","","","",""
"","image-keyboard-response","349","90244","0.0-349.0","3OWEPKL08AYSHY92KKRPFJVBJVK7NZ","A345VDWYMDWTGD","3PIOQ99R7Y8STPN46QFY0SD7JTFNU0","","26.5","img/flower4.png","75","28.5","2","1","3","2","1,0,0,1,1,0,1,0,1","0,0,1,1,0,1,0,1,1","2",""
"","html-keyboard-response","350","90551","0.0-350.0","3OWEPKL08AYSHY92KKRPFJVBJVK7NZ","A345VDWYMDWTGD","3PIOQ99R7Y8STPN46QFY0SD7JTFNU0","","null","<img src=""img/flower4.png"" style=""width:200px; border:14px solid green;"">","null","","","","","","","","",""
"","image-keyboard-response","351","90588","0.0-351.0","3OWEPKL08AYSHY92KKRPFJVBJVK7NZ","A345VDWYMDWTGD","3PIOQ99R7Y8STPN46QFY0SD7JTFNU0","","34.59999990463257","img/flower4.png","76","36.5","3","1","3","2","1,0,0,1,1,0,1,0,1","0,0,1,1,0,1,0,1,1","2",""
"","html-keyboard-response","352","90895","0.0-352.0","3OWEPKL08AYSHY92KKRPFJVBJVK7NZ","A345VDWYMDWTGD","3PIOQ99R7Y8STPN46QFY0SD7JTFNU0","","null","<img src=""img/flower4.png"" style=""width:200px; border:14px solid green;"">","null","","","","","","","","",""
"","image-keyboard-response","353","91049","0.0-353.0","3OWEPKL08AYSHY92KKRPFJVBJVK7NZ","A345VDWYMDWTGD","3PIOQ99R7Y8STPN46QFY0SD7JTFNU0","","151.90000009536743","img/flower5.png","76","153.7999997138977","3","1","1","2","1,0,0,1,1,0,1,0,1","0,0,1,1,0,1,0,1,1","2",""
"","html-keyboard-response","354","91356","0.0-354.0","3OWEPKL08AYSHY92KKRPFJVBJVK7NZ","A345VDWYMDWTGD","3PIOQ99R7Y8STPN46QFY0SD7JTFNU0","","null","<img src=""img/flower5.png"" style=""width:200px; border:14px solid green;"">","null","","","","","","","","",""
"","image-keyboard-response","355","91398","0.0-355.0","3OWEPKL08AYSHY92KKRPFJVBJVK7NZ","A345VDWYMDWTGD","3PIOQ99R7Y8STPN46QFY0SD7JTFNU0","","41","img/flower5.png","75","41.59999990463257","2","0","1","2","1,0,0,1,1,0,1,0,1","0,0,1,1,0,1,0,1,1","2",""
"","html-keyboard-response","356","91705","0.0-356.0","3OWEPKL08AYSHY92KKRPFJVBJVK7NZ","A345VDWYMDWTGD","3PIOQ99R7Y8STPN46QFY0SD7JTFNU0","","null","<img src=""img/flower5.png"" style=""width:200px;border:14px solid red;"">","null","","","","","","","","",""
"","image-keyboard-response","357","91971","0.0-357.0","3OWEPKL08AYSHY92KKRPFJVBJVK7NZ","A345VDWYMDWTGD","3PIOQ99R7Y8STPN46QFY0SD7JTFNU0","","263.2000002861023","img/flower5.png","74","265.19999980926514","1","0","1","2","1,0,0,1,1,0,1,0,1","0,0,1,1,0,1,0,1,1","2",""
"","html-keyboard-response","358","92278","0.0-358.0","3OWEPKL08AYSHY92KKRPFJVBJVK7NZ","A345VDWYMDWTGD","3PIOQ99R7Y8STPN46QFY0SD7JTFNU0","","null","<img src=""img/flower5.png"" style=""width:200px;border:14px solid red;"">","null","","","","","","","","",""
"","image-keyboard-response","359","92421","0.0-359.0","3OWEPKL08AYSHY92KKRPFJVBJVK7NZ","A345VDWYMDWTGD","3PIOQ99R7Y8STPN46QFY0SD7JTFNU0","","140.5","img/flower5.png","76","142.30000019073486","3","1","1","2","1,0,0,1,1,0,1,0,1","0,0,1,1,0,1,0,1,1","2",""
"","html-keyboard-response","360","92729","0.0-360.0","3OWEPKL08AYSHY92KKRPFJVBJVK7NZ","A345VDWYMDWTGD","3PIOQ99R7Y8STPN46QFY0SD7JTFNU0","","null","<img src=""img/flower5.png"" style=""width:200px; border:14px solid green;"">","null","","","","","","","","",""
"","image-keyboard-response","361","93193","0.0-361.0","3OWEPKL08AYSHY92KKRPFJVBJVK7NZ","A345VDWYMDWTGD","3PIOQ99R7Y8STPN46QFY0SD7JTFNU0","","462.19999980926514","img/flower5.png","76","464.1000003814697","3","1","1","2","1,0,0,1,1,0,1,0,1","0,0,1,1,0,1,0,1,1","2",""
"","html-keyboard-response","362","93501","0.0-362.0","3OWEPKL08AYSHY92KKRPFJVBJVK7NZ","A345VDWYMDWTGD","3PIOQ99R7Y8STPN46QFY0SD7JTFNU0","","null","<img src=""img/flower5.png"" style=""width:200px; border:14px solid green;"">","null","","","","","","","","",""
"","instructions","363","94800","0.0-363.0","3OWEPKL08AYSHY92KKRPFJVBJVK7NZ","A345VDWYMDWTGD","3PIOQ99R7Y8STPN46QFY0SD7JTFNU0","[{""page_index"":0,""viewing_time"":1296.5999999046326}]","1297.0999999046326","","","","","","","","","","",""
"","survey-text","364","98169","0.0-364.0","3OWEPKL08AYSHY92KKRPFJVBJVK7NZ","A345VDWYMDWTGD","3PIOQ99R7Y8STPN46QFY0SD7JTFNU0","","3364.2000002861023","","","","","","","","","","","{""Q0"":""A345VDWYMDWTGD""}"
