"success","trial_type","trial_index","time_elapsed","internal_node_id","assignmentID","mturkID","hitID","view_history","rt","stimulus","key_press","reactionTime","a","r","s","cond","reward_cond","reward_cond_actual","reward_matrix_idx","responses"
"true","fullscreen","0","2911","0.0-0.0","3WYP994K18D3PXZB8CV8QLTMS45Y6I","A34U4186EW0B9X","3PIOQ99R7Y8STPN46QFY0SD7JTFNU0","","","","","","","","","","","","",""
"","instructions","1","23246","0.0-1.0","3WYP994K18D3PXZB8CV8QLTMS45Y6I","A34U4186EW0B9X","3PIOQ99R7Y8STPN46QFY0SD7JTFNU0","[{""page_index"":0,""viewing_time"":3016.600000143051},{""page_index"":1,""viewing_time"":1291.7999999523163},{""page_index"":2,""viewing_time"":2871.0999999046326},{""page_index"":3,""viewing_time"":2966},{""page_index"":4,""viewing_time"":6534},{""page_index"":5,""viewing_time"":1310},{""page_index"":6,""viewing_time"":1267},{""page_index"":7,""viewing_time"":1077.1000001430511}]","20333.700000047684","","","","","","","","","","",""
"","image-keyboard-response","2","23854","0.0-2.0","3WYP994K18D3PXZB8CV8QLTMS45Y6I","A34U4186EW0B9X","3PIOQ99R7Y8STPN46QFY0SD7JTFNU0","","606.7000000476837","img/flower5.png","74","607.5","1","1","1","1","1,0.333,0.333,0.333,1,0.333,0.333,0.333,1","1,0.333,0.333,0.333,1,0.333,0.333,0.333,1","1",""
"","html-keyboard-response","3","24161","0.0-3.0","3WYP994K18D3PXZB8CV8QLTMS45Y6I","A34U4186EW0B9X","3PIOQ99R7Y8STPN46QFY0SD7JTFNU0","","null","<img src=""img/flower5.png"" style=""width:200px; border:14px solid green;"">","null","","","","","","","","",""
"","image-keyboard-response","4","24346","0.0-4.0","3WYP994K18D3PXZB8CV8QLTMS45Y6I","A34U4186EW0B9X","3PIOQ99R7Y8STPN46QFY0SD7JTFNU0","","184.59999990463257","img/flower5.png","74","185","1","1","1","1","1,0.333,0.333,0.333,1,0.333,0.333,0.333,1","1,0.333,0.333,0.333,1,0.333,0.333,0.333,1","1",""
"","html-keyboard-response","5","24661","0.0-5.0","3WYP994K18D3PXZB8CV8QLTMS45Y6I","A34U4186EW0B9X","3PIOQ99R7Y8STPN46QFY0SD7JTFNU0","","null","<img src=""img/flower5.png"" style=""width:200px; border:14px solid green;"">","null","","","","","","","","",""
"","image-keyboard-response","6","24816","0.0-6.0","3WYP994K18D3PXZB8CV8QLTMS45Y6I","A34U4186EW0B9X","3PIOQ99R7Y8STPN46QFY0SD7JTFNU0","","153.60000014305115","img/flower2.png","74","154.19999980926514","1","0","3","1","1,0.333,0.333,0.333,1,0.333,0.333,0.333,1","1,0.333,0.333,0.333,1,0.333,0.333,0.333,1","1",""
"","html-keyboard-response","7","25132","0.0-7.0","3WYP994K18D3PXZB8CV8QLTMS45Y6I","A34U4186EW0B9X","3PIOQ99R7Y8STPN46QFY0SD7JTFNU0","","null","<img src=""img/flower2.png"" style=""width:200px;border:14px solid red;"">","null","","","","","","","","",""
"","image-keyboard-response","8","25197","0.0-8.0","3WYP994K18D3PXZB8CV8QLTMS45Y6I","A34U4186EW0B9X","3PIOQ99R7Y8STPN46QFY0SD7JTFNU0","","64.60000014305115","img/flower1.png","74","65.10000014305115","1","1","2","1","1,0.333,0.333,0.333,1,0.333,0.333,0.333,1","1,0.333,0.333,0.333,1,0.333,0.333,0.333,1","1",""
"","html-keyboard-response","9","25510","0.0-9.0","3WYP994K18D3PXZB8CV8QLTMS45Y6I","A34U4186EW0B9X","3PIOQ99R7Y8STPN46QFY0SD7JTFNU0","","null","<img src=""img/flower1.png"" style=""width:200px; border:14px solid green;"">","null","","","","","","","","",""
"","image-keyboard-response","10","25655","0.0-10.0","3WYP994K18D3PXZB8CV8QLTMS45Y6I","A34U4186EW0B9X","3PIOQ99R7Y8STPN46QFY0SD7JTFNU0","","143.5","img/flower5.png","74","144.09999990463257","1","1","1","1","1,0.333,0.333,0.333,1,0.333,0.333,0.333,1","1,0.333,0.333,0.333,1,0.333,0.333,0.333,1","1",""
"","html-keyboard-response","11","25968","0.0-11.0","3WYP994K18D3PXZB8CV8QLTMS45Y6I","A34U4186EW0B9X","3PIOQ99R7Y8STPN46QFY0SD7JTFNU0","","null","<img src=""img/flower5.png"" style=""width:200px; border:14px solid green;"">","null","","","","","","","","",""
"","image-keyboard-response","12","26038","0.0-12.0","3WYP994K18D3PXZB8CV8QLTMS45Y6I","A34U4186EW0B9X","3PIOQ99R7Y8STPN46QFY0SD7JTFNU0","","69.20000004768372","img/flower1.png","74","69.70000004768372","1","1","2","1","1,0.333,0.333,0.333,1,0.333,0.333,0.333,1","1,0.333,0.333,0.333,1,0.333,0.333,0.333,1","1",""
"","html-keyboard-response","13","26346","0.0-13.0","3WYP994K18D3PXZB8CV8QLTMS45Y6I","A34U4186EW0B9X","3PIOQ99R7Y8STPN46QFY0SD7JTFNU0","","null","<img src=""img/flower1.png"" style=""width:200px; border:14px solid green;"">","null","","","","","","","","",""
"","image-keyboard-response","14","26415","0.0-14.0","3WYP994K18D3PXZB8CV8QLTMS45Y6I","A34U4186EW0B9X","3PIOQ99R7Y8STPN46QFY0SD7JTFNU0","","68","img/flower1.png","74","68.29999995231628","1","1","2","1","1,0.333,0.333,0.333,1,0.333,0.333,0.333,1","1,0.333,0.333,0.333,1,0.333,0.333,0.333,1","1",""
"","html-keyboard-response","15","26723","0.0-15.0","3WYP994K18D3PXZB8CV8QLTMS45Y6I","A34U4186EW0B9X","3PIOQ99R7Y8STPN46QFY0SD7JTFNU0","","null","<img src=""img/flower1.png"" style=""width:200px; border:14px solid green;"">","null","","","","","","","","",""
"","image-keyboard-response","16","26803","0.0-16.0","3WYP994K18D3PXZB8CV8QLTMS45Y6I","A34U4186EW0B9X","3PIOQ99R7Y8STPN46QFY0SD7JTFNU0","","79","img/flower2.png","74","79.5","1","0","3","1","1,0.333,0.333,0.333,1,0.333,0.333,0.333,1","1,0.333,0.333,0.333,1,0.333,0.333,0.333,1","1",""
"","html-keyboard-response","17","27114","0.0-17.0","3WYP994K18D3PXZB8CV8QLTMS45Y6I","A34U4186EW0B9X","3PIOQ99R7Y8STPN46QFY0SD7JTFNU0","","null","<img src=""img/flower2.png"" style=""width:200px;border:14px solid red;"">","null","","","","","","","","",""
"","image-keyboard-response","18","27506","0.0-18.0","3WYP994K18D3PXZB8CV8QLTMS45Y6I","A34U4186EW0B9X","3PIOQ99R7Y8STPN46QFY0SD7JTFNU0","","391.09999990463257","img/flower2.png","74","391.59999990463257","1","1","3","1","1,0.333,0.333,0.333,1,0.333,0.333,0.333,1","1,0.333,0.333,0.333,1,0.333,0.333,0.333,1","1",""
"","html-keyboard-response","19","27818","0.0-19.0","3WYP994K18D3PXZB8CV8QLTMS45Y6I","A34U4186EW0B9X","3PIOQ99R7Y8STPN46QFY0SD7JTFNU0","","null","<img src=""img/flower2.png"" style=""width:200px; border:14px solid green;"">","null","","","","","","","","",""
"","image-keyboard-response","20","27920","0.0-20.0","3WYP994K18D3PXZB8CV8QLTMS45Y6I","A34U4186EW0B9X","3PIOQ99R7Y8STPN46QFY0SD7JTFNU0","","100.89999985694885","img/flower1.png","74","101.20000004768372","1","0","2","1","1,0.333,0.333,0.333,1,0.333,0.333,0.333,1","1,0.333,0.333,0.333,1,0.333,0.333,0.333,1","1",""
"","html-keyboard-response","21","28224","0.0-21.0","3WYP994K18D3PXZB8CV8QLTMS45Y6I","A34U4186EW0B9X","3PIOQ99R7Y8STPN46QFY0SD7JTFNU0","","null","<img src=""img/flower1.png"" style=""width:200px;border:14px solid red;"">","null","","","","","","","","",""
"","image-keyboard-response","22","28362","0.0-22.0","3WYP994K18D3PXZB8CV8QLTMS45Y6I","A34U4186EW0B9X","3PIOQ99R7Y8STPN46QFY0SD7JTFNU0","","137.29999995231628","img/flower5.png","74","137.70000004768372","1","1","1","1","1,0.333,0.333,0.333,1,0.333,0.333,0.333,1","1,0.333,0.333,0.333,1,0.333,0.333,0.333,1","1",""
"","html-keyboard-response","23","28663","0.0-23.0","3WYP994K18D3PXZB8CV8QLTMS45Y6I","A34U4186EW0B9X","3PIOQ99R7Y8STPN46QFY0SD7JTFNU0","","null","<img src=""img/flower5.png"" style=""width:200px; border:14px solid green;"">","null","","","","","","","","",""
"","image-keyboard-response","24","28925","0.0-24.0","3WYP994K18D3PXZB8CV8QLTMS45Y6I","A34U4186EW0B9X","3PIOQ99R7Y8STPN46QFY0SD7JTFNU0","","261.69999980926514","img/flower5.png","74","262.2000000476837","1","1","1","1","1,0.333,0.333,0.333,1,0.333,0.333,0.333,1","1,0.333,0.333,0.333,1,0.333,0.333,0.333,1","1",""
"","html-keyboard-response","25","29226","0.0-25.0","3WYP994K18D3PXZB8CV8QLTMS45Y6I","A34U4186EW0B9X","3PIOQ99R7Y8STPN46QFY0SD7JTFNU0","","null","<img src=""img/flower5.png"" style=""width:200px; border:14px solid green;"">","null","","","","","","","","",""
"","image-keyboard-response","26","29429","0.0-26.0","3WYP994K18D3PXZB8CV8QLTMS45Y6I","A34U4186EW0B9X","3PIOQ99R7Y8STPN46QFY0SD7JTFNU0","","202.40000009536743","img/flower2.png","74","202.90000009536743","1","0","3","1","1,0.333,0.333,0.333,1,0.333,0.333,0.333,1","1,0.333,0.333,0.333,1,0.333,0.333,0.333,1","1",""
"","html-keyboard-response","27","29730","0.0-27.0","3WYP994K18D3PXZB8CV8QLTMS45Y6I","A34U4186EW0B9X","3PIOQ99R7Y8STPN46QFY0SD7JTFNU0","","null","<img src=""img/flower2.png"" style=""width:200px;border:14px solid red;"">","null","","","","","","","","",""
"","image-keyboard-response","28","29868","0.0-28.0","3WYP994K18D3PXZB8CV8QLTMS45Y6I","A34U4186EW0B9X","3PIOQ99R7Y8STPN46QFY0SD7JTFNU0","","137.39999985694885","img/flower5.png","74","137.80000019073486","1","1","1","1","1,0.333,0.333,0.333,1,0.333,0.333,0.333,1","1,0.333,0.333,0.333,1,0.333,0.333,0.333,1","1",""
"","html-keyboard-response","29","30169","0.0-29.0","3WYP994K18D3PXZB8CV8QLTMS45Y6I","A34U4186EW0B9X","3PIOQ99R7Y8STPN46QFY0SD7JTFNU0","","null","<img src=""img/flower5.png"" style=""width:200px; border:14px solid green;"">","null","","","","","","","","",""
"","image-keyboard-response","30","30313","0.0-30.0","3WYP994K18D3PXZB8CV8QLTMS45Y6I","A34U4186EW0B9X","3PIOQ99R7Y8STPN46QFY0SD7JTFNU0","","143.80000019073486","img/flower1.png","74","144.20000004768372","1","0","2","1","1,0.333,0.333,0.333,1,0.333,0.333,0.333,1","1,0.333,0.333,0.333,1,0.333,0.333,0.333,1","1",""
"","html-keyboard-response","31","30614","0.0-31.0","3WYP994K18D3PXZB8CV8QLTMS45Y6I","A34U4186EW0B9X","3PIOQ99R7Y8STPN46QFY0SD7JTFNU0","","null","<img src=""img/flower1.png"" style=""width:200px;border:14px solid red;"">","null","","","","","","","","",""
"","image-keyboard-response","32","30729","0.0-32.0","3WYP994K18D3PXZB8CV8QLTMS45Y6I","A34U4186EW0B9X","3PIOQ99R7Y8STPN46QFY0SD7JTFNU0","","114.59999990463257","img/flower2.png","74","115.10000014305115","1","0","3","1","1,0.333,0.333,0.333,1,0.333,0.333,0.333,1","1,0.333,0.333,0.333,1,0.333,0.333,0.333,1","1",""
"","html-keyboard-response","33","31030","0.0-33.0","3WYP994K18D3PXZB8CV8QLTMS45Y6I","A34U4186EW0B9X","3PIOQ99R7Y8STPN46QFY0SD7JTFNU0","","null","<img src=""img/flower2.png"" style=""width:200px;border:14px solid red;"">","null","","","","","","","","",""
"","image-keyboard-response","34","31532","0.0-34.0","3WYP994K18D3PXZB8CV8QLTMS45Y6I","A34U4186EW0B9X","3PIOQ99R7Y8STPN46QFY0SD7JTFNU0","","501.7999999523163","img/flower2.png","75","502.09999990463257","2","0","3","1","1,0.333,0.333,0.333,1,0.333,0.333,0.333,1","1,0.333,0.333,0.333,1,0.333,0.333,0.333,1","1",""
"","html-keyboard-response","35","31833","0.0-35.0","3WYP994K18D3PXZB8CV8QLTMS45Y6I","A34U4186EW0B9X","3PIOQ99R7Y8STPN46QFY0SD7JTFNU0","","null","<img src=""img/flower2.png"" style=""width:200px;border:14px solid red;"">","null","","","","","","","","",""
"","image-keyboard-response","36","31997","0.0-36.0","3WYP994K18D3PXZB8CV8QLTMS45Y6I","A34U4186EW0B9X","3PIOQ99R7Y8STPN46QFY0SD7JTFNU0","","164","img/flower1.png","76","164.5","3","0","2","1","1,0.333,0.333,0.333,1,0.333,0.333,0.333,1","1,0.333,0.333,0.333,1,0.333,0.333,0.333,1","1",""
"","html-keyboard-response","37","32298","0.0-37.0","3WYP994K18D3PXZB8CV8QLTMS45Y6I","A34U4186EW0B9X","3PIOQ99R7Y8STPN46QFY0SD7JTFNU0","","null","<img src=""img/flower1.png"" style=""width:200px;border:14px solid red;"">","null","","","","","","","","",""
"","image-keyboard-response","38","32455","0.0-38.0","3WYP994K18D3PXZB8CV8QLTMS45Y6I","A34U4186EW0B9X","3PIOQ99R7Y8STPN46QFY0SD7JTFNU0","","156.89999985694885","img/flower1.png","74","157.29999995231628","1","0","2","1","1,0.333,0.333,0.333,1,0.333,0.333,0.333,1","1,0.333,0.333,0.333,1,0.333,0.333,0.333,1","1",""
"","html-keyboard-response","39","32756","0.0-39.0","3WYP994K18D3PXZB8CV8QLTMS45Y6I","A34U4186EW0B9X","3PIOQ99R7Y8STPN46QFY0SD7JTFNU0","","null","<img src=""img/flower1.png"" style=""width:200px;border:14px solid red;"">","null","","","","","","","","",""
"","image-keyboard-response","40","32953","0.0-40.0","3WYP994K18D3PXZB8CV8QLTMS45Y6I","A34U4186EW0B9X","3PIOQ99R7Y8STPN46QFY0SD7JTFNU0","","196.29999995231628","img/flower2.png","74","196.79999995231628","1","0","3","1","1,0.333,0.333,0.333,1,0.333,0.333,0.333,1","1,0.333,0.333,0.333,1,0.333,0.333,0.333,1","1",""
"","html-keyboard-response","41","33259","0.0-41.0","3WYP994K18D3PXZB8CV8QLTMS45Y6I","A34U4186EW0B9X","3PIOQ99R7Y8STPN46QFY0SD7JTFNU0","","null","<img src=""img/flower2.png"" style=""width:200px;border:14px solid red;"">","null","","","","","","","","",""
"","image-keyboard-response","42","33682","0.0-42.0","3WYP994K18D3PXZB8CV8QLTMS45Y6I","A34U4186EW0B9X","3PIOQ99R7Y8STPN46QFY0SD7JTFNU0","","422.7999999523163","img/flower2.png","76","423.2000000476837","3","1","3","1","1,0.333,0.333,0.333,1,0.333,0.333,0.333,1","1,0.333,0.333,0.333,1,0.333,0.333,0.333,1","1",""
"","html-keyboard-response","43","33983","0.0-43.0","3WYP994K18D3PXZB8CV8QLTMS45Y6I","A34U4186EW0B9X","3PIOQ99R7Y8STPN46QFY0SD7JTFNU0","","null","<img src=""img/flower2.png"" style=""width:200px; border:14px solid green;"">","null","","","","","","","","",""
"","image-keyboard-response","44","34224","0.0-44.0","3WYP994K18D3PXZB8CV8QLTMS45Y6I","A34U4186EW0B9X","3PIOQ99R7Y8STPN46QFY0SD7JTFNU0","","240","img/flower5.png","76","240.29999995231628","3","0","1","1","1,0.333,0.333,0.333,1,0.333,0.333,0.333,1","1,0.333,0.333,0.333,1,0.333,0.333,0.333,1","1",""
"","html-keyboard-response","45","34525","0.0-45.0","3WYP994K18D3PXZB8CV8QLTMS45Y6I","A34U4186EW0B9X","3PIOQ99R7Y8STPN46QFY0SD7JTFNU0","","null","<img src=""img/flower5.png"" style=""width:200px;border:14px solid red;"">","null","","","","","","","","",""
"","image-keyboard-response","46","35076","0.0-46.0","3WYP994K18D3PXZB8CV8QLTMS45Y6I","A34U4186EW0B9X","3PIOQ99R7Y8STPN46QFY0SD7JTFNU0","","550.0999999046326","img/flower2.png","75","550.4000000953674","2","0","3","1","1,0.333,0.333,0.333,1,0.333,0.333,0.333,1","1,0.333,0.333,0.333,1,0.333,0.333,0.333,1","1",""
"","html-keyboard-response","47","35377","0.0-47.0","3WYP994K18D3PXZB8CV8QLTMS45Y6I","A34U4186EW0B9X","3PIOQ99R7Y8STPN46QFY0SD7JTFNU0","","null","<img src=""img/flower2.png"" style=""width:200px;border:14px solid red;"">","null","","","","","","","","",""
"","image-keyboard-response","48","35579","0.0-48.0","3WYP994K18D3PXZB8CV8QLTMS45Y6I","A34U4186EW0B9X","3PIOQ99R7Y8STPN46QFY0SD7JTFNU0","","201.59999990463257","img/flower1.png","75","202","2","1","2","1","1,0.333,0.333,0.333,1,0.333,0.333,0.333,1","1,0.333,0.333,0.333,1,0.333,0.333,0.333,1","1",""
"","html-keyboard-response","49","35881","0.0-49.0","3WYP994K18D3PXZB8CV8QLTMS45Y6I","A34U4186EW0B9X","3PIOQ99R7Y8STPN46QFY0SD7JTFNU0","","null","<img src=""img/flower1.png"" style=""width:200px; border:14px solid green;"">","null","","","","","","","","",""
"","image-keyboard-response","50","36231","0.0-50.0","3WYP994K18D3PXZB8CV8QLTMS45Y6I","A34U4186EW0B9X","3PIOQ99R7Y8STPN46QFY0SD7JTFNU0","","349.69999980926514","img/flower2.png","75","350.10000014305115","2","0","3","1","1,0.333,0.333,0.333,1,0.333,0.333,0.333,1","1,0.333,0.333,0.333,1,0.333,0.333,0.333,1","1",""
"","html-keyboard-response","51","36532","0.0-51.0","3WYP994K18D3PXZB8CV8QLTMS45Y6I","A34U4186EW0B9X","3PIOQ99R7Y8STPN46QFY0SD7JTFNU0","","null","<img src=""img/flower2.png"" style=""width:200px;border:14px solid red;"">","null","","","","","","","","",""
"","image-keyboard-response","52","36728","0.0-52.0","3WYP994K18D3PXZB8CV8QLTMS45Y6I","A34U4186EW0B9X","3PIOQ99R7Y8STPN46QFY0SD7JTFNU0","","195.59999990463257","img/flower1.png","75","196.10000014305115","2","1","2","1","1,0.333,0.333,0.333,1,0.333,0.333,0.333,1","1,0.333,0.333,0.333,1,0.333,0.333,0.333,1","1",""
"","html-keyboard-response","53","37029","0.0-53.0","3WYP994K18D3PXZB8CV8QLTMS45Y6I","A34U4186EW0B9X","3PIOQ99R7Y8STPN46QFY0SD7JTFNU0","","null","<img src=""img/flower1.png"" style=""width:200px; border:14px solid green;"">","null","","","","","","","","",""
"","image-keyboard-response","54","37338","0.0-54.0","3WYP994K18D3PXZB8CV8QLTMS45Y6I","A34U4186EW0B9X","3PIOQ99R7Y8STPN46QFY0SD7JTFNU0","","308.2000000476837","img/flower1.png","75","308.60000014305115","2","1","2","1","1,0.333,0.333,0.333,1,0.333,0.333,0.333,1","1,0.333,0.333,0.333,1,0.333,0.333,0.333,1","1",""
"","html-keyboard-response","55","37639","0.0-55.0","3WYP994K18D3PXZB8CV8QLTMS45Y6I","A34U4186EW0B9X","3PIOQ99R7Y8STPN46QFY0SD7JTFNU0","","null","<img src=""img/flower1.png"" style=""width:200px; border:14px solid green;"">","null","","","","","","","","",""
"","image-keyboard-response","56","37830","0.0-56.0","3WYP994K18D3PXZB8CV8QLTMS45Y6I","A34U4186EW0B9X","3PIOQ99R7Y8STPN46QFY0SD7JTFNU0","","190.29999995231628","img/flower5.png","75","190.80000019073486","2","0","1","1","1,0.333,0.333,0.333,1,0.333,0.333,0.333,1","1,0.333,0.333,0.333,1,0.333,0.333,0.333,1","1",""
"","html-keyboard-response","57","38131","0.0-57.0","3WYP994K18D3PXZB8CV8QLTMS45Y6I","A34U4186EW0B9X","3PIOQ99R7Y8STPN46QFY0SD7JTFNU0","","null","<img src=""img/flower5.png"" style=""width:200px;border:14px solid red;"">","null","","","","","","","","",""
"","image-keyboard-response","58","38436","0.0-58.0","3WYP994K18D3PXZB8CV8QLTMS45Y6I","A34U4186EW0B9X","3PIOQ99R7Y8STPN46QFY0SD7JTFNU0","","304.80000019073486","img/flower5.png","75","305.2000000476837","2","0","1","1","1,0.333,0.333,0.333,1,0.333,0.333,0.333,1","1,0.333,0.333,0.333,1,0.333,0.333,0.333,1","1",""
"","html-keyboard-response","59","38737","0.0-59.0","3WYP994K18D3PXZB8CV8QLTMS45Y6I","A34U4186EW0B9X","3PIOQ99R7Y8STPN46QFY0SD7JTFNU0","","null","<img src=""img/flower5.png"" style=""width:200px;border:14px solid red;"">","null","","","","","","","","",""
"","image-keyboard-response","60","39050","0.0-60.0","3WYP994K18D3PXZB8CV8QLTMS45Y6I","A34U4186EW0B9X","3PIOQ99R7Y8STPN46QFY0SD7JTFNU0","","312.2000000476837","img/flower1.png","74","312.59999990463257","1","0","2","1","1,0.333,0.333,0.333,1,0.333,0.333,0.333,1","1,0.333,0.333,0.333,1,0.333,0.333,0.333,1","1",""
"","html-keyboard-response","61","39351","0.0-61.0","3WYP994K18D3PXZB8CV8QLTMS45Y6I","A34U4186EW0B9X","3PIOQ99R7Y8STPN46QFY0SD7JTFNU0","","null","<img src=""img/flower1.png"" style=""width:200px;border:14px solid red;"">","null","","","","","","","","",""
"","image-keyboard-response","62","40112","0.0-62.0","3WYP994K18D3PXZB8CV8QLTMS45Y6I","A34U4186EW0B9X","3PIOQ99R7Y8STPN46QFY0SD7JTFNU0","","760.5999999046326","img/flower1.png","74","761","1","1","2","1","1,0.333,0.333,0.333,1,0.333,0.333,0.333,1","1,0.333,0.333,0.333,1,0.333,0.333,0.333,1","1",""
"","html-keyboard-response","63","40413","0.0-63.0","3WYP994K18D3PXZB8CV8QLTMS45Y6I","A34U4186EW0B9X","3PIOQ99R7Y8STPN46QFY0SD7JTFNU0","","null","<img src=""img/flower1.png"" style=""width:200px; border:14px solid green;"">","null","","","","","","","","",""
"","image-keyboard-response","64","40605","0.0-64.0","3WYP994K18D3PXZB8CV8QLTMS45Y6I","A34U4186EW0B9X","3PIOQ99R7Y8STPN46QFY0SD7JTFNU0","","191.39999985694885","img/flower2.png","74","191.69999980926514","1","1","3","1","1,0.333,0.333,0.333,1,0.333,0.333,0.333,1","1,0.333,0.333,0.333,1,0.333,0.333,0.333,1","1",""
"","html-keyboard-response","65","40907","0.0-65.0","3WYP994K18D3PXZB8CV8QLTMS45Y6I","A34U4186EW0B9X","3PIOQ99R7Y8STPN46QFY0SD7JTFNU0","","null","<img src=""img/flower2.png"" style=""width:200px; border:14px solid green;"">","null","","","","","","","","",""
"","image-keyboard-response","66","41027","0.0-66.0","3WYP994K18D3PXZB8CV8QLTMS45Y6I","A34U4186EW0B9X","3PIOQ99R7Y8STPN46QFY0SD7JTFNU0","","119.70000004768372","img/flower5.png","74","120.20000004768372","1","1","1","1","1,0.333,0.333,0.333,1,0.333,0.333,0.333,1","1,0.333,0.333,0.333,1,0.333,0.333,0.333,1","1",""
"","html-keyboard-response","67","41335","0.0-67.0","3WYP994K18D3PXZB8CV8QLTMS45Y6I","A34U4186EW0B9X","3PIOQ99R7Y8STPN46QFY0SD7JTFNU0","","null","<img src=""img/flower5.png"" style=""width:200px; border:14px solid green;"">","null","","","","","","","","",""
"","image-keyboard-response","68","41489","0.0-68.0","3WYP994K18D3PXZB8CV8QLTMS45Y6I","A34U4186EW0B9X","3PIOQ99R7Y8STPN46QFY0SD7JTFNU0","","154.09999990463257","img/flower2.png","74","154.70000004768372","1","0","3","1","1,0.333,0.333,0.333,1,0.333,0.333,0.333,1","1,0.333,0.333,0.333,1,0.333,0.333,0.333,1","1",""
"","html-keyboard-response","69","41791","0.0-69.0","3WYP994K18D3PXZB8CV8QLTMS45Y6I","A34U4186EW0B9X","3PIOQ99R7Y8STPN46QFY0SD7JTFNU0","","null","<img src=""img/flower2.png"" style=""width:200px;border:14px solid red;"">","null","","","","","","","","",""
"","image-keyboard-response","70","42191","0.0-70.0","3WYP994K18D3PXZB8CV8QLTMS45Y6I","A34U4186EW0B9X","3PIOQ99R7Y8STPN46QFY0SD7JTFNU0","","399.90000009536743","img/flower5.png","75","400.30000019073486","2","0","1","1","1,0.333,0.333,0.333,1,0.333,0.333,0.333,1","1,0.333,0.333,0.333,1,0.333,0.333,0.333,1","1",""
"","html-keyboard-response","71","42492","0.0-71.0","3WYP994K18D3PXZB8CV8QLTMS45Y6I","A34U4186EW0B9X","3PIOQ99R7Y8STPN46QFY0SD7JTFNU0","","null","<img src=""img/flower5.png"" style=""width:200px;border:14px solid red;"">","null","","","","","","","","",""
"","image-keyboard-response","72","42664","0.0-72.0","3WYP994K18D3PXZB8CV8QLTMS45Y6I","A34U4186EW0B9X","3PIOQ99R7Y8STPN46QFY0SD7JTFNU0","","170.80000019073486","img/flower2.png","74","171.19999980926514","1","1","3","1","1,0.333,0.333,0.333,1,0.333,0.333,0.333,1","1,0.333,0.333,0.333,1,0.333,0.333,0.333,1","1",""
"","html-keyboard-response","73","42964","0.0-73.0","3WYP994K18D3PXZB8CV8QLTMS45Y6I","A34U4186EW0B9X","3PIOQ99R7Y8STPN46QFY0SD7JTFNU0","","null","<img src=""img/flower2.png"" style=""width:200px; border:14px solid green;"">","null","","","","","","","","",""
"","image-keyboard-response","74","43094","0.0-74.0","3WYP994K18D3PXZB8CV8QLTMS45Y6I","A34U4186EW0B9X","3PIOQ99R7Y8STPN46QFY0SD7JTFNU0","","128.5","img/flower1.png","74","129","1","0","2","1","1,0.333,0.333,0.333,1,0.333,0.333,0.333,1","1,0.333,0.333,0.333,1,0.333,0.333,0.333,1","1",""
"","html-keyboard-response","75","43395","0.0-75.0","3WYP994K18D3PXZB8CV8QLTMS45Y6I","A34U4186EW0B9X","3PIOQ99R7Y8STPN46QFY0SD7JTFNU0","","null","<img src=""img/flower1.png"" style=""width:200px;border:14px solid red;"">","null","","","","","","","","",""
"","image-keyboard-response","76","43782","0.0-76.0","3WYP994K18D3PXZB8CV8QLTMS45Y6I","A34U4186EW0B9X","3PIOQ99R7Y8STPN46QFY0SD7JTFNU0","","386.2000000476837","img/flower5.png","74","386.59999990463257","1","1","1","1","1,0.333,0.333,0.333,1,0.333,0.333,0.333,1","1,0.333,0.333,0.333,1,0.333,0.333,0.333,1","1",""
"","html-keyboard-response","77","44083","0.0-77.0","3WYP994K18D3PXZB8CV8QLTMS45Y6I","A34U4186EW0B9X","3PIOQ99R7Y8STPN46QFY0SD7JTFNU0","","null","<img src=""img/flower5.png"" style=""width:200px; border:14px solid green;"">","null","","","","","","","","",""
"","image-keyboard-response","78","44297","0.0-78.0","3WYP994K18D3PXZB8CV8QLTMS45Y6I","A34U4186EW0B9X","3PIOQ99R7Y8STPN46QFY0SD7JTFNU0","","213.60000014305115","img/flower1.png","74","213.89999985694885","1","1","2","1","1,0.333,0.333,0.333,1,0.333,0.333,0.333,1","1,0.333,0.333,0.333,1,0.333,0.333,0.333,1","1",""
"","html-keyboard-response","79","44607","0.0-79.0","3WYP994K18D3PXZB8CV8QLTMS45Y6I","A34U4186EW0B9X","3PIOQ99R7Y8STPN46QFY0SD7JTFNU0","","null","<img src=""img/flower1.png"" style=""width:200px; border:14px solid green;"">","null","","","","","","","","",""
"","image-keyboard-response","80","44874","0.0-80.0","3WYP994K18D3PXZB8CV8QLTMS45Y6I","A34U4186EW0B9X","3PIOQ99R7Y8STPN46QFY0SD7JTFNU0","","266.7000000476837","img/flower2.png","74","267.2000000476837","1","1","3","1","1,0.333,0.333,0.333,1,0.333,0.333,0.333,1","1,0.333,0.333,0.333,1,0.333,0.333,0.333,1","1",""
"","html-keyboard-response","81","45175","0.0-81.0","3WYP994K18D3PXZB8CV8QLTMS45Y6I","A34U4186EW0B9X","3PIOQ99R7Y8STPN46QFY0SD7JTFNU0","","null","<img src=""img/flower2.png"" style=""width:200px; border:14px solid green;"">","null","","","","","","","","",""
"","image-keyboard-response","82","45409","0.0-82.0","3WYP994K18D3PXZB8CV8QLTMS45Y6I","A34U4186EW0B9X","3PIOQ99R7Y8STPN46QFY0SD7JTFNU0","","233.69999980926514","img/flower5.png","74","234","1","1","1","1","1,0.333,0.333,0.333,1,0.333,0.333,0.333,1","1,0.333,0.333,0.333,1,0.333,0.333,0.333,1","1",""
"","html-keyboard-response","83","45709","0.0-83.0","3WYP994K18D3PXZB8CV8QLTMS45Y6I","A34U4186EW0B9X","3PIOQ99R7Y8STPN46QFY0SD7JTFNU0","","null","<img src=""img/flower5.png"" style=""width:200px; border:14px solid green;"">","null","","","","","","","","",""
"","image-keyboard-response","84","45969","0.0-84.0","3WYP994K18D3PXZB8CV8QLTMS45Y6I","A34U4186EW0B9X","3PIOQ99R7Y8STPN46QFY0SD7JTFNU0","","259.10000014305115","img/flower2.png","74","259.39999985694885","1","0","3","1","1,0.333,0.333,0.333,1,0.333,0.333,0.333,1","1,0.333,0.333,0.333,1,0.333,0.333,0.333,1","1",""
"","html-keyboard-response","85","46270","0.0-85.0","3WYP994K18D3PXZB8CV8QLTMS45Y6I","A34U4186EW0B9X","3PIOQ99R7Y8STPN46QFY0SD7JTFNU0","","null","<img src=""img/flower2.png"" style=""width:200px;border:14px solid red;"">","null","","","","","","","","",""
"","image-keyboard-response","86","46592","0.0-86.0","3WYP994K18D3PXZB8CV8QLTMS45Y6I","A34U4186EW0B9X","3PIOQ99R7Y8STPN46QFY0SD7JTFNU0","","321.59999990463257","img/flower2.png","74","322","1","1","3","1","1,0.333,0.333,0.333,1,0.333,0.333,0.333,1","1,0.333,0.333,0.333,1,0.333,0.333,0.333,1","1",""
"","html-keyboard-response","87","46893","0.0-87.0","3WYP994K18D3PXZB8CV8QLTMS45Y6I","A34U4186EW0B9X","3PIOQ99R7Y8STPN46QFY0SD7JTFNU0","","null","<img src=""img/flower2.png"" style=""width:200px; border:14px solid green;"">","null","","","","","","","","",""
"","image-keyboard-response","88","47045","0.0-88.0","3WYP994K18D3PXZB8CV8QLTMS45Y6I","A34U4186EW0B9X","3PIOQ99R7Y8STPN46QFY0SD7JTFNU0","","151.39999985694885","img/flower2.png","74","151.90000009536743","1","1","3","1","1,0.333,0.333,0.333,1,0.333,0.333,0.333,1","1,0.333,0.333,0.333,1,0.333,0.333,0.333,1","1",""
"","html-keyboard-response","89","47346","0.0-89.0","3WYP994K18D3PXZB8CV8QLTMS45Y6I","A34U4186EW0B9X","3PIOQ99R7Y8STPN46QFY0SD7JTFNU0","","null","<img src=""img/flower2.png"" style=""width:200px; border:14px solid green;"">","null","","","","","","","","",""
"","image-keyboard-response","90","47538","0.0-90.0","3WYP994K18D3PXZB8CV8QLTMS45Y6I","A34U4186EW0B9X","3PIOQ99R7Y8STPN46QFY0SD7JTFNU0","","191.70000004768372","img/flower2.png","74","192.20000004768372","1","1","3","1","1,0.333,0.333,0.333,1,0.333,0.333,0.333,1","1,0.333,0.333,0.333,1,0.333,0.333,0.333,1","1",""
"","html-keyboard-response","91","47839","0.0-91.0","3WYP994K18D3PXZB8CV8QLTMS45Y6I","A34U4186EW0B9X","3PIOQ99R7Y8STPN46QFY0SD7JTFNU0","","null","<img src=""img/flower2.png"" style=""width:200px; border:14px solid green;"">","null","","","","","","","","",""
"","image-keyboard-response","92","48054","0.0-92.0","3WYP994K18D3PXZB8CV8QLTMS45Y6I","A34U4186EW0B9X","3PIOQ99R7Y8STPN46QFY0SD7JTFNU0","","214.29999995231628","img/flower2.png","74","214.70000004768372","1","0","3","1","1,0.333,0.333,0.333,1,0.333,0.333,0.333,1","1,0.333,0.333,0.333,1,0.333,0.333,0.333,1","1",""
"","html-keyboard-response","93","48355","0.0-93.0","3WYP994K18D3PXZB8CV8QLTMS45Y6I","A34U4186EW0B9X","3PIOQ99R7Y8STPN46QFY0SD7JTFNU0","","null","<img src=""img/flower2.png"" style=""width:200px;border:14px solid red;"">","null","","","","","","","","",""
"","image-keyboard-response","94","48799","0.0-94.0","3WYP994K18D3PXZB8CV8QLTMS45Y6I","A34U4186EW0B9X","3PIOQ99R7Y8STPN46QFY0SD7JTFNU0","","443.59999990463257","img/flower5.png","74","444","1","1","1","1","1,0.333,0.333,0.333,1,0.333,0.333,0.333,1","1,0.333,0.333,0.333,1,0.333,0.333,0.333,1","1",""
"","html-keyboard-response","95","49100","0.0-95.0","3WYP994K18D3PXZB8CV8QLTMS45Y6I","A34U4186EW0B9X","3PIOQ99R7Y8STPN46QFY0SD7JTFNU0","","null","<img src=""img/flower5.png"" style=""width:200px; border:14px solid green;"">","null","","","","","","","","",""
"","image-keyboard-response","96","49302","0.0-96.0","3WYP994K18D3PXZB8CV8QLTMS45Y6I","A34U4186EW0B9X","3PIOQ99R7Y8STPN46QFY0SD7JTFNU0","","202","img/flower1.png","74","202.29999995231628","1","1","2","1","1,0.333,0.333,0.333,1,0.333,0.333,0.333,1","1,0.333,0.333,0.333,1,0.333,0.333,0.333,1","1",""
"","html-keyboard-response","97","49603","0.0-97.0","3WYP994K18D3PXZB8CV8QLTMS45Y6I","A34U4186EW0B9X","3PIOQ99R7Y8STPN46QFY0SD7JTFNU0","","null","<img src=""img/flower1.png"" style=""width:200px; border:14px solid green;"">","null","","","","","","","","",""
"","image-keyboard-response","98","49788","0.0-98.0","3WYP994K18D3PXZB8CV8QLTMS45Y6I","A34U4186EW0B9X","3PIOQ99R7Y8STPN46QFY0SD7JTFNU0","","184.59999990463257","img/flower1.png","74","185","1","1","2","1","1,0.333,0.333,0.333,1,0.333,0.333,0.333,1","1,0.333,0.333,0.333,1,0.333,0.333,0.333,1","1",""
"","html-keyboard-response","99","50090","0.0-99.0","3WYP994K18D3PXZB8CV8QLTMS45Y6I","A34U4186EW0B9X","3PIOQ99R7Y8STPN46QFY0SD7JTFNU0","","null","<img src=""img/flower1.png"" style=""width:200px; border:14px solid green;"">","null","","","","","","","","",""
"","image-keyboard-response","100","50257","0.0-100.0","3WYP994K18D3PXZB8CV8QLTMS45Y6I","A34U4186EW0B9X","3PIOQ99R7Y8STPN46QFY0SD7JTFNU0","","167.20000004768372","img/flower5.png","74","167.70000004768372","1","1","1","1","1,0.333,0.333,0.333,1,0.333,0.333,0.333,1","1,0.333,0.333,0.333,1,0.333,0.333,0.333,1","1",""
"","html-keyboard-response","101","50558","0.0-101.0","3WYP994K18D3PXZB8CV8QLTMS45Y6I","A34U4186EW0B9X","3PIOQ99R7Y8STPN46QFY0SD7JTFNU0","","null","<img src=""img/flower5.png"" style=""width:200px; border:14px solid green;"">","null","","","","","","","","",""
"","image-keyboard-response","102","50760","0.0-102.0","3WYP994K18D3PXZB8CV8QLTMS45Y6I","A34U4186EW0B9X","3PIOQ99R7Y8STPN46QFY0SD7JTFNU0","","201.90000009536743","img/flower1.png","74","202.29999995231628","1","0","2","1","1,0.333,0.333,0.333,1,0.333,0.333,0.333,1","1,0.333,0.333,0.333,1,0.333,0.333,0.333,1","1",""
"","html-keyboard-response","103","51061","0.0-103.0","3WYP994K18D3PXZB8CV8QLTMS45Y6I","A34U4186EW0B9X","3PIOQ99R7Y8STPN46QFY0SD7JTFNU0","","null","<img src=""img/flower1.png"" style=""width:200px;border:14px solid red;"">","null","","","","","","","","",""
"","image-keyboard-response","104","51516","0.0-104.0","3WYP994K18D3PXZB8CV8QLTMS45Y6I","A34U4186EW0B9X","3PIOQ99R7Y8STPN46QFY0SD7JTFNU0","","454.40000009536743","img/flower2.png","74","454.7999999523163","1","0","3","1","1,0.333,0.333,0.333,1,0.333,0.333,0.333,1","1,0.333,0.333,0.333,1,0.333,0.333,0.333,1","1",""
"","html-keyboard-response","105","51817","0.0-105.0","3WYP994K18D3PXZB8CV8QLTMS45Y6I","A34U4186EW0B9X","3PIOQ99R7Y8STPN46QFY0SD7JTFNU0","","null","<img src=""img/flower2.png"" style=""width:200px;border:14px solid red;"">","null","","","","","","","","",""
"","image-keyboard-response","106","52142","0.0-106.0","3WYP994K18D3PXZB8CV8QLTMS45Y6I","A34U4186EW0B9X","3PIOQ99R7Y8STPN46QFY0SD7JTFNU0","","324.2000000476837","img/flower1.png","74","324.69999980926514","1","0","2","1","1,0.333,0.333,0.333,1,0.333,0.333,0.333,1","1,0.333,0.333,0.333,1,0.333,0.333,0.333,1","1",""
"","html-keyboard-response","107","52443","0.0-107.0","3WYP994K18D3PXZB8CV8QLTMS45Y6I","A34U4186EW0B9X","3PIOQ99R7Y8STPN46QFY0SD7JTFNU0","","null","<img src=""img/flower1.png"" style=""width:200px;border:14px solid red;"">","null","","","","","","","","",""
"","image-keyboard-response","108","52671","0.0-108.0","3WYP994K18D3PXZB8CV8QLTMS45Y6I","A34U4186EW0B9X","3PIOQ99R7Y8STPN46QFY0SD7JTFNU0","","227.39999985694885","img/flower2.png","74","227.79999995231628","1","0","3","1","1,0.333,0.333,0.333,1,0.333,0.333,0.333,1","1,0.333,0.333,0.333,1,0.333,0.333,0.333,1","1",""
"","html-keyboard-response","109","52972","0.0-109.0","3WYP994K18D3PXZB8CV8QLTMS45Y6I","A34U4186EW0B9X","3PIOQ99R7Y8STPN46QFY0SD7JTFNU0","","null","<img src=""img/flower2.png"" style=""width:200px;border:14px solid red;"">","null","","","","","","","","",""
"","image-keyboard-response","110","53255","0.0-110.0","3WYP994K18D3PXZB8CV8QLTMS45Y6I","A34U4186EW0B9X","3PIOQ99R7Y8STPN46QFY0SD7JTFNU0","","282.7000000476837","img/flower2.png","75","283.2000000476837","2","0","3","1","1,0.333,0.333,0.333,1,0.333,0.333,0.333,1","1,0.333,0.333,0.333,1,0.333,0.333,0.333,1","1",""
"","html-keyboard-response","111","53556","0.0-111.0","3WYP994K18D3PXZB8CV8QLTMS45Y6I","A34U4186EW0B9X","3PIOQ99R7Y8STPN46QFY0SD7JTFNU0","","null","<img src=""img/flower2.png"" style=""width:200px;border:14px solid red;"">","null","","","","","","","","",""
"","image-keyboard-response","112","53735","0.0-112.0","3WYP994K18D3PXZB8CV8QLTMS45Y6I","A34U4186EW0B9X","3PIOQ99R7Y8STPN46QFY0SD7JTFNU0","","178.40000009536743","img/flower5.png","76","178.90000009536743","3","0","1","1","1,0.333,0.333,0.333,1,0.333,0.333,0.333,1","1,0.333,0.333,0.333,1,0.333,0.333,0.333,1","1",""
"","html-keyboard-response","113","54036","0.0-113.0","3WYP994K18D3PXZB8CV8QLTMS45Y6I","A34U4186EW0B9X","3PIOQ99R7Y8STPN46QFY0SD7JTFNU0","","null","<img src=""img/flower5.png"" style=""width:200px;border:14px solid red;"">","null","","","","","","","","",""
"","image-keyboard-response","114","54307","0.0-114.0","3WYP994K18D3PXZB8CV8QLTMS45Y6I","A34U4186EW0B9X","3PIOQ99R7Y8STPN46QFY0SD7JTFNU0","","270.59999990463257","img/flower1.png","76","271","3","0","2","1","1,0.333,0.333,0.333,1,0.333,0.333,0.333,1","1,0.333,0.333,0.333,1,0.333,0.333,0.333,1","1",""
"","html-keyboard-response","115","54608","0.0-115.0","3WYP994K18D3PXZB8CV8QLTMS45Y6I","A34U4186EW0B9X","3PIOQ99R7Y8STPN46QFY0SD7JTFNU0","","null","<img src=""img/flower1.png"" style=""width:200px;border:14px solid red;"">","null","","","","","","","","",""
"","image-keyboard-response","116","54892","0.0-116.0","3WYP994K18D3PXZB8CV8QLTMS45Y6I","A34U4186EW0B9X","3PIOQ99R7Y8STPN46QFY0SD7JTFNU0","","283.7000000476837","img/flower5.png","74","284.10000014305115","1","1","1","1","1,0.333,0.333,0.333,1,0.333,0.333,0.333,1","1,0.333,0.333,0.333,1,0.333,0.333,0.333,1","1",""
"","html-keyboard-response","117","55193","0.0-117.0","3WYP994K18D3PXZB8CV8QLTMS45Y6I","A34U4186EW0B9X","3PIOQ99R7Y8STPN46QFY0SD7JTFNU0","","null","<img src=""img/flower5.png"" style=""width:200px; border:14px solid green;"">","null","","","","","","","","",""
"","image-keyboard-response","118","55419","0.0-118.0","3WYP994K18D3PXZB8CV8QLTMS45Y6I","A34U4186EW0B9X","3PIOQ99R7Y8STPN46QFY0SD7JTFNU0","","225.89999985694885","img/flower2.png","74","226.29999995231628","1","0","3","1","1,0.333,0.333,0.333,1,0.333,0.333,0.333,1","1,0.333,0.333,0.333,1,0.333,0.333,0.333,1","1",""
"","html-keyboard-response","119","55720","0.0-119.0","3WYP994K18D3PXZB8CV8QLTMS45Y6I","A34U4186EW0B9X","3PIOQ99R7Y8STPN46QFY0SD7JTFNU0","","null","<img src=""img/flower2.png"" style=""width:200px;border:14px solid red;"">","null","","","","","","","","",""
"","image-keyboard-response","120","55926","0.0-120.0","3WYP994K18D3PXZB8CV8QLTMS45Y6I","A34U4186EW0B9X","3PIOQ99R7Y8STPN46QFY0SD7JTFNU0","","205.10000014305115","img/flower1.png","74","205.59999990463257","1","0","2","1","1,0.333,0.333,0.333,1,0.333,0.333,0.333,1","1,0.333,0.333,0.333,1,0.333,0.333,0.333,1","1",""
"","html-keyboard-response","121","56227","0.0-121.0","3WYP994K18D3PXZB8CV8QLTMS45Y6I","A34U4186EW0B9X","3PIOQ99R7Y8STPN46QFY0SD7JTFNU0","","null","<img src=""img/flower1.png"" style=""width:200px;border:14px solid red;"">","null","","","","","","","","",""
"","image-keyboard-response","122","56609","0.0-122.0","3WYP994K18D3PXZB8CV8QLTMS45Y6I","A34U4186EW0B9X","3PIOQ99R7Y8STPN46QFY0SD7JTFNU0","","381.5","img/flower5.png","75","381.90000009536743","2","0","1","1","1,0.333,0.333,0.333,1,0.333,0.333,0.333,1","1,0.333,0.333,0.333,1,0.333,0.333,0.333,1","1",""
"","html-keyboard-response","123","56910","0.0-123.0","3WYP994K18D3PXZB8CV8QLTMS45Y6I","A34U4186EW0B9X","3PIOQ99R7Y8STPN46QFY0SD7JTFNU0","","null","<img src=""img/flower5.png"" style=""width:200px;border:14px solid red;"">","null","","","","","","","","",""
"","image-keyboard-response","124","57059","0.0-124.0","3WYP994K18D3PXZB8CV8QLTMS45Y6I","A34U4186EW0B9X","3PIOQ99R7Y8STPN46QFY0SD7JTFNU0","","148.70000004768372","img/flower1.png","76","149.09999990463257","3","0","2","1","1,0.333,0.333,0.333,1,0.333,0.333,0.333,1","1,0.333,0.333,0.333,1,0.333,0.333,0.333,1","1",""
"","html-keyboard-response","125","57360","0.0-125.0","3WYP994K18D3PXZB8CV8QLTMS45Y6I","A34U4186EW0B9X","3PIOQ99R7Y8STPN46QFY0SD7JTFNU0","","null","<img src=""img/flower1.png"" style=""width:200px;border:14px solid red;"">","null","","","","","","","","",""
"","image-keyboard-response","126","57783","0.0-126.0","3WYP994K18D3PXZB8CV8QLTMS45Y6I","A34U4186EW0B9X","3PIOQ99R7Y8STPN46QFY0SD7JTFNU0","","422.5","img/flower2.png","74","423","1","0","3","1","1,0.333,0.333,0.333,1,0.333,0.333,0.333,1","1,0.333,0.333,0.333,1,0.333,0.333,0.333,1","1",""
"","html-keyboard-response","127","58084","0.0-127.0","3WYP994K18D3PXZB8CV8QLTMS45Y6I","A34U4186EW0B9X","3PIOQ99R7Y8STPN46QFY0SD7JTFNU0","","null","<img src=""img/flower2.png"" style=""width:200px;border:14px solid red;"">","null","","","","","","","","",""
"","image-keyboard-response","128","58338","0.0-128.0","3WYP994K18D3PXZB8CV8QLTMS45Y6I","A34U4186EW0B9X","3PIOQ99R7Y8STPN46QFY0SD7JTFNU0","","253.5","img/flower1.png","75","254.09999990463257","2","1","2","1","1,0.333,0.333,0.333,1,0.333,0.333,0.333,1","1,0.333,0.333,0.333,1,0.333,0.333,0.333,1","1",""
"","html-keyboard-response","129","58639","0.0-129.0","3WYP994K18D3PXZB8CV8QLTMS45Y6I","A34U4186EW0B9X","3PIOQ99R7Y8STPN46QFY0SD7JTFNU0","","null","<img src=""img/flower1.png"" style=""width:200px; border:14px solid green;"">","null","","","","","","","","",""
"","image-keyboard-response","130","58922","0.0-130.0","3WYP994K18D3PXZB8CV8QLTMS45Y6I","A34U4186EW0B9X","3PIOQ99R7Y8STPN46QFY0SD7JTFNU0","","282.90000009536743","img/flower1.png","75","283.2999999523163","2","1","2","1","1,0.333,0.333,0.333,1,0.333,0.333,0.333,1","1,0.333,0.333,0.333,1,0.333,0.333,0.333,1","1",""
"","html-keyboard-response","131","59224","0.0-131.0","3WYP994K18D3PXZB8CV8QLTMS45Y6I","A34U4186EW0B9X","3PIOQ99R7Y8STPN46QFY0SD7JTFNU0","","null","<img src=""img/flower1.png"" style=""width:200px; border:14px solid green;"">","null","","","","","","","","",""
"","image-keyboard-response","132","59472","0.0-132.0","3WYP994K18D3PXZB8CV8QLTMS45Y6I","A34U4186EW0B9X","3PIOQ99R7Y8STPN46QFY0SD7JTFNU0","","248.09999990463257","img/flower1.png","75","248.5","2","1","2","1","1,0.333,0.333,0.333,1,0.333,0.333,0.333,1","1,0.333,0.333,0.333,1,0.333,0.333,0.333,1","1",""
"","html-keyboard-response","133","59773","0.0-133.0","3WYP994K18D3PXZB8CV8QLTMS45Y6I","A34U4186EW0B9X","3PIOQ99R7Y8STPN46QFY0SD7JTFNU0","","null","<img src=""img/flower1.png"" style=""width:200px; border:14px solid green;"">","null","","","","","","","","",""
"","image-keyboard-response","134","59905","0.0-134.0","3WYP994K18D3PXZB8CV8QLTMS45Y6I","A34U4186EW0B9X","3PIOQ99R7Y8STPN46QFY0SD7JTFNU0","","131.39999985694885","img/flower1.png","75","131.70000004768372","2","1","2","1","1,0.333,0.333,0.333,1,0.333,0.333,0.333,1","1,0.333,0.333,0.333,1,0.333,0.333,0.333,1","1",""
"","html-keyboard-response","135","60206","0.0-135.0","3WYP994K18D3PXZB8CV8QLTMS45Y6I","A34U4186EW0B9X","3PIOQ99R7Y8STPN46QFY0SD7JTFNU0","","null","<img src=""img/flower1.png"" style=""width:200px; border:14px solid green;"">","null","","","","","","","","",""
"","image-keyboard-response","136","60282","0.0-136.0","3WYP994K18D3PXZB8CV8QLTMS45Y6I","A34U4186EW0B9X","3PIOQ99R7Y8STPN46QFY0SD7JTFNU0","","75.80000019073486","img/flower5.png","75","76.29999995231628","2","0","1","1","1,0.333,0.333,0.333,1,0.333,0.333,0.333,1","1,0.333,0.333,0.333,1,0.333,0.333,0.333,1","1",""
"","html-keyboard-response","137","60583","0.0-137.0","3WYP994K18D3PXZB8CV8QLTMS45Y6I","A34U4186EW0B9X","3PIOQ99R7Y8STPN46QFY0SD7JTFNU0","","null","<img src=""img/flower5.png"" style=""width:200px;border:14px solid red;"">","null","","","","","","","","",""
"","image-keyboard-response","138","60968","0.0-138.0","3WYP994K18D3PXZB8CV8QLTMS45Y6I","A34U4186EW0B9X","3PIOQ99R7Y8STPN46QFY0SD7JTFNU0","","383.69999980926514","img/flower2.png","75","384.10000014305115","2","0","3","1","1,0.333,0.333,0.333,1,0.333,0.333,0.333,1","1,0.333,0.333,0.333,1,0.333,0.333,0.333,1","1",""
"","html-keyboard-response","139","61268","0.0-139.0","3WYP994K18D3PXZB8CV8QLTMS45Y6I","A34U4186EW0B9X","3PIOQ99R7Y8STPN46QFY0SD7JTFNU0","","null","<img src=""img/flower2.png"" style=""width:200px;border:14px solid red;"">","null","","","","","","","","",""
"","image-keyboard-response","140","61661","0.0-140.0","3WYP994K18D3PXZB8CV8QLTMS45Y6I","A34U4186EW0B9X","3PIOQ99R7Y8STPN46QFY0SD7JTFNU0","","391.90000009536743","img/flower2.png","75","392.40000009536743","2","1","3","1","1,0.333,0.333,0.333,1,0.333,0.333,0.333,1","1,0.333,0.333,0.333,1,0.333,0.333,0.333,1","1",""
"","html-keyboard-response","141","61962","0.0-141.0","3WYP994K18D3PXZB8CV8QLTMS45Y6I","A34U4186EW0B9X","3PIOQ99R7Y8STPN46QFY0SD7JTFNU0","","null","<img src=""img/flower2.png"" style=""width:200px; border:14px solid green;"">","null","","","","","","","","",""
"","image-keyboard-response","142","62113","0.0-142.0","3WYP994K18D3PXZB8CV8QLTMS45Y6I","A34U4186EW0B9X","3PIOQ99R7Y8STPN46QFY0SD7JTFNU0","","150.20000004768372","img/flower5.png","76","150.5","3","0","1","1","1,0.333,0.333,0.333,1,0.333,0.333,0.333,1","1,0.333,0.333,0.333,1,0.333,0.333,0.333,1","1",""
"","html-keyboard-response","143","62414","0.0-143.0","3WYP994K18D3PXZB8CV8QLTMS45Y6I","A34U4186EW0B9X","3PIOQ99R7Y8STPN46QFY0SD7JTFNU0","","null","<img src=""img/flower5.png"" style=""width:200px;border:14px solid red;"">","null","","","","","","","","",""
"","image-keyboard-response","144","62426","0.0-144.0","3WYP994K18D3PXZB8CV8QLTMS45Y6I","A34U4186EW0B9X","3PIOQ99R7Y8STPN46QFY0SD7JTFNU0","","11.5","img/flower5.png","75","11.900000095367432","2","1","1","1","1,0.333,0.333,0.333,1,0.333,0.333,0.333,1","1,0.333,0.333,0.333,1,0.333,0.333,0.333,1","1",""
"","html-keyboard-response","145","62726","0.0-145.0","3WYP994K18D3PXZB8CV8QLTMS45Y6I","A34U4186EW0B9X","3PIOQ99R7Y8STPN46QFY0SD7JTFNU0","","null","<img src=""img/flower5.png"" style=""width:200px; border:14px solid green;"">","null","","","","","","","","",""
"","image-keyboard-response","146","63063","0.0-146.0","3WYP994K18D3PXZB8CV8QLTMS45Y6I","A34U4186EW0B9X","3PIOQ99R7Y8STPN46QFY0SD7JTFNU0","","336.2000000476837","img/flower2.png","75","336.59999990463257","2","0","3","1","1,0.333,0.333,0.333,1,0.333,0.333,0.333,1","1,0.333,0.333,0.333,1,0.333,0.333,0.333,1","1",""
"","html-keyboard-response","147","63364","0.0-147.0","3WYP994K18D3PXZB8CV8QLTMS45Y6I","A34U4186EW0B9X","3PIOQ99R7Y8STPN46QFY0SD7JTFNU0","","null","<img src=""img/flower2.png"" style=""width:200px;border:14px solid red;"">","null","","","","","","","","",""
"","image-keyboard-response","148","63814","0.0-148.0","3WYP994K18D3PXZB8CV8QLTMS45Y6I","A34U4186EW0B9X","3PIOQ99R7Y8STPN46QFY0SD7JTFNU0","","449.30000019073486","img/flower5.png","75","449.7000000476837","2","0","1","1","1,0.333,0.333,0.333,1,0.333,0.333,0.333,1","1,0.333,0.333,0.333,1,0.333,0.333,0.333,1","1",""
"","html-keyboard-response","149","64115","0.0-149.0","3WYP994K18D3PXZB8CV8QLTMS45Y6I","A34U4186EW0B9X","3PIOQ99R7Y8STPN46QFY0SD7JTFNU0","","null","<img src=""img/flower5.png"" style=""width:200px;border:14px solid red;"">","null","","","","","","","","",""
"","image-keyboard-response","150","64229","0.0-150.0","3WYP994K18D3PXZB8CV8QLTMS45Y6I","A34U4186EW0B9X","3PIOQ99R7Y8STPN46QFY0SD7JTFNU0","","113.39999985694885","img/flower5.png","76","113.90000009536743","3","0","1","1","1,0.333,0.333,0.333,1,0.333,0.333,0.333,1","1,0.333,0.333,0.333,1,0.333,0.333,0.333,1","1",""
"","html-keyboard-response","151","64531","0.0-151.0","3WYP994K18D3PXZB8CV8QLTMS45Y6I","A34U4186EW0B9X","3PIOQ99R7Y8STPN46QFY0SD7JTFNU0","","null","<img src=""img/flower5.png"" style=""width:200px;border:14px solid red;"">","null","","","","","","","","",""
"","image-keyboard-response","152","64816","0.0-152.0","3WYP994K18D3PXZB8CV8QLTMS45Y6I","A34U4186EW0B9X","3PIOQ99R7Y8STPN46QFY0SD7JTFNU0","","284.60000014305115","img/flower1.png","74","285","1","0","2","1","1,0.333,0.333,0.333,1,0.333,0.333,0.333,1","1,0.333,0.333,0.333,1,0.333,0.333,0.333,1","1",""
"","html-keyboard-response","153","65129","0.0-153.0","3WYP994K18D3PXZB8CV8QLTMS45Y6I","A34U4186EW0B9X","3PIOQ99R7Y8STPN46QFY0SD7JTFNU0","","null","<img src=""img/flower1.png"" style=""width:200px;border:14px solid red;"">","null","","","","","","","","",""
"","image-keyboard-response","154","65517","0.0-154.0","3WYP994K18D3PXZB8CV8QLTMS45Y6I","A34U4186EW0B9X","3PIOQ99R7Y8STPN46QFY0SD7JTFNU0","","388.09999990463257","img/flower5.png","76","388.5","3","1","1","1","1,0.333,0.333,0.333,1,0.333,0.333,0.333,1","1,0.333,0.333,0.333,1,0.333,0.333,0.333,1","1",""
"","html-keyboard-response","155","65819","0.0-155.0","3WYP994K18D3PXZB8CV8QLTMS45Y6I","A34U4186EW0B9X","3PIOQ99R7Y8STPN46QFY0SD7JTFNU0","","null","<img src=""img/flower5.png"" style=""width:200px; border:14px solid green;"">","null","","","","","","","","",""
"","image-keyboard-response","156","66155","0.0-156.0","3WYP994K18D3PXZB8CV8QLTMS45Y6I","A34U4186EW0B9X","3PIOQ99R7Y8STPN46QFY0SD7JTFNU0","","335.7000000476837","img/flower2.png","76","336.2000000476837","3","1","3","1","1,0.333,0.333,0.333,1,0.333,0.333,0.333,1","1,0.333,0.333,0.333,1,0.333,0.333,0.333,1","1",""
"","html-keyboard-response","157","66456","0.0-157.0","3WYP994K18D3PXZB8CV8QLTMS45Y6I","A34U4186EW0B9X","3PIOQ99R7Y8STPN46QFY0SD7JTFNU0","","null","<img src=""img/flower2.png"" style=""width:200px; border:14px solid green;"">","null","","","","","","","","",""
"","image-keyboard-response","158","66754","0.0-158.0","3WYP994K18D3PXZB8CV8QLTMS45Y6I","A34U4186EW0B9X","3PIOQ99R7Y8STPN46QFY0SD7JTFNU0","","298.10000014305115","img/flower5.png","76","298.39999985694885","3","1","1","1","1,0.333,0.333,0.333,1,0.333,0.333,0.333,1","1,0.333,0.333,0.333,1,0.333,0.333,0.333,1","1",""
"","html-keyboard-response","159","67055","0.0-159.0","3WYP994K18D3PXZB8CV8QLTMS45Y6I","A34U4186EW0B9X","3PIOQ99R7Y8STPN46QFY0SD7JTFNU0","","null","<img src=""img/flower5.png"" style=""width:200px; border:14px solid green;"">","null","","","","","","","","",""
"","image-keyboard-response","160","67196","0.0-160.0","3WYP994K18D3PXZB8CV8QLTMS45Y6I","A34U4186EW0B9X","3PIOQ99R7Y8STPN46QFY0SD7JTFNU0","","140.29999995231628","img/flower1.png","76","140.70000004768372","3","0","2","1","1,0.333,0.333,0.333,1,0.333,0.333,0.333,1","1,0.333,0.333,0.333,1,0.333,0.333,0.333,1","1",""
"","html-keyboard-response","161","67497","0.0-161.0","3WYP994K18D3PXZB8CV8QLTMS45Y6I","A34U4186EW0B9X","3PIOQ99R7Y8STPN46QFY0SD7JTFNU0","","null","<img src=""img/flower1.png"" style=""width:200px;border:14px solid red;"">","null","","","","","","","","",""
"","image-keyboard-response","162","68114","0.0-162.0","3WYP994K18D3PXZB8CV8QLTMS45Y6I","A34U4186EW0B9X","3PIOQ99R7Y8STPN46QFY0SD7JTFNU0","","616.8999998569489","img/flower5.png","75","617.4000000953674","2","0","1","1","1,0.333,0.333,0.333,1,0.333,0.333,0.333,1","1,0.333,0.333,0.333,1,0.333,0.333,0.333,1","1",""
"","html-keyboard-response","163","68415","0.0-163.0","3WYP994K18D3PXZB8CV8QLTMS45Y6I","A34U4186EW0B9X","3PIOQ99R7Y8STPN46QFY0SD7JTFNU0","","null","<img src=""img/flower5.png"" style=""width:200px;border:14px solid red;"">","null","","","","","","","","",""
"","image-keyboard-response","164","68576","0.0-164.0","3WYP994K18D3PXZB8CV8QLTMS45Y6I","A34U4186EW0B9X","3PIOQ99R7Y8STPN46QFY0SD7JTFNU0","","161","img/flower2.png","76","161.40000009536743","3","1","3","1","1,0.333,0.333,0.333,1,0.333,0.333,0.333,1","1,0.333,0.333,0.333,1,0.333,0.333,0.333,1","1",""
"","html-keyboard-response","165","68878","0.0-165.0","3WYP994K18D3PXZB8CV8QLTMS45Y6I","A34U4186EW0B9X","3PIOQ99R7Y8STPN46QFY0SD7JTFNU0","","null","<img src=""img/flower2.png"" style=""width:200px; border:14px solid green;"">","null","","","","","","","","",""
"","image-keyboard-response","166","69135","0.0-166.0","3WYP994K18D3PXZB8CV8QLTMS45Y6I","A34U4186EW0B9X","3PIOQ99R7Y8STPN46QFY0SD7JTFNU0","","256.5","img/flower1.png","76","257","3","1","2","1","1,0.333,0.333,0.333,1,0.333,0.333,0.333,1","1,0.333,0.333,0.333,1,0.333,0.333,0.333,1","1",""
"","html-keyboard-response","167","69435","0.0-167.0","3WYP994K18D3PXZB8CV8QLTMS45Y6I","A34U4186EW0B9X","3PIOQ99R7Y8STPN46QFY0SD7JTFNU0","","null","<img src=""img/flower1.png"" style=""width:200px; border:14px solid green;"">","null","","","","","","","","",""
"","image-keyboard-response","168","69726","0.0-168.0","3WYP994K18D3PXZB8CV8QLTMS45Y6I","A34U4186EW0B9X","3PIOQ99R7Y8STPN46QFY0SD7JTFNU0","","289.90000009536743","img/flower1.png","76","290.19999980926514","3","0","2","1","1,0.333,0.333,0.333,1,0.333,0.333,0.333,1","1,0.333,0.333,0.333,1,0.333,0.333,0.333,1","1",""
"","html-keyboard-response","169","70026","0.0-169.0","3WYP994K18D3PXZB8CV8QLTMS45Y6I","A34U4186EW0B9X","3PIOQ99R7Y8STPN46QFY0SD7JTFNU0","","null","<img src=""img/flower1.png"" style=""width:200px;border:14px solid red;"">","null","","","","","","","","",""
"","image-keyboard-response","170","70156","0.0-170.0","3WYP994K18D3PXZB8CV8QLTMS45Y6I","A34U4186EW0B9X","3PIOQ99R7Y8STPN46QFY0SD7JTFNU0","","129.20000004768372","img/flower1.png","76","129.5","3","0","2","1","1,0.333,0.333,0.333,1,0.333,0.333,0.333,1","1,0.333,0.333,0.333,1,0.333,0.333,0.333,1","1",""
"","html-keyboard-response","171","70457","0.0-171.0","3WYP994K18D3PXZB8CV8QLTMS45Y6I","A34U4186EW0B9X","3PIOQ99R7Y8STPN46QFY0SD7JTFNU0","","null","<img src=""img/flower1.png"" style=""width:200px;border:14px solid red;"">","null","","","","","","","","",""
"","image-keyboard-response","172","71013","0.0-172.0","3WYP994K18D3PXZB8CV8QLTMS45Y6I","A34U4186EW0B9X","3PIOQ99R7Y8STPN46QFY0SD7JTFNU0","","555.4000000953674","img/flower5.png","76","555.7999999523163","3","0","1","1","1,0.333,0.333,0.333,1,0.333,0.333,0.333,1","1,0.333,0.333,0.333,1,0.333,0.333,0.333,1","1",""
"","html-keyboard-response","173","71314","0.0-173.0","3WYP994K18D3PXZB8CV8QLTMS45Y6I","A34U4186EW0B9X","3PIOQ99R7Y8STPN46QFY0SD7JTFNU0","","null","<img src=""img/flower5.png"" style=""width:200px;border:14px solid red;"">","null","","","","","","","","",""
"","image-keyboard-response","174","71645","0.0-174.0","3WYP994K18D3PXZB8CV8QLTMS45Y6I","A34U4186EW0B9X","3PIOQ99R7Y8STPN46QFY0SD7JTFNU0","","330.5","img/flower5.png","74","331","1","1","1","1","1,0.333,0.333,0.333,1,0.333,0.333,0.333,1","1,0.333,0.333,0.333,1,0.333,0.333,0.333,1","1",""
"","html-keyboard-response","175","71946","0.0-175.0","3WYP994K18D3PXZB8CV8QLTMS45Y6I","A34U4186EW0B9X","3PIOQ99R7Y8STPN46QFY0SD7JTFNU0","","null","<img src=""img/flower5.png"" style=""width:200px; border:14px solid green;"">","null","","","","","","","","",""
"","image-keyboard-response","176","72157","0.0-176.0","3WYP994K18D3PXZB8CV8QLTMS45Y6I","A34U4186EW0B9X","3PIOQ99R7Y8STPN46QFY0SD7JTFNU0","","211","img/flower5.png","74","211.59999990463257","1","1","1","1","1,0.333,0.333,0.333,1,0.333,0.333,0.333,1","1,0.333,0.333,0.333,1,0.333,0.333,0.333,1","1",""
"","html-keyboard-response","177","72459","0.0-177.0","3WYP994K18D3PXZB8CV8QLTMS45Y6I","A34U4186EW0B9X","3PIOQ99R7Y8STPN46QFY0SD7JTFNU0","","null","<img src=""img/flower5.png"" style=""width:200px; border:14px solid green;"">","null","","","","","","","","",""
"","image-keyboard-response","178","72584","0.0-178.0","3WYP994K18D3PXZB8CV8QLTMS45Y6I","A34U4186EW0B9X","3PIOQ99R7Y8STPN46QFY0SD7JTFNU0","","124.79999995231628","img/flower2.png","74","125.20000004768372","1","0","3","1","1,0.333,0.333,0.333,1,0.333,0.333,0.333,1","1,0.333,0.333,0.333,1,0.333,0.333,0.333,1","1",""
"","html-keyboard-response","179","72885","0.0-179.0","3WYP994K18D3PXZB8CV8QLTMS45Y6I","A34U4186EW0B9X","3PIOQ99R7Y8STPN46QFY0SD7JTFNU0","","null","<img src=""img/flower2.png"" style=""width:200px;border:14px solid red;"">","null","","","","","","","","",""
"","image-keyboard-response","180","73291","0.0-180.0","3WYP994K18D3PXZB8CV8QLTMS45Y6I","A34U4186EW0B9X","3PIOQ99R7Y8STPN46QFY0SD7JTFNU0","","405.60000014305115","img/flower5.png","75","406","2","0","1","1","1,0.333,0.333,0.333,1,0.333,0.333,0.333,1","1,0.333,0.333,0.333,1,0.333,0.333,0.333,1","1",""
"","html-keyboard-response","181","73592","0.0-181.0","3WYP994K18D3PXZB8CV8QLTMS45Y6I","A34U4186EW0B9X","3PIOQ99R7Y8STPN46QFY0SD7JTFNU0","","null","<img src=""img/flower5.png"" style=""width:200px;border:14px solid red;"">","null","","","","","","","","",""
"","html-keyboard-response","182","75912","0.0-182.0","3WYP994K18D3PXZB8CV8QLTMS45Y6I","A34U4186EW0B9X","3PIOQ99R7Y8STPN46QFY0SD7JTFNU0","","","","","","","","","","","","",""
"","image-keyboard-response","183","76726","0.0-183.0","3WYP994K18D3PXZB8CV8QLTMS45Y6I","A34U4186EW0B9X","3PIOQ99R7Y8STPN46QFY0SD7JTFNU0","","814","img/flower4.png","74","814.7000000476837","1","0","1","2","1,0,0,1,1,0,1,0,1","0,1,0,0,1,1,1,1,0","3",""
"","html-keyboard-response","184","77028","0.0-184.0","3WYP994K18D3PXZB8CV8QLTMS45Y6I","A34U4186EW0B9X","3PIOQ99R7Y8STPN46QFY0SD7JTFNU0","","null","<img src=""img/flower4.png"" style=""width:200px;border:14px solid red;"">","null","","","","","","","","",""
"","image-keyboard-response","185","77180","0.0-185.0","3WYP994K18D3PXZB8CV8QLTMS45Y6I","A34U4186EW0B9X","3PIOQ99R7Y8STPN46QFY0SD7JTFNU0","","151.20000004768372","img/flower3.png","75","151.5","2","1","3","2","1,0,0,1,1,0,1,0,1","0,1,0,0,1,1,1,1,0","3",""
"","html-keyboard-response","186","77481","0.0-186.0","3WYP994K18D3PXZB8CV8QLTMS45Y6I","A34U4186EW0B9X","3PIOQ99R7Y8STPN46QFY0SD7JTFNU0","","null","<img src=""img/flower3.png"" style=""width:200px; border:14px solid green;"">","null","","","","","","","","",""
"","image-keyboard-response","187","77681","0.0-187.0","3WYP994K18D3PXZB8CV8QLTMS45Y6I","A34U4186EW0B9X","3PIOQ99R7Y8STPN46QFY0SD7JTFNU0","","199.5","img/flower3.png","75","199.89999985694885","2","1","3","2","1,0,0,1,1,0,1,0,1","0,1,0,0,1,1,1,1,0","3",""
"","html-keyboard-response","188","77981","0.0-188.0","3WYP994K18D3PXZB8CV8QLTMS45Y6I","A34U4186EW0B9X","3PIOQ99R7Y8STPN46QFY0SD7JTFNU0","","null","<img src=""img/flower3.png"" style=""width:200px; border:14px solid green;"">","null","","","","","","","","",""
"","image-keyboard-response","189","78172","0.0-189.0","3WYP994K18D3PXZB8CV8QLTMS45Y6I","A34U4186EW0B9X","3PIOQ99R7Y8STPN46QFY0SD7JTFNU0","","190","img/flower6.png","75","190.40000009536743","2","1","2","2","1,0,0,1,1,0,1,0,1","0,1,0,0,1,1,1,1,0","3",""
"","html-keyboard-response","190","78473","0.0-190.0","3WYP994K18D3PXZB8CV8QLTMS45Y6I","A34U4186EW0B9X","3PIOQ99R7Y8STPN46QFY0SD7JTFNU0","","null","<img src=""img/flower6.png"" style=""width:200px; border:14px solid green;"">","null","","","","","","","","",""
"","image-keyboard-response","191","78609","0.0-191.0","3WYP994K18D3PXZB8CV8QLTMS45Y6I","A34U4186EW0B9X","3PIOQ99R7Y8STPN46QFY0SD7JTFNU0","","135.09999990463257","img/flower3.png","75","135.70000004768372","2","1","3","2","1,0,0,1,1,0,1,0,1","0,1,0,0,1,1,1,1,0","3",""
"","html-keyboard-response","192","78909","0.0-192.0","3WYP994K18D3PXZB8CV8QLTMS45Y6I","A34U4186EW0B9X","3PIOQ99R7Y8STPN46QFY0SD7JTFNU0","","null","<img src=""img/flower3.png"" style=""width:200px; border:14px solid green;"">","null","","","","","","","","",""
"","image-keyboard-response","193","79045","0.0-193.0","3WYP994K18D3PXZB8CV8QLTMS45Y6I","A34U4186EW0B9X","3PIOQ99R7Y8STPN46QFY0SD7JTFNU0","","134.69999980926514","img/flower6.png","75","135.10000014305115","2","1","2","2","1,0,0,1,1,0,1,0,1","0,1,0,0,1,1,1,1,0","3",""
"","html-keyboard-response","194","79346","0.0-194.0","3WYP994K18D3PXZB8CV8QLTMS45Y6I","A34U4186EW0B9X","3PIOQ99R7Y8STPN46QFY0SD7JTFNU0","","null","<img src=""img/flower6.png"" style=""width:200px; border:14px solid green;"">","null","","","","","","","","",""
"","image-keyboard-response","195","79487","0.0-195.0","3WYP994K18D3PXZB8CV8QLTMS45Y6I","A34U4186EW0B9X","3PIOQ99R7Y8STPN46QFY0SD7JTFNU0","","140.29999995231628","img/flower6.png","75","140.70000004768372","2","1","2","2","1,0,0,1,1,0,1,0,1","0,1,0,0,1,1,1,1,0","3",""
"","html-keyboard-response","196","79788","0.0-196.0","3WYP994K18D3PXZB8CV8QLTMS45Y6I","A34U4186EW0B9X","3PIOQ99R7Y8STPN46QFY0SD7JTFNU0","","null","<img src=""img/flower6.png"" style=""width:200px; border:14px solid green;"">","null","","","","","","","","",""
"","image-keyboard-response","197","79855","0.0-197.0","3WYP994K18D3PXZB8CV8QLTMS45Y6I","A34U4186EW0B9X","3PIOQ99R7Y8STPN46QFY0SD7JTFNU0","","66.60000014305115","img/flower3.png","75","66.90000009536743","2","1","3","2","1,0,0,1,1,0,1,0,1","0,1,0,0,1,1,1,1,0","3",""
"","html-keyboard-response","198","80156","0.0-198.0","3WYP994K18D3PXZB8CV8QLTMS45Y6I","A34U4186EW0B9X","3PIOQ99R7Y8STPN46QFY0SD7JTFNU0","","null","<img src=""img/flower3.png"" style=""width:200px; border:14px solid green;"">","null","","","","","","","","",""
"","image-keyboard-response","199","80206","0.0-199.0","3WYP994K18D3PXZB8CV8QLTMS45Y6I","A34U4186EW0B9X","3PIOQ99R7Y8STPN46QFY0SD7JTFNU0","","49.299999952316284","img/flower4.png","75","49.59999990463257","2","1","1","2","1,0,0,1,1,0,1,0,1","0,1,0,0,1,1,1,1,0","3",""
"","html-keyboard-response","200","80507","0.0-200.0","3WYP994K18D3PXZB8CV8QLTMS45Y6I","A34U4186EW0B9X","3PIOQ99R7Y8STPN46QFY0SD7JTFNU0","","null","<img src=""img/flower4.png"" style=""width:200px; border:14px solid green;"">","null","","","","","","","","",""
"","image-keyboard-response","201","80599","0.0-201.0","3WYP994K18D3PXZB8CV8QLTMS45Y6I","A34U4186EW0B9X","3PIOQ99R7Y8STPN46QFY0SD7JTFNU0","","91.59999990463257","img/flower4.png","75","92.20000004768372","2","1","1","2","1,0,0,1,1,0,1,0,1","0,1,0,0,1,1,1,1,0","3",""
"","html-keyboard-response","202","80900","0.0-202.0","3WYP994K18D3PXZB8CV8QLTMS45Y6I","A34U4186EW0B9X","3PIOQ99R7Y8STPN46QFY0SD7JTFNU0","","null","<img src=""img/flower4.png"" style=""width:200px; border:14px solid green;"">","null","","","","","","","","",""
"","image-keyboard-response","203","80984","0.0-203.0","3WYP994K18D3PXZB8CV8QLTMS45Y6I","A34U4186EW0B9X","3PIOQ99R7Y8STPN46QFY0SD7JTFNU0","","83.30000019073486","img/flower3.png","75","83.79999995231628","2","1","3","2","1,0,0,1,1,0,1,0,1","0,1,0,0,1,1,1,1,0","3",""
"","html-keyboard-response","204","81285","0.0-204.0","3WYP994K18D3PXZB8CV8QLTMS45Y6I","A34U4186EW0B9X","3PIOQ99R7Y8STPN46QFY0SD7JTFNU0","","null","<img src=""img/flower3.png"" style=""width:200px; border:14px solid green;"">","null","","","","","","","","",""
"","image-keyboard-response","205","81313","0.0-205.0","3WYP994K18D3PXZB8CV8QLTMS45Y6I","A34U4186EW0B9X","3PIOQ99R7Y8STPN46QFY0SD7JTFNU0","","27.90000009536743","img/flower3.png","75","28.200000047683716","2","1","3","2","1,0,0,1,1,0,1,0,1","0,1,0,0,1,1,1,1,0","3",""
"","html-keyboard-response","206","81614","0.0-206.0","3WYP994K18D3PXZB8CV8QLTMS45Y6I","A34U4186EW0B9X","3PIOQ99R7Y8STPN46QFY0SD7JTFNU0","","null","<img src=""img/flower3.png"" style=""width:200px; border:14px solid green;"">","null","","","","","","","","",""
"","image-keyboard-response","207","81923","0.0-207.0","3WYP994K18D3PXZB8CV8QLTMS45Y6I","A34U4186EW0B9X","3PIOQ99R7Y8STPN46QFY0SD7JTFNU0","","308.5","img/flower4.png","75","308.90000009536743","2","1","1","2","1,0,0,1,1,0,1,0,1","0,1,0,0,1,1,1,1,0","3",""
"","html-keyboard-response","208","82224","0.0-208.0","3WYP994K18D3PXZB8CV8QLTMS45Y6I","A34U4186EW0B9X","3PIOQ99R7Y8STPN46QFY0SD7JTFNU0","","null","<img src=""img/flower4.png"" style=""width:200px; border:14px solid green;"">","null","","","","","","","","",""
"","image-keyboard-response","209","82335","0.0-209.0","3WYP994K18D3PXZB8CV8QLTMS45Y6I","A34U4186EW0B9X","3PIOQ99R7Y8STPN46QFY0SD7JTFNU0","","110.70000004768372","img/flower3.png","75","111.09999990463257","2","1","3","2","1,0,0,1,1,0,1,0,1","0,1,0,0,1,1,1,1,0","3",""
"","html-keyboard-response","210","82637","0.0-210.0","3WYP994K18D3PXZB8CV8QLTMS45Y6I","A34U4186EW0B9X","3PIOQ99R7Y8STPN46QFY0SD7JTFNU0","","null","<img src=""img/flower3.png"" style=""width:200px; border:14px solid green;"">","null","","","","","","","","",""
"","image-keyboard-response","211","82689","0.0-211.0","3WYP994K18D3PXZB8CV8QLTMS45Y6I","A34U4186EW0B9X","3PIOQ99R7Y8STPN46QFY0SD7JTFNU0","","52.09999990463257","img/flower6.png","75","52.40000009536743","2","1","2","2","1,0,0,1,1,0,1,0,1","0,1,0,0,1,1,1,1,0","3",""
"","html-keyboard-response","212","82990","0.0-212.0","3WYP994K18D3PXZB8CV8QLTMS45Y6I","A34U4186EW0B9X","3PIOQ99R7Y8STPN46QFY0SD7JTFNU0","","null","<img src=""img/flower6.png"" style=""width:200px; border:14px solid green;"">","null","","","","","","","","",""
"","image-keyboard-response","213","83067","0.0-213.0","3WYP994K18D3PXZB8CV8QLTMS45Y6I","A34U4186EW0B9X","3PIOQ99R7Y8STPN46QFY0SD7JTFNU0","","76.59999990463257","img/flower3.png","75","77.70000004768372","2","1","3","2","1,0,0,1,1,0,1,0,1","0,1,0,0,1,1,1,1,0","3",""
"","html-keyboard-response","214","83369","0.0-214.0","3WYP994K18D3PXZB8CV8QLTMS45Y6I","A34U4186EW0B9X","3PIOQ99R7Y8STPN46QFY0SD7JTFNU0","","null","<img src=""img/flower3.png"" style=""width:200px; border:14px solid green;"">","null","","","","","","","","",""
"","image-keyboard-response","215","83502","0.0-215.0","3WYP994K18D3PXZB8CV8QLTMS45Y6I","A34U4186EW0B9X","3PIOQ99R7Y8STPN46QFY0SD7JTFNU0","","132.59999990463257","img/flower6.png","75","133","2","1","2","2","1,0,0,1,1,0,1,0,1","0,1,0,0,1,1,1,1,0","3",""
"","html-keyboard-response","216","83804","0.0-216.0","3WYP994K18D3PXZB8CV8QLTMS45Y6I","A34U4186EW0B9X","3PIOQ99R7Y8STPN46QFY0SD7JTFNU0","","null","<img src=""img/flower6.png"" style=""width:200px; border:14px solid green;"">","null","","","","","","","","",""
"","image-keyboard-response","217","83856","0.0-217.0","3WYP994K18D3PXZB8CV8QLTMS45Y6I","A34U4186EW0B9X","3PIOQ99R7Y8STPN46QFY0SD7JTFNU0","","52.200000047683716","img/flower3.png","75","52.59999990463257","2","1","3","2","1,0,0,1,1,0,1,0,1","0,1,0,0,1,1,1,1,0","3",""
"","html-keyboard-response","218","84157","0.0-218.0","3WYP994K18D3PXZB8CV8QLTMS45Y6I","A34U4186EW0B9X","3PIOQ99R7Y8STPN46QFY0SD7JTFNU0","","null","<img src=""img/flower3.png"" style=""width:200px; border:14px solid green;"">","null","","","","","","","","",""
"","image-keyboard-response","219","84183","0.0-219.0","3WYP994K18D3PXZB8CV8QLTMS45Y6I","A34U4186EW0B9X","3PIOQ99R7Y8STPN46QFY0SD7JTFNU0","","25.600000143051147","img/flower6.png","75","26.100000143051147","2","1","2","2","1,0,0,1,1,0,1,0,1","0,1,0,0,1,1,1,1,0","3",""
"","html-keyboard-response","220","84485","0.0-220.0","3WYP994K18D3PXZB8CV8QLTMS45Y6I","A34U4186EW0B9X","3PIOQ99R7Y8STPN46QFY0SD7JTFNU0","","null","<img src=""img/flower6.png"" style=""width:200px; border:14px solid green;"">","null","","","","","","","","",""
"","image-keyboard-response","221","84530","0.0-221.0","3WYP994K18D3PXZB8CV8QLTMS45Y6I","A34U4186EW0B9X","3PIOQ99R7Y8STPN46QFY0SD7JTFNU0","","45.200000047683716","img/flower3.png","75","45.700000047683716","2","1","3","2","1,0,0,1,1,0,1,0,1","0,1,0,0,1,1,1,1,0","3",""
"","html-keyboard-response","222","84832","0.0-222.0","3WYP994K18D3PXZB8CV8QLTMS45Y6I","A34U4186EW0B9X","3PIOQ99R7Y8STPN46QFY0SD7JTFNU0","","null","<img src=""img/flower3.png"" style=""width:200px; border:14px solid green;"">","null","","","","","","","","",""
"","image-keyboard-response","223","84886","0.0-223.0","3WYP994K18D3PXZB8CV8QLTMS45Y6I","A34U4186EW0B9X","3PIOQ99R7Y8STPN46QFY0SD7JTFNU0","","54","img/flower4.png","75","54.30000019073486","2","1","1","2","1,0,0,1,1,0,1,0,1","0,1,0,0,1,1,1,1,0","3",""
"","html-keyboard-response","224","85187","0.0-224.0","3WYP994K18D3PXZB8CV8QLTMS45Y6I","A34U4186EW0B9X","3PIOQ99R7Y8STPN46QFY0SD7JTFNU0","","null","<img src=""img/flower4.png"" style=""width:200px; border:14px solid green;"">","null","","","","","","","","",""
"","image-keyboard-response","225","85285","0.0-225.0","3WYP994K18D3PXZB8CV8QLTMS45Y6I","A34U4186EW0B9X","3PIOQ99R7Y8STPN46QFY0SD7JTFNU0","","97.60000014305115","img/flower6.png","75","98.19999980926514","2","1","2","2","1,0,0,1,1,0,1,0,1","0,1,0,0,1,1,1,1,0","3",""
"","html-keyboard-response","226","85587","0.0-226.0","3WYP994K18D3PXZB8CV8QLTMS45Y6I","A34U4186EW0B9X","3PIOQ99R7Y8STPN46QFY0SD7JTFNU0","","null","<img src=""img/flower6.png"" style=""width:200px; border:14px solid green;"">","null","","","","","","","","",""
"","image-keyboard-response","227","85593","0.0-227.0","3WYP994K18D3PXZB8CV8QLTMS45Y6I","A34U4186EW0B9X","3PIOQ99R7Y8STPN46QFY0SD7JTFNU0","","6.1000001430511475","img/flower6.png","75","6.400000095367432","2","1","2","2","1,0,0,1,1,0,1,0,1","0,1,0,0,1,1,1,1,0","3",""
"","html-keyboard-response","228","85908","0.0-228.0","3WYP994K18D3PXZB8CV8QLTMS45Y6I","A34U4186EW0B9X","3PIOQ99R7Y8STPN46QFY0SD7JTFNU0","","null","<img src=""img/flower6.png"" style=""width:200px; border:14px solid green;"">","null","","","","","","","","",""
"","image-keyboard-response","229","85956","0.0-229.0","3WYP994K18D3PXZB8CV8QLTMS45Y6I","A34U4186EW0B9X","3PIOQ99R7Y8STPN46QFY0SD7JTFNU0","","46.5","img/flower3.png","75","47","2","1","3","2","1,0,0,1,1,0,1,0,1","0,1,0,0,1,1,1,1,0","3",""
"","html-keyboard-response","230","86257","0.0-230.0","3WYP994K18D3PXZB8CV8QLTMS45Y6I","A34U4186EW0B9X","3PIOQ99R7Y8STPN46QFY0SD7JTFNU0","","null","<img src=""img/flower3.png"" style=""width:200px; border:14px solid green;"">","null","","","","","","","","",""
"","image-keyboard-response","231","86263","0.0-231.0","3WYP994K18D3PXZB8CV8QLTMS45Y6I","A34U4186EW0B9X","3PIOQ99R7Y8STPN46QFY0SD7JTFNU0","","5.6000001430511475","img/flower4.png","75","6","2","1","1","2","1,0,0,1,1,0,1,0,1","0,1,0,0,1,1,1,1,0","3",""
"","html-keyboard-response","232","86565","0.0-232.0","3WYP994K18D3PXZB8CV8QLTMS45Y6I","A34U4186EW0B9X","3PIOQ99R7Y8STPN46QFY0SD7JTFNU0","","null","<img src=""img/flower4.png"" style=""width:200px; border:14px solid green;"">","null","","","","","","","","",""
"","image-keyboard-response","233","86611","0.0-233.0","3WYP994K18D3PXZB8CV8QLTMS45Y6I","A34U4186EW0B9X","3PIOQ99R7Y8STPN46QFY0SD7JTFNU0","","45.09999990463257","img/flower3.png","75","45.60000014305115","2","1","3","2","1,0,0,1,1,0,1,0,1","0,1,0,0,1,1,1,1,0","3",""
"","html-keyboard-response","234","86911","0.0-234.0","3WYP994K18D3PXZB8CV8QLTMS45Y6I","A34U4186EW0B9X","3PIOQ99R7Y8STPN46QFY0SD7JTFNU0","","null","<img src=""img/flower3.png"" style=""width:200px; border:14px solid green;"">","null","","","","","","","","",""
"","image-keyboard-response","235","86936","0.0-235.0","3WYP994K18D3PXZB8CV8QLTMS45Y6I","A34U4186EW0B9X","3PIOQ99R7Y8STPN46QFY0SD7JTFNU0","","24","img/flower4.png","75","24.299999952316284","2","1","1","2","1,0,0,1,1,0,1,0,1","0,1,0,0,1,1,1,1,0","3",""
"","html-keyboard-response","236","87237","0.0-236.0","3WYP994K18D3PXZB8CV8QLTMS45Y6I","A34U4186EW0B9X","3PIOQ99R7Y8STPN46QFY0SD7JTFNU0","","null","<img src=""img/flower4.png"" style=""width:200px; border:14px solid green;"">","null","","","","","","","","",""
"","image-keyboard-response","237","87284","0.0-237.0","3WYP994K18D3PXZB8CV8QLTMS45Y6I","A34U4186EW0B9X","3PIOQ99R7Y8STPN46QFY0SD7JTFNU0","","46.200000047683716","img/flower3.png","75","46.700000047683716","2","1","3","2","1,0,0,1,1,0,1,0,1","0,1,0,0,1,1,1,1,0","3",""
"","html-keyboard-response","238","87584","0.0-238.0","3WYP994K18D3PXZB8CV8QLTMS45Y6I","A34U4186EW0B9X","3PIOQ99R7Y8STPN46QFY0SD7JTFNU0","","null","<img src=""img/flower3.png"" style=""width:200px; border:14px solid green;"">","null","","","","","","","","",""
"","image-keyboard-response","239","87613","0.0-239.0","3WYP994K18D3PXZB8CV8QLTMS45Y6I","A34U4186EW0B9X","3PIOQ99R7Y8STPN46QFY0SD7JTFNU0","","27.899999856948853","img/flower3.png","75","28.299999952316284","2","1","3","2","1,0,0,1,1,0,1,0,1","0,1,0,0,1,1,1,1,0","3",""
"","html-keyboard-response","240","87914","0.0-240.0","3WYP994K18D3PXZB8CV8QLTMS45Y6I","A34U4186EW0B9X","3PIOQ99R7Y8STPN46QFY0SD7JTFNU0","","null","<img src=""img/flower3.png"" style=""width:200px; border:14px solid green;"">","null","","","","","","","","",""
"","image-keyboard-response","241","87940","0.0-241.0","3WYP994K18D3PXZB8CV8QLTMS45Y6I","A34U4186EW0B9X","3PIOQ99R7Y8STPN46QFY0SD7JTFNU0","","25.59999990463257","img/flower4.png","75","26","2","1","1","2","1,0,0,1,1,0,1,0,1","0,1,0,0,1,1,1,1,0","3",""
"","html-keyboard-response","242","88242","0.0-242.0","3WYP994K18D3PXZB8CV8QLTMS45Y6I","A34U4186EW0B9X","3PIOQ99R7Y8STPN46QFY0SD7JTFNU0","","null","<img src=""img/flower4.png"" style=""width:200px; border:14px solid green;"">","null","","","","","","","","",""
"","image-keyboard-response","243","88294","0.0-243.0","3WYP994K18D3PXZB8CV8QLTMS45Y6I","A34U4186EW0B9X","3PIOQ99R7Y8STPN46QFY0SD7JTFNU0","","51.299999952316284","img/flower4.png","75","51.700000047683716","2","1","1","2","1,0,0,1,1,0,1,0,1","0,1,0,0,1,1,1,1,0","3",""
"","html-keyboard-response","244","88594","0.0-244.0","3WYP994K18D3PXZB8CV8QLTMS45Y6I","A34U4186EW0B9X","3PIOQ99R7Y8STPN46QFY0SD7JTFNU0","","null","<img src=""img/flower4.png"" style=""width:200px; border:14px solid green;"">","null","","","","","","","","",""
"","image-keyboard-response","245","88879","0.0-245.0","3WYP994K18D3PXZB8CV8QLTMS45Y6I","A34U4186EW0B9X","3PIOQ99R7Y8STPN46QFY0SD7JTFNU0","","284","img/flower3.png","75","284.5","2","1","3","2","1,0,0,1,1,0,1,0,1","0,1,0,0,1,1,1,1,0","3",""
"","html-keyboard-response","246","89179","0.0-246.0","3WYP994K18D3PXZB8CV8QLTMS45Y6I","A34U4186EW0B9X","3PIOQ99R7Y8STPN46QFY0SD7JTFNU0","","null","<img src=""img/flower3.png"" style=""width:200px; border:14px solid green;"">","null","","","","","","","","",""
"","image-keyboard-response","247","89320","0.0-247.0","3WYP994K18D3PXZB8CV8QLTMS45Y6I","A34U4186EW0B9X","3PIOQ99R7Y8STPN46QFY0SD7JTFNU0","","139.79999995231628","img/flower4.png","75","140.20000004768372","2","1","1","2","1,0,0,1,1,0,1,0,1","0,1,0,0,1,1,1,1,0","3",""
"","html-keyboard-response","248","89620","0.0-248.0","3WYP994K18D3PXZB8CV8QLTMS45Y6I","A34U4186EW0B9X","3PIOQ99R7Y8STPN46QFY0SD7JTFNU0","","null","<img src=""img/flower4.png"" style=""width:200px; border:14px solid green;"">","null","","","","","","","","",""
"","image-keyboard-response","249","89671","0.0-249.0","3WYP994K18D3PXZB8CV8QLTMS45Y6I","A34U4186EW0B9X","3PIOQ99R7Y8STPN46QFY0SD7JTFNU0","","49.89999985694885","img/flower4.png","75","50.30000019073486","2","1","1","2","1,0,0,1,1,0,1,0,1","0,1,0,0,1,1,1,1,0","3",""
"","html-keyboard-response","250","89972","0.0-250.0","3WYP994K18D3PXZB8CV8QLTMS45Y6I","A34U4186EW0B9X","3PIOQ99R7Y8STPN46QFY0SD7JTFNU0","","null","<img src=""img/flower4.png"" style=""width:200px; border:14px solid green;"">","null","","","","","","","","",""
"","image-keyboard-response","251","90006","0.0-251.0","3WYP994K18D3PXZB8CV8QLTMS45Y6I","A34U4186EW0B9X","3PIOQ99R7Y8STPN46QFY0SD7JTFNU0","","33.200000047683716","img/flower3.png","75","33.59999990463257","2","1","3","2","1,0,0,1,1,0,1,0,1","0,1,0,0,1,1,1,1,0","3",""
"","html-keyboard-response","252","90307","0.0-252.0","3WYP994K18D3PXZB8CV8QLTMS45Y6I","A34U4186EW0B9X","3PIOQ99R7Y8STPN46QFY0SD7JTFNU0","","null","<img src=""img/flower3.png"" style=""width:200px; border:14px solid green;"">","null","","","","","","","","",""
"","image-keyboard-response","253","90337","0.0-253.0","3WYP994K18D3PXZB8CV8QLTMS45Y6I","A34U4186EW0B9X","3PIOQ99R7Y8STPN46QFY0SD7JTFNU0","","29.700000047683716","img/flower3.png","75","30.09999990463257","2","1","3","2","1,0,0,1,1,0,1,0,1","0,1,0,0,1,1,1,1,0","3",""
"","html-keyboard-response","254","90638","0.0-254.0","3WYP994K18D3PXZB8CV8QLTMS45Y6I","A34U4186EW0B9X","3PIOQ99R7Y8STPN46QFY0SD7JTFNU0","","null","<img src=""img/flower3.png"" style=""width:200px; border:14px solid green;"">","null","","","","","","","","",""
"","image-keyboard-response","255","90654","0.0-255.0","3WYP994K18D3PXZB8CV8QLTMS45Y6I","A34U4186EW0B9X","3PIOQ99R7Y8STPN46QFY0SD7JTFNU0","","15.200000047683716","img/flower4.png","75","15.700000047683716","2","1","1","2","1,0,0,1,1,0,1,0,1","0,1,0,0,1,1,1,1,0","3",""
"","html-keyboard-response","256","90955","0.0-256.0","3WYP994K18D3PXZB8CV8QLTMS45Y6I","A34U4186EW0B9X","3PIOQ99R7Y8STPN46QFY0SD7JTFNU0","","null","<img src=""img/flower4.png"" style=""width:200px; border:14px solid green;"">","null","","","","","","","","",""
"","image-keyboard-response","257","90971","0.0-257.0","3WYP994K18D3PXZB8CV8QLTMS45Y6I","A34U4186EW0B9X","3PIOQ99R7Y8STPN46QFY0SD7JTFNU0","","15.900000095367432","img/flower6.png","75","16.299999952316284","2","1","2","2","1,0,0,1,1,0,1,0,1","0,1,0,0,1,1,1,1,0","3",""
"","html-keyboard-response","258","91272","0.0-258.0","3WYP994K18D3PXZB8CV8QLTMS45Y6I","A34U4186EW0B9X","3PIOQ99R7Y8STPN46QFY0SD7JTFNU0","","null","<img src=""img/flower6.png"" style=""width:200px; border:14px solid green;"">","null","","","","","","","","",""
"","image-keyboard-response","259","91561","0.0-259.0","3WYP994K18D3PXZB8CV8QLTMS45Y6I","A34U4186EW0B9X","3PIOQ99R7Y8STPN46QFY0SD7JTFNU0","","288.5","img/flower6.png","75","288.90000009536743","2","1","2","2","1,0,0,1,1,0,1,0,1","0,1,0,0,1,1,1,1,0","3",""
"","html-keyboard-response","260","91862","0.0-260.0","3WYP994K18D3PXZB8CV8QLTMS45Y6I","A34U4186EW0B9X","3PIOQ99R7Y8STPN46QFY0SD7JTFNU0","","null","<img src=""img/flower6.png"" style=""width:200px; border:14px solid green;"">","null","","","","","","","","",""
"","image-keyboard-response","261","91916","0.0-261.0","3WYP994K18D3PXZB8CV8QLTMS45Y6I","A34U4186EW0B9X","3PIOQ99R7Y8STPN46QFY0SD7JTFNU0","","53.59999990463257","img/flower3.png","75","54","2","1","3","2","1,0,0,1,1,0,1,0,1","0,1,0,0,1,1,1,1,0","3",""
"","html-keyboard-response","262","92217","0.0-262.0","3WYP994K18D3PXZB8CV8QLTMS45Y6I","A34U4186EW0B9X","3PIOQ99R7Y8STPN46QFY0SD7JTFNU0","","null","<img src=""img/flower3.png"" style=""width:200px; border:14px solid green;"">","null","","","","","","","","",""
"","image-keyboard-response","263","92251","0.0-263.0","3WYP994K18D3PXZB8CV8QLTMS45Y6I","A34U4186EW0B9X","3PIOQ99R7Y8STPN46QFY0SD7JTFNU0","","33.299999952316284","img/flower6.png","75","33.60000014305115","2","1","2","2","1,0,0,1,1,0,1,0,1","0,1,0,0,1,1,1,1,0","3",""
"","html-keyboard-response","264","92553","0.0-264.0","3WYP994K18D3PXZB8CV8QLTMS45Y6I","A34U4186EW0B9X","3PIOQ99R7Y8STPN46QFY0SD7JTFNU0","","null","<img src=""img/flower6.png"" style=""width:200px; border:14px solid green;"">","null","","","","","","","","",""
"","image-keyboard-response","265","92585","0.0-265.0","3WYP994K18D3PXZB8CV8QLTMS45Y6I","A34U4186EW0B9X","3PIOQ99R7Y8STPN46QFY0SD7JTFNU0","","32.200000047683716","img/flower3.png","75","32.5","2","1","3","2","1,0,0,1,1,0,1,0,1","0,1,0,0,1,1,1,1,0","3",""
"","html-keyboard-response","266","92887","0.0-266.0","3WYP994K18D3PXZB8CV8QLTMS45Y6I","A34U4186EW0B9X","3PIOQ99R7Y8STPN46QFY0SD7JTFNU0","","null","<img src=""img/flower3.png"" style=""width:200px; border:14px solid green;"">","null","","","","","","","","",""
"","image-keyboard-response","267","92926","0.0-267.0","3WYP994K18D3PXZB8CV8QLTMS45Y6I","A34U4186EW0B9X","3PIOQ99R7Y8STPN46QFY0SD7JTFNU0","","39.10000014305115","img/flower3.png","75","39.59999990463257","2","1","3","2","1,0,0,1,1,0,1,0,1","0,1,0,0,1,1,1,1,0","3",""
"","html-keyboard-response","268","93228","0.0-268.0","3WYP994K18D3PXZB8CV8QLTMS45Y6I","A34U4186EW0B9X","3PIOQ99R7Y8STPN46QFY0SD7JTFNU0","","null","<img src=""img/flower3.png"" style=""width:200px; border:14px solid green;"">","null","","","","","","","","",""
"","image-keyboard-response","269","93280","0.0-269.0","3WYP994K18D3PXZB8CV8QLTMS45Y6I","A34U4186EW0B9X","3PIOQ99R7Y8STPN46QFY0SD7JTFNU0","","52.299999952316284","img/flower4.png","75","52.700000047683716","2","1","1","2","1,0,0,1,1,0,1,0,1","0,1,0,0,1,1,1,1,0","3",""
"","html-keyboard-response","270","93581","0.0-270.0","3WYP994K18D3PXZB8CV8QLTMS45Y6I","A34U4186EW0B9X","3PIOQ99R7Y8STPN46QFY0SD7JTFNU0","","null","<img src=""img/flower4.png"" style=""width:200px; border:14px solid green;"">","null","","","","","","","","",""
"","image-keyboard-response","271","93880","0.0-271.0","3WYP994K18D3PXZB8CV8QLTMS45Y6I","A34U4186EW0B9X","3PIOQ99R7Y8STPN46QFY0SD7JTFNU0","","298.7999999523163","img/flower6.png","75","299.2999999523163","2","1","2","2","1,0,0,1,1,0,1,0,1","0,1,0,0,1,1,1,1,0","3",""
"","html-keyboard-response","272","94181","0.0-272.0","3WYP994K18D3PXZB8CV8QLTMS45Y6I","A34U4186EW0B9X","3PIOQ99R7Y8STPN46QFY0SD7JTFNU0","","null","<img src=""img/flower6.png"" style=""width:200px; border:14px solid green;"">","null","","","","","","","","",""
"","image-keyboard-response","273","94249","0.0-273.0","3WYP994K18D3PXZB8CV8QLTMS45Y6I","A34U4186EW0B9X","3PIOQ99R7Y8STPN46QFY0SD7JTFNU0","","67.20000004768372","img/flower4.png","75","67.59999990463257","2","1","1","2","1,0,0,1,1,0,1,0,1","0,1,0,0,1,1,1,1,0","3",""
"","html-keyboard-response","274","94549","0.0-274.0","3WYP994K18D3PXZB8CV8QLTMS45Y6I","A34U4186EW0B9X","3PIOQ99R7Y8STPN46QFY0SD7JTFNU0","","null","<img src=""img/flower4.png"" style=""width:200px; border:14px solid green;"">","null","","","","","","","","",""
"","image-keyboard-response","275","94626","0.0-275.0","3WYP994K18D3PXZB8CV8QLTMS45Y6I","A34U4186EW0B9X","3PIOQ99R7Y8STPN46QFY0SD7JTFNU0","","76.5","img/flower4.png","75","77","2","1","1","2","1,0,0,1,1,0,1,0,1","0,1,0,0,1,1,1,1,0","3",""
"","html-keyboard-response","276","94928","0.0-276.0","3WYP994K18D3PXZB8CV8QLTMS45Y6I","A34U4186EW0B9X","3PIOQ99R7Y8STPN46QFY0SD7JTFNU0","","null","<img src=""img/flower4.png"" style=""width:200px; border:14px solid green;"">","null","","","","","","","","",""
"","image-keyboard-response","277","94950","0.0-277.0","3WYP994K18D3PXZB8CV8QLTMS45Y6I","A34U4186EW0B9X","3PIOQ99R7Y8STPN46QFY0SD7JTFNU0","","21.200000047683716","img/flower4.png","75","21.59999990463257","2","1","1","2","1,0,0,1,1,0,1,0,1","0,1,0,0,1,1,1,1,0","3",""
"","html-keyboard-response","278","95250","0.0-278.0","3WYP994K18D3PXZB8CV8QLTMS45Y6I","A34U4186EW0B9X","3PIOQ99R7Y8STPN46QFY0SD7JTFNU0","","null","<img src=""img/flower4.png"" style=""width:200px; border:14px solid green;"">","null","","","","","","","","",""
"","image-keyboard-response","279","95404","0.0-279.0","3WYP994K18D3PXZB8CV8QLTMS45Y6I","A34U4186EW0B9X","3PIOQ99R7Y8STPN46QFY0SD7JTFNU0","","152.19999980926514","img/flower4.png","75","152.60000014305115","2","1","1","2","1,0,0,1,1,0,1,0,1","0,1,0,0,1,1,1,1,0","3",""
"","html-keyboard-response","280","95705","0.0-280.0","3WYP994K18D3PXZB8CV8QLTMS45Y6I","A34U4186EW0B9X","3PIOQ99R7Y8STPN46QFY0SD7JTFNU0","","null","<img src=""img/flower4.png"" style=""width:200px; border:14px solid green;"">","null","","","","","","","","",""
"","image-keyboard-response","281","95986","0.0-281.0","3WYP994K18D3PXZB8CV8QLTMS45Y6I","A34U4186EW0B9X","3PIOQ99R7Y8STPN46QFY0SD7JTFNU0","","280.2000000476837","img/flower6.png","75","280.60000014305115","2","1","2","2","1,0,0,1,1,0,1,0,1","0,1,0,0,1,1,1,1,0","3",""
"","html-keyboard-response","282","96287","0.0-282.0","3WYP994K18D3PXZB8CV8QLTMS45Y6I","A34U4186EW0B9X","3PIOQ99R7Y8STPN46QFY0SD7JTFNU0","","null","<img src=""img/flower6.png"" style=""width:200px; border:14px solid green;"">","null","","","","","","","","",""
"","image-keyboard-response","283","96425","0.0-283.0","3WYP994K18D3PXZB8CV8QLTMS45Y6I","A34U4186EW0B9X","3PIOQ99R7Y8STPN46QFY0SD7JTFNU0","","137.59999990463257","img/flower4.png","75","138","2","1","1","2","1,0,0,1,1,0,1,0,1","0,1,0,0,1,1,1,1,0","3",""
"","html-keyboard-response","284","96726","0.0-284.0","3WYP994K18D3PXZB8CV8QLTMS45Y6I","A34U4186EW0B9X","3PIOQ99R7Y8STPN46QFY0SD7JTFNU0","","null","<img src=""img/flower4.png"" style=""width:200px; border:14px solid green;"">","null","","","","","","","","",""
"","image-keyboard-response","285","96855","0.0-285.0","3WYP994K18D3PXZB8CV8QLTMS45Y6I","A34U4186EW0B9X","3PIOQ99R7Y8STPN46QFY0SD7JTFNU0","","128","img/flower4.png","75","128.5","2","1","1","2","1,0,0,1,1,0,1,0,1","0,1,0,0,1,1,1,1,0","3",""
"","html-keyboard-response","286","97156","0.0-286.0","3WYP994K18D3PXZB8CV8QLTMS45Y6I","A34U4186EW0B9X","3PIOQ99R7Y8STPN46QFY0SD7JTFNU0","","null","<img src=""img/flower4.png"" style=""width:200px; border:14px solid green;"">","null","","","","","","","","",""
"","image-keyboard-response","287","97298","0.0-287.0","3WYP994K18D3PXZB8CV8QLTMS45Y6I","A34U4186EW0B9X","3PIOQ99R7Y8STPN46QFY0SD7JTFNU0","","141.70000004768372","img/flower3.png","75","142.10000014305115","2","1","3","2","1,0,0,1,1,0,1,0,1","0,1,0,0,1,1,1,1,0","3",""
"","html-keyboard-response","288","97599","0.0-288.0","3WYP994K18D3PXZB8CV8QLTMS45Y6I","A34U4186EW0B9X","3PIOQ99R7Y8STPN46QFY0SD7JTFNU0","","null","<img src=""img/flower3.png"" style=""width:200px; border:14px solid green;"">","null","","","","","","","","",""
"","image-keyboard-response","289","97901","0.0-289.0","3WYP994K18D3PXZB8CV8QLTMS45Y6I","A34U4186EW0B9X","3PIOQ99R7Y8STPN46QFY0SD7JTFNU0","","301.2000000476837","img/flower6.png","75","301.5","2","1","2","2","1,0,0,1,1,0,1,0,1","0,1,0,0,1,1,1,1,0","3",""
"","html-keyboard-response","290","98202","0.0-290.0","3WYP994K18D3PXZB8CV8QLTMS45Y6I","A34U4186EW0B9X","3PIOQ99R7Y8STPN46QFY0SD7JTFNU0","","null","<img src=""img/flower6.png"" style=""width:200px; border:14px solid green;"">","null","","","","","","","","",""
"","image-keyboard-response","291","98252","0.0-291.0","3WYP994K18D3PXZB8CV8QLTMS45Y6I","A34U4186EW0B9X","3PIOQ99R7Y8STPN46QFY0SD7JTFNU0","","49.200000047683716","img/flower6.png","75","49.700000047683716","2","1","2","2","1,0,0,1,1,0,1,0,1","0,1,0,0,1,1,1,1,0","3",""
"","html-keyboard-response","292","98553","0.0-292.0","3WYP994K18D3PXZB8CV8QLTMS45Y6I","A34U4186EW0B9X","3PIOQ99R7Y8STPN46QFY0SD7JTFNU0","","null","<img src=""img/flower6.png"" style=""width:200px; border:14px solid green;"">","null","","","","","","","","",""
"","image-keyboard-response","293","98596","0.0-293.0","3WYP994K18D3PXZB8CV8QLTMS45Y6I","A34U4186EW0B9X","3PIOQ99R7Y8STPN46QFY0SD7JTFNU0","","43.09999990463257","img/flower4.png","75","43.40000009536743","2","1","1","2","1,0,0,1,1,0,1,0,1","0,1,0,0,1,1,1,1,0","3",""
"","html-keyboard-response","294","98908","0.0-294.0","3WYP994K18D3PXZB8CV8QLTMS45Y6I","A34U4186EW0B9X","3PIOQ99R7Y8STPN46QFY0SD7JTFNU0","","null","<img src=""img/flower4.png"" style=""width:200px; border:14px solid green;"">","null","","","","","","","","",""
"","image-keyboard-response","295","99032","0.0-295.0","3WYP994K18D3PXZB8CV8QLTMS45Y6I","A34U4186EW0B9X","3PIOQ99R7Y8STPN46QFY0SD7JTFNU0","","123.30000019073486","img/flower6.png","75","123.79999995231628","2","1","2","2","1,0,0,1,1,0,1,0,1","0,1,0,0,1,1,1,1,0","3",""
"","html-keyboard-response","296","99333","0.0-296.0","3WYP994K18D3PXZB8CV8QLTMS45Y6I","A34U4186EW0B9X","3PIOQ99R7Y8STPN46QFY0SD7JTFNU0","","null","<img src=""img/flower6.png"" style=""width:200px; border:14px solid green;"">","null","","","","","","","","",""
"","image-keyboard-response","297","99616","0.0-297.0","3WYP994K18D3PXZB8CV8QLTMS45Y6I","A34U4186EW0B9X","3PIOQ99R7Y8STPN46QFY0SD7JTFNU0","","283","img/flower6.png","75","283.39999985694885","2","1","2","2","1,0,0,1,1,0,1,0,1","0,1,0,0,1,1,1,1,0","3",""
"","html-keyboard-response","298","99926","0.0-298.0","3WYP994K18D3PXZB8CV8QLTMS45Y6I","A34U4186EW0B9X","3PIOQ99R7Y8STPN46QFY0SD7JTFNU0","","null","<img src=""img/flower6.png"" style=""width:200px; border:14px solid green;"">","null","","","","","","","","",""
"","image-keyboard-response","299","99960","0.0-299.0","3WYP994K18D3PXZB8CV8QLTMS45Y6I","A34U4186EW0B9X","3PIOQ99R7Y8STPN46QFY0SD7JTFNU0","","33.299999952316284","img/flower3.png","75","33.59999990463257","2","1","3","2","1,0,0,1,1,0,1,0,1","0,1,0,0,1,1,1,1,0","3",""
"","html-keyboard-response","300","100261","0.0-300.0","3WYP994K18D3PXZB8CV8QLTMS45Y6I","A34U4186EW0B9X","3PIOQ99R7Y8STPN46QFY0SD7JTFNU0","","null","<img src=""img/flower3.png"" style=""width:200px; border:14px solid green;"">","null","","","","","","","","",""
"","image-keyboard-response","301","100321","0.0-301.0","3WYP994K18D3PXZB8CV8QLTMS45Y6I","A34U4186EW0B9X","3PIOQ99R7Y8STPN46QFY0SD7JTFNU0","","59.89999985694885","img/flower4.png","75","60.299999952316284","2","1","1","2","1,0,0,1,1,0,1,0,1","0,1,0,0,1,1,1,1,0","3",""
"","html-keyboard-response","302","100622","0.0-302.0","3WYP994K18D3PXZB8CV8QLTMS45Y6I","A34U4186EW0B9X","3PIOQ99R7Y8STPN46QFY0SD7JTFNU0","","null","<img src=""img/flower4.png"" style=""width:200px; border:14px solid green;"">","null","","","","","","","","",""
"","image-keyboard-response","303","100637","0.0-303.0","3WYP994K18D3PXZB8CV8QLTMS45Y6I","A34U4186EW0B9X","3PIOQ99R7Y8STPN46QFY0SD7JTFNU0","","14.5","img/flower4.png","75","14.799999952316284","2","1","1","2","1,0,0,1,1,0,1,0,1","0,1,0,0,1,1,1,1,0","3",""
"","html-keyboard-response","304","100938","0.0-304.0","3WYP994K18D3PXZB8CV8QLTMS45Y6I","A34U4186EW0B9X","3PIOQ99R7Y8STPN46QFY0SD7JTFNU0","","null","<img src=""img/flower4.png"" style=""width:200px; border:14px solid green;"">","null","","","","","","","","",""
"","image-keyboard-response","305","100969","0.0-305.0","3WYP994K18D3PXZB8CV8QLTMS45Y6I","A34U4186EW0B9X","3PIOQ99R7Y8STPN46QFY0SD7JTFNU0","","31","img/flower4.png","75","31.600000143051147","2","1","1","2","1,0,0,1,1,0,1,0,1","0,1,0,0,1,1,1,1,0","3",""
"","html-keyboard-response","306","101277","0.0-306.0","3WYP994K18D3PXZB8CV8QLTMS45Y6I","A34U4186EW0B9X","3PIOQ99R7Y8STPN46QFY0SD7JTFNU0","","null","<img src=""img/flower4.png"" style=""width:200px; border:14px solid green;"">","null","","","","","","","","",""
"","image-keyboard-response","307","101309","0.0-307.0","3WYP994K18D3PXZB8CV8QLTMS45Y6I","A34U4186EW0B9X","3PIOQ99R7Y8STPN46QFY0SD7JTFNU0","","31.600000143051147","img/flower4.png","75","32","2","1","1","2","1,0,0,1,1,0,1,0,1","0,1,0,0,1,1,1,1,0","3",""
"","html-keyboard-response","308","101611","0.0-308.0","3WYP994K18D3PXZB8CV8QLTMS45Y6I","A34U4186EW0B9X","3PIOQ99R7Y8STPN46QFY0SD7JTFNU0","","null","<img src=""img/flower4.png"" style=""width:200px; border:14px solid green;"">","null","","","","","","","","",""
"","image-keyboard-response","309","101941","0.0-309.0","3WYP994K18D3PXZB8CV8QLTMS45Y6I","A34U4186EW0B9X","3PIOQ99R7Y8STPN46QFY0SD7JTFNU0","","330.2999999523163","img/flower6.png","75","330.7000000476837","2","1","2","2","1,0,0,1,1,0,1,0,1","0,1,0,0,1,1,1,1,0","3",""
"","html-keyboard-response","310","102254","0.0-310.0","3WYP994K18D3PXZB8CV8QLTMS45Y6I","A34U4186EW0B9X","3PIOQ99R7Y8STPN46QFY0SD7JTFNU0","","null","<img src=""img/flower6.png"" style=""width:200px; border:14px solid green;"">","null","","","","","","","","",""
"","image-keyboard-response","311","102303","0.0-311.0","3WYP994K18D3PXZB8CV8QLTMS45Y6I","A34U4186EW0B9X","3PIOQ99R7Y8STPN46QFY0SD7JTFNU0","","48.39999985694885","img/flower6.png","75","48.80000019073486","2","1","2","2","1,0,0,1,1,0,1,0,1","0,1,0,0,1,1,1,1,0","3",""
"","html-keyboard-response","312","102604","0.0-312.0","3WYP994K18D3PXZB8CV8QLTMS45Y6I","A34U4186EW0B9X","3PIOQ99R7Y8STPN46QFY0SD7JTFNU0","","null","<img src=""img/flower6.png"" style=""width:200px; border:14px solid green;"">","null","","","","","","","","",""
"","image-keyboard-response","313","102626","0.0-313.0","3WYP994K18D3PXZB8CV8QLTMS45Y6I","A34U4186EW0B9X","3PIOQ99R7Y8STPN46QFY0SD7JTFNU0","","21.200000047683716","img/flower6.png","75","21.5","2","1","2","2","1,0,0,1,1,0,1,0,1","0,1,0,0,1,1,1,1,0","3",""
"","html-keyboard-response","314","102927","0.0-314.0","3WYP994K18D3PXZB8CV8QLTMS45Y6I","A34U4186EW0B9X","3PIOQ99R7Y8STPN46QFY0SD7JTFNU0","","null","<img src=""img/flower6.png"" style=""width:200px; border:14px solid green;"">","null","","","","","","","","",""
"","image-keyboard-response","315","102935","0.0-315.0","3WYP994K18D3PXZB8CV8QLTMS45Y6I","A34U4186EW0B9X","3PIOQ99R7Y8STPN46QFY0SD7JTFNU0","","8.5","img/flower3.png","75","8.700000047683716","2","1","3","2","1,0,0,1,1,0,1,0,1","0,1,0,0,1,1,1,1,0","3",""
"","html-keyboard-response","316","103252","0.0-316.0","3WYP994K18D3PXZB8CV8QLTMS45Y6I","A34U4186EW0B9X","3PIOQ99R7Y8STPN46QFY0SD7JTFNU0","","null","<img src=""img/flower3.png"" style=""width:200px; border:14px solid green;"">","null","","","","","","","","",""
"","image-keyboard-response","317","103277","0.0-317.0","3WYP994K18D3PXZB8CV8QLTMS45Y6I","A34U4186EW0B9X","3PIOQ99R7Y8STPN46QFY0SD7JTFNU0","","25.40000009536743","img/flower6.png","75","25.799999952316284","2","1","2","2","1,0,0,1,1,0,1,0,1","0,1,0,0,1,1,1,1,0","3",""
"","html-keyboard-response","318","103578","0.0-318.0","3WYP994K18D3PXZB8CV8QLTMS45Y6I","A34U4186EW0B9X","3PIOQ99R7Y8STPN46QFY0SD7JTFNU0","","null","<img src=""img/flower6.png"" style=""width:200px; border:14px solid green;"">","null","","","","","","","","",""
"","image-keyboard-response","319","103885","0.0-319.0","3WYP994K18D3PXZB8CV8QLTMS45Y6I","A34U4186EW0B9X","3PIOQ99R7Y8STPN46QFY0SD7JTFNU0","","306","img/flower3.png","75","306.39999985694885","2","1","3","2","1,0,0,1,1,0,1,0,1","0,1,0,0,1,1,1,1,0","3",""
"","html-keyboard-response","320","104186","0.0-320.0","3WYP994K18D3PXZB8CV8QLTMS45Y6I","A34U4186EW0B9X","3PIOQ99R7Y8STPN46QFY0SD7JTFNU0","","null","<img src=""img/flower3.png"" style=""width:200px; border:14px solid green;"">","null","","","","","","","","",""
"","image-keyboard-response","321","104469","0.0-321.0","3WYP994K18D3PXZB8CV8QLTMS45Y6I","A34U4186EW0B9X","3PIOQ99R7Y8STPN46QFY0SD7JTFNU0","","282.60000014305115","img/flower6.png","75","282.89999985694885","2","1","2","2","1,0,0,1,1,0,1,0,1","0,1,0,0,1,1,1,1,0","3",""
"","html-keyboard-response","322","104770","0.0-322.0","3WYP994K18D3PXZB8CV8QLTMS45Y6I","A34U4186EW0B9X","3PIOQ99R7Y8STPN46QFY0SD7JTFNU0","","null","<img src=""img/flower6.png"" style=""width:200px; border:14px solid green;"">","null","","","","","","","","",""
"","image-keyboard-response","323","104809","0.0-323.0","3WYP994K18D3PXZB8CV8QLTMS45Y6I","A34U4186EW0B9X","3PIOQ99R7Y8STPN46QFY0SD7JTFNU0","","38.59999990463257","img/flower3.png","75","39","2","1","3","2","1,0,0,1,1,0,1,0,1","0,1,0,0,1,1,1,1,0","3",""
"","html-keyboard-response","324","105110","0.0-324.0","3WYP994K18D3PXZB8CV8QLTMS45Y6I","A34U4186EW0B9X","3PIOQ99R7Y8STPN46QFY0SD7JTFNU0","","null","<img src=""img/flower3.png"" style=""width:200px; border:14px solid green;"">","null","","","","","","","","",""
"","image-keyboard-response","325","105467","0.0-325.0","3WYP994K18D3PXZB8CV8QLTMS45Y6I","A34U4186EW0B9X","3PIOQ99R7Y8STPN46QFY0SD7JTFNU0","","356.60000014305115","img/flower4.png","75","357","2","1","1","2","1,0,0,1,1,0,1,0,1","0,1,0,0,1,1,1,1,0","3",""
"","html-keyboard-response","326","105779","0.0-326.0","3WYP994K18D3PXZB8CV8QLTMS45Y6I","A34U4186EW0B9X","3PIOQ99R7Y8STPN46QFY0SD7JTFNU0","","null","<img src=""img/flower4.png"" style=""width:200px; border:14px solid green;"">","null","","","","","","","","",""
"","image-keyboard-response","327","105901","0.0-327.0","3WYP994K18D3PXZB8CV8QLTMS45Y6I","A34U4186EW0B9X","3PIOQ99R7Y8STPN46QFY0SD7JTFNU0","","121.60000014305115","img/flower6.png","75","122","2","1","2","2","1,0,0,1,1,0,1,0,1","0,1,0,0,1,1,1,1,0","3",""
"","html-keyboard-response","328","106202","0.0-328.0","3WYP994K18D3PXZB8CV8QLTMS45Y6I","A34U4186EW0B9X","3PIOQ99R7Y8STPN46QFY0SD7JTFNU0","","null","<img src=""img/flower6.png"" style=""width:200px; border:14px solid green;"">","null","","","","","","","","",""
"","image-keyboard-response","329","106213","0.0-329.0","3WYP994K18D3PXZB8CV8QLTMS45Y6I","A34U4186EW0B9X","3PIOQ99R7Y8STPN46QFY0SD7JTFNU0","","10.200000047683716","img/flower6.png","75","10.5","2","1","2","2","1,0,0,1,1,0,1,0,1","0,1,0,0,1,1,1,1,0","3",""
"","html-keyboard-response","330","106514","0.0-330.0","3WYP994K18D3PXZB8CV8QLTMS45Y6I","A34U4186EW0B9X","3PIOQ99R7Y8STPN46QFY0SD7JTFNU0","","null","<img src=""img/flower6.png"" style=""width:200px; border:14px solid green;"">","null","","","","","","","","",""
"","image-keyboard-response","331","106617","0.0-331.0","3WYP994K18D3PXZB8CV8QLTMS45Y6I","A34U4186EW0B9X","3PIOQ99R7Y8STPN46QFY0SD7JTFNU0","","102.79999995231628","img/flower6.png","75","103.20000004768372","2","1","2","2","1,0,0,1,1,0,1,0,1","0,1,0,0,1,1,1,1,0","3",""
"","html-keyboard-response","332","106918","0.0-332.0","3WYP994K18D3PXZB8CV8QLTMS45Y6I","A34U4186EW0B9X","3PIOQ99R7Y8STPN46QFY0SD7JTFNU0","","null","<img src=""img/flower6.png"" style=""width:200px; border:14px solid green;"">","null","","","","","","","","",""
"","image-keyboard-response","333","106969","0.0-333.0","3WYP994K18D3PXZB8CV8QLTMS45Y6I","A34U4186EW0B9X","3PIOQ99R7Y8STPN46QFY0SD7JTFNU0","","50.299999952316284","img/flower4.png","75","50.700000047683716","2","1","1","2","1,0,0,1,1,0,1,0,1","0,1,0,0,1,1,1,1,0","3",""
"","html-keyboard-response","334","107270","0.0-334.0","3WYP994K18D3PXZB8CV8QLTMS45Y6I","A34U4186EW0B9X","3PIOQ99R7Y8STPN46QFY0SD7JTFNU0","","null","<img src=""img/flower4.png"" style=""width:200px; border:14px solid green;"">","null","","","","","","","","",""
"","image-keyboard-response","335","107288","0.0-335.0","3WYP994K18D3PXZB8CV8QLTMS45Y6I","A34U4186EW0B9X","3PIOQ99R7Y8STPN46QFY0SD7JTFNU0","","17.90000009536743","img/flower3.png","75","18.299999952316284","2","1","3","2","1,0,0,1,1,0,1,0,1","0,1,0,0,1,1,1,1,0","3",""
"","html-keyboard-response","336","107589","0.0-336.0","3WYP994K18D3PXZB8CV8QLTMS45Y6I","A34U4186EW0B9X","3PIOQ99R7Y8STPN46QFY0SD7JTFNU0","","null","<img src=""img/flower3.png"" style=""width:200px; border:14px solid green;"">","null","","","","","","","","",""
"","image-keyboard-response","337","107617","0.0-337.0","3WYP994K18D3PXZB8CV8QLTMS45Y6I","A34U4186EW0B9X","3PIOQ99R7Y8STPN46QFY0SD7JTFNU0","","27.40000009536743","img/flower6.png","75","27.799999952316284","2","1","2","2","1,0,0,1,1,0,1,0,1","0,1,0,0,1,1,1,1,0","3",""
"","html-keyboard-response","338","107918","0.0-338.0","3WYP994K18D3PXZB8CV8QLTMS45Y6I","A34U4186EW0B9X","3PIOQ99R7Y8STPN46QFY0SD7JTFNU0","","null","<img src=""img/flower6.png"" style=""width:200px; border:14px solid green;"">","null","","","","","","","","",""
"","image-keyboard-response","339","107941","0.0-339.0","3WYP994K18D3PXZB8CV8QLTMS45Y6I","A34U4186EW0B9X","3PIOQ99R7Y8STPN46QFY0SD7JTFNU0","","22.899999856948853","img/flower4.png","75","23.5","2","1","1","2","1,0,0,1,1,0,1,0,1","0,1,0,0,1,1,1,1,0","3",""
"","html-keyboard-response","340","108242","0.0-340.0","3WYP994K18D3PXZB8CV8QLTMS45Y6I","A34U4186EW0B9X","3PIOQ99R7Y8STPN46QFY0SD7JTFNU0","","null","<img src=""img/flower4.png"" style=""width:200px; border:14px solid green;"">","null","","","","","","","","",""
"","image-keyboard-response","341","108249","0.0-341.0","3WYP994K18D3PXZB8CV8QLTMS45Y6I","A34U4186EW0B9X","3PIOQ99R7Y8STPN46QFY0SD7JTFNU0","","6.700000047683716","img/flower6.png","75","7.1000001430511475","2","1","2","2","1,0,0,1,1,0,1,0,1","0,1,0,0,1,1,1,1,0","3",""
"","html-keyboard-response","342","108550","0.0-342.0","3WYP994K18D3PXZB8CV8QLTMS45Y6I","A34U4186EW0B9X","3PIOQ99R7Y8STPN46QFY0SD7JTFNU0","","null","<img src=""img/flower6.png"" style=""width:200px; border:14px solid green;"">","null","","","","","","","","",""
"","image-keyboard-response","343","108884","0.0-343.0","3WYP994K18D3PXZB8CV8QLTMS45Y6I","A34U4186EW0B9X","3PIOQ99R7Y8STPN46QFY0SD7JTFNU0","","333.5","img/flower3.png","75","333.89999985694885","2","1","3","2","1,0,0,1,1,0,1,0,1","0,1,0,0,1,1,1,1,0","3",""
"","html-keyboard-response","344","109185","0.0-344.0","3WYP994K18D3PXZB8CV8QLTMS45Y6I","A34U4186EW0B9X","3PIOQ99R7Y8STPN46QFY0SD7JTFNU0","","null","<img src=""img/flower3.png"" style=""width:200px; border:14px solid green;"">","null","","","","","","","","",""
"","image-keyboard-response","345","109254","0.0-345.0","3WYP994K18D3PXZB8CV8QLTMS45Y6I","A34U4186EW0B9X","3PIOQ99R7Y8STPN46QFY0SD7JTFNU0","","68.70000004768372","img/flower4.png","75","69.09999990463257","2","1","1","2","1,0,0,1,1,0,1,0,1","0,1,0,0,1,1,1,1,0","3",""
"","html-keyboard-response","346","109556","0.0-346.0","3WYP994K18D3PXZB8CV8QLTMS45Y6I","A34U4186EW0B9X","3PIOQ99R7Y8STPN46QFY0SD7JTFNU0","","null","<img src=""img/flower4.png"" style=""width:200px; border:14px solid green;"">","null","","","","","","","","",""
"","image-keyboard-response","347","109567","0.0-347.0","3WYP994K18D3PXZB8CV8QLTMS45Y6I","A34U4186EW0B9X","3PIOQ99R7Y8STPN46QFY0SD7JTFNU0","","11.200000047683716","img/flower4.png","75","11.5","2","1","1","2","1,0,0,1,1,0,1,0,1","0,1,0,0,1,1,1,1,0","3",""
"","html-keyboard-response","348","109868","0.0-348.0","3WYP994K18D3PXZB8CV8QLTMS45Y6I","A34U4186EW0B9X","3PIOQ99R7Y8STPN46QFY0SD7JTFNU0","","null","<img src=""img/flower4.png"" style=""width:200px; border:14px solid green;"">","null","","","","","","","","",""
"","image-keyboard-response","349","109881","0.0-349.0","3WYP994K18D3PXZB8CV8QLTMS45Y6I","A34U4186EW0B9X","3PIOQ99R7Y8STPN46QFY0SD7JTFNU0","","12.600000143051147","img/flower4.png","75","13","2","1","1","2","1,0,0,1,1,0,1,0,1","0,1,0,0,1,1,1,1,0","3",""
"","html-keyboard-response","350","110183","0.0-350.0","3WYP994K18D3PXZB8CV8QLTMS45Y6I","A34U4186EW0B9X","3PIOQ99R7Y8STPN46QFY0SD7JTFNU0","","null","<img src=""img/flower4.png"" style=""width:200px; border:14px solid green;"">","null","","","","","","","","",""
"","image-keyboard-response","351","110205","0.0-351.0","3WYP994K18D3PXZB8CV8QLTMS45Y6I","A34U4186EW0B9X","3PIOQ99R7Y8STPN46QFY0SD7JTFNU0","","21.899999856948853","img/flower3.png","75","22.200000047683716","2","1","3","2","1,0,0,1,1,0,1,0,1","0,1,0,0,1,1,1,1,0","3",""
"","html-keyboard-response","352","110506","0.0-352.0","3WYP994K18D3PXZB8CV8QLTMS45Y6I","A34U4186EW0B9X","3PIOQ99R7Y8STPN46QFY0SD7JTFNU0","","null","<img src=""img/flower3.png"" style=""width:200px; border:14px solid green;"">","null","","","","","","","","",""
"","image-keyboard-response","353","110535","0.0-353.0","3WYP994K18D3PXZB8CV8QLTMS45Y6I","A34U4186EW0B9X","3PIOQ99R7Y8STPN46QFY0SD7JTFNU0","","29.100000143051147","img/flower3.png","75","29.5","2","1","3","2","1,0,0,1,1,0,1,0,1","0,1,0,0,1,1,1,1,0","3",""
"","html-keyboard-response","354","110837","0.0-354.0","3WYP994K18D3PXZB8CV8QLTMS45Y6I","A34U4186EW0B9X","3PIOQ99R7Y8STPN46QFY0SD7JTFNU0","","null","<img src=""img/flower3.png"" style=""width:200px; border:14px solid green;"">","null","","","","","","","","",""
"","image-keyboard-response","355","110838","0.0-355.0","3WYP994K18D3PXZB8CV8QLTMS45Y6I","A34U4186EW0B9X","3PIOQ99R7Y8STPN46QFY0SD7JTFNU0","","0.5","img/flower6.png","75","0.9000000953674316","2","1","2","2","1,0,0,1,1,0,1,0,1","0,1,0,0,1,1,1,1,0","3",""
"","html-keyboard-response","356","111139","0.0-356.0","3WYP994K18D3PXZB8CV8QLTMS45Y6I","A34U4186EW0B9X","3PIOQ99R7Y8STPN46QFY0SD7JTFNU0","","null","<img src=""img/flower6.png"" style=""width:200px; border:14px solid green;"">","null","","","","","","","","",""
"","image-keyboard-response","357","111413","0.0-357.0","3WYP994K18D3PXZB8CV8QLTMS45Y6I","A34U4186EW0B9X","3PIOQ99R7Y8STPN46QFY0SD7JTFNU0","","274.30000019073486","img/flower6.png","75","274.7999999523163","2","1","2","2","1,0,0,1,1,0,1,0,1","0,1,0,0,1,1,1,1,0","3",""
"","html-keyboard-response","358","111723","0.0-358.0","3WYP994K18D3PXZB8CV8QLTMS45Y6I","A34U4186EW0B9X","3PIOQ99R7Y8STPN46QFY0SD7JTFNU0","","null","<img src=""img/flower6.png"" style=""width:200px; border:14px solid green;"">","null","","","","","","","","",""
"","image-keyboard-response","359","111827","0.0-359.0","3WYP994K18D3PXZB8CV8QLTMS45Y6I","A34U4186EW0B9X","3PIOQ99R7Y8STPN46QFY0SD7JTFNU0","","102.90000009536743","img/flower3.png","75","103.29999995231628","2","1","3","2","1,0,0,1,1,0,1,0,1","0,1,0,0,1,1,1,1,0","3",""
"","html-keyboard-response","360","112128","0.0-360.0","3WYP994K18D3PXZB8CV8QLTMS45Y6I","A34U4186EW0B9X","3PIOQ99R7Y8STPN46QFY0SD7JTFNU0","","null","<img src=""img/flower3.png"" style=""width:200px; border:14px solid green;"">","null","","","","","","","","",""
"","image-keyboard-response","361","112172","0.0-361.0","3WYP994K18D3PXZB8CV8QLTMS45Y6I","A34U4186EW0B9X","3PIOQ99R7Y8STPN46QFY0SD7JTFNU0","","43","img/flower6.png","75","43.39999985694885","2","1","2","2","1,0,0,1,1,0,1,0,1","0,1,0,0,1,1,1,1,0","3",""
"","html-keyboard-response","362","112473","0.0-362.0","3WYP994K18D3PXZB8CV8QLTMS45Y6I","A34U4186EW0B9X","3PIOQ99R7Y8STPN46QFY0SD7JTFNU0","","null","<img src=""img/flower6.png"" style=""width:200px; border:14px solid green;"">","null","","","","","","","","",""
"","instructions","363","116627","0.0-363.0","3WYP994K18D3PXZB8CV8QLTMS45Y6I","A34U4186EW0B9X","3PIOQ99R7Y8STPN46QFY0SD7JTFNU0","[{""page_index"":0,""viewing_time"":4153.200000047684}]","4153.299999952316","","","","","","","","","","",""
"","survey-text","364","124993","0.0-364.0","3WYP994K18D3PXZB8CV8QLTMS45Y6I","A34U4186EW0B9X","3PIOQ99R7Y8STPN46QFY0SD7JTFNU0","","8364.299999952316","","","","","","","","","","","{""Q0"":""A34U4186EW0B9X""}"
