"success","trial_type","trial_index","time_elapsed","internal_node_id","assignmentID","mturkID","hitID","view_history","rt","stimulus","key_press","reactionTime","a","r","s","cond","reward_cond","reward_cond_actual","reward_matrix_idx","responses"
"true","fullscreen","0","3498","0.0-0.0","3QUO65DNQVACXULAY7KD4090HJYUOL","A36470UBRH28GO","3TKXBROM5TWR181JXBYSOI8FGFVJIU","","","","","","","","","","","","",""
"","instructions","1","19981","0.0-1.0","3QUO65DNQVACXULAY7KD4090HJYUOL","A36470UBRH28GO","3TKXBROM5TWR181JXBYSOI8FGFVJIU","[{""page_index"":0,""viewing_time"":4432.29999999702},{""page_index"":1,""viewing_time"":1834.2000000029802},{""page_index"":2,""viewing_time"":698.3999999910593},{""page_index"":3,""viewing_time"":743.9000000059605},{""page_index"":4,""viewing_time"":3150},{""page_index"":5,""viewing_time"":2355.5999999940395},{""page_index"":6,""viewing_time"":1354},{""page_index"":7,""viewing_time"":1913.7000000029802}]","16482.5","","","","","","","","","","",""
"","image-keyboard-response","2","21266","0.0-2.0","3QUO65DNQVACXULAY7KD4090HJYUOL","A36470UBRH28GO","3TKXBROM5TWR181JXBYSOI8FGFVJIU","","1283.9000000059605","img/flower5.png","74","1284.800000011921","1","0","2","1","1,0.333,0.333,0.333,1,0.333,0.333,0.333,1","1,0.333,0.333,0.333,1,0.333,0.333,0.333,1","1",""
"","html-keyboard-response","3","21574","0.0-3.0","3QUO65DNQVACXULAY7KD4090HJYUOL","A36470UBRH28GO","3TKXBROM5TWR181JXBYSOI8FGFVJIU","","null","<img src=""img/flower5.png"" style=""width:200px;border:14px solid red;"">","null","","","","","","","","",""
"","image-keyboard-response","4","22096","0.0-4.0","3QUO65DNQVACXULAY7KD4090HJYUOL","A36470UBRH28GO","3TKXBROM5TWR181JXBYSOI8FGFVJIU","","521.2000000029802","img/flower5.png","75","522","2","1","2","1","1,0.333,0.333,0.333,1,0.333,0.333,0.333,1","1,0.333,0.333,0.333,1,0.333,0.333,0.333,1","1",""
"","html-keyboard-response","5","22398","0.0-5.0","3QUO65DNQVACXULAY7KD4090HJYUOL","A36470UBRH28GO","3TKXBROM5TWR181JXBYSOI8FGFVJIU","","null","<img src=""img/flower5.png"" style=""width:200px; border:14px solid green;"">","null","","","","","","","","",""
"","image-keyboard-response","6","22904","0.0-6.0","3QUO65DNQVACXULAY7KD4090HJYUOL","A36470UBRH28GO","3TKXBROM5TWR181JXBYSOI8FGFVJIU","","505.29999999701977","img/flower5.png","75","505.79999999701977","2","1","2","1","1,0.333,0.333,0.333,1,0.333,0.333,0.333,1","1,0.333,0.333,0.333,1,0.333,0.333,0.333,1","1",""
"","html-keyboard-response","7","23209","0.0-7.0","3QUO65DNQVACXULAY7KD4090HJYUOL","A36470UBRH28GO","3TKXBROM5TWR181JXBYSOI8FGFVJIU","","null","<img src=""img/flower5.png"" style=""width:200px; border:14px solid green;"">","null","","","","","","","","",""
"","image-keyboard-response","8","23974","0.0-8.0","3QUO65DNQVACXULAY7KD4090HJYUOL","A36470UBRH28GO","3TKXBROM5TWR181JXBYSOI8FGFVJIU","","763.9000000059605","img/flower3.png","76","764.5","3","1","1","1","1,0.333,0.333,0.333,1,0.333,0.333,0.333,1","1,0.333,0.333,0.333,1,0.333,0.333,0.333,1","1",""
"","html-keyboard-response","9","24285","0.0-9.0","3QUO65DNQVACXULAY7KD4090HJYUOL","A36470UBRH28GO","3TKXBROM5TWR181JXBYSOI8FGFVJIU","","null","<img src=""img/flower3.png"" style=""width:200px; border:14px solid green;"">","null","","","","","","","","",""
"","image-keyboard-response","10","25222","0.0-10.0","3QUO65DNQVACXULAY7KD4090HJYUOL","A36470UBRH28GO","3TKXBROM5TWR181JXBYSOI8FGFVJIU","","935.4000000059605","img/flower2.png","74","936.2000000029802","1","0","3","1","1,0.333,0.333,0.333,1,0.333,0.333,0.333,1","1,0.333,0.333,0.333,1,0.333,0.333,0.333,1","1",""
"","html-keyboard-response","11","25534","0.0-11.0","3QUO65DNQVACXULAY7KD4090HJYUOL","A36470UBRH28GO","3TKXBROM5TWR181JXBYSOI8FGFVJIU","","null","<img src=""img/flower2.png"" style=""width:200px;border:14px solid red;"">","null","","","","","","","","",""
"","image-keyboard-response","12","26182","0.0-12.0","3QUO65DNQVACXULAY7KD4090HJYUOL","A36470UBRH28GO","3TKXBROM5TWR181JXBYSOI8FGFVJIU","","647.3000000119209","img/flower5.png","75","647.9000000059605","2","1","2","1","1,0.333,0.333,0.333,1,0.333,0.333,0.333,1","1,0.333,0.333,0.333,1,0.333,0.333,0.333,1","1",""
"","html-keyboard-response","13","26488","0.0-13.0","3QUO65DNQVACXULAY7KD4090HJYUOL","A36470UBRH28GO","3TKXBROM5TWR181JXBYSOI8FGFVJIU","","null","<img src=""img/flower5.png"" style=""width:200px; border:14px solid green;"">","null","","","","","","","","",""
"","image-keyboard-response","14","27748","0.0-14.0","3QUO65DNQVACXULAY7KD4090HJYUOL","A36470UBRH28GO","3TKXBROM5TWR181JXBYSOI8FGFVJIU","","1258.6000000089407","img/flower3.png","76","1259","3","0","1","1","1,0.333,0.333,0.333,1,0.333,0.333,0.333,1","1,0.333,0.333,0.333,1,0.333,0.333,0.333,1","1",""
"","html-keyboard-response","15","28060","0.0-15.0","3QUO65DNQVACXULAY7KD4090HJYUOL","A36470UBRH28GO","3TKXBROM5TWR181JXBYSOI8FGFVJIU","","null","<img src=""img/flower3.png"" style=""width:200px;border:14px solid red;"">","null","","","","","","","","",""
"","image-keyboard-response","16","28988","0.0-16.0","3QUO65DNQVACXULAY7KD4090HJYUOL","A36470UBRH28GO","3TKXBROM5TWR181JXBYSOI8FGFVJIU","","927.2999999970198","img/flower3.png","74","928","1","1","1","1","1,0.333,0.333,0.333,1,0.333,0.333,0.333,1","1,0.333,0.333,0.333,1,0.333,0.333,0.333,1","1",""
"","html-keyboard-response","17","29296","0.0-17.0","3QUO65DNQVACXULAY7KD4090HJYUOL","A36470UBRH28GO","3TKXBROM5TWR181JXBYSOI8FGFVJIU","","null","<img src=""img/flower3.png"" style=""width:200px; border:14px solid green;"">","null","","","","","","","","",""
"","image-keyboard-response","18","29858","0.0-18.0","3QUO65DNQVACXULAY7KD4090HJYUOL","A36470UBRH28GO","3TKXBROM5TWR181JXBYSOI8FGFVJIU","","561.0999999940395","img/flower3.png","74","562","1","1","1","1","1,0.333,0.333,0.333,1,0.333,0.333,0.333,1","1,0.333,0.333,0.333,1,0.333,0.333,0.333,1","1",""
"","html-keyboard-response","19","30160","0.0-19.0","3QUO65DNQVACXULAY7KD4090HJYUOL","A36470UBRH28GO","3TKXBROM5TWR181JXBYSOI8FGFVJIU","","null","<img src=""img/flower3.png"" style=""width:200px; border:14px solid green;"">","null","","","","","","","","",""
"","image-keyboard-response","20","31034","0.0-20.0","3QUO65DNQVACXULAY7KD4090HJYUOL","A36470UBRH28GO","3TKXBROM5TWR181JXBYSOI8FGFVJIU","","873.6000000089407","img/flower2.png","76","874.2000000029802","3","1","3","1","1,0.333,0.333,0.333,1,0.333,0.333,0.333,1","1,0.333,0.333,0.333,1,0.333,0.333,0.333,1","1",""
"","html-keyboard-response","21","31336","0.0-21.0","3QUO65DNQVACXULAY7KD4090HJYUOL","A36470UBRH28GO","3TKXBROM5TWR181JXBYSOI8FGFVJIU","","null","<img src=""img/flower2.png"" style=""width:200px; border:14px solid green;"">","null","","","","","","","","",""
"","image-keyboard-response","22","32034","0.0-22.0","3QUO65DNQVACXULAY7KD4090HJYUOL","A36470UBRH28GO","3TKXBROM5TWR181JXBYSOI8FGFVJIU","","697.5","img/flower5.png","75","698.2000000029802","2","1","2","1","1,0.333,0.333,0.333,1,0.333,0.333,0.333,1","1,0.333,0.333,0.333,1,0.333,0.333,0.333,1","1",""
"","html-keyboard-response","23","32335","0.0-23.0","3QUO65DNQVACXULAY7KD4090HJYUOL","A36470UBRH28GO","3TKXBROM5TWR181JXBYSOI8FGFVJIU","","null","<img src=""img/flower5.png"" style=""width:200px; border:14px solid green;"">","null","","","","","","","","",""
"","image-keyboard-response","24","33338","0.0-24.0","3QUO65DNQVACXULAY7KD4090HJYUOL","A36470UBRH28GO","3TKXBROM5TWR181JXBYSOI8FGFVJIU","","1002","img/flower3.png","74","1002.7000000029802","1","1","1","1","1,0.333,0.333,0.333,1,0.333,0.333,0.333,1","1,0.333,0.333,0.333,1,0.333,0.333,0.333,1","1",""
"","html-keyboard-response","25","33639","0.0-25.0","3QUO65DNQVACXULAY7KD4090HJYUOL","A36470UBRH28GO","3TKXBROM5TWR181JXBYSOI8FGFVJIU","","null","<img src=""img/flower3.png"" style=""width:200px; border:14px solid green;"">","null","","","","","","","","",""
"","image-keyboard-response","26","34326","0.0-26.0","3QUO65DNQVACXULAY7KD4090HJYUOL","A36470UBRH28GO","3TKXBROM5TWR181JXBYSOI8FGFVJIU","","687","img/flower2.png","76","687.7000000029802","3","1","3","1","1,0.333,0.333,0.333,1,0.333,0.333,0.333,1","1,0.333,0.333,0.333,1,0.333,0.333,0.333,1","1",""
"","html-keyboard-response","27","34628","0.0-27.0","3QUO65DNQVACXULAY7KD4090HJYUOL","A36470UBRH28GO","3TKXBROM5TWR181JXBYSOI8FGFVJIU","","null","<img src=""img/flower2.png"" style=""width:200px; border:14px solid green;"">","null","","","","","","","","",""
"","image-keyboard-response","28","35320","0.0-28.0","3QUO65DNQVACXULAY7KD4090HJYUOL","A36470UBRH28GO","3TKXBROM5TWR181JXBYSOI8FGFVJIU","","691","img/flower3.png","75","691.7000000029802","2","1","1","1","1,0.333,0.333,0.333,1,0.333,0.333,0.333,1","1,0.333,0.333,0.333,1,0.333,0.333,0.333,1","1",""
"","html-keyboard-response","29","35623","0.0-29.0","3QUO65DNQVACXULAY7KD4090HJYUOL","A36470UBRH28GO","3TKXBROM5TWR181JXBYSOI8FGFVJIU","","null","<img src=""img/flower3.png"" style=""width:200px; border:14px solid green;"">","null","","","","","","","","",""
"","image-keyboard-response","30","36696","0.0-30.0","3QUO65DNQVACXULAY7KD4090HJYUOL","A36470UBRH28GO","3TKXBROM5TWR181JXBYSOI8FGFVJIU","","1072","img/flower5.png","75","1072.699999988079","2","1","2","1","1,0.333,0.333,0.333,1,0.333,0.333,0.333,1","1,0.333,0.333,0.333,1,0.333,0.333,0.333,1","1",""
"","html-keyboard-response","31","36997","0.0-31.0","3QUO65DNQVACXULAY7KD4090HJYUOL","A36470UBRH28GO","3TKXBROM5TWR181JXBYSOI8FGFVJIU","","null","<img src=""img/flower5.png"" style=""width:200px; border:14px solid green;"">","null","","","","","","","","",""
"","image-keyboard-response","32","37419","0.0-32.0","3QUO65DNQVACXULAY7KD4090HJYUOL","A36470UBRH28GO","3TKXBROM5TWR181JXBYSOI8FGFVJIU","","422","img/flower5.png","75","422.59999999403954","2","1","2","1","1,0.333,0.333,0.333,1,0.333,0.333,0.333,1","1,0.333,0.333,0.333,1,0.333,0.333,0.333,1","1",""
"","html-keyboard-response","33","37721","0.0-33.0","3QUO65DNQVACXULAY7KD4090HJYUOL","A36470UBRH28GO","3TKXBROM5TWR181JXBYSOI8FGFVJIU","","null","<img src=""img/flower5.png"" style=""width:200px; border:14px solid green;"">","null","","","","","","","","",""
"","image-keyboard-response","34","38404","0.0-34.0","3QUO65DNQVACXULAY7KD4090HJYUOL","A36470UBRH28GO","3TKXBROM5TWR181JXBYSOI8FGFVJIU","","682.1000000089407","img/flower3.png","76","682.8000000119209","3","0","1","1","1,0.333,0.333,0.333,1,0.333,0.333,0.333,1","1,0.333,0.333,0.333,1,0.333,0.333,0.333,1","1",""
"","html-keyboard-response","35","38705","0.0-35.0","3QUO65DNQVACXULAY7KD4090HJYUOL","A36470UBRH28GO","3TKXBROM5TWR181JXBYSOI8FGFVJIU","","null","<img src=""img/flower3.png"" style=""width:200px;border:14px solid red;"">","null","","","","","","","","",""
"","image-keyboard-response","36","39788","0.0-36.0","3QUO65DNQVACXULAY7KD4090HJYUOL","A36470UBRH28GO","3TKXBROM5TWR181JXBYSOI8FGFVJIU","","1081.8999999910593","img/flower2.png","74","1082.4000000059605","1","0","3","1","1,0.333,0.333,0.333,1,0.333,0.333,0.333,1","1,0.333,0.333,0.333,1,0.333,0.333,0.333,1","1",""
"","html-keyboard-response","37","40090","0.0-37.0","3QUO65DNQVACXULAY7KD4090HJYUOL","A36470UBRH28GO","3TKXBROM5TWR181JXBYSOI8FGFVJIU","","null","<img src=""img/flower2.png"" style=""width:200px;border:14px solid red;"">","null","","","","","","","","",""
"","image-keyboard-response","38","41414","0.0-38.0","3QUO65DNQVACXULAY7KD4090HJYUOL","A36470UBRH28GO","3TKXBROM5TWR181JXBYSOI8FGFVJIU","","1323.0999999940395","img/flower3.png","74","1323.8999999910593","1","1","1","1","1,0.333,0.333,0.333,1,0.333,0.333,0.333,1","1,0.333,0.333,0.333,1,0.333,0.333,0.333,1","1",""
"","html-keyboard-response","39","41716","0.0-39.0","3QUO65DNQVACXULAY7KD4090HJYUOL","A36470UBRH28GO","3TKXBROM5TWR181JXBYSOI8FGFVJIU","","null","<img src=""img/flower3.png"" style=""width:200px; border:14px solid green;"">","null","","","","","","","","",""
"","image-keyboard-response","40","42353","0.0-40.0","3QUO65DNQVACXULAY7KD4090HJYUOL","A36470UBRH28GO","3TKXBROM5TWR181JXBYSOI8FGFVJIU","","636.5","img/flower2.png","76","637.2000000029802","3","1","3","1","1,0.333,0.333,0.333,1,0.333,0.333,0.333,1","1,0.333,0.333,0.333,1,0.333,0.333,0.333,1","1",""
"","html-keyboard-response","41","42655","0.0-41.0","3QUO65DNQVACXULAY7KD4090HJYUOL","A36470UBRH28GO","3TKXBROM5TWR181JXBYSOI8FGFVJIU","","null","<img src=""img/flower2.png"" style=""width:200px; border:14px solid green;"">","null","","","","","","","","",""
"","image-keyboard-response","42","43020","0.0-42.0","3QUO65DNQVACXULAY7KD4090HJYUOL","A36470UBRH28GO","3TKXBROM5TWR181JXBYSOI8FGFVJIU","","364.5","img/flower2.png","76","365.1000000089407","3","1","3","1","1,0.333,0.333,0.333,1,0.333,0.333,0.333,1","1,0.333,0.333,0.333,1,0.333,0.333,0.333,1","1",""
"","html-keyboard-response","43","43321","0.0-43.0","3QUO65DNQVACXULAY7KD4090HJYUOL","A36470UBRH28GO","3TKXBROM5TWR181JXBYSOI8FGFVJIU","","null","<img src=""img/flower2.png"" style=""width:200px; border:14px solid green;"">","null","","","","","","","","",""
"","image-keyboard-response","44","44094","0.0-44.0","3QUO65DNQVACXULAY7KD4090HJYUOL","A36470UBRH28GO","3TKXBROM5TWR181JXBYSOI8FGFVJIU","","771.5999999940395","img/flower3.png","74","772.2000000029802","1","1","1","1","1,0.333,0.333,0.333,1,0.333,0.333,0.333,1","1,0.333,0.333,0.333,1,0.333,0.333,0.333,1","1",""
"","html-keyboard-response","45","44396","0.0-45.0","3QUO65DNQVACXULAY7KD4090HJYUOL","A36470UBRH28GO","3TKXBROM5TWR181JXBYSOI8FGFVJIU","","null","<img src=""img/flower3.png"" style=""width:200px; border:14px solid green;"">","null","","","","","","","","",""
"","image-keyboard-response","46","44792","0.0-46.0","3QUO65DNQVACXULAY7KD4090HJYUOL","A36470UBRH28GO","3TKXBROM5TWR181JXBYSOI8FGFVJIU","","394.70000000298023","img/flower3.png","74","395.5","1","1","1","1","1,0.333,0.333,0.333,1,0.333,0.333,0.333,1","1,0.333,0.333,0.333,1,0.333,0.333,0.333,1","1",""
"","html-keyboard-response","47","45094","0.0-47.0","3QUO65DNQVACXULAY7KD4090HJYUOL","A36470UBRH28GO","3TKXBROM5TWR181JXBYSOI8FGFVJIU","","null","<img src=""img/flower3.png"" style=""width:200px; border:14px solid green;"">","null","","","","","","","","",""
"","image-keyboard-response","48","45672","0.0-48.0","3QUO65DNQVACXULAY7KD4090HJYUOL","A36470UBRH28GO","3TKXBROM5TWR181JXBYSOI8FGFVJIU","","576.6000000089407","img/flower5.png","75","577.3999999910593","2","1","2","1","1,0.333,0.333,0.333,1,0.333,0.333,0.333,1","1,0.333,0.333,0.333,1,0.333,0.333,0.333,1","1",""
"","html-keyboard-response","49","45973","0.0-49.0","3QUO65DNQVACXULAY7KD4090HJYUOL","A36470UBRH28GO","3TKXBROM5TWR181JXBYSOI8FGFVJIU","","null","<img src=""img/flower5.png"" style=""width:200px; border:14px solid green;"">","null","","","","","","","","",""
"","image-keyboard-response","50","46898","0.0-50.0","3QUO65DNQVACXULAY7KD4090HJYUOL","A36470UBRH28GO","3TKXBROM5TWR181JXBYSOI8FGFVJIU","","924.1999999880791","img/flower2.png","76","925.1000000089407","3","1","3","1","1,0.333,0.333,0.333,1,0.333,0.333,0.333,1","1,0.333,0.333,0.333,1,0.333,0.333,0.333,1","1",""
"","html-keyboard-response","51","47200","0.0-51.0","3QUO65DNQVACXULAY7KD4090HJYUOL","A36470UBRH28GO","3TKXBROM5TWR181JXBYSOI8FGFVJIU","","null","<img src=""img/flower2.png"" style=""width:200px; border:14px solid green;"">","null","","","","","","","","",""
"","image-keyboard-response","52","47768","0.0-52.0","3QUO65DNQVACXULAY7KD4090HJYUOL","A36470UBRH28GO","3TKXBROM5TWR181JXBYSOI8FGFVJIU","","566.5999999940395","img/flower5.png","75","567.3999999910593","2","1","2","1","1,0.333,0.333,0.333,1,0.333,0.333,0.333,1","1,0.333,0.333,0.333,1,0.333,0.333,0.333,1","1",""
"","html-keyboard-response","53","48070","0.0-53.0","3QUO65DNQVACXULAY7KD4090HJYUOL","A36470UBRH28GO","3TKXBROM5TWR181JXBYSOI8FGFVJIU","","null","<img src=""img/flower5.png"" style=""width:200px; border:14px solid green;"">","null","","","","","","","","",""
"","image-keyboard-response","54","48502","0.0-54.0","3QUO65DNQVACXULAY7KD4090HJYUOL","A36470UBRH28GO","3TKXBROM5TWR181JXBYSOI8FGFVJIU","","431.29999999701977","img/flower5.png","75","431.90000000596046","2","1","2","1","1,0.333,0.333,0.333,1,0.333,0.333,0.333,1","1,0.333,0.333,0.333,1,0.333,0.333,0.333,1","1",""
"","html-keyboard-response","55","48804","0.0-55.0","3QUO65DNQVACXULAY7KD4090HJYUOL","A36470UBRH28GO","3TKXBROM5TWR181JXBYSOI8FGFVJIU","","null","<img src=""img/flower5.png"" style=""width:200px; border:14px solid green;"">","null","","","","","","","","",""
"","image-keyboard-response","56","49414","0.0-56.0","3QUO65DNQVACXULAY7KD4090HJYUOL","A36470UBRH28GO","3TKXBROM5TWR181JXBYSOI8FGFVJIU","","609.3999999910593","img/flower2.png","76","610.0999999940395","3","1","3","1","1,0.333,0.333,0.333,1,0.333,0.333,0.333,1","1,0.333,0.333,0.333,1,0.333,0.333,0.333,1","1",""
"","html-keyboard-response","57","49715","0.0-57.0","3QUO65DNQVACXULAY7KD4090HJYUOL","A36470UBRH28GO","3TKXBROM5TWR181JXBYSOI8FGFVJIU","","null","<img src=""img/flower2.png"" style=""width:200px; border:14px solid green;"">","null","","","","","","","","",""
"","image-keyboard-response","58","50634","0.0-58.0","3QUO65DNQVACXULAY7KD4090HJYUOL","A36470UBRH28GO","3TKXBROM5TWR181JXBYSOI8FGFVJIU","","918.2999999970198","img/flower3.png","74","918.9000000059605","1","1","1","1","1,0.333,0.333,0.333,1,0.333,0.333,0.333,1","1,0.333,0.333,0.333,1,0.333,0.333,0.333,1","1",""
"","html-keyboard-response","59","50935","0.0-59.0","3QUO65DNQVACXULAY7KD4090HJYUOL","A36470UBRH28GO","3TKXBROM5TWR181JXBYSOI8FGFVJIU","","null","<img src=""img/flower3.png"" style=""width:200px; border:14px solid green;"">","null","","","","","","","","",""
"","image-keyboard-response","60","51728","0.0-60.0","3QUO65DNQVACXULAY7KD4090HJYUOL","A36470UBRH28GO","3TKXBROM5TWR181JXBYSOI8FGFVJIU","","793","img/flower2.png","76","793.5","3","1","3","1","1,0.333,0.333,0.333,1,0.333,0.333,0.333,1","1,0.333,0.333,0.333,1,0.333,0.333,0.333,1","1",""
"","html-keyboard-response","61","52031","0.0-61.0","3QUO65DNQVACXULAY7KD4090HJYUOL","A36470UBRH28GO","3TKXBROM5TWR181JXBYSOI8FGFVJIU","","null","<img src=""img/flower2.png"" style=""width:200px; border:14px solid green;"">","null","","","","","","","","",""
"","image-keyboard-response","62","52539","0.0-62.0","3QUO65DNQVACXULAY7KD4090HJYUOL","A36470UBRH28GO","3TKXBROM5TWR181JXBYSOI8FGFVJIU","","508.29999999701977","img/flower5.png","75","508.70000000298023","2","1","2","1","1,0.333,0.333,0.333,1,0.333,0.333,0.333,1","1,0.333,0.333,0.333,1,0.333,0.333,0.333,1","1",""
"","html-keyboard-response","63","52840","0.0-63.0","3QUO65DNQVACXULAY7KD4090HJYUOL","A36470UBRH28GO","3TKXBROM5TWR181JXBYSOI8FGFVJIU","","null","<img src=""img/flower5.png"" style=""width:200px; border:14px solid green;"">","null","","","","","","","","",""
"","image-keyboard-response","64","53214","0.0-64.0","3QUO65DNQVACXULAY7KD4090HJYUOL","A36470UBRH28GO","3TKXBROM5TWR181JXBYSOI8FGFVJIU","","372.6000000089407","img/flower5.png","75","373.19999998807907","2","1","2","1","1,0.333,0.333,0.333,1,0.333,0.333,0.333,1","1,0.333,0.333,0.333,1,0.333,0.333,0.333,1","1",""
"","html-keyboard-response","65","53515","0.0-65.0","3QUO65DNQVACXULAY7KD4090HJYUOL","A36470UBRH28GO","3TKXBROM5TWR181JXBYSOI8FGFVJIU","","null","<img src=""img/flower5.png"" style=""width:200px; border:14px solid green;"">","null","","","","","","","","",""
"","image-keyboard-response","66","54442","0.0-66.0","3QUO65DNQVACXULAY7KD4090HJYUOL","A36470UBRH28GO","3TKXBROM5TWR181JXBYSOI8FGFVJIU","","925.4000000059605","img/flower3.png","74","926.0999999940395","1","1","1","1","1,0.333,0.333,0.333,1,0.333,0.333,0.333,1","1,0.333,0.333,0.333,1,0.333,0.333,0.333,1","1",""
"","html-keyboard-response","67","54743","0.0-67.0","3QUO65DNQVACXULAY7KD4090HJYUOL","A36470UBRH28GO","3TKXBROM5TWR181JXBYSOI8FGFVJIU","","null","<img src=""img/flower3.png"" style=""width:200px; border:14px solid green;"">","null","","","","","","","","",""
"","image-keyboard-response","68","55264","0.0-68.0","3QUO65DNQVACXULAY7KD4090HJYUOL","A36470UBRH28GO","3TKXBROM5TWR181JXBYSOI8FGFVJIU","","519.8999999910593","img/flower2.png","76","520.6000000089407","3","1","3","1","1,0.333,0.333,0.333,1,0.333,0.333,0.333,1","1,0.333,0.333,0.333,1,0.333,0.333,0.333,1","1",""
"","html-keyboard-response","69","55566","0.0-69.0","3QUO65DNQVACXULAY7KD4090HJYUOL","A36470UBRH28GO","3TKXBROM5TWR181JXBYSOI8FGFVJIU","","null","<img src=""img/flower2.png"" style=""width:200px; border:14px solid green;"">","null","","","","","","","","",""
"","image-keyboard-response","70","56374","0.0-70.0","3QUO65DNQVACXULAY7KD4090HJYUOL","A36470UBRH28GO","3TKXBROM5TWR181JXBYSOI8FGFVJIU","","807.2999999970198","img/flower3.png","75","808.0999999940395","2","0","1","1","1,0.333,0.333,0.333,1,0.333,0.333,0.333,1","1,0.333,0.333,0.333,1,0.333,0.333,0.333,1","1",""
"","html-keyboard-response","71","56676","0.0-71.0","3QUO65DNQVACXULAY7KD4090HJYUOL","A36470UBRH28GO","3TKXBROM5TWR181JXBYSOI8FGFVJIU","","null","<img src=""img/flower3.png"" style=""width:200px;border:14px solid red;"">","null","","","","","","","","",""
"","image-keyboard-response","72","57424","0.0-72.0","3QUO65DNQVACXULAY7KD4090HJYUOL","A36470UBRH28GO","3TKXBROM5TWR181JXBYSOI8FGFVJIU","","747.2999999970198","img/flower5.png","75","747.8999999910593","2","1","2","1","1,0.333,0.333,0.333,1,0.333,0.333,0.333,1","1,0.333,0.333,0.333,1,0.333,0.333,0.333,1","1",""
"","html-keyboard-response","73","57726","0.0-73.0","3QUO65DNQVACXULAY7KD4090HJYUOL","A36470UBRH28GO","3TKXBROM5TWR181JXBYSOI8FGFVJIU","","null","<img src=""img/flower5.png"" style=""width:200px; border:14px solid green;"">","null","","","","","","","","",""
"","image-keyboard-response","74","58740","0.0-74.0","3QUO65DNQVACXULAY7KD4090HJYUOL","A36470UBRH28GO","3TKXBROM5TWR181JXBYSOI8FGFVJIU","","1013.2999999970198","img/flower2.png","76","1014.0999999940395","3","1","3","1","1,0.333,0.333,0.333,1,0.333,0.333,0.333,1","1,0.333,0.333,0.333,1,0.333,0.333,0.333,1","1",""
"","html-keyboard-response","75","59041","0.0-75.0","3QUO65DNQVACXULAY7KD4090HJYUOL","A36470UBRH28GO","3TKXBROM5TWR181JXBYSOI8FGFVJIU","","null","<img src=""img/flower2.png"" style=""width:200px; border:14px solid green;"">","null","","","","","","","","",""
"","image-keyboard-response","76","59671","0.0-76.0","3QUO65DNQVACXULAY7KD4090HJYUOL","A36470UBRH28GO","3TKXBROM5TWR181JXBYSOI8FGFVJIU","","629.0999999940395","img/flower3.png","74","629.7000000029802","1","1","1","1","1,0.333,0.333,0.333,1,0.333,0.333,0.333,1","1,0.333,0.333,0.333,1,0.333,0.333,0.333,1","1",""
"","html-keyboard-response","77","59973","0.0-77.0","3QUO65DNQVACXULAY7KD4090HJYUOL","A36470UBRH28GO","3TKXBROM5TWR181JXBYSOI8FGFVJIU","","null","<img src=""img/flower3.png"" style=""width:200px; border:14px solid green;"">","null","","","","","","","","",""
"","image-keyboard-response","78","60624","0.0-78.0","3QUO65DNQVACXULAY7KD4090HJYUOL","A36470UBRH28GO","3TKXBROM5TWR181JXBYSOI8FGFVJIU","","650.0999999940395","img/flower2.png","76","650.8999999910593","3","1","3","1","1,0.333,0.333,0.333,1,0.333,0.333,0.333,1","1,0.333,0.333,0.333,1,0.333,0.333,0.333,1","1",""
"","html-keyboard-response","79","60925","0.0-79.0","3QUO65DNQVACXULAY7KD4090HJYUOL","A36470UBRH28GO","3TKXBROM5TWR181JXBYSOI8FGFVJIU","","null","<img src=""img/flower2.png"" style=""width:200px; border:14px solid green;"">","null","","","","","","","","",""
"","image-keyboard-response","80","61306","0.0-80.0","3QUO65DNQVACXULAY7KD4090HJYUOL","A36470UBRH28GO","3TKXBROM5TWR181JXBYSOI8FGFVJIU","","379.79999999701977","img/flower2.png","76","380.5","3","1","3","1","1,0.333,0.333,0.333,1,0.333,0.333,0.333,1","1,0.333,0.333,0.333,1,0.333,0.333,0.333,1","1",""
"","html-keyboard-response","81","61607","0.0-81.0","3QUO65DNQVACXULAY7KD4090HJYUOL","A36470UBRH28GO","3TKXBROM5TWR181JXBYSOI8FGFVJIU","","null","<img src=""img/flower2.png"" style=""width:200px; border:14px solid green;"">","null","","","","","","","","",""
"","image-keyboard-response","82","62204","0.0-82.0","3QUO65DNQVACXULAY7KD4090HJYUOL","A36470UBRH28GO","3TKXBROM5TWR181JXBYSOI8FGFVJIU","","596.2000000029802","img/flower5.png","75","597.1000000089407","2","1","2","1","1,0.333,0.333,0.333,1,0.333,0.333,0.333,1","1,0.333,0.333,0.333,1,0.333,0.333,0.333,1","1",""
"","html-keyboard-response","83","62506","0.0-83.0","3QUO65DNQVACXULAY7KD4090HJYUOL","A36470UBRH28GO","3TKXBROM5TWR181JXBYSOI8FGFVJIU","","null","<img src=""img/flower5.png"" style=""width:200px; border:14px solid green;"">","null","","","","","","","","",""
"","image-keyboard-response","84","62868","0.0-84.0","3QUO65DNQVACXULAY7KD4090HJYUOL","A36470UBRH28GO","3TKXBROM5TWR181JXBYSOI8FGFVJIU","","361","img/flower5.png","75","361.79999999701977","2","1","2","1","1,0.333,0.333,0.333,1,0.333,0.333,0.333,1","1,0.333,0.333,0.333,1,0.333,0.333,0.333,1","1",""
"","html-keyboard-response","85","63170","0.0-85.0","3QUO65DNQVACXULAY7KD4090HJYUOL","A36470UBRH28GO","3TKXBROM5TWR181JXBYSOI8FGFVJIU","","null","<img src=""img/flower5.png"" style=""width:200px; border:14px solid green;"">","null","","","","","","","","",""
"","image-keyboard-response","86","63534","0.0-86.0","3QUO65DNQVACXULAY7KD4090HJYUOL","A36470UBRH28GO","3TKXBROM5TWR181JXBYSOI8FGFVJIU","","363.19999998807907","img/flower5.png","75","363.8999999910593","2","1","2","1","1,0.333,0.333,0.333,1,0.333,0.333,0.333,1","1,0.333,0.333,0.333,1,0.333,0.333,0.333,1","1",""
"","html-keyboard-response","87","63835","0.0-87.0","3QUO65DNQVACXULAY7KD4090HJYUOL","A36470UBRH28GO","3TKXBROM5TWR181JXBYSOI8FGFVJIU","","null","<img src=""img/flower5.png"" style=""width:200px; border:14px solid green;"">","null","","","","","","","","",""
"","image-keyboard-response","88","64448","0.0-88.0","3QUO65DNQVACXULAY7KD4090HJYUOL","A36470UBRH28GO","3TKXBROM5TWR181JXBYSOI8FGFVJIU","","612","img/flower2.png","76","612.3999999910593","3","1","3","1","1,0.333,0.333,0.333,1,0.333,0.333,0.333,1","1,0.333,0.333,0.333,1,0.333,0.333,0.333,1","1",""
"","html-keyboard-response","89","64750","0.0-89.0","3QUO65DNQVACXULAY7KD4090HJYUOL","A36470UBRH28GO","3TKXBROM5TWR181JXBYSOI8FGFVJIU","","null","<img src=""img/flower2.png"" style=""width:200px; border:14px solid green;"">","null","","","","","","","","",""
"","image-keyboard-response","90","65270","0.0-90.0","3QUO65DNQVACXULAY7KD4090HJYUOL","A36470UBRH28GO","3TKXBROM5TWR181JXBYSOI8FGFVJIU","","519.5","img/flower3.png","74","520.2999999970198","1","1","1","1","1,0.333,0.333,0.333,1,0.333,0.333,0.333,1","1,0.333,0.333,0.333,1,0.333,0.333,0.333,1","1",""
"","html-keyboard-response","91","65572","0.0-91.0","3QUO65DNQVACXULAY7KD4090HJYUOL","A36470UBRH28GO","3TKXBROM5TWR181JXBYSOI8FGFVJIU","","null","<img src=""img/flower3.png"" style=""width:200px; border:14px solid green;"">","null","","","","","","","","",""
"","image-keyboard-response","92","66188","0.0-92.0","3QUO65DNQVACXULAY7KD4090HJYUOL","A36470UBRH28GO","3TKXBROM5TWR181JXBYSOI8FGFVJIU","","615.7000000029802","img/flower2.png","76","616.2000000029802","3","1","3","1","1,0.333,0.333,0.333,1,0.333,0.333,0.333,1","1,0.333,0.333,0.333,1,0.333,0.333,0.333,1","1",""
"","html-keyboard-response","93","66489","0.0-93.0","3QUO65DNQVACXULAY7KD4090HJYUOL","A36470UBRH28GO","3TKXBROM5TWR181JXBYSOI8FGFVJIU","","null","<img src=""img/flower2.png"" style=""width:200px; border:14px solid green;"">","null","","","","","","","","",""
"","image-keyboard-response","94","66998","0.0-94.0","3QUO65DNQVACXULAY7KD4090HJYUOL","A36470UBRH28GO","3TKXBROM5TWR181JXBYSOI8FGFVJIU","","507.70000000298023","img/flower3.png","74","508.5","1","1","1","1","1,0.333,0.333,0.333,1,0.333,0.333,0.333,1","1,0.333,0.333,0.333,1,0.333,0.333,0.333,1","1",""
"","html-keyboard-response","95","67300","0.0-95.0","3QUO65DNQVACXULAY7KD4090HJYUOL","A36470UBRH28GO","3TKXBROM5TWR181JXBYSOI8FGFVJIU","","null","<img src=""img/flower3.png"" style=""width:200px; border:14px solid green;"">","null","","","","","","","","",""
"","image-keyboard-response","96","67764","0.0-96.0","3QUO65DNQVACXULAY7KD4090HJYUOL","A36470UBRH28GO","3TKXBROM5TWR181JXBYSOI8FGFVJIU","","462.90000000596046","img/flower2.png","76","463.5","3","1","3","1","1,0.333,0.333,0.333,1,0.333,0.333,0.333,1","1,0.333,0.333,0.333,1,0.333,0.333,0.333,1","1",""
"","html-keyboard-response","97","68065","0.0-97.0","3QUO65DNQVACXULAY7KD4090HJYUOL","A36470UBRH28GO","3TKXBROM5TWR181JXBYSOI8FGFVJIU","","null","<img src=""img/flower2.png"" style=""width:200px; border:14px solid green;"">","null","","","","","","","","",""
"","image-keyboard-response","98","68710","0.0-98.0","3QUO65DNQVACXULAY7KD4090HJYUOL","A36470UBRH28GO","3TKXBROM5TWR181JXBYSOI8FGFVJIU","","643.5","img/flower3.png","74","644.2000000029802","1","1","1","1","1,0.333,0.333,0.333,1,0.333,0.333,0.333,1","1,0.333,0.333,0.333,1,0.333,0.333,0.333,1","1",""
"","html-keyboard-response","99","69012","0.0-99.0","3QUO65DNQVACXULAY7KD4090HJYUOL","A36470UBRH28GO","3TKXBROM5TWR181JXBYSOI8FGFVJIU","","null","<img src=""img/flower3.png"" style=""width:200px; border:14px solid green;"">","null","","","","","","","","",""
"","image-keyboard-response","100","69472","0.0-100.0","3QUO65DNQVACXULAY7KD4090HJYUOL","A36470UBRH28GO","3TKXBROM5TWR181JXBYSOI8FGFVJIU","","459.09999999403954","img/flower3.png","74","459.90000000596046","1","1","1","1","1,0.333,0.333,0.333,1,0.333,0.333,0.333,1","1,0.333,0.333,0.333,1,0.333,0.333,0.333,1","1",""
"","html-keyboard-response","101","69774","0.0-101.0","3QUO65DNQVACXULAY7KD4090HJYUOL","A36470UBRH28GO","3TKXBROM5TWR181JXBYSOI8FGFVJIU","","null","<img src=""img/flower3.png"" style=""width:200px; border:14px solid green;"">","null","","","","","","","","",""
"","image-keyboard-response","102","70292","0.0-102.0","3QUO65DNQVACXULAY7KD4090HJYUOL","A36470UBRH28GO","3TKXBROM5TWR181JXBYSOI8FGFVJIU","","517.2000000029802","img/flower5.png","75","517.7999999970198","2","1","2","1","1,0.333,0.333,0.333,1,0.333,0.333,0.333,1","1,0.333,0.333,0.333,1,0.333,0.333,0.333,1","1",""
"","html-keyboard-response","103","70593","0.0-103.0","3QUO65DNQVACXULAY7KD4090HJYUOL","A36470UBRH28GO","3TKXBROM5TWR181JXBYSOI8FGFVJIU","","null","<img src=""img/flower5.png"" style=""width:200px; border:14px solid green;"">","null","","","","","","","","",""
"","image-keyboard-response","104","71354","0.0-104.0","3QUO65DNQVACXULAY7KD4090HJYUOL","A36470UBRH28GO","3TKXBROM5TWR181JXBYSOI8FGFVJIU","","759.9000000059605","img/flower2.png","76","760.6000000089407","3","1","3","1","1,0.333,0.333,0.333,1,0.333,0.333,0.333,1","1,0.333,0.333,0.333,1,0.333,0.333,0.333,1","1",""
"","html-keyboard-response","105","71656","0.0-105.0","3QUO65DNQVACXULAY7KD4090HJYUOL","A36470UBRH28GO","3TKXBROM5TWR181JXBYSOI8FGFVJIU","","null","<img src=""img/flower2.png"" style=""width:200px; border:14px solid green;"">","null","","","","","","","","",""
"","image-keyboard-response","106","72052","0.0-106.0","3QUO65DNQVACXULAY7KD4090HJYUOL","A36470UBRH28GO","3TKXBROM5TWR181JXBYSOI8FGFVJIU","","394.8999999910593","img/flower2.png","76","395.80000001192093","3","1","3","1","1,0.333,0.333,0.333,1,0.333,0.333,0.333,1","1,0.333,0.333,0.333,1,0.333,0.333,0.333,1","1",""
"","html-keyboard-response","107","72354","0.0-107.0","3QUO65DNQVACXULAY7KD4090HJYUOL","A36470UBRH28GO","3TKXBROM5TWR181JXBYSOI8FGFVJIU","","null","<img src=""img/flower2.png"" style=""width:200px; border:14px solid green;"">","null","","","","","","","","",""
"","image-keyboard-response","108","72700","0.0-108.0","3QUO65DNQVACXULAY7KD4090HJYUOL","A36470UBRH28GO","3TKXBROM5TWR181JXBYSOI8FGFVJIU","","345.19999998807907","img/flower2.png","76","346","3","1","3","1","1,0.333,0.333,0.333,1,0.333,0.333,0.333,1","1,0.333,0.333,0.333,1,0.333,0.333,0.333,1","1",""
"","html-keyboard-response","109","73001","0.0-109.0","3QUO65DNQVACXULAY7KD4090HJYUOL","A36470UBRH28GO","3TKXBROM5TWR181JXBYSOI8FGFVJIU","","null","<img src=""img/flower2.png"" style=""width:200px; border:14px solid green;"">","null","","","","","","","","",""
"","image-keyboard-response","110","73654","0.0-110.0","3QUO65DNQVACXULAY7KD4090HJYUOL","A36470UBRH28GO","3TKXBROM5TWR181JXBYSOI8FGFVJIU","","651.5999999940395","img/flower5.png","75","652.3999999910593","2","1","2","1","1,0.333,0.333,0.333,1,0.333,0.333,0.333,1","1,0.333,0.333,0.333,1,0.333,0.333,0.333,1","1",""
"","html-keyboard-response","111","73956","0.0-111.0","3QUO65DNQVACXULAY7KD4090HJYUOL","A36470UBRH28GO","3TKXBROM5TWR181JXBYSOI8FGFVJIU","","null","<img src=""img/flower5.png"" style=""width:200px; border:14px solid green;"">","null","","","","","","","","",""
"","image-keyboard-response","112","74362","0.0-112.0","3QUO65DNQVACXULAY7KD4090HJYUOL","A36470UBRH28GO","3TKXBROM5TWR181JXBYSOI8FGFVJIU","","405.5","img/flower5.png","75","406.20000000298023","2","1","2","1","1,0.333,0.333,0.333,1,0.333,0.333,0.333,1","1,0.333,0.333,0.333,1,0.333,0.333,0.333,1","1",""
"","html-keyboard-response","113","74664","0.0-113.0","3QUO65DNQVACXULAY7KD4090HJYUOL","A36470UBRH28GO","3TKXBROM5TWR181JXBYSOI8FGFVJIU","","null","<img src=""img/flower5.png"" style=""width:200px; border:14px solid green;"">","null","","","","","","","","",""
"","image-keyboard-response","114","75440","0.0-114.0","3QUO65DNQVACXULAY7KD4090HJYUOL","A36470UBRH28GO","3TKXBROM5TWR181JXBYSOI8FGFVJIU","","775.5","img/flower2.png","76","776.2000000029802","3","1","3","1","1,0.333,0.333,0.333,1,0.333,0.333,0.333,1","1,0.333,0.333,0.333,1,0.333,0.333,0.333,1","1",""
"","html-keyboard-response","115","75741","0.0-115.0","3QUO65DNQVACXULAY7KD4090HJYUOL","A36470UBRH28GO","3TKXBROM5TWR181JXBYSOI8FGFVJIU","","null","<img src=""img/flower2.png"" style=""width:200px; border:14px solid green;"">","null","","","","","","","","",""
"","image-keyboard-response","116","76342","0.0-116.0","3QUO65DNQVACXULAY7KD4090HJYUOL","A36470UBRH28GO","3TKXBROM5TWR181JXBYSOI8FGFVJIU","","599.8999999910593","img/flower3.png","74","600.7000000029802","1","1","1","1","1,0.333,0.333,0.333,1,0.333,0.333,0.333,1","1,0.333,0.333,0.333,1,0.333,0.333,0.333,1","1",""
"","html-keyboard-response","117","76644","0.0-117.0","3QUO65DNQVACXULAY7KD4090HJYUOL","A36470UBRH28GO","3TKXBROM5TWR181JXBYSOI8FGFVJIU","","null","<img src=""img/flower3.png"" style=""width:200px; border:14px solid green;"">","null","","","","","","","","",""
"","image-keyboard-response","118","77220","0.0-118.0","3QUO65DNQVACXULAY7KD4090HJYUOL","A36470UBRH28GO","3TKXBROM5TWR181JXBYSOI8FGFVJIU","","575.5999999940395","img/flower5.png","75","576.2000000029802","2","1","2","1","1,0.333,0.333,0.333,1,0.333,0.333,0.333,1","1,0.333,0.333,0.333,1,0.333,0.333,0.333,1","1",""
"","html-keyboard-response","119","77521","0.0-119.0","3QUO65DNQVACXULAY7KD4090HJYUOL","A36470UBRH28GO","3TKXBROM5TWR181JXBYSOI8FGFVJIU","","null","<img src=""img/flower5.png"" style=""width:200px; border:14px solid green;"">","null","","","","","","","","",""
"","image-keyboard-response","120","78560","0.0-120.0","3QUO65DNQVACXULAY7KD4090HJYUOL","A36470UBRH28GO","3TKXBROM5TWR181JXBYSOI8FGFVJIU","","1037.3999999910593","img/flower2.png","74","1038.2999999970198","1","1","3","1","1,0.333,0.333,0.333,1,0.333,0.333,0.333,1","1,0.333,0.333,0.333,1,0.333,0.333,0.333,1","1",""
"","html-keyboard-response","121","78861","0.0-121.0","3QUO65DNQVACXULAY7KD4090HJYUOL","A36470UBRH28GO","3TKXBROM5TWR181JXBYSOI8FGFVJIU","","null","<img src=""img/flower2.png"" style=""width:200px; border:14px solid green;"">","null","","","","","","","","",""
"","image-keyboard-response","122","79446","0.0-122.0","3QUO65DNQVACXULAY7KD4090HJYUOL","A36470UBRH28GO","3TKXBROM5TWR181JXBYSOI8FGFVJIU","","583.7000000029802","img/flower5.png","75","584.2999999970198","2","1","2","1","1,0.333,0.333,0.333,1,0.333,0.333,0.333,1","1,0.333,0.333,0.333,1,0.333,0.333,0.333,1","1",""
"","html-keyboard-response","123","79748","0.0-123.0","3QUO65DNQVACXULAY7KD4090HJYUOL","A36470UBRH28GO","3TKXBROM5TWR181JXBYSOI8FGFVJIU","","null","<img src=""img/flower5.png"" style=""width:200px; border:14px solid green;"">","null","","","","","","","","",""
"","image-keyboard-response","124","80232","0.0-124.0","3QUO65DNQVACXULAY7KD4090HJYUOL","A36470UBRH28GO","3TKXBROM5TWR181JXBYSOI8FGFVJIU","","482.90000000596046","img/flower3.png","76","483.70000000298023","3","0","1","1","1,0.333,0.333,0.333,1,0.333,0.333,0.333,1","1,0.333,0.333,0.333,1,0.333,0.333,0.333,1","1",""
"","html-keyboard-response","125","80533","0.0-125.0","3QUO65DNQVACXULAY7KD4090HJYUOL","A36470UBRH28GO","3TKXBROM5TWR181JXBYSOI8FGFVJIU","","null","<img src=""img/flower3.png"" style=""width:200px;border:14px solid red;"">","null","","","","","","","","",""
"","image-keyboard-response","126","82324","0.0-126.0","3QUO65DNQVACXULAY7KD4090HJYUOL","A36470UBRH28GO","3TKXBROM5TWR181JXBYSOI8FGFVJIU","","1789.7999999970198","img/flower2.png","76","1790.5999999940395","3","1","3","1","1,0.333,0.333,0.333,1,0.333,0.333,0.333,1","1,0.333,0.333,0.333,1,0.333,0.333,0.333,1","1",""
"","html-keyboard-response","127","82625","0.0-127.0","3QUO65DNQVACXULAY7KD4090HJYUOL","A36470UBRH28GO","3TKXBROM5TWR181JXBYSOI8FGFVJIU","","null","<img src=""img/flower2.png"" style=""width:200px; border:14px solid green;"">","null","","","","","","","","",""
"","image-keyboard-response","128","82982","0.0-128.0","3QUO65DNQVACXULAY7KD4090HJYUOL","A36470UBRH28GO","3TKXBROM5TWR181JXBYSOI8FGFVJIU","","356","img/flower2.png","76","356.6000000089407","3","1","3","1","1,0.333,0.333,0.333,1,0.333,0.333,0.333,1","1,0.333,0.333,0.333,1,0.333,0.333,0.333,1","1",""
"","html-keyboard-response","129","83284","0.0-129.0","3QUO65DNQVACXULAY7KD4090HJYUOL","A36470UBRH28GO","3TKXBROM5TWR181JXBYSOI8FGFVJIU","","null","<img src=""img/flower2.png"" style=""width:200px; border:14px solid green;"">","null","","","","","","","","",""
"","image-keyboard-response","130","83832","0.0-130.0","3QUO65DNQVACXULAY7KD4090HJYUOL","A36470UBRH28GO","3TKXBROM5TWR181JXBYSOI8FGFVJIU","","547.6000000089407","img/flower3.png","74","548.2000000029802","1","1","1","1","1,0.333,0.333,0.333,1,0.333,0.333,0.333,1","1,0.333,0.333,0.333,1,0.333,0.333,0.333,1","1",""
"","html-keyboard-response","131","84133","0.0-131.0","3QUO65DNQVACXULAY7KD4090HJYUOL","A36470UBRH28GO","3TKXBROM5TWR181JXBYSOI8FGFVJIU","","null","<img src=""img/flower3.png"" style=""width:200px; border:14px solid green;"">","null","","","","","","","","",""
"","image-keyboard-response","132","84716","0.0-132.0","3QUO65DNQVACXULAY7KD4090HJYUOL","A36470UBRH28GO","3TKXBROM5TWR181JXBYSOI8FGFVJIU","","581.7000000029802","img/flower5.png","75","582.2000000029802","2","1","2","1","1,0.333,0.333,0.333,1,0.333,0.333,0.333,1","1,0.333,0.333,0.333,1,0.333,0.333,0.333,1","1",""
"","html-keyboard-response","133","85018","0.0-133.0","3QUO65DNQVACXULAY7KD4090HJYUOL","A36470UBRH28GO","3TKXBROM5TWR181JXBYSOI8FGFVJIU","","null","<img src=""img/flower5.png"" style=""width:200px; border:14px solid green;"">","null","","","","","","","","",""
"","image-keyboard-response","134","85476","0.0-134.0","3QUO65DNQVACXULAY7KD4090HJYUOL","A36470UBRH28GO","3TKXBROM5TWR181JXBYSOI8FGFVJIU","","457","img/flower3.png","74","457.70000000298023","1","1","1","1","1,0.333,0.333,0.333,1,0.333,0.333,0.333,1","1,0.333,0.333,0.333,1,0.333,0.333,0.333,1","1",""
"","html-keyboard-response","135","85777","0.0-135.0","3QUO65DNQVACXULAY7KD4090HJYUOL","A36470UBRH28GO","3TKXBROM5TWR181JXBYSOI8FGFVJIU","","null","<img src=""img/flower3.png"" style=""width:200px; border:14px solid green;"">","null","","","","","","","","",""
"","image-keyboard-response","136","86292","0.0-136.0","3QUO65DNQVACXULAY7KD4090HJYUOL","A36470UBRH28GO","3TKXBROM5TWR181JXBYSOI8FGFVJIU","","513.8000000119209","img/flower5.png","75","514.5","2","1","2","1","1,0.333,0.333,0.333,1,0.333,0.333,0.333,1","1,0.333,0.333,0.333,1,0.333,0.333,0.333,1","1",""
"","html-keyboard-response","137","86594","0.0-137.0","3QUO65DNQVACXULAY7KD4090HJYUOL","A36470UBRH28GO","3TKXBROM5TWR181JXBYSOI8FGFVJIU","","null","<img src=""img/flower5.png"" style=""width:200px; border:14px solid green;"">","null","","","","","","","","",""
"","image-keyboard-response","138","87046","0.0-138.0","3QUO65DNQVACXULAY7KD4090HJYUOL","A36470UBRH28GO","3TKXBROM5TWR181JXBYSOI8FGFVJIU","","451.20000000298023","img/flower3.png","74","452","1","1","1","1","1,0.333,0.333,0.333,1,0.333,0.333,0.333,1","1,0.333,0.333,0.333,1,0.333,0.333,0.333,1","1",""
"","html-keyboard-response","139","87348","0.0-139.0","3QUO65DNQVACXULAY7KD4090HJYUOL","A36470UBRH28GO","3TKXBROM5TWR181JXBYSOI8FGFVJIU","","null","<img src=""img/flower3.png"" style=""width:200px; border:14px solid green;"">","null","","","","","","","","",""
"","image-keyboard-response","140","87894","0.0-140.0","3QUO65DNQVACXULAY7KD4090HJYUOL","A36470UBRH28GO","3TKXBROM5TWR181JXBYSOI8FGFVJIU","","545","img/flower2.png","76","545.5999999940395","3","1","3","1","1,0.333,0.333,0.333,1,0.333,0.333,0.333,1","1,0.333,0.333,0.333,1,0.333,0.333,0.333,1","1",""
"","html-keyboard-response","141","88195","0.0-141.0","3QUO65DNQVACXULAY7KD4090HJYUOL","A36470UBRH28GO","3TKXBROM5TWR181JXBYSOI8FGFVJIU","","null","<img src=""img/flower2.png"" style=""width:200px; border:14px solid green;"">","null","","","","","","","","",""
"","image-keyboard-response","142","88856","0.0-142.0","3QUO65DNQVACXULAY7KD4090HJYUOL","A36470UBRH28GO","3TKXBROM5TWR181JXBYSOI8FGFVJIU","","659.9000000059605","img/flower5.png","75","660.4000000059605","2","1","2","1","1,0.333,0.333,0.333,1,0.333,0.333,0.333,1","1,0.333,0.333,0.333,1,0.333,0.333,0.333,1","1",""
"","html-keyboard-response","143","89157","0.0-143.0","3QUO65DNQVACXULAY7KD4090HJYUOL","A36470UBRH28GO","3TKXBROM5TWR181JXBYSOI8FGFVJIU","","null","<img src=""img/flower5.png"" style=""width:200px; border:14px solid green;"">","null","","","","","","","","",""
"","image-keyboard-response","144","90266","0.0-144.0","3QUO65DNQVACXULAY7KD4090HJYUOL","A36470UBRH28GO","3TKXBROM5TWR181JXBYSOI8FGFVJIU","","1108.1000000089407","img/flower3.png","74","1108.5999999940395","1","1","1","1","1,0.333,0.333,0.333,1,0.333,0.333,0.333,1","1,0.333,0.333,0.333,1,0.333,0.333,0.333,1","1",""
"","html-keyboard-response","145","90568","0.0-145.0","3QUO65DNQVACXULAY7KD4090HJYUOL","A36470UBRH28GO","3TKXBROM5TWR181JXBYSOI8FGFVJIU","","null","<img src=""img/flower3.png"" style=""width:200px; border:14px solid green;"">","null","","","","","","","","",""
"","image-keyboard-response","146","91022","0.0-146.0","3QUO65DNQVACXULAY7KD4090HJYUOL","A36470UBRH28GO","3TKXBROM5TWR181JXBYSOI8FGFVJIU","","453.1000000089407","img/flower3.png","74","453.90000000596046","1","1","1","1","1,0.333,0.333,0.333,1,0.333,0.333,0.333,1","1,0.333,0.333,0.333,1,0.333,0.333,0.333,1","1",""
"","html-keyboard-response","147","91324","0.0-147.0","3QUO65DNQVACXULAY7KD4090HJYUOL","A36470UBRH28GO","3TKXBROM5TWR181JXBYSOI8FGFVJIU","","null","<img src=""img/flower3.png"" style=""width:200px; border:14px solid green;"">","null","","","","","","","","",""
"","image-keyboard-response","148","91708","0.0-148.0","3QUO65DNQVACXULAY7KD4090HJYUOL","A36470UBRH28GO","3TKXBROM5TWR181JXBYSOI8FGFVJIU","","383.3999999910593","img/flower3.png","74","384.20000000298023","1","1","1","1","1,0.333,0.333,0.333,1,0.333,0.333,0.333,1","1,0.333,0.333,0.333,1,0.333,0.333,0.333,1","1",""
"","html-keyboard-response","149","92009","0.0-149.0","3QUO65DNQVACXULAY7KD4090HJYUOL","A36470UBRH28GO","3TKXBROM5TWR181JXBYSOI8FGFVJIU","","null","<img src=""img/flower3.png"" style=""width:200px; border:14px solid green;"">","null","","","","","","","","",""
"","image-keyboard-response","150","92677","0.0-150.0","3QUO65DNQVACXULAY7KD4090HJYUOL","A36470UBRH28GO","3TKXBROM5TWR181JXBYSOI8FGFVJIU","","667.2999999970198","img/flower5.png","75","668.0999999940395","2","1","2","1","1,0.333,0.333,0.333,1,0.333,0.333,0.333,1","1,0.333,0.333,0.333,1,0.333,0.333,0.333,1","1",""
"","html-keyboard-response","151","92979","0.0-151.0","3QUO65DNQVACXULAY7KD4090HJYUOL","A36470UBRH28GO","3TKXBROM5TWR181JXBYSOI8FGFVJIU","","null","<img src=""img/flower5.png"" style=""width:200px; border:14px solid green;"">","null","","","","","","","","",""
"","image-keyboard-response","152","93516","0.0-152.0","3QUO65DNQVACXULAY7KD4090HJYUOL","A36470UBRH28GO","3TKXBROM5TWR181JXBYSOI8FGFVJIU","","536.4000000059605","img/flower2.png","76","537.0999999940395","3","1","3","1","1,0.333,0.333,0.333,1,0.333,0.333,0.333,1","1,0.333,0.333,0.333,1,0.333,0.333,0.333,1","1",""
"","html-keyboard-response","153","93818","0.0-153.0","3QUO65DNQVACXULAY7KD4090HJYUOL","A36470UBRH28GO","3TKXBROM5TWR181JXBYSOI8FGFVJIU","","null","<img src=""img/flower2.png"" style=""width:200px; border:14px solid green;"">","null","","","","","","","","",""
"","image-keyboard-response","154","94196","0.0-154.0","3QUO65DNQVACXULAY7KD4090HJYUOL","A36470UBRH28GO","3TKXBROM5TWR181JXBYSOI8FGFVJIU","","376.8999999910593","img/flower2.png","76","377.5","3","1","3","1","1,0.333,0.333,0.333,1,0.333,0.333,0.333,1","1,0.333,0.333,0.333,1,0.333,0.333,0.333,1","1",""
"","html-keyboard-response","155","94497","0.0-155.0","3QUO65DNQVACXULAY7KD4090HJYUOL","A36470UBRH28GO","3TKXBROM5TWR181JXBYSOI8FGFVJIU","","null","<img src=""img/flower2.png"" style=""width:200px; border:14px solid green;"">","null","","","","","","","","",""
"","image-keyboard-response","156","95592","0.0-156.0","3QUO65DNQVACXULAY7KD4090HJYUOL","A36470UBRH28GO","3TKXBROM5TWR181JXBYSOI8FGFVJIU","","1094.1000000089407","img/flower3.png","74","1094.800000011921","1","1","1","1","1,0.333,0.333,0.333,1,0.333,0.333,0.333,1","1,0.333,0.333,0.333,1,0.333,0.333,0.333,1","1",""
"","html-keyboard-response","157","95894","0.0-157.0","3QUO65DNQVACXULAY7KD4090HJYUOL","A36470UBRH28GO","3TKXBROM5TWR181JXBYSOI8FGFVJIU","","null","<img src=""img/flower3.png"" style=""width:200px; border:14px solid green;"">","null","","","","","","","","",""
"","image-keyboard-response","158","96490","0.0-158.0","3QUO65DNQVACXULAY7KD4090HJYUOL","A36470UBRH28GO","3TKXBROM5TWR181JXBYSOI8FGFVJIU","","595.4000000059605","img/flower5.png","75","596.0999999940395","2","1","2","1","1,0.333,0.333,0.333,1,0.333,0.333,0.333,1","1,0.333,0.333,0.333,1,0.333,0.333,0.333,1","1",""
"","html-keyboard-response","159","96791","0.0-159.0","3QUO65DNQVACXULAY7KD4090HJYUOL","A36470UBRH28GO","3TKXBROM5TWR181JXBYSOI8FGFVJIU","","null","<img src=""img/flower5.png"" style=""width:200px; border:14px solid green;"">","null","","","","","","","","",""
"","image-keyboard-response","160","97186","0.0-160.0","3QUO65DNQVACXULAY7KD4090HJYUOL","A36470UBRH28GO","3TKXBROM5TWR181JXBYSOI8FGFVJIU","","394.30000001192093","img/flower3.png","74","394.8999999910593","1","1","1","1","1,0.333,0.333,0.333,1,0.333,0.333,0.333,1","1,0.333,0.333,0.333,1,0.333,0.333,0.333,1","1",""
"","html-keyboard-response","161","97488","0.0-161.0","3QUO65DNQVACXULAY7KD4090HJYUOL","A36470UBRH28GO","3TKXBROM5TWR181JXBYSOI8FGFVJIU","","null","<img src=""img/flower3.png"" style=""width:200px; border:14px solid green;"">","null","","","","","","","","",""
"","image-keyboard-response","162","98108","0.0-162.0","3QUO65DNQVACXULAY7KD4090HJYUOL","A36470UBRH28GO","3TKXBROM5TWR181JXBYSOI8FGFVJIU","","619.2000000029802","img/flower2.png","76","619.7000000029802","3","1","3","1","1,0.333,0.333,0.333,1,0.333,0.333,0.333,1","1,0.333,0.333,0.333,1,0.333,0.333,0.333,1","1",""
"","html-keyboard-response","163","98410","0.0-163.0","3QUO65DNQVACXULAY7KD4090HJYUOL","A36470UBRH28GO","3TKXBROM5TWR181JXBYSOI8FGFVJIU","","null","<img src=""img/flower2.png"" style=""width:200px; border:14px solid green;"">","null","","","","","","","","",""
"","image-keyboard-response","164","99144","0.0-164.0","3QUO65DNQVACXULAY7KD4090HJYUOL","A36470UBRH28GO","3TKXBROM5TWR181JXBYSOI8FGFVJIU","","733.4000000059605","img/flower3.png","74","734.1000000089407","1","1","1","1","1,0.333,0.333,0.333,1,0.333,0.333,0.333,1","1,0.333,0.333,0.333,1,0.333,0.333,0.333,1","1",""
"","html-keyboard-response","165","99445","0.0-165.0","3QUO65DNQVACXULAY7KD4090HJYUOL","A36470UBRH28GO","3TKXBROM5TWR181JXBYSOI8FGFVJIU","","null","<img src=""img/flower3.png"" style=""width:200px; border:14px solid green;"">","null","","","","","","","","",""
"","image-keyboard-response","166","99984","0.0-166.0","3QUO65DNQVACXULAY7KD4090HJYUOL","A36470UBRH28GO","3TKXBROM5TWR181JXBYSOI8FGFVJIU","","537.7999999970198","img/flower5.png","75","538.5","2","1","2","1","1,0.333,0.333,0.333,1,0.333,0.333,0.333,1","1,0.333,0.333,0.333,1,0.333,0.333,0.333,1","1",""
"","html-keyboard-response","167","100285","0.0-167.0","3QUO65DNQVACXULAY7KD4090HJYUOL","A36470UBRH28GO","3TKXBROM5TWR181JXBYSOI8FGFVJIU","","null","<img src=""img/flower5.png"" style=""width:200px; border:14px solid green;"">","null","","","","","","","","",""
"","image-keyboard-response","168","100690","0.0-168.0","3QUO65DNQVACXULAY7KD4090HJYUOL","A36470UBRH28GO","3TKXBROM5TWR181JXBYSOI8FGFVJIU","","403.5","img/flower5.png","75","404","2","1","2","1","1,0.333,0.333,0.333,1,0.333,0.333,0.333,1","1,0.333,0.333,0.333,1,0.333,0.333,0.333,1","1",""
"","html-keyboard-response","169","100991","0.0-169.0","3QUO65DNQVACXULAY7KD4090HJYUOL","A36470UBRH28GO","3TKXBROM5TWR181JXBYSOI8FGFVJIU","","null","<img src=""img/flower5.png"" style=""width:200px; border:14px solid green;"">","null","","","","","","","","",""
"","image-keyboard-response","170","101624","0.0-170.0","3QUO65DNQVACXULAY7KD4090HJYUOL","A36470UBRH28GO","3TKXBROM5TWR181JXBYSOI8FGFVJIU","","632.1000000089407","img/flower2.png","76","632.9000000059605","3","1","3","1","1,0.333,0.333,0.333,1,0.333,0.333,0.333,1","1,0.333,0.333,0.333,1,0.333,0.333,0.333,1","1",""
"","html-keyboard-response","171","101926","0.0-171.0","3QUO65DNQVACXULAY7KD4090HJYUOL","A36470UBRH28GO","3TKXBROM5TWR181JXBYSOI8FGFVJIU","","null","<img src=""img/flower2.png"" style=""width:200px; border:14px solid green;"">","null","","","","","","","","",""
"","image-keyboard-response","172","102556","0.0-172.0","3QUO65DNQVACXULAY7KD4090HJYUOL","A36470UBRH28GO","3TKXBROM5TWR181JXBYSOI8FGFVJIU","","629.6000000089407","img/flower3.png","74","630.4000000059605","1","1","1","1","1,0.333,0.333,0.333,1,0.333,0.333,0.333,1","1,0.333,0.333,0.333,1,0.333,0.333,0.333,1","1",""
"","html-keyboard-response","173","102859","0.0-173.0","3QUO65DNQVACXULAY7KD4090HJYUOL","A36470UBRH28GO","3TKXBROM5TWR181JXBYSOI8FGFVJIU","","null","<img src=""img/flower3.png"" style=""width:200px; border:14px solid green;"">","null","","","","","","","","",""
"","image-keyboard-response","174","103604","0.0-174.0","3QUO65DNQVACXULAY7KD4090HJYUOL","A36470UBRH28GO","3TKXBROM5TWR181JXBYSOI8FGFVJIU","","744.7000000029802","img/flower2.png","76","745.6000000089407","3","1","3","1","1,0.333,0.333,0.333,1,0.333,0.333,0.333,1","1,0.333,0.333,0.333,1,0.333,0.333,0.333,1","1",""
"","html-keyboard-response","175","103906","0.0-175.0","3QUO65DNQVACXULAY7KD4090HJYUOL","A36470UBRH28GO","3TKXBROM5TWR181JXBYSOI8FGFVJIU","","null","<img src=""img/flower2.png"" style=""width:200px; border:14px solid green;"">","null","","","","","","","","",""
"","image-keyboard-response","176","104330","0.0-176.0","3QUO65DNQVACXULAY7KD4090HJYUOL","A36470UBRH28GO","3TKXBROM5TWR181JXBYSOI8FGFVJIU","","423","img/flower5.png","75","423.80000001192093","2","1","2","1","1,0.333,0.333,0.333,1,0.333,0.333,0.333,1","1,0.333,0.333,0.333,1,0.333,0.333,0.333,1","1",""
"","html-keyboard-response","177","104631","0.0-177.0","3QUO65DNQVACXULAY7KD4090HJYUOL","A36470UBRH28GO","3TKXBROM5TWR181JXBYSOI8FGFVJIU","","null","<img src=""img/flower5.png"" style=""width:200px; border:14px solid green;"">","null","","","","","","","","",""
"","image-keyboard-response","178","105029","0.0-178.0","3QUO65DNQVACXULAY7KD4090HJYUOL","A36470UBRH28GO","3TKXBROM5TWR181JXBYSOI8FGFVJIU","","397.3999999910593","img/flower5.png","75","397.8999999910593","2","1","2","1","1,0.333,0.333,0.333,1,0.333,0.333,0.333,1","1,0.333,0.333,0.333,1,0.333,0.333,0.333,1","1",""
"","html-keyboard-response","179","105331","0.0-179.0","3QUO65DNQVACXULAY7KD4090HJYUOL","A36470UBRH28GO","3TKXBROM5TWR181JXBYSOI8FGFVJIU","","null","<img src=""img/flower5.png"" style=""width:200px; border:14px solid green;"">","null","","","","","","","","",""
"","image-keyboard-response","180","106098","0.0-180.0","3QUO65DNQVACXULAY7KD4090HJYUOL","A36470UBRH28GO","3TKXBROM5TWR181JXBYSOI8FGFVJIU","","766.5999999940395","img/flower2.png","76","767.4000000059605","3","1","3","1","1,0.333,0.333,0.333,1,0.333,0.333,0.333,1","1,0.333,0.333,0.333,1,0.333,0.333,0.333,1","1",""
"","html-keyboard-response","181","106400","0.0-181.0","3QUO65DNQVACXULAY7KD4090HJYUOL","A36470UBRH28GO","3TKXBROM5TWR181JXBYSOI8FGFVJIU","","null","<img src=""img/flower2.png"" style=""width:200px; border:14px solid green;"">","null","","","","","","","","",""
"","html-keyboard-response","182","114939","0.0-182.0","3QUO65DNQVACXULAY7KD4090HJYUOL","A36470UBRH28GO","3TKXBROM5TWR181JXBYSOI8FGFVJIU","","","","","","","","","","","","",""
"","image-keyboard-response","183","116392","0.0-183.0","3QUO65DNQVACXULAY7KD4090HJYUOL","A36470UBRH28GO","3TKXBROM5TWR181JXBYSOI8FGFVJIU","","1451.8999999910593","img/flower4.png","74","1452.5999999940395","1","1","2","2","1,0,0,1,1,0,1,0,1","1,0,0,1,1,0,1,0,1","1",""
"","html-keyboard-response","184","116694","0.0-184.0","3QUO65DNQVACXULAY7KD4090HJYUOL","A36470UBRH28GO","3TKXBROM5TWR181JXBYSOI8FGFVJIU","","null","<img src=""img/flower4.png"" style=""width:200px; border:14px solid green;"">","null","","","","","","","","",""
"","image-keyboard-response","185","117558","0.0-185.0","3QUO65DNQVACXULAY7KD4090HJYUOL","A36470UBRH28GO","3TKXBROM5TWR181JXBYSOI8FGFVJIU","","863.8999999910593","img/flower6.png","75","864.5","2","0","1","2","1,0,0,1,1,0,1,0,1","1,0,0,1,1,0,1,0,1","1",""
"","html-keyboard-response","186","117871","0.0-186.0","3QUO65DNQVACXULAY7KD4090HJYUOL","A36470UBRH28GO","3TKXBROM5TWR181JXBYSOI8FGFVJIU","","null","<img src=""img/flower6.png"" style=""width:200px;border:14px solid red;"">","null","","","","","","","","",""
"","image-keyboard-response","187","118733","0.0-187.0","3QUO65DNQVACXULAY7KD4090HJYUOL","A36470UBRH28GO","3TKXBROM5TWR181JXBYSOI8FGFVJIU","","860.8000000119209","img/flower6.png","76","861.3999999910593","3","0","1","2","1,0,0,1,1,0,1,0,1","1,0,0,1,1,0,1,0,1","1",""
"","html-keyboard-response","188","119034","0.0-188.0","3QUO65DNQVACXULAY7KD4090HJYUOL","A36470UBRH28GO","3TKXBROM5TWR181JXBYSOI8FGFVJIU","","null","<img src=""img/flower6.png"" style=""width:200px;border:14px solid red;"">","null","","","","","","","","",""
"","image-keyboard-response","189","119875","0.0-189.0","3QUO65DNQVACXULAY7KD4090HJYUOL","A36470UBRH28GO","3TKXBROM5TWR181JXBYSOI8FGFVJIU","","839.7000000029802","img/flower1.png","74","840.2000000029802","1","1","3","2","1,0,0,1,1,0,1,0,1","1,0,0,1,1,0,1,0,1","1",""
"","html-keyboard-response","190","120176","0.0-190.0","3QUO65DNQVACXULAY7KD4090HJYUOL","A36470UBRH28GO","3TKXBROM5TWR181JXBYSOI8FGFVJIU","","null","<img src=""img/flower1.png"" style=""width:200px; border:14px solid green;"">","null","","","","","","","","",""
"","image-keyboard-response","191","120612","0.0-191.0","3QUO65DNQVACXULAY7KD4090HJYUOL","A36470UBRH28GO","3TKXBROM5TWR181JXBYSOI8FGFVJIU","","435.40000000596046","img/flower1.png","74","435.8999999910593","1","1","3","2","1,0,0,1,1,0,1,0,1","1,0,0,1,1,0,1,0,1","1",""
"","html-keyboard-response","192","120914","0.0-192.0","3QUO65DNQVACXULAY7KD4090HJYUOL","A36470UBRH28GO","3TKXBROM5TWR181JXBYSOI8FGFVJIU","","null","<img src=""img/flower1.png"" style=""width:200px; border:14px solid green;"">","null","","","","","","","","",""
"","image-keyboard-response","193","121572","0.0-193.0","3QUO65DNQVACXULAY7KD4090HJYUOL","A36470UBRH28GO","3TKXBROM5TWR181JXBYSOI8FGFVJIU","","657.0999999940395","img/flower6.png","74","658","1","1","1","2","1,0,0,1,1,0,1,0,1","1,0,0,1,1,0,1,0,1","1",""
"","html-keyboard-response","194","121874","0.0-194.0","3QUO65DNQVACXULAY7KD4090HJYUOL","A36470UBRH28GO","3TKXBROM5TWR181JXBYSOI8FGFVJIU","","null","<img src=""img/flower6.png"" style=""width:200px; border:14px solid green;"">","null","","","","","","","","",""
"","image-keyboard-response","195","122466","0.0-195.0","3QUO65DNQVACXULAY7KD4090HJYUOL","A36470UBRH28GO","3TKXBROM5TWR181JXBYSOI8FGFVJIU","","591.5","img/flower1.png","74","592","1","1","3","2","1,0,0,1,1,0,1,0,1","1,0,0,1,1,0,1,0,1","1",""
"","html-keyboard-response","196","122782","0.0-196.0","3QUO65DNQVACXULAY7KD4090HJYUOL","A36470UBRH28GO","3TKXBROM5TWR181JXBYSOI8FGFVJIU","","null","<img src=""img/flower1.png"" style=""width:200px; border:14px solid green;"">","null","","","","","","","","",""
"","image-keyboard-response","197","123870","0.0-197.0","3QUO65DNQVACXULAY7KD4090HJYUOL","A36470UBRH28GO","3TKXBROM5TWR181JXBYSOI8FGFVJIU","","1087.300000011921","img/flower4.png","75","1088.1000000089407","2","1","2","2","1,0,0,1,1,0,1,0,1","1,0,0,1,1,0,1,0,1","1",""
"","html-keyboard-response","198","124171","0.0-198.0","3QUO65DNQVACXULAY7KD4090HJYUOL","A36470UBRH28GO","3TKXBROM5TWR181JXBYSOI8FGFVJIU","","null","<img src=""img/flower4.png"" style=""width:200px; border:14px solid green;"">","null","","","","","","","","",""
"","image-keyboard-response","199","125021","0.0-199.0","3QUO65DNQVACXULAY7KD4090HJYUOL","A36470UBRH28GO","3TKXBROM5TWR181JXBYSOI8FGFVJIU","","848.3000000119209","img/flower1.png","74","849.1000000089407","1","1","3","2","1,0,0,1,1,0,1,0,1","1,0,0,1,1,0,1,0,1","1",""
"","html-keyboard-response","200","125322","0.0-200.0","3QUO65DNQVACXULAY7KD4090HJYUOL","A36470UBRH28GO","3TKXBROM5TWR181JXBYSOI8FGFVJIU","","null","<img src=""img/flower1.png"" style=""width:200px; border:14px solid green;"">","null","","","","","","","","",""
"","image-keyboard-response","201","126807","0.0-201.0","3QUO65DNQVACXULAY7KD4090HJYUOL","A36470UBRH28GO","3TKXBROM5TWR181JXBYSOI8FGFVJIU","","1483.8999999910593","img/flower6.png","74","1484.5999999940395","1","1","1","2","1,0,0,1,1,0,1,0,1","1,0,0,1,1,0,1,0,1","1",""
"","html-keyboard-response","202","127108","0.0-202.0","3QUO65DNQVACXULAY7KD4090HJYUOL","A36470UBRH28GO","3TKXBROM5TWR181JXBYSOI8FGFVJIU","","null","<img src=""img/flower6.png"" style=""width:200px; border:14px solid green;"">","null","","","","","","","","",""
"","image-keyboard-response","203","127506","0.0-203.0","3QUO65DNQVACXULAY7KD4090HJYUOL","A36470UBRH28GO","3TKXBROM5TWR181JXBYSOI8FGFVJIU","","397.20000000298023","img/flower6.png","74","397.90000000596046","1","1","1","2","1,0,0,1,1,0,1,0,1","1,0,0,1,1,0,1,0,1","1",""
"","html-keyboard-response","204","127809","0.0-204.0","3QUO65DNQVACXULAY7KD4090HJYUOL","A36470UBRH28GO","3TKXBROM5TWR181JXBYSOI8FGFVJIU","","null","<img src=""img/flower6.png"" style=""width:200px; border:14px solid green;"">","null","","","","","","","","",""
"","image-keyboard-response","205","128218","0.0-205.0","3QUO65DNQVACXULAY7KD4090HJYUOL","A36470UBRH28GO","3TKXBROM5TWR181JXBYSOI8FGFVJIU","","408.5","img/flower6.png","74","409.29999999701977","1","1","1","2","1,0,0,1,1,0,1,0,1","1,0,0,1,1,0,1,0,1","1",""
"","html-keyboard-response","206","128520","0.0-206.0","3QUO65DNQVACXULAY7KD4090HJYUOL","A36470UBRH28GO","3TKXBROM5TWR181JXBYSOI8FGFVJIU","","null","<img src=""img/flower6.png"" style=""width:200px; border:14px solid green;"">","null","","","","","","","","",""
"","image-keyboard-response","207","128908","0.0-207.0","3QUO65DNQVACXULAY7KD4090HJYUOL","A36470UBRH28GO","3TKXBROM5TWR181JXBYSOI8FGFVJIU","","387.09999999403954","img/flower6.png","74","387.70000000298023","1","1","1","2","1,0,0,1,1,0,1,0,1","1,0,0,1,1,0,1,0,1","1",""
"","html-keyboard-response","208","129209","0.0-208.0","3QUO65DNQVACXULAY7KD4090HJYUOL","A36470UBRH28GO","3TKXBROM5TWR181JXBYSOI8FGFVJIU","","null","<img src=""img/flower6.png"" style=""width:200px; border:14px solid green;"">","null","","","","","","","","",""
"","image-keyboard-response","209","130178","0.0-209.0","3QUO65DNQVACXULAY7KD4090HJYUOL","A36470UBRH28GO","3TKXBROM5TWR181JXBYSOI8FGFVJIU","","968.2000000029802","img/flower1.png","74","968.9000000059605","1","1","3","2","1,0,0,1,1,0,1,0,1","1,0,0,1,1,0,1,0,1","1",""
"","html-keyboard-response","210","130480","0.0-210.0","3QUO65DNQVACXULAY7KD4090HJYUOL","A36470UBRH28GO","3TKXBROM5TWR181JXBYSOI8FGFVJIU","","null","<img src=""img/flower1.png"" style=""width:200px; border:14px solid green;"">","null","","","","","","","","",""
"","image-keyboard-response","211","131254","0.0-211.0","3QUO65DNQVACXULAY7KD4090HJYUOL","A36470UBRH28GO","3TKXBROM5TWR181JXBYSOI8FGFVJIU","","773.1000000089407","img/flower6.png","74","773.9000000059605","1","1","1","2","1,0,0,1,1,0,1,0,1","1,0,0,1,1,0,1,0,1","1",""
"","html-keyboard-response","212","131556","0.0-212.0","3QUO65DNQVACXULAY7KD4090HJYUOL","A36470UBRH28GO","3TKXBROM5TWR181JXBYSOI8FGFVJIU","","null","<img src=""img/flower6.png"" style=""width:200px; border:14px solid green;"">","null","","","","","","","","",""
"","image-keyboard-response","213","132370","0.0-213.0","3QUO65DNQVACXULAY7KD4090HJYUOL","A36470UBRH28GO","3TKXBROM5TWR181JXBYSOI8FGFVJIU","","814","img/flower4.png","75","814.7000000029802","2","1","2","2","1,0,0,1,1,0,1,0,1","1,0,0,1,1,0,1,0,1","1",""
"","html-keyboard-response","214","132673","0.0-214.0","3QUO65DNQVACXULAY7KD4090HJYUOL","A36470UBRH28GO","3TKXBROM5TWR181JXBYSOI8FGFVJIU","","null","<img src=""img/flower4.png"" style=""width:200px; border:14px solid green;"">","null","","","","","","","","",""
"","image-keyboard-response","215","133068","0.0-215.0","3QUO65DNQVACXULAY7KD4090HJYUOL","A36470UBRH28GO","3TKXBROM5TWR181JXBYSOI8FGFVJIU","","394.40000000596046","img/flower4.png","75","395.09999999403954","2","1","2","2","1,0,0,1,1,0,1,0,1","1,0,0,1,1,0,1,0,1","1",""
"","html-keyboard-response","216","133371","0.0-216.0","3QUO65DNQVACXULAY7KD4090HJYUOL","A36470UBRH28GO","3TKXBROM5TWR181JXBYSOI8FGFVJIU","","null","<img src=""img/flower4.png"" style=""width:200px; border:14px solid green;"">","null","","","","","","","","",""
"","image-keyboard-response","217","134388","0.0-217.0","3QUO65DNQVACXULAY7KD4090HJYUOL","A36470UBRH28GO","3TKXBROM5TWR181JXBYSOI8FGFVJIU","","1016","img/flower1.png","76","1016.5999999940395","3","1","3","2","1,0,0,1,1,0,1,0,1","1,0,0,1,1,0,1,0,1","1",""
"","html-keyboard-response","218","134690","0.0-218.0","3QUO65DNQVACXULAY7KD4090HJYUOL","A36470UBRH28GO","3TKXBROM5TWR181JXBYSOI8FGFVJIU","","null","<img src=""img/flower1.png"" style=""width:200px; border:14px solid green;"">","null","","","","","","","","",""
"","image-keyboard-response","219","135820","0.0-219.0","3QUO65DNQVACXULAY7KD4090HJYUOL","A36470UBRH28GO","3TKXBROM5TWR181JXBYSOI8FGFVJIU","","1129.0999999940395","img/flower6.png","74","1130","1","1","1","2","1,0,0,1,1,0,1,0,1","1,0,0,1,1,0,1,0,1","1",""
"","html-keyboard-response","220","136123","0.0-220.0","3QUO65DNQVACXULAY7KD4090HJYUOL","A36470UBRH28GO","3TKXBROM5TWR181JXBYSOI8FGFVJIU","","null","<img src=""img/flower6.png"" style=""width:200px; border:14px solid green;"">","null","","","","","","","","",""
"","image-keyboard-response","221","137302","0.0-221.0","3QUO65DNQVACXULAY7KD4090HJYUOL","A36470UBRH28GO","3TKXBROM5TWR181JXBYSOI8FGFVJIU","","1178.2999999970198","img/flower4.png","75","1179.0999999940395","2","1","2","2","1,0,0,1,1,0,1,0,1","1,0,0,1,1,0,1,0,1","1",""
"","html-keyboard-response","222","137604","0.0-222.0","3QUO65DNQVACXULAY7KD4090HJYUOL","A36470UBRH28GO","3TKXBROM5TWR181JXBYSOI8FGFVJIU","","null","<img src=""img/flower4.png"" style=""width:200px; border:14px solid green;"">","null","","","","","","","","",""
"","image-keyboard-response","223","138352","0.0-223.0","3QUO65DNQVACXULAY7KD4090HJYUOL","A36470UBRH28GO","3TKXBROM5TWR181JXBYSOI8FGFVJIU","","747.7000000029802","img/flower1.png","74","748.4000000059605","1","1","3","2","1,0,0,1,1,0,1,0,1","1,0,0,1,1,0,1,0,1","1",""
"","html-keyboard-response","224","138654","0.0-224.0","3QUO65DNQVACXULAY7KD4090HJYUOL","A36470UBRH28GO","3TKXBROM5TWR181JXBYSOI8FGFVJIU","","null","<img src=""img/flower1.png"" style=""width:200px; border:14px solid green;"">","null","","","","","","","","",""
"","image-keyboard-response","225","139902","0.0-225.0","3QUO65DNQVACXULAY7KD4090HJYUOL","A36470UBRH28GO","3TKXBROM5TWR181JXBYSOI8FGFVJIU","","1247.2000000029802","img/flower6.png","74","1247.9000000059605","1","1","1","2","1,0,0,1,1,0,1,0,1","1,0,0,1,1,0,1,0,1","1",""
"","html-keyboard-response","226","140214","0.0-226.0","3QUO65DNQVACXULAY7KD4090HJYUOL","A36470UBRH28GO","3TKXBROM5TWR181JXBYSOI8FGFVJIU","","null","<img src=""img/flower6.png"" style=""width:200px; border:14px solid green;"">","null","","","","","","","","",""
"","image-keyboard-response","227","141201","0.0-227.0","3QUO65DNQVACXULAY7KD4090HJYUOL","A36470UBRH28GO","3TKXBROM5TWR181JXBYSOI8FGFVJIU","","985.5999999940395","img/flower4.png","75","986.3999999910593","2","1","2","2","1,0,0,1,1,0,1,0,1","1,0,0,1,1,0,1,0,1","1",""
"","html-keyboard-response","228","141503","0.0-228.0","3QUO65DNQVACXULAY7KD4090HJYUOL","A36470UBRH28GO","3TKXBROM5TWR181JXBYSOI8FGFVJIU","","null","<img src=""img/flower4.png"" style=""width:200px; border:14px solid green;"">","null","","","","","","","","",""
"","image-keyboard-response","229","142284","0.0-229.0","3QUO65DNQVACXULAY7KD4090HJYUOL","A36470UBRH28GO","3TKXBROM5TWR181JXBYSOI8FGFVJIU","","780.2999999970198","img/flower6.png","74","780.9000000059605","1","1","1","2","1,0,0,1,1,0,1,0,1","1,0,0,1,1,0,1,0,1","1",""
"","html-keyboard-response","230","142587","0.0-230.0","3QUO65DNQVACXULAY7KD4090HJYUOL","A36470UBRH28GO","3TKXBROM5TWR181JXBYSOI8FGFVJIU","","null","<img src=""img/flower6.png"" style=""width:200px; border:14px solid green;"">","null","","","","","","","","",""
"","image-keyboard-response","231","143234","0.0-231.0","3QUO65DNQVACXULAY7KD4090HJYUOL","A36470UBRH28GO","3TKXBROM5TWR181JXBYSOI8FGFVJIU","","646.0999999940395","img/flower4.png","75","646.9000000059605","2","1","2","2","1,0,0,1,1,0,1,0,1","1,0,0,1,1,0,1,0,1","1",""
"","html-keyboard-response","232","143536","0.0-232.0","3QUO65DNQVACXULAY7KD4090HJYUOL","A36470UBRH28GO","3TKXBROM5TWR181JXBYSOI8FGFVJIU","","null","<img src=""img/flower4.png"" style=""width:200px; border:14px solid green;"">","null","","","","","","","","",""
"","image-keyboard-response","233","144374","0.0-233.0","3QUO65DNQVACXULAY7KD4090HJYUOL","A36470UBRH28GO","3TKXBROM5TWR181JXBYSOI8FGFVJIU","","837.2999999970198","img/flower6.png","75","838.0999999940395","2","0","1","2","1,0,0,1,1,0,1,0,1","1,0,0,1,1,0,1,0,1","1",""
"","html-keyboard-response","234","144676","0.0-234.0","3QUO65DNQVACXULAY7KD4090HJYUOL","A36470UBRH28GO","3TKXBROM5TWR181JXBYSOI8FGFVJIU","","null","<img src=""img/flower6.png"" style=""width:200px;border:14px solid red;"">","null","","","","","","","","",""
"","image-keyboard-response","235","145802","0.0-235.0","3QUO65DNQVACXULAY7KD4090HJYUOL","A36470UBRH28GO","3TKXBROM5TWR181JXBYSOI8FGFVJIU","","1125.7999999970198","img/flower1.png","76","1126.5999999940395","3","1","3","2","1,0,0,1,1,0,1,0,1","1,0,0,1,1,0,1,0,1","1",""
"","html-keyboard-response","236","146104","0.0-236.0","3QUO65DNQVACXULAY7KD4090HJYUOL","A36470UBRH28GO","3TKXBROM5TWR181JXBYSOI8FGFVJIU","","null","<img src=""img/flower1.png"" style=""width:200px; border:14px solid green;"">","null","","","","","","","","",""
"","image-keyboard-response","237","147245","0.0-237.0","3QUO65DNQVACXULAY7KD4090HJYUOL","A36470UBRH28GO","3TKXBROM5TWR181JXBYSOI8FGFVJIU","","1139.7999999970198","img/flower4.png","74","1140.2999999970198","1","1","2","2","1,0,0,1,1,0,1,0,1","1,0,0,1,1,0,1,0,1","1",""
"","html-keyboard-response","238","147547","0.0-238.0","3QUO65DNQVACXULAY7KD4090HJYUOL","A36470UBRH28GO","3TKXBROM5TWR181JXBYSOI8FGFVJIU","","null","<img src=""img/flower4.png"" style=""width:200px; border:14px solid green;"">","null","","","","","","","","",""
"","image-keyboard-response","239","147967","0.0-239.0","3QUO65DNQVACXULAY7KD4090HJYUOL","A36470UBRH28GO","3TKXBROM5TWR181JXBYSOI8FGFVJIU","","418.79999999701977","img/flower4.png","74","419.5","1","1","2","2","1,0,0,1,1,0,1,0,1","1,0,0,1,1,0,1,0,1","1",""
"","html-keyboard-response","240","148268","0.0-240.0","3QUO65DNQVACXULAY7KD4090HJYUOL","A36470UBRH28GO","3TKXBROM5TWR181JXBYSOI8FGFVJIU","","null","<img src=""img/flower4.png"" style=""width:200px; border:14px solid green;"">","null","","","","","","","","",""
"","image-keyboard-response","241","148616","0.0-241.0","3QUO65DNQVACXULAY7KD4090HJYUOL","A36470UBRH28GO","3TKXBROM5TWR181JXBYSOI8FGFVJIU","","347.20000000298023","img/flower4.png","74","347.90000000596046","1","1","2","2","1,0,0,1,1,0,1,0,1","1,0,0,1,1,0,1,0,1","1",""
"","html-keyboard-response","242","148918","0.0-242.0","3QUO65DNQVACXULAY7KD4090HJYUOL","A36470UBRH28GO","3TKXBROM5TWR181JXBYSOI8FGFVJIU","","null","<img src=""img/flower4.png"" style=""width:200px; border:14px solid green;"">","null","","","","","","","","",""
"","image-keyboard-response","243","149809","0.0-243.0","3QUO65DNQVACXULAY7KD4090HJYUOL","A36470UBRH28GO","3TKXBROM5TWR181JXBYSOI8FGFVJIU","","890.2000000029802","img/flower6.png","75","891.0999999940395","2","0","1","2","1,0,0,1,1,0,1,0,1","1,0,0,1,1,0,1,0,1","1",""
"","html-keyboard-response","244","150110","0.0-244.0","3QUO65DNQVACXULAY7KD4090HJYUOL","A36470UBRH28GO","3TKXBROM5TWR181JXBYSOI8FGFVJIU","","null","<img src=""img/flower6.png"" style=""width:200px;border:14px solid red;"">","null","","","","","","","","",""
"","image-keyboard-response","245","150772","0.0-245.0","3QUO65DNQVACXULAY7KD4090HJYUOL","A36470UBRH28GO","3TKXBROM5TWR181JXBYSOI8FGFVJIU","","660.9000000059605","img/flower4.png","74","661.6000000089407","1","1","2","2","1,0,0,1,1,0,1,0,1","1,0,0,1,1,0,1,0,1","1",""
"","html-keyboard-response","246","151074","0.0-246.0","3QUO65DNQVACXULAY7KD4090HJYUOL","A36470UBRH28GO","3TKXBROM5TWR181JXBYSOI8FGFVJIU","","null","<img src=""img/flower4.png"" style=""width:200px; border:14px solid green;"">","null","","","","","","","","",""
"","image-keyboard-response","247","151406","0.0-247.0","3QUO65DNQVACXULAY7KD4090HJYUOL","A36470UBRH28GO","3TKXBROM5TWR181JXBYSOI8FGFVJIU","","330.90000000596046","img/flower4.png","74","331.59999999403954","1","1","2","2","1,0,0,1,1,0,1,0,1","1,0,0,1,1,0,1,0,1","1",""
"","html-keyboard-response","248","151708","0.0-248.0","3QUO65DNQVACXULAY7KD4090HJYUOL","A36470UBRH28GO","3TKXBROM5TWR181JXBYSOI8FGFVJIU","","null","<img src=""img/flower4.png"" style=""width:200px; border:14px solid green;"">","null","","","","","","","","",""
"","image-keyboard-response","249","152167","0.0-249.0","3QUO65DNQVACXULAY7KD4090HJYUOL","A36470UBRH28GO","3TKXBROM5TWR181JXBYSOI8FGFVJIU","","458.5","img/flower6.png","74","459.19999998807907","1","1","1","2","1,0,0,1,1,0,1,0,1","1,0,0,1,1,0,1,0,1","1",""
"","html-keyboard-response","250","152469","0.0-250.0","3QUO65DNQVACXULAY7KD4090HJYUOL","A36470UBRH28GO","3TKXBROM5TWR181JXBYSOI8FGFVJIU","","null","<img src=""img/flower6.png"" style=""width:200px; border:14px solid green;"">","null","","","","","","","","",""
"","image-keyboard-response","251","153426","0.0-251.0","3QUO65DNQVACXULAY7KD4090HJYUOL","A36470UBRH28GO","3TKXBROM5TWR181JXBYSOI8FGFVJIU","","956.2999999970198","img/flower1.png","76","957","3","1","3","2","1,0,0,1,1,0,1,0,1","1,0,0,1,1,0,1,0,1","1",""
"","html-keyboard-response","252","153728","0.0-252.0","3QUO65DNQVACXULAY7KD4090HJYUOL","A36470UBRH28GO","3TKXBROM5TWR181JXBYSOI8FGFVJIU","","null","<img src=""img/flower1.png"" style=""width:200px; border:14px solid green;"">","null","","","","","","","","",""
"","image-keyboard-response","253","154878","0.0-253.0","3QUO65DNQVACXULAY7KD4090HJYUOL","A36470UBRH28GO","3TKXBROM5TWR181JXBYSOI8FGFVJIU","","1149.0999999940395","img/flower4.png","75","1149.7000000029802","2","1","2","2","1,0,0,1,1,0,1,0,1","1,0,0,1,1,0,1,0,1","1",""
"","html-keyboard-response","254","155180","0.0-254.0","3QUO65DNQVACXULAY7KD4090HJYUOL","A36470UBRH28GO","3TKXBROM5TWR181JXBYSOI8FGFVJIU","","null","<img src=""img/flower4.png"" style=""width:200px; border:14px solid green;"">","null","","","","","","","","",""
"","image-keyboard-response","255","155604","0.0-255.0","3QUO65DNQVACXULAY7KD4090HJYUOL","A36470UBRH28GO","3TKXBROM5TWR181JXBYSOI8FGFVJIU","","423.90000000596046","img/flower4.png","75","424.6000000089407","2","1","2","2","1,0,0,1,1,0,1,0,1","1,0,0,1,1,0,1,0,1","1",""
"","html-keyboard-response","256","155906","0.0-256.0","3QUO65DNQVACXULAY7KD4090HJYUOL","A36470UBRH28GO","3TKXBROM5TWR181JXBYSOI8FGFVJIU","","null","<img src=""img/flower4.png"" style=""width:200px; border:14px solid green;"">","null","","","","","","","","",""
"","image-keyboard-response","257","157089","0.0-257.0","3QUO65DNQVACXULAY7KD4090HJYUOL","A36470UBRH28GO","3TKXBROM5TWR181JXBYSOI8FGFVJIU","","1181.5999999940395","img/flower1.png","76","1182.2999999970198","3","1","3","2","1,0,0,1,1,0,1,0,1","1,0,0,1,1,0,1,0,1","1",""
"","html-keyboard-response","258","157391","0.0-258.0","3QUO65DNQVACXULAY7KD4090HJYUOL","A36470UBRH28GO","3TKXBROM5TWR181JXBYSOI8FGFVJIU","","null","<img src=""img/flower1.png"" style=""width:200px; border:14px solid green;"">","null","","","","","","","","",""
"","image-keyboard-response","259","157886","0.0-259.0","3QUO65DNQVACXULAY7KD4090HJYUOL","A36470UBRH28GO","3TKXBROM5TWR181JXBYSOI8FGFVJIU","","494.5","img/flower4.png","75","495.09999999403954","2","1","2","2","1,0,0,1,1,0,1,0,1","1,0,0,1,1,0,1,0,1","1",""
"","html-keyboard-response","260","158187","0.0-260.0","3QUO65DNQVACXULAY7KD4090HJYUOL","A36470UBRH28GO","3TKXBROM5TWR181JXBYSOI8FGFVJIU","","null","<img src=""img/flower4.png"" style=""width:200px; border:14px solid green;"">","null","","","","","","","","",""
"","image-keyboard-response","261","158862","0.0-261.0","3QUO65DNQVACXULAY7KD4090HJYUOL","A36470UBRH28GO","3TKXBROM5TWR181JXBYSOI8FGFVJIU","","674.5999999940395","img/flower1.png","76","675.2999999970198","3","1","3","2","1,0,0,1,1,0,1,0,1","1,0,0,1,1,0,1,0,1","1",""
"","html-keyboard-response","262","159164","0.0-262.0","3QUO65DNQVACXULAY7KD4090HJYUOL","A36470UBRH28GO","3TKXBROM5TWR181JXBYSOI8FGFVJIU","","null","<img src=""img/flower1.png"" style=""width:200px; border:14px solid green;"">","null","","","","","","","","",""
"","image-keyboard-response","263","159684","0.0-263.0","3QUO65DNQVACXULAY7KD4090HJYUOL","A36470UBRH28GO","3TKXBROM5TWR181JXBYSOI8FGFVJIU","","519","img/flower4.png","75","519.5999999940395","2","1","2","2","1,0,0,1,1,0,1,0,1","1,0,0,1,1,0,1,0,1","1",""
"","html-keyboard-response","264","159986","0.0-264.0","3QUO65DNQVACXULAY7KD4090HJYUOL","A36470UBRH28GO","3TKXBROM5TWR181JXBYSOI8FGFVJIU","","null","<img src=""img/flower4.png"" style=""width:200px; border:14px solid green;"">","null","","","","","","","","",""
"","image-keyboard-response","265","160400","0.0-265.0","3QUO65DNQVACXULAY7KD4090HJYUOL","A36470UBRH28GO","3TKXBROM5TWR181JXBYSOI8FGFVJIU","","413.70000000298023","img/flower4.png","75","414.29999999701977","2","1","2","2","1,0,0,1,1,0,1,0,1","1,0,0,1,1,0,1,0,1","1",""
"","html-keyboard-response","266","160701","0.0-266.0","3QUO65DNQVACXULAY7KD4090HJYUOL","A36470UBRH28GO","3TKXBROM5TWR181JXBYSOI8FGFVJIU","","null","<img src=""img/flower4.png"" style=""width:200px; border:14px solid green;"">","null","","","","","","","","",""
"","image-keyboard-response","267","161465","0.0-267.0","3QUO65DNQVACXULAY7KD4090HJYUOL","A36470UBRH28GO","3TKXBROM5TWR181JXBYSOI8FGFVJIU","","762.2000000029802","img/flower6.png","74","763","1","1","1","2","1,0,0,1,1,0,1,0,1","1,0,0,1,1,0,1,0,1","1",""
"","html-keyboard-response","268","161766","0.0-268.0","3QUO65DNQVACXULAY7KD4090HJYUOL","A36470UBRH28GO","3TKXBROM5TWR181JXBYSOI8FGFVJIU","","null","<img src=""img/flower6.png"" style=""width:200px; border:14px solid green;"">","null","","","","","","","","",""
"","image-keyboard-response","269","162320","0.0-269.0","3QUO65DNQVACXULAY7KD4090HJYUOL","A36470UBRH28GO","3TKXBROM5TWR181JXBYSOI8FGFVJIU","","553.4000000059605","img/flower1.png","74","554.2999999970198","1","1","3","2","1,0,0,1,1,0,1,0,1","1,0,0,1,1,0,1,0,1","1",""
"","html-keyboard-response","270","162622","0.0-270.0","3QUO65DNQVACXULAY7KD4090HJYUOL","A36470UBRH28GO","3TKXBROM5TWR181JXBYSOI8FGFVJIU","","null","<img src=""img/flower1.png"" style=""width:200px; border:14px solid green;"">","null","","","","","","","","",""
"","image-keyboard-response","271","163914","0.0-271.0","3QUO65DNQVACXULAY7KD4090HJYUOL","A36470UBRH28GO","3TKXBROM5TWR181JXBYSOI8FGFVJIU","","1291.5","img/flower4.png","75","1292.1000000089407","2","1","2","2","1,0,0,1,1,0,1,0,1","1,0,0,1,1,0,1,0,1","1",""
"","html-keyboard-response","272","164216","0.0-272.0","3QUO65DNQVACXULAY7KD4090HJYUOL","A36470UBRH28GO","3TKXBROM5TWR181JXBYSOI8FGFVJIU","","null","<img src=""img/flower4.png"" style=""width:200px; border:14px solid green;"">","null","","","","","","","","",""
"","image-keyboard-response","273","165203","0.0-273.0","3QUO65DNQVACXULAY7KD4090HJYUOL","A36470UBRH28GO","3TKXBROM5TWR181JXBYSOI8FGFVJIU","","986.1000000089407","img/flower6.png","74","986.8999999910593","1","1","1","2","1,0,0,1,1,0,1,0,1","1,0,0,1,1,0,1,0,1","1",""
"","html-keyboard-response","274","165504","0.0-274.0","3QUO65DNQVACXULAY7KD4090HJYUOL","A36470UBRH28GO","3TKXBROM5TWR181JXBYSOI8FGFVJIU","","null","<img src=""img/flower6.png"" style=""width:200px; border:14px solid green;"">","null","","","","","","","","",""
"","image-keyboard-response","275","166276","0.0-275.0","3QUO65DNQVACXULAY7KD4090HJYUOL","A36470UBRH28GO","3TKXBROM5TWR181JXBYSOI8FGFVJIU","","771.5","img/flower4.png","75","772","2","1","2","2","1,0,0,1,1,0,1,0,1","1,0,0,1,1,0,1,0,1","1",""
"","html-keyboard-response","276","166578","0.0-276.0","3QUO65DNQVACXULAY7KD4090HJYUOL","A36470UBRH28GO","3TKXBROM5TWR181JXBYSOI8FGFVJIU","","null","<img src=""img/flower4.png"" style=""width:200px; border:14px solid green;"">","null","","","","","","","","",""
"","image-keyboard-response","277","167477","0.0-277.0","3QUO65DNQVACXULAY7KD4090HJYUOL","A36470UBRH28GO","3TKXBROM5TWR181JXBYSOI8FGFVJIU","","897.3999999910593","img/flower1.png","76","898.2999999970198","3","1","3","2","1,0,0,1,1,0,1,0,1","1,0,0,1,1,0,1,0,1","1",""
"","html-keyboard-response","278","167778","0.0-278.0","3QUO65DNQVACXULAY7KD4090HJYUOL","A36470UBRH28GO","3TKXBROM5TWR181JXBYSOI8FGFVJIU","","null","<img src=""img/flower1.png"" style=""width:200px; border:14px solid green;"">","null","","","","","","","","",""
"","image-keyboard-response","279","168149","0.0-279.0","3QUO65DNQVACXULAY7KD4090HJYUOL","A36470UBRH28GO","3TKXBROM5TWR181JXBYSOI8FGFVJIU","","369.70000000298023","img/flower1.png","76","370.40000000596046","3","1","3","2","1,0,0,1,1,0,1,0,1","1,0,0,1,1,0,1,0,1","1",""
"","html-keyboard-response","280","168451","0.0-280.0","3QUO65DNQVACXULAY7KD4090HJYUOL","A36470UBRH28GO","3TKXBROM5TWR181JXBYSOI8FGFVJIU","","null","<img src=""img/flower1.png"" style=""width:200px; border:14px solid green;"">","null","","","","","","","","",""
"","image-keyboard-response","281","169492","0.0-281.0","3QUO65DNQVACXULAY7KD4090HJYUOL","A36470UBRH28GO","3TKXBROM5TWR181JXBYSOI8FGFVJIU","","1040.4000000059605","img/flower4.png","75","1041.1000000089407","2","1","2","2","1,0,0,1,1,0,1,0,1","1,0,0,1,1,0,1,0,1","1",""
"","html-keyboard-response","282","169794","0.0-282.0","3QUO65DNQVACXULAY7KD4090HJYUOL","A36470UBRH28GO","3TKXBROM5TWR181JXBYSOI8FGFVJIU","","null","<img src=""img/flower4.png"" style=""width:200px; border:14px solid green;"">","null","","","","","","","","",""
"","image-keyboard-response","283","170795","0.0-283.0","3QUO65DNQVACXULAY7KD4090HJYUOL","A36470UBRH28GO","3TKXBROM5TWR181JXBYSOI8FGFVJIU","","999.9000000059605","img/flower1.png","76","1000.6000000089407","3","1","3","2","1,0,0,1,1,0,1,0,1","1,0,0,1,1,0,1,0,1","1",""
"","html-keyboard-response","284","171096","0.0-284.0","3QUO65DNQVACXULAY7KD4090HJYUOL","A36470UBRH28GO","3TKXBROM5TWR181JXBYSOI8FGFVJIU","","null","<img src=""img/flower1.png"" style=""width:200px; border:14px solid green;"">","null","","","","","","","","",""
"","image-keyboard-response","285","171715","0.0-285.0","3QUO65DNQVACXULAY7KD4090HJYUOL","A36470UBRH28GO","3TKXBROM5TWR181JXBYSOI8FGFVJIU","","617.5999999940395","img/flower6.png","74","618.3999999910593","1","1","1","2","1,0,0,1,1,0,1,0,1","1,0,0,1,1,0,1,0,1","1",""
"","html-keyboard-response","286","172016","0.0-286.0","3QUO65DNQVACXULAY7KD4090HJYUOL","A36470UBRH28GO","3TKXBROM5TWR181JXBYSOI8FGFVJIU","","null","<img src=""img/flower6.png"" style=""width:200px; border:14px solid green;"">","null","","","","","","","","",""
"","image-keyboard-response","287","172773","0.0-287.0","3QUO65DNQVACXULAY7KD4090HJYUOL","A36470UBRH28GO","3TKXBROM5TWR181JXBYSOI8FGFVJIU","","755.2999999970198","img/flower4.png","75","756","2","1","2","2","1,0,0,1,1,0,1,0,1","1,0,0,1,1,0,1,0,1","1",""
"","html-keyboard-response","288","173075","0.0-288.0","3QUO65DNQVACXULAY7KD4090HJYUOL","A36470UBRH28GO","3TKXBROM5TWR181JXBYSOI8FGFVJIU","","null","<img src=""img/flower4.png"" style=""width:200px; border:14px solid green;"">","null","","","","","","","","",""
"","image-keyboard-response","289","173784","0.0-289.0","3QUO65DNQVACXULAY7KD4090HJYUOL","A36470UBRH28GO","3TKXBROM5TWR181JXBYSOI8FGFVJIU","","708.7999999970198","img/flower6.png","74","709.7000000029802","1","1","1","2","1,0,0,1,1,0,1,0,1","1,0,0,1,1,0,1,0,1","1",""
"","html-keyboard-response","290","174086","0.0-290.0","3QUO65DNQVACXULAY7KD4090HJYUOL","A36470UBRH28GO","3TKXBROM5TWR181JXBYSOI8FGFVJIU","","null","<img src=""img/flower6.png"" style=""width:200px; border:14px solid green;"">","null","","","","","","","","",""
"","image-keyboard-response","291","175164","0.0-291.0","3QUO65DNQVACXULAY7KD4090HJYUOL","A36470UBRH28GO","3TKXBROM5TWR181JXBYSOI8FGFVJIU","","1078","img/flower1.png","76","1078.7999999970198","3","1","3","2","1,0,0,1,1,0,1,0,1","1,0,0,1,1,0,1,0,1","1",""
"","html-keyboard-response","292","175466","0.0-292.0","3QUO65DNQVACXULAY7KD4090HJYUOL","A36470UBRH28GO","3TKXBROM5TWR181JXBYSOI8FGFVJIU","","null","<img src=""img/flower1.png"" style=""width:200px; border:14px solid green;"">","null","","","","","","","","",""
"","image-keyboard-response","293","176817","0.0-293.0","3QUO65DNQVACXULAY7KD4090HJYUOL","A36470UBRH28GO","3TKXBROM5TWR181JXBYSOI8FGFVJIU","","1350.4000000059605","img/flower4.png","75","1351.2000000029802","2","1","2","2","1,0,0,1,1,0,1,0,1","1,0,0,1,1,0,1,0,1","1",""
"","html-keyboard-response","294","177118","0.0-294.0","3QUO65DNQVACXULAY7KD4090HJYUOL","A36470UBRH28GO","3TKXBROM5TWR181JXBYSOI8FGFVJIU","","null","<img src=""img/flower4.png"" style=""width:200px; border:14px solid green;"">","null","","","","","","","","",""
"","image-keyboard-response","295","178064","0.0-295.0","3QUO65DNQVACXULAY7KD4090HJYUOL","A36470UBRH28GO","3TKXBROM5TWR181JXBYSOI8FGFVJIU","","945","img/flower1.png","76","945.8000000119209","3","1","3","2","1,0,0,1,1,0,1,0,1","1,0,0,1,1,0,1,0,1","1",""
"","html-keyboard-response","296","178366","0.0-296.0","3QUO65DNQVACXULAY7KD4090HJYUOL","A36470UBRH28GO","3TKXBROM5TWR181JXBYSOI8FGFVJIU","","null","<img src=""img/flower1.png"" style=""width:200px; border:14px solid green;"">","null","","","","","","","","",""
"","image-keyboard-response","297","178779","0.0-297.0","3QUO65DNQVACXULAY7KD4090HJYUOL","A36470UBRH28GO","3TKXBROM5TWR181JXBYSOI8FGFVJIU","","411.79999999701977","img/flower1.png","76","412.5","3","1","3","2","1,0,0,1,1,0,1,0,1","1,0,0,1,1,0,1,0,1","1",""
"","html-keyboard-response","298","179080","0.0-298.0","3QUO65DNQVACXULAY7KD4090HJYUOL","A36470UBRH28GO","3TKXBROM5TWR181JXBYSOI8FGFVJIU","","null","<img src=""img/flower1.png"" style=""width:200px; border:14px solid green;"">","null","","","","","","","","",""
"","image-keyboard-response","299","179395","0.0-299.0","3QUO65DNQVACXULAY7KD4090HJYUOL","A36470UBRH28GO","3TKXBROM5TWR181JXBYSOI8FGFVJIU","","313.40000000596046","img/flower1.png","76","314.20000000298023","3","1","3","2","1,0,0,1,1,0,1,0,1","1,0,0,1,1,0,1,0,1","1",""
"","html-keyboard-response","300","179696","0.0-300.0","3QUO65DNQVACXULAY7KD4090HJYUOL","A36470UBRH28GO","3TKXBROM5TWR181JXBYSOI8FGFVJIU","","null","<img src=""img/flower1.png"" style=""width:200px; border:14px solid green;"">","null","","","","","","","","",""
"","image-keyboard-response","301","180057","0.0-301.0","3QUO65DNQVACXULAY7KD4090HJYUOL","A36470UBRH28GO","3TKXBROM5TWR181JXBYSOI8FGFVJIU","","359.5","img/flower1.png","76","360.29999999701977","3","1","3","2","1,0,0,1,1,0,1,0,1","1,0,0,1,1,0,1,0,1","1",""
"","html-keyboard-response","302","180358","0.0-302.0","3QUO65DNQVACXULAY7KD4090HJYUOL","A36470UBRH28GO","3TKXBROM5TWR181JXBYSOI8FGFVJIU","","null","<img src=""img/flower1.png"" style=""width:200px; border:14px solid green;"">","null","","","","","","","","",""
"","image-keyboard-response","303","181071","0.0-303.0","3QUO65DNQVACXULAY7KD4090HJYUOL","A36470UBRH28GO","3TKXBROM5TWR181JXBYSOI8FGFVJIU","","712.2999999970198","img/flower6.png","74","713","1","1","1","2","1,0,0,1,1,0,1,0,1","1,0,0,1,1,0,1,0,1","1",""
"","html-keyboard-response","304","181372","0.0-304.0","3QUO65DNQVACXULAY7KD4090HJYUOL","A36470UBRH28GO","3TKXBROM5TWR181JXBYSOI8FGFVJIU","","null","<img src=""img/flower6.png"" style=""width:200px; border:14px solid green;"">","null","","","","","","","","",""
"","image-keyboard-response","305","181771","0.0-305.0","3QUO65DNQVACXULAY7KD4090HJYUOL","A36470UBRH28GO","3TKXBROM5TWR181JXBYSOI8FGFVJIU","","397.79999999701977","img/flower6.png","74","398.40000000596046","1","1","1","2","1,0,0,1,1,0,1,0,1","1,0,0,1,1,0,1,0,1","1",""
"","html-keyboard-response","306","182072","0.0-306.0","3QUO65DNQVACXULAY7KD4090HJYUOL","A36470UBRH28GO","3TKXBROM5TWR181JXBYSOI8FGFVJIU","","null","<img src=""img/flower6.png"" style=""width:200px; border:14px solid green;"">","null","","","","","","","","",""
"","image-keyboard-response","307","183443","0.0-307.0","3QUO65DNQVACXULAY7KD4090HJYUOL","A36470UBRH28GO","3TKXBROM5TWR181JXBYSOI8FGFVJIU","","1369.3999999910593","img/flower1.png","76","1370.199999988079","3","1","3","2","1,0,0,1,1,0,1,0,1","1,0,0,1,1,0,1,0,1","1",""
"","html-keyboard-response","308","183744","0.0-308.0","3QUO65DNQVACXULAY7KD4090HJYUOL","A36470UBRH28GO","3TKXBROM5TWR181JXBYSOI8FGFVJIU","","null","<img src=""img/flower1.png"" style=""width:200px; border:14px solid green;"">","null","","","","","","","","",""
"","image-keyboard-response","309","184410","0.0-309.0","3QUO65DNQVACXULAY7KD4090HJYUOL","A36470UBRH28GO","3TKXBROM5TWR181JXBYSOI8FGFVJIU","","665.2999999970198","img/flower6.png","74","666","1","1","1","2","1,0,0,1,1,0,1,0,1","1,0,0,1,1,0,1,0,1","1",""
"","html-keyboard-response","310","184712","0.0-310.0","3QUO65DNQVACXULAY7KD4090HJYUOL","A36470UBRH28GO","3TKXBROM5TWR181JXBYSOI8FGFVJIU","","null","<img src=""img/flower6.png"" style=""width:200px; border:14px solid green;"">","null","","","","","","","","",""
"","image-keyboard-response","311","185686","0.0-311.0","3QUO65DNQVACXULAY7KD4090HJYUOL","A36470UBRH28GO","3TKXBROM5TWR181JXBYSOI8FGFVJIU","","973.3999999910593","img/flower1.png","76","974.0999999940395","3","1","3","2","1,0,0,1,1,0,1,0,1","1,0,0,1,1,0,1,0,1","1",""
"","html-keyboard-response","312","185988","0.0-312.0","3QUO65DNQVACXULAY7KD4090HJYUOL","A36470UBRH28GO","3TKXBROM5TWR181JXBYSOI8FGFVJIU","","null","<img src=""img/flower1.png"" style=""width:200px; border:14px solid green;"">","null","","","","","","","","",""
"","image-keyboard-response","313","186640","0.0-313.0","3QUO65DNQVACXULAY7KD4090HJYUOL","A36470UBRH28GO","3TKXBROM5TWR181JXBYSOI8FGFVJIU","","651.4000000059605","img/flower6.png","74","652.0999999940395","1","1","1","2","1,0,0,1,1,0,1,0,1","1,0,0,1,1,0,1,0,1","1",""
"","html-keyboard-response","314","186941","0.0-314.0","3QUO65DNQVACXULAY7KD4090HJYUOL","A36470UBRH28GO","3TKXBROM5TWR181JXBYSOI8FGFVJIU","","null","<img src=""img/flower6.png"" style=""width:200px; border:14px solid green;"">","null","","","","","","","","",""
"","image-keyboard-response","315","187633","0.0-315.0","3QUO65DNQVACXULAY7KD4090HJYUOL","A36470UBRH28GO","3TKXBROM5TWR181JXBYSOI8FGFVJIU","","690.5","img/flower1.png","76","691.2000000029802","3","1","3","2","1,0,0,1,1,0,1,0,1","1,0,0,1,1,0,1,0,1","1",""
"","html-keyboard-response","316","187935","0.0-316.0","3QUO65DNQVACXULAY7KD4090HJYUOL","A36470UBRH28GO","3TKXBROM5TWR181JXBYSOI8FGFVJIU","","null","<img src=""img/flower1.png"" style=""width:200px; border:14px solid green;"">","null","","","","","","","","",""
"","image-keyboard-response","317","188555","0.0-317.0","3QUO65DNQVACXULAY7KD4090HJYUOL","A36470UBRH28GO","3TKXBROM5TWR181JXBYSOI8FGFVJIU","","619.0999999940395","img/flower4.png","75","619.7999999970198","2","1","2","2","1,0,0,1,1,0,1,0,1","1,0,0,1,1,0,1,0,1","1",""
"","html-keyboard-response","318","188856","0.0-318.0","3QUO65DNQVACXULAY7KD4090HJYUOL","A36470UBRH28GO","3TKXBROM5TWR181JXBYSOI8FGFVJIU","","null","<img src=""img/flower4.png"" style=""width:200px; border:14px solid green;"">","null","","","","","","","","",""
"","image-keyboard-response","319","189660","0.0-319.0","3QUO65DNQVACXULAY7KD4090HJYUOL","A36470UBRH28GO","3TKXBROM5TWR181JXBYSOI8FGFVJIU","","802.5999999940395","img/flower1.png","76","803.2000000029802","3","1","3","2","1,0,0,1,1,0,1,0,1","1,0,0,1,1,0,1,0,1","1",""
"","html-keyboard-response","320","189961","0.0-320.0","3QUO65DNQVACXULAY7KD4090HJYUOL","A36470UBRH28GO","3TKXBROM5TWR181JXBYSOI8FGFVJIU","","null","<img src=""img/flower1.png"" style=""width:200px; border:14px solid green;"">","null","","","","","","","","",""
"","image-keyboard-response","321","190572","0.0-321.0","3QUO65DNQVACXULAY7KD4090HJYUOL","A36470UBRH28GO","3TKXBROM5TWR181JXBYSOI8FGFVJIU","","609.7999999970198","img/flower6.png","74","610.3999999910593","1","1","1","2","1,0,0,1,1,0,1,0,1","1,0,0,1,1,0,1,0,1","1",""
"","html-keyboard-response","322","190873","0.0-322.0","3QUO65DNQVACXULAY7KD4090HJYUOL","A36470UBRH28GO","3TKXBROM5TWR181JXBYSOI8FGFVJIU","","null","<img src=""img/flower6.png"" style=""width:200px; border:14px solid green;"">","null","","","","","","","","",""
"","image-keyboard-response","323","191641","0.0-323.0","3QUO65DNQVACXULAY7KD4090HJYUOL","A36470UBRH28GO","3TKXBROM5TWR181JXBYSOI8FGFVJIU","","766.7000000029802","img/flower1.png","76","767.5999999940395","3","1","3","2","1,0,0,1,1,0,1,0,1","1,0,0,1,1,0,1,0,1","1",""
"","html-keyboard-response","324","191942","0.0-324.0","3QUO65DNQVACXULAY7KD4090HJYUOL","A36470UBRH28GO","3TKXBROM5TWR181JXBYSOI8FGFVJIU","","null","<img src=""img/flower1.png"" style=""width:200px; border:14px solid green;"">","null","","","","","","","","",""
"","image-keyboard-response","325","192452","0.0-325.0","3QUO65DNQVACXULAY7KD4090HJYUOL","A36470UBRH28GO","3TKXBROM5TWR181JXBYSOI8FGFVJIU","","508.90000000596046","img/flower4.png","75","509.59999999403954","2","1","2","2","1,0,0,1,1,0,1,0,1","1,0,0,1,1,0,1,0,1","1",""
"","html-keyboard-response","326","192754","0.0-326.0","3QUO65DNQVACXULAY7KD4090HJYUOL","A36470UBRH28GO","3TKXBROM5TWR181JXBYSOI8FGFVJIU","","null","<img src=""img/flower4.png"" style=""width:200px; border:14px solid green;"">","null","","","","","","","","",""
"","image-keyboard-response","327","193231","0.0-327.0","3QUO65DNQVACXULAY7KD4090HJYUOL","A36470UBRH28GO","3TKXBROM5TWR181JXBYSOI8FGFVJIU","","476.79999999701977","img/flower1.png","76","477.6000000089407","3","1","3","2","1,0,0,1,1,0,1,0,1","1,0,0,1,1,0,1,0,1","1",""
"","html-keyboard-response","328","193534","0.0-328.0","3QUO65DNQVACXULAY7KD4090HJYUOL","A36470UBRH28GO","3TKXBROM5TWR181JXBYSOI8FGFVJIU","","null","<img src=""img/flower1.png"" style=""width:200px; border:14px solid green;"">","null","","","","","","","","",""
"","image-keyboard-response","329","194000","0.0-329.0","3QUO65DNQVACXULAY7KD4090HJYUOL","A36470UBRH28GO","3TKXBROM5TWR181JXBYSOI8FGFVJIU","","465.79999999701977","img/flower4.png","75","466.6000000089407","2","1","2","2","1,0,0,1,1,0,1,0,1","1,0,0,1,1,0,1,0,1","1",""
"","html-keyboard-response","330","194302","0.0-330.0","3QUO65DNQVACXULAY7KD4090HJYUOL","A36470UBRH28GO","3TKXBROM5TWR181JXBYSOI8FGFVJIU","","null","<img src=""img/flower4.png"" style=""width:200px; border:14px solid green;"">","null","","","","","","","","",""
"","image-keyboard-response","331","194735","0.0-331.0","3QUO65DNQVACXULAY7KD4090HJYUOL","A36470UBRH28GO","3TKXBROM5TWR181JXBYSOI8FGFVJIU","","432.40000000596046","img/flower4.png","75","433.1000000089407","2","1","2","2","1,0,0,1,1,0,1,0,1","1,0,0,1,1,0,1,0,1","1",""
"","html-keyboard-response","332","195036","0.0-332.0","3QUO65DNQVACXULAY7KD4090HJYUOL","A36470UBRH28GO","3TKXBROM5TWR181JXBYSOI8FGFVJIU","","null","<img src=""img/flower4.png"" style=""width:200px; border:14px solid green;"">","null","","","","","","","","",""
"","image-keyboard-response","333","195387","0.0-333.0","3QUO65DNQVACXULAY7KD4090HJYUOL","A36470UBRH28GO","3TKXBROM5TWR181JXBYSOI8FGFVJIU","","349.70000000298023","img/flower4.png","75","350.59999999403954","2","1","2","2","1,0,0,1,1,0,1,0,1","1,0,0,1,1,0,1,0,1","1",""
"","html-keyboard-response","334","195688","0.0-334.0","3QUO65DNQVACXULAY7KD4090HJYUOL","A36470UBRH28GO","3TKXBROM5TWR181JXBYSOI8FGFVJIU","","null","<img src=""img/flower4.png"" style=""width:200px; border:14px solid green;"">","null","","","","","","","","",""
"","image-keyboard-response","335","196403","0.0-335.0","3QUO65DNQVACXULAY7KD4090HJYUOL","A36470UBRH28GO","3TKXBROM5TWR181JXBYSOI8FGFVJIU","","714","img/flower6.png","74","714.5999999940395","1","1","1","2","1,0,0,1,1,0,1,0,1","1,0,0,1,1,0,1,0,1","1",""
"","html-keyboard-response","336","196704","0.0-336.0","3QUO65DNQVACXULAY7KD4090HJYUOL","A36470UBRH28GO","3TKXBROM5TWR181JXBYSOI8FGFVJIU","","null","<img src=""img/flower6.png"" style=""width:200px; border:14px solid green;"">","null","","","","","","","","",""
"","image-keyboard-response","337","197085","0.0-337.0","3QUO65DNQVACXULAY7KD4090HJYUOL","A36470UBRH28GO","3TKXBROM5TWR181JXBYSOI8FGFVJIU","","379.80000001192093","img/flower6.png","74","380.40000000596046","1","1","1","2","1,0,0,1,1,0,1,0,1","1,0,0,1,1,0,1,0,1","1",""
"","html-keyboard-response","338","197386","0.0-338.0","3QUO65DNQVACXULAY7KD4090HJYUOL","A36470UBRH28GO","3TKXBROM5TWR181JXBYSOI8FGFVJIU","","null","<img src=""img/flower6.png"" style=""width:200px; border:14px solid green;"">","null","","","","","","","","",""
"","image-keyboard-response","339","197781","0.0-339.0","3QUO65DNQVACXULAY7KD4090HJYUOL","A36470UBRH28GO","3TKXBROM5TWR181JXBYSOI8FGFVJIU","","393.59999999403954","img/flower6.png","74","394.29999999701977","1","1","1","2","1,0,0,1,1,0,1,0,1","1,0,0,1,1,0,1,0,1","1",""
"","html-keyboard-response","340","198082","0.0-340.0","3QUO65DNQVACXULAY7KD4090HJYUOL","A36470UBRH28GO","3TKXBROM5TWR181JXBYSOI8FGFVJIU","","null","<img src=""img/flower6.png"" style=""width:200px; border:14px solid green;"">","null","","","","","","","","",""
"","image-keyboard-response","341","199036","0.0-341.0","3QUO65DNQVACXULAY7KD4090HJYUOL","A36470UBRH28GO","3TKXBROM5TWR181JXBYSOI8FGFVJIU","","953.4000000059605","img/flower1.png","76","954.1000000089407","3","1","3","2","1,0,0,1,1,0,1,0,1","1,0,0,1,1,0,1,0,1","1",""
"","html-keyboard-response","342","199338","0.0-342.0","3QUO65DNQVACXULAY7KD4090HJYUOL","A36470UBRH28GO","3TKXBROM5TWR181JXBYSOI8FGFVJIU","","null","<img src=""img/flower1.png"" style=""width:200px; border:14px solid green;"">","null","","","","","","","","",""
"","image-keyboard-response","343","199721","0.0-343.0","3QUO65DNQVACXULAY7KD4090HJYUOL","A36470UBRH28GO","3TKXBROM5TWR181JXBYSOI8FGFVJIU","","382.3999999910593","img/flower1.png","76","383.20000000298023","3","1","3","2","1,0,0,1,1,0,1,0,1","1,0,0,1,1,0,1,0,1","1",""
"","html-keyboard-response","344","200023","0.0-344.0","3QUO65DNQVACXULAY7KD4090HJYUOL","A36470UBRH28GO","3TKXBROM5TWR181JXBYSOI8FGFVJIU","","null","<img src=""img/flower1.png"" style=""width:200px; border:14px solid green;"">","null","","","","","","","","",""
"","image-keyboard-response","345","200640","0.0-345.0","3QUO65DNQVACXULAY7KD4090HJYUOL","A36470UBRH28GO","3TKXBROM5TWR181JXBYSOI8FGFVJIU","","617","img/flower4.png","75","617.7000000029802","2","1","2","2","1,0,0,1,1,0,1,0,1","1,0,0,1,1,0,1,0,1","1",""
"","html-keyboard-response","346","200942","0.0-346.0","3QUO65DNQVACXULAY7KD4090HJYUOL","A36470UBRH28GO","3TKXBROM5TWR181JXBYSOI8FGFVJIU","","null","<img src=""img/flower4.png"" style=""width:200px; border:14px solid green;"">","null","","","","","","","","",""
"","image-keyboard-response","347","201574","0.0-347.0","3QUO65DNQVACXULAY7KD4090HJYUOL","A36470UBRH28GO","3TKXBROM5TWR181JXBYSOI8FGFVJIU","","631.7999999970198","img/flower6.png","74","632.4000000059605","1","1","1","2","1,0,0,1,1,0,1,0,1","1,0,0,1,1,0,1,0,1","1",""
"","html-keyboard-response","348","201876","0.0-348.0","3QUO65DNQVACXULAY7KD4090HJYUOL","A36470UBRH28GO","3TKXBROM5TWR181JXBYSOI8FGFVJIU","","null","<img src=""img/flower6.png"" style=""width:200px; border:14px solid green;"">","null","","","","","","","","",""
"","image-keyboard-response","349","202492","0.0-349.0","3QUO65DNQVACXULAY7KD4090HJYUOL","A36470UBRH28GO","3TKXBROM5TWR181JXBYSOI8FGFVJIU","","616","img/flower1.png","75","616.5","2","0","3","2","1,0,0,1,1,0,1,0,1","1,0,0,1,1,0,1,0,1","1",""
"","html-keyboard-response","350","202794","0.0-350.0","3QUO65DNQVACXULAY7KD4090HJYUOL","A36470UBRH28GO","3TKXBROM5TWR181JXBYSOI8FGFVJIU","","null","<img src=""img/flower1.png"" style=""width:200px;border:14px solid red;"">","null","","","","","","","","",""
"","image-keyboard-response","351","203834","0.0-351.0","3QUO65DNQVACXULAY7KD4090HJYUOL","A36470UBRH28GO","3TKXBROM5TWR181JXBYSOI8FGFVJIU","","1039.5999999940395","img/flower4.png","75","1040.2999999970198","2","1","2","2","1,0,0,1,1,0,1,0,1","1,0,0,1,1,0,1,0,1","1",""
"","html-keyboard-response","352","204136","0.0-352.0","3QUO65DNQVACXULAY7KD4090HJYUOL","A36470UBRH28GO","3TKXBROM5TWR181JXBYSOI8FGFVJIU","","null","<img src=""img/flower4.png"" style=""width:200px; border:14px solid green;"">","null","","","","","","","","",""
"","image-keyboard-response","353","204865","0.0-353.0","3QUO65DNQVACXULAY7KD4090HJYUOL","A36470UBRH28GO","3TKXBROM5TWR181JXBYSOI8FGFVJIU","","728.2000000029802","img/flower1.png","76","728.9000000059605","3","1","3","2","1,0,0,1,1,0,1,0,1","1,0,0,1,1,0,1,0,1","1",""
"","html-keyboard-response","354","205166","0.0-354.0","3QUO65DNQVACXULAY7KD4090HJYUOL","A36470UBRH28GO","3TKXBROM5TWR181JXBYSOI8FGFVJIU","","null","<img src=""img/flower1.png"" style=""width:200px; border:14px solid green;"">","null","","","","","","","","",""
"","image-keyboard-response","355","205787","0.0-355.0","3QUO65DNQVACXULAY7KD4090HJYUOL","A36470UBRH28GO","3TKXBROM5TWR181JXBYSOI8FGFVJIU","","619.7000000029802","img/flower6.png","74","620.4000000059605","1","1","1","2","1,0,0,1,1,0,1,0,1","1,0,0,1,1,0,1,0,1","1",""
"","html-keyboard-response","356","206089","0.0-356.0","3QUO65DNQVACXULAY7KD4090HJYUOL","A36470UBRH28GO","3TKXBROM5TWR181JXBYSOI8FGFVJIU","","null","<img src=""img/flower6.png"" style=""width:200px; border:14px solid green;"">","null","","","","","","","","",""
"","image-keyboard-response","357","206797","0.0-357.0","3QUO65DNQVACXULAY7KD4090HJYUOL","A36470UBRH28GO","3TKXBROM5TWR181JXBYSOI8FGFVJIU","","706.9000000059605","img/flower4.png","75","707.8999999910593","2","1","2","2","1,0,0,1,1,0,1,0,1","1,0,0,1,1,0,1,0,1","1",""
"","html-keyboard-response","358","207098","0.0-358.0","3QUO65DNQVACXULAY7KD4090HJYUOL","A36470UBRH28GO","3TKXBROM5TWR181JXBYSOI8FGFVJIU","","null","<img src=""img/flower4.png"" style=""width:200px; border:14px solid green;"">","null","","","","","","","","",""
"","image-keyboard-response","359","207771","0.0-359.0","3QUO65DNQVACXULAY7KD4090HJYUOL","A36470UBRH28GO","3TKXBROM5TWR181JXBYSOI8FGFVJIU","","671.5999999940395","img/flower6.png","74","672.5","1","1","1","2","1,0,0,1,1,0,1,0,1","1,0,0,1,1,0,1,0,1","1",""
"","html-keyboard-response","360","208073","0.0-360.0","3QUO65DNQVACXULAY7KD4090HJYUOL","A36470UBRH28GO","3TKXBROM5TWR181JXBYSOI8FGFVJIU","","null","<img src=""img/flower6.png"" style=""width:200px; border:14px solid green;"">","null","","","","","","","","",""
"","image-keyboard-response","361","208485","0.0-361.0","3QUO65DNQVACXULAY7KD4090HJYUOL","A36470UBRH28GO","3TKXBROM5TWR181JXBYSOI8FGFVJIU","","411.5","img/flower6.png","74","412.1000000089407","1","1","1","2","1,0,0,1,1,0,1,0,1","1,0,0,1,1,0,1,0,1","1",""
"","html-keyboard-response","362","208786","0.0-362.0","3QUO65DNQVACXULAY7KD4090HJYUOL","A36470UBRH28GO","3TKXBROM5TWR181JXBYSOI8FGFVJIU","","null","<img src=""img/flower6.png"" style=""width:200px; border:14px solid green;"">","null","","","","","","","","",""
"","instructions","363","212422","0.0-363.0","3QUO65DNQVACXULAY7KD4090HJYUOL","A36470UBRH28GO","3TKXBROM5TWR181JXBYSOI8FGFVJIU","[{""page_index"":0,""viewing_time"":3635.1000000089407}]","3635.2999999970198","","","","","","","","","","",""
