"success","trial_type","trial_index","time_elapsed","internal_node_id","assignmentID","mturkID","hitID","view_history","rt","stimulus","key_press","reactionTime","a","r","s","cond","reward_cond","reward_cond_actual","reward_matrix_idx","responses"
"true","fullscreen","0","2244","0.0-0.0","3KJYX6QCMAXY9YJDNK2DSQUXWZDVJE","A36FBIDN58N139","3FVBZG9CLJ0K37PD5L6161S4HTM0HN","","","","","","","","","","","","",""
"","instructions","1","14281","0.0-1.0","3KJYX6QCMAXY9YJDNK2DSQUXWZDVJE","A36FBIDN58N139","3FVBZG9CLJ0K37PD5L6161S4HTM0HN","[{""page_index"":0,""viewing_time"":5871},{""page_index"":1,""viewing_time"":746.3999999761581},{""page_index"":2,""viewing_time"":496},{""page_index"":3,""viewing_time"":461.89999997615814},{""page_index"":4,""viewing_time"":1376.1000000238419},{""page_index"":5,""viewing_time"":988.3000000715256},{""page_index"":6,""viewing_time"":1234.3999999761581},{""page_index"":7,""viewing_time"":862.7999999523163}]","12037.100000023842","","","","","","","","","","",""
"","image-keyboard-response","2","15396","0.0-2.0","3KJYX6QCMAXY9YJDNK2DSQUXWZDVJE","A36FBIDN58N139","3FVBZG9CLJ0K37PD5L6161S4HTM0HN","","1113.6000000238419","img/flower2.png","74","1114.7000000476837","1","1","2","1","1,0.333,0.333,0.333,1,0.333,0.333,0.333,1","1,0.333,0.333,0.333,1,0.333,0.333,0.333,1","1",""
"","html-keyboard-response","3","15698","0.0-3.0","3KJYX6QCMAXY9YJDNK2DSQUXWZDVJE","A36FBIDN58N139","3FVBZG9CLJ0K37PD5L6161S4HTM0HN","","null","<img src=""img/flower2.png"" style=""width:200px; border:14px solid green;"">","null","","","","","","","","",""
"","image-keyboard-response","4","16885","0.0-4.0","3KJYX6QCMAXY9YJDNK2DSQUXWZDVJE","A36FBIDN58N139","3FVBZG9CLJ0K37PD5L6161S4HTM0HN","","1185.2000000476837","img/flower4.png","75","1186.4000000953674","2","0","3","1","1,0.333,0.333,0.333,1,0.333,0.333,0.333,1","1,0.333,0.333,0.333,1,0.333,0.333,0.333,1","1",""
"","html-keyboard-response","5","17187","0.0-5.0","3KJYX6QCMAXY9YJDNK2DSQUXWZDVJE","A36FBIDN58N139","3FVBZG9CLJ0K37PD5L6161S4HTM0HN","","null","<img src=""img/flower4.png"" style=""width:200px;border:14px solid red;"">","null","","","","","","","","",""
"","image-keyboard-response","6","17556","0.0-6.0","3KJYX6QCMAXY9YJDNK2DSQUXWZDVJE","A36FBIDN58N139","3FVBZG9CLJ0K37PD5L6161S4HTM0HN","","367.10000002384186","img/flower4.png","75","369","2","0","3","1","1,0.333,0.333,0.333,1,0.333,0.333,0.333,1","1,0.333,0.333,0.333,1,0.333,0.333,0.333,1","1",""
"","html-keyboard-response","7","17859","0.0-7.0","3KJYX6QCMAXY9YJDNK2DSQUXWZDVJE","A36FBIDN58N139","3FVBZG9CLJ0K37PD5L6161S4HTM0HN","","null","<img src=""img/flower4.png"" style=""width:200px;border:14px solid red;"">","null","","","","","","","","",""
"","image-keyboard-response","8","19283","0.0-8.0","3KJYX6QCMAXY9YJDNK2DSQUXWZDVJE","A36FBIDN58N139","3FVBZG9CLJ0K37PD5L6161S4HTM0HN","","1423.5","img/flower3.png","75","1424.1000000238419","2","0","1","1","1,0.333,0.333,0.333,1,0.333,0.333,0.333,1","1,0.333,0.333,0.333,1,0.333,0.333,0.333,1","1",""
"","html-keyboard-response","9","19585","0.0-9.0","3KJYX6QCMAXY9YJDNK2DSQUXWZDVJE","A36FBIDN58N139","3FVBZG9CLJ0K37PD5L6161S4HTM0HN","","null","<img src=""img/flower3.png"" style=""width:200px;border:14px solid red;"">","null","","","","","","","","",""
"","image-keyboard-response","10","19843","0.0-10.0","3KJYX6QCMAXY9YJDNK2DSQUXWZDVJE","A36FBIDN58N139","3FVBZG9CLJ0K37PD5L6161S4HTM0HN","","256.40000009536743","img/flower3.png","75","258.2000000476837","2","0","1","1","1,0.333,0.333,0.333,1,0.333,0.333,0.333,1","1,0.333,0.333,0.333,1,0.333,0.333,0.333,1","1",""
"","html-keyboard-response","11","20145","0.0-11.0","3KJYX6QCMAXY9YJDNK2DSQUXWZDVJE","A36FBIDN58N139","3FVBZG9CLJ0K37PD5L6161S4HTM0HN","","null","<img src=""img/flower3.png"" style=""width:200px;border:14px solid red;"">","null","","","","","","","","",""
"","image-keyboard-response","12","20876","0.0-12.0","3KJYX6QCMAXY9YJDNK2DSQUXWZDVJE","A36FBIDN58N139","3FVBZG9CLJ0K37PD5L6161S4HTM0HN","","730.3999999761581","img/flower3.png","76","731.2999999523163","3","0","1","1","1,0.333,0.333,0.333,1,0.333,0.333,0.333,1","1,0.333,0.333,0.333,1,0.333,0.333,0.333,1","1",""
"","html-keyboard-response","13","21179","0.0-13.0","3KJYX6QCMAXY9YJDNK2DSQUXWZDVJE","A36FBIDN58N139","3FVBZG9CLJ0K37PD5L6161S4HTM0HN","","null","<img src=""img/flower3.png"" style=""width:200px;border:14px solid red;"">","null","","","","","","","","",""
"","image-keyboard-response","14","21965","0.0-14.0","3KJYX6QCMAXY9YJDNK2DSQUXWZDVJE","A36FBIDN58N139","3FVBZG9CLJ0K37PD5L6161S4HTM0HN","","783.7000000476837","img/flower3.png","76","785.2000000476837","3","0","1","1","1,0.333,0.333,0.333,1,0.333,0.333,0.333,1","1,0.333,0.333,0.333,1,0.333,0.333,0.333,1","1",""
"","html-keyboard-response","15","22267","0.0-15.0","3KJYX6QCMAXY9YJDNK2DSQUXWZDVJE","A36FBIDN58N139","3FVBZG9CLJ0K37PD5L6161S4HTM0HN","","null","<img src=""img/flower3.png"" style=""width:200px;border:14px solid red;"">","null","","","","","","","","",""
"","image-keyboard-response","16","24268","0.0-16.0","3KJYX6QCMAXY9YJDNK2DSQUXWZDVJE","A36FBIDN58N139","3FVBZG9CLJ0K37PD5L6161S4HTM0HN","","1999.2999999523163","img/flower4.png","74","2000.7999999523163","1","0","3","1","1,0.333,0.333,0.333,1,0.333,0.333,0.333,1","1,0.333,0.333,0.333,1,0.333,0.333,0.333,1","1",""
"","html-keyboard-response","17","24571","0.0-17.0","3KJYX6QCMAXY9YJDNK2DSQUXWZDVJE","A36FBIDN58N139","3FVBZG9CLJ0K37PD5L6161S4HTM0HN","","null","<img src=""img/flower4.png"" style=""width:200px;border:14px solid red;"">","null","","","","","","","","",""
"","image-keyboard-response","18","25548","0.0-18.0","3KJYX6QCMAXY9YJDNK2DSQUXWZDVJE","A36FBIDN58N139","3FVBZG9CLJ0K37PD5L6161S4HTM0HN","","976.5999999046326","img/flower2.png","74","977.5","1","0","2","1","1,0.333,0.333,0.333,1,0.333,0.333,0.333,1","1,0.333,0.333,0.333,1,0.333,0.333,0.333,1","1",""
"","html-keyboard-response","19","25851","0.0-19.0","3KJYX6QCMAXY9YJDNK2DSQUXWZDVJE","A36FBIDN58N139","3FVBZG9CLJ0K37PD5L6161S4HTM0HN","","null","<img src=""img/flower2.png"" style=""width:200px;border:14px solid red;"">","null","","","","","","","","",""
"","image-keyboard-response","20","27403","0.0-20.0","3KJYX6QCMAXY9YJDNK2DSQUXWZDVJE","A36FBIDN58N139","3FVBZG9CLJ0K37PD5L6161S4HTM0HN","","1551.7000000476837","img/flower4.png","74","1552.5","1","0","3","1","1,0.333,0.333,0.333,1,0.333,0.333,0.333,1","1,0.333,0.333,0.333,1,0.333,0.333,0.333,1","1",""
"","html-keyboard-response","21","27706","0.0-21.0","3KJYX6QCMAXY9YJDNK2DSQUXWZDVJE","A36FBIDN58N139","3FVBZG9CLJ0K37PD5L6161S4HTM0HN","","null","<img src=""img/flower4.png"" style=""width:200px;border:14px solid red;"">","null","","","","","","","","",""
"","image-keyboard-response","22","28732","0.0-22.0","3KJYX6QCMAXY9YJDNK2DSQUXWZDVJE","A36FBIDN58N139","3FVBZG9CLJ0K37PD5L6161S4HTM0HN","","1025.3000000715256","img/flower2.png","74","1026.2999999523163","1","0","2","1","1,0.333,0.333,0.333,1,0.333,0.333,0.333,1","1,0.333,0.333,0.333,1,0.333,0.333,0.333,1","1",""
"","html-keyboard-response","23","29035","0.0-23.0","3KJYX6QCMAXY9YJDNK2DSQUXWZDVJE","A36FBIDN58N139","3FVBZG9CLJ0K37PD5L6161S4HTM0HN","","null","<img src=""img/flower2.png"" style=""width:200px;border:14px solid red;"">","null","","","","","","","","",""
"","image-keyboard-response","24","30445","0.0-24.0","3KJYX6QCMAXY9YJDNK2DSQUXWZDVJE","A36FBIDN58N139","3FVBZG9CLJ0K37PD5L6161S4HTM0HN","","1407.8000000715256","img/flower4.png","75","1409.3999999761581","2","0","3","1","1,0.333,0.333,0.333,1,0.333,0.333,0.333,1","1,0.333,0.333,0.333,1,0.333,0.333,0.333,1","1",""
"","html-keyboard-response","25","30748","0.0-25.0","3KJYX6QCMAXY9YJDNK2DSQUXWZDVJE","A36FBIDN58N139","3FVBZG9CLJ0K37PD5L6161S4HTM0HN","","null","<img src=""img/flower4.png"" style=""width:200px;border:14px solid red;"">","null","","","","","","","","",""
"","image-keyboard-response","26","31700","0.0-26.0","3KJYX6QCMAXY9YJDNK2DSQUXWZDVJE","A36FBIDN58N139","3FVBZG9CLJ0K37PD5L6161S4HTM0HN","","950.6000000238419","img/flower4.png","76","952.1000000238419","3","1","3","1","1,0.333,0.333,0.333,1,0.333,0.333,0.333,1","1,0.333,0.333,0.333,1,0.333,0.333,0.333,1","1",""
"","html-keyboard-response","27","32002","0.0-27.0","3KJYX6QCMAXY9YJDNK2DSQUXWZDVJE","A36FBIDN58N139","3FVBZG9CLJ0K37PD5L6161S4HTM0HN","","null","<img src=""img/flower4.png"" style=""width:200px; border:14px solid green;"">","null","","","","","","","","",""
"","image-keyboard-response","28","32436","0.0-28.0","3KJYX6QCMAXY9YJDNK2DSQUXWZDVJE","A36FBIDN58N139","3FVBZG9CLJ0K37PD5L6161S4HTM0HN","","432.2999999523163","img/flower4.png","76","433.7000000476837","3","1","3","1","1,0.333,0.333,0.333,1,0.333,0.333,0.333,1","1,0.333,0.333,0.333,1,0.333,0.333,0.333,1","1",""
"","html-keyboard-response","29","32739","0.0-29.0","3KJYX6QCMAXY9YJDNK2DSQUXWZDVJE","A36FBIDN58N139","3FVBZG9CLJ0K37PD5L6161S4HTM0HN","","null","<img src=""img/flower4.png"" style=""width:200px; border:14px solid green;"">","null","","","","","","","","",""
"","image-keyboard-response","30","33051","0.0-30.0","3KJYX6QCMAXY9YJDNK2DSQUXWZDVJE","A36FBIDN58N139","3FVBZG9CLJ0K37PD5L6161S4HTM0HN","","310.5","img/flower4.png","76","311.8000000715256","3","1","3","1","1,0.333,0.333,0.333,1,0.333,0.333,0.333,1","1,0.333,0.333,0.333,1,0.333,0.333,0.333,1","1",""
"","html-keyboard-response","31","33352","0.0-31.0","3KJYX6QCMAXY9YJDNK2DSQUXWZDVJE","A36FBIDN58N139","3FVBZG9CLJ0K37PD5L6161S4HTM0HN","","null","<img src=""img/flower4.png"" style=""width:200px; border:14px solid green;"">","null","","","","","","","","",""
"","image-keyboard-response","32","34380","0.0-32.0","3KJYX6QCMAXY9YJDNK2DSQUXWZDVJE","A36FBIDN58N139","3FVBZG9CLJ0K37PD5L6161S4HTM0HN","","1027.1000000238419","img/flower2.png","74","1027.9000000953674","1","0","2","1","1,0.333,0.333,0.333,1,0.333,0.333,0.333,1","1,0.333,0.333,0.333,1,0.333,0.333,0.333,1","1",""
"","html-keyboard-response","33","34683","0.0-33.0","3KJYX6QCMAXY9YJDNK2DSQUXWZDVJE","A36FBIDN58N139","3FVBZG9CLJ0K37PD5L6161S4HTM0HN","","null","<img src=""img/flower2.png"" style=""width:200px;border:14px solid red;"">","null","","","","","","","","",""
"","image-keyboard-response","34","35292","0.0-34.0","3KJYX6QCMAXY9YJDNK2DSQUXWZDVJE","A36FBIDN58N139","3FVBZG9CLJ0K37PD5L6161S4HTM0HN","","608.6999999284744","img/flower2.png","74","609.5999999046326","1","0","2","1","1,0.333,0.333,0.333,1,0.333,0.333,0.333,1","1,0.333,0.333,0.333,1,0.333,0.333,0.333,1","1",""
"","html-keyboard-response","35","35595","0.0-35.0","3KJYX6QCMAXY9YJDNK2DSQUXWZDVJE","A36FBIDN58N139","3FVBZG9CLJ0K37PD5L6161S4HTM0HN","","null","<img src=""img/flower2.png"" style=""width:200px;border:14px solid red;"">","null","","","","","","","","",""
"","image-keyboard-response","36","36131","0.0-36.0","3KJYX6QCMAXY9YJDNK2DSQUXWZDVJE","A36FBIDN58N139","3FVBZG9CLJ0K37PD5L6161S4HTM0HN","","534.7999999523163","img/flower2.png","75","535.8999999761581","2","1","2","1","1,0.333,0.333,0.333,1,0.333,0.333,0.333,1","1,0.333,0.333,0.333,1,0.333,0.333,0.333,1","1",""
"","html-keyboard-response","37","36433","0.0-37.0","3KJYX6QCMAXY9YJDNK2DSQUXWZDVJE","A36FBIDN58N139","3FVBZG9CLJ0K37PD5L6161S4HTM0HN","","null","<img src=""img/flower2.png"" style=""width:200px; border:14px solid green;"">","null","","","","","","","","",""
"","image-keyboard-response","38","36820","0.0-38.0","3KJYX6QCMAXY9YJDNK2DSQUXWZDVJE","A36FBIDN58N139","3FVBZG9CLJ0K37PD5L6161S4HTM0HN","","385.90000009536743","img/flower2.png","75","387.3000000715256","2","1","2","1","1,0.333,0.333,0.333,1,0.333,0.333,0.333,1","1,0.333,0.333,0.333,1,0.333,0.333,0.333,1","1",""
"","html-keyboard-response","39","37123","0.0-39.0","3KJYX6QCMAXY9YJDNK2DSQUXWZDVJE","A36FBIDN58N139","3FVBZG9CLJ0K37PD5L6161S4HTM0HN","","null","<img src=""img/flower2.png"" style=""width:200px; border:14px solid green;"">","null","","","","","","","","",""
"","image-keyboard-response","40","38604","0.0-40.0","3KJYX6QCMAXY9YJDNK2DSQUXWZDVJE","A36FBIDN58N139","3FVBZG9CLJ0K37PD5L6161S4HTM0HN","","1479.5999999046326","img/flower3.png","74","1481.0999999046326","1","1","1","1","1,0.333,0.333,0.333,1,0.333,0.333,0.333,1","1,0.333,0.333,0.333,1,0.333,0.333,0.333,1","1",""
"","html-keyboard-response","41","38906","0.0-41.0","3KJYX6QCMAXY9YJDNK2DSQUXWZDVJE","A36FBIDN58N139","3FVBZG9CLJ0K37PD5L6161S4HTM0HN","","null","<img src=""img/flower3.png"" style=""width:200px; border:14px solid green;"">","null","","","","","","","","",""
"","image-keyboard-response","42","39835","0.0-42.0","3KJYX6QCMAXY9YJDNK2DSQUXWZDVJE","A36FBIDN58N139","3FVBZG9CLJ0K37PD5L6161S4HTM0HN","","926.7999999523163","img/flower4.png","76","928.2999999523163","3","1","3","1","1,0.333,0.333,0.333,1,0.333,0.333,0.333,1","1,0.333,0.333,0.333,1,0.333,0.333,0.333,1","1",""
"","html-keyboard-response","43","40136","0.0-43.0","3KJYX6QCMAXY9YJDNK2DSQUXWZDVJE","A36FBIDN58N139","3FVBZG9CLJ0K37PD5L6161S4HTM0HN","","null","<img src=""img/flower4.png"" style=""width:200px; border:14px solid green;"">","null","","","","","","","","",""
"","image-keyboard-response","44","40396","0.0-44.0","3KJYX6QCMAXY9YJDNK2DSQUXWZDVJE","A36FBIDN58N139","3FVBZG9CLJ0K37PD5L6161S4HTM0HN","","259.39999997615814","img/flower4.png","76","260.10000002384186","3","1","3","1","1,0.333,0.333,0.333,1,0.333,0.333,0.333,1","1,0.333,0.333,0.333,1,0.333,0.333,0.333,1","1",""
"","html-keyboard-response","45","40698","0.0-45.0","3KJYX6QCMAXY9YJDNK2DSQUXWZDVJE","A36FBIDN58N139","3FVBZG9CLJ0K37PD5L6161S4HTM0HN","","null","<img src=""img/flower4.png"" style=""width:200px; border:14px solid green;"">","null","","","","","","","","",""
"","image-keyboard-response","46","41501","0.0-46.0","3KJYX6QCMAXY9YJDNK2DSQUXWZDVJE","A36FBIDN58N139","3FVBZG9CLJ0K37PD5L6161S4HTM0HN","","801.5","img/flower2.png","74","802.5","1","0","2","1","1,0.333,0.333,0.333,1,0.333,0.333,0.333,1","1,0.333,0.333,0.333,1,0.333,0.333,0.333,1","1",""
"","html-keyboard-response","47","41804","0.0-47.0","3KJYX6QCMAXY9YJDNK2DSQUXWZDVJE","A36FBIDN58N139","3FVBZG9CLJ0K37PD5L6161S4HTM0HN","","null","<img src=""img/flower2.png"" style=""width:200px;border:14px solid red;"">","null","","","","","","","","",""
"","image-keyboard-response","48","42148","0.0-48.0","3KJYX6QCMAXY9YJDNK2DSQUXWZDVJE","A36FBIDN58N139","3FVBZG9CLJ0K37PD5L6161S4HTM0HN","","343.2000000476837","img/flower2.png","75","344.2000000476837","2","1","2","1","1,0.333,0.333,0.333,1,0.333,0.333,0.333,1","1,0.333,0.333,0.333,1,0.333,0.333,0.333,1","1",""
"","html-keyboard-response","49","42451","0.0-49.0","3KJYX6QCMAXY9YJDNK2DSQUXWZDVJE","A36FBIDN58N139","3FVBZG9CLJ0K37PD5L6161S4HTM0HN","","null","<img src=""img/flower2.png"" style=""width:200px; border:14px solid green;"">","null","","","","","","","","",""
"","image-keyboard-response","50","43179","0.0-50.0","3KJYX6QCMAXY9YJDNK2DSQUXWZDVJE","A36FBIDN58N139","3FVBZG9CLJ0K37PD5L6161S4HTM0HN","","727.1000000238419","img/flower4.png","76","728.1999999284744","3","1","3","1","1,0.333,0.333,0.333,1,0.333,0.333,0.333,1","1,0.333,0.333,0.333,1,0.333,0.333,0.333,1","1",""
"","html-keyboard-response","51","43481","0.0-51.0","3KJYX6QCMAXY9YJDNK2DSQUXWZDVJE","A36FBIDN58N139","3FVBZG9CLJ0K37PD5L6161S4HTM0HN","","null","<img src=""img/flower4.png"" style=""width:200px; border:14px solid green;"">","null","","","","","","","","",""
"","image-keyboard-response","52","44292","0.0-52.0","3KJYX6QCMAXY9YJDNK2DSQUXWZDVJE","A36FBIDN58N139","3FVBZG9CLJ0K37PD5L6161S4HTM0HN","","810","img/flower3.png","74","811.3000000715256","1","1","1","1","1,0.333,0.333,0.333,1,0.333,0.333,0.333,1","1,0.333,0.333,0.333,1,0.333,0.333,0.333,1","1",""
"","html-keyboard-response","53","44594","0.0-53.0","3KJYX6QCMAXY9YJDNK2DSQUXWZDVJE","A36FBIDN58N139","3FVBZG9CLJ0K37PD5L6161S4HTM0HN","","null","<img src=""img/flower3.png"" style=""width:200px; border:14px solid green;"">","null","","","","","","","","",""
"","image-keyboard-response","54","45851","0.0-54.0","3KJYX6QCMAXY9YJDNK2DSQUXWZDVJE","A36FBIDN58N139","3FVBZG9CLJ0K37PD5L6161S4HTM0HN","","1254.7000000476837","img/flower2.png","76","1255.8999999761581","3","0","2","1","1,0.333,0.333,0.333,1,0.333,0.333,0.333,1","1,0.333,0.333,0.333,1,0.333,0.333,0.333,1","1",""
"","html-keyboard-response","55","46152","0.0-55.0","3KJYX6QCMAXY9YJDNK2DSQUXWZDVJE","A36FBIDN58N139","3FVBZG9CLJ0K37PD5L6161S4HTM0HN","","null","<img src=""img/flower2.png"" style=""width:200px;border:14px solid red;"">","null","","","","","","","","",""
"","image-keyboard-response","56","47300","0.0-56.0","3KJYX6QCMAXY9YJDNK2DSQUXWZDVJE","A36FBIDN58N139","3FVBZG9CLJ0K37PD5L6161S4HTM0HN","","1146.2999999523163","img/flower4.png","76","1148","3","1","3","1","1,0.333,0.333,0.333,1,0.333,0.333,0.333,1","1,0.333,0.333,0.333,1,0.333,0.333,0.333,1","1",""
"","html-keyboard-response","57","47603","0.0-57.0","3KJYX6QCMAXY9YJDNK2DSQUXWZDVJE","A36FBIDN58N139","3FVBZG9CLJ0K37PD5L6161S4HTM0HN","","null","<img src=""img/flower4.png"" style=""width:200px; border:14px solid green;"">","null","","","","","","","","",""
"","image-keyboard-response","58","48556","0.0-58.0","3KJYX6QCMAXY9YJDNK2DSQUXWZDVJE","A36FBIDN58N139","3FVBZG9CLJ0K37PD5L6161S4HTM0HN","","952.3999999761581","img/flower3.png","74","953.3999999761581","1","1","1","1","1,0.333,0.333,0.333,1,0.333,0.333,0.333,1","1,0.333,0.333,0.333,1,0.333,0.333,0.333,1","1",""
"","html-keyboard-response","59","48859","0.0-59.0","3KJYX6QCMAXY9YJDNK2DSQUXWZDVJE","A36FBIDN58N139","3FVBZG9CLJ0K37PD5L6161S4HTM0HN","","null","<img src=""img/flower3.png"" style=""width:200px; border:14px solid green;"">","null","","","","","","","","",""
"","image-keyboard-response","60","49988","0.0-60.0","3KJYX6QCMAXY9YJDNK2DSQUXWZDVJE","A36FBIDN58N139","3FVBZG9CLJ0K37PD5L6161S4HTM0HN","","1127.8999999761581","img/flower4.png","75","1129.3999999761581","2","1","3","1","1,0.333,0.333,0.333,1,0.333,0.333,0.333,1","1,0.333,0.333,0.333,1,0.333,0.333,0.333,1","1",""
"","html-keyboard-response","61","50290","0.0-61.0","3KJYX6QCMAXY9YJDNK2DSQUXWZDVJE","A36FBIDN58N139","3FVBZG9CLJ0K37PD5L6161S4HTM0HN","","null","<img src=""img/flower4.png"" style=""width:200px; border:14px solid green;"">","null","","","","","","","","",""
"","image-keyboard-response","62","52100","0.0-62.0","3KJYX6QCMAXY9YJDNK2DSQUXWZDVJE","A36FBIDN58N139","3FVBZG9CLJ0K37PD5L6161S4HTM0HN","","1808","img/flower2.png","74","1809.1999999284744","1","0","2","1","1,0.333,0.333,0.333,1,0.333,0.333,0.333,1","1,0.333,0.333,0.333,1,0.333,0.333,0.333,1","1",""
"","html-keyboard-response","63","52402","0.0-63.0","3KJYX6QCMAXY9YJDNK2DSQUXWZDVJE","A36FBIDN58N139","3FVBZG9CLJ0K37PD5L6161S4HTM0HN","","null","<img src=""img/flower2.png"" style=""width:200px;border:14px solid red;"">","null","","","","","","","","",""
"","image-keyboard-response","64","53452","0.0-64.0","3KJYX6QCMAXY9YJDNK2DSQUXWZDVJE","A36FBIDN58N139","3FVBZG9CLJ0K37PD5L6161S4HTM0HN","","1048.4000000953674","img/flower3.png","74","1050.1999999284744","1","1","1","1","1,0.333,0.333,0.333,1,0.333,0.333,0.333,1","1,0.333,0.333,0.333,1,0.333,0.333,0.333,1","1",""
"","html-keyboard-response","65","53755","0.0-65.0","3KJYX6QCMAXY9YJDNK2DSQUXWZDVJE","A36FBIDN58N139","3FVBZG9CLJ0K37PD5L6161S4HTM0HN","","null","<img src=""img/flower3.png"" style=""width:200px; border:14px solid green;"">","null","","","","","","","","",""
"","image-keyboard-response","66","54420","0.0-66.0","3KJYX6QCMAXY9YJDNK2DSQUXWZDVJE","A36FBIDN58N139","3FVBZG9CLJ0K37PD5L6161S4HTM0HN","","664","img/flower2.png","76","665.4000000953674","3","0","2","1","1,0.333,0.333,0.333,1,0.333,0.333,0.333,1","1,0.333,0.333,0.333,1,0.333,0.333,0.333,1","1",""
"","html-keyboard-response","67","54723","0.0-67.0","3KJYX6QCMAXY9YJDNK2DSQUXWZDVJE","A36FBIDN58N139","3FVBZG9CLJ0K37PD5L6161S4HTM0HN","","null","<img src=""img/flower2.png"" style=""width:200px;border:14px solid red;"">","null","","","","","","","","",""
"","image-keyboard-response","68","55100","0.0-68.0","3KJYX6QCMAXY9YJDNK2DSQUXWZDVJE","A36FBIDN58N139","3FVBZG9CLJ0K37PD5L6161S4HTM0HN","","376","img/flower2.png","76","377.39999997615814","3","0","2","1","1,0.333,0.333,0.333,1,0.333,0.333,0.333,1","1,0.333,0.333,0.333,1,0.333,0.333,0.333,1","1",""
"","html-keyboard-response","69","55402","0.0-69.0","3KJYX6QCMAXY9YJDNK2DSQUXWZDVJE","A36FBIDN58N139","3FVBZG9CLJ0K37PD5L6161S4HTM0HN","","null","<img src=""img/flower2.png"" style=""width:200px;border:14px solid red;"">","null","","","","","","","","",""
"","image-keyboard-response","70","56268","0.0-70.0","3KJYX6QCMAXY9YJDNK2DSQUXWZDVJE","A36FBIDN58N139","3FVBZG9CLJ0K37PD5L6161S4HTM0HN","","865","img/flower3.png","74","865.7000000476837","1","1","1","1","1,0.333,0.333,0.333,1,0.333,0.333,0.333,1","1,0.333,0.333,0.333,1,0.333,0.333,0.333,1","1",""
"","html-keyboard-response","71","56570","0.0-71.0","3KJYX6QCMAXY9YJDNK2DSQUXWZDVJE","A36FBIDN58N139","3FVBZG9CLJ0K37PD5L6161S4HTM0HN","","null","<img src=""img/flower3.png"" style=""width:200px; border:14px solid green;"">","null","","","","","","","","",""
"","image-keyboard-response","72","56844","0.0-72.0","3KJYX6QCMAXY9YJDNK2DSQUXWZDVJE","A36FBIDN58N139","3FVBZG9CLJ0K37PD5L6161S4HTM0HN","","273.1999999284744","img/flower3.png","74","273.90000009536743","1","1","1","1","1,0.333,0.333,0.333,1,0.333,0.333,0.333,1","1,0.333,0.333,0.333,1,0.333,0.333,0.333,1","1",""
"","html-keyboard-response","73","57151","0.0-73.0","3KJYX6QCMAXY9YJDNK2DSQUXWZDVJE","A36FBIDN58N139","3FVBZG9CLJ0K37PD5L6161S4HTM0HN","","null","<img src=""img/flower3.png"" style=""width:200px; border:14px solid green;"">","null","","","","","","","","",""
"","image-keyboard-response","74","57843","0.0-74.0","3KJYX6QCMAXY9YJDNK2DSQUXWZDVJE","A36FBIDN58N139","3FVBZG9CLJ0K37PD5L6161S4HTM0HN","","691.2999999523163","img/flower4.png","75","691.7999999523163","2","0","3","1","1,0.333,0.333,0.333,1,0.333,0.333,0.333,1","1,0.333,0.333,0.333,1,0.333,0.333,0.333,1","1",""
"","html-keyboard-response","75","58145","0.0-75.0","3KJYX6QCMAXY9YJDNK2DSQUXWZDVJE","A36FBIDN58N139","3FVBZG9CLJ0K37PD5L6161S4HTM0HN","","null","<img src=""img/flower4.png"" style=""width:200px;border:14px solid red;"">","null","","","","","","","","",""
"","image-keyboard-response","76","58958","0.0-76.0","3KJYX6QCMAXY9YJDNK2DSQUXWZDVJE","A36FBIDN58N139","3FVBZG9CLJ0K37PD5L6161S4HTM0HN","","811.7999999523163","img/flower3.png","74","813.0999999046326","1","1","1","1","1,0.333,0.333,0.333,1,0.333,0.333,0.333,1","1,0.333,0.333,0.333,1,0.333,0.333,0.333,1","1",""
"","html-keyboard-response","77","59259","0.0-77.0","3KJYX6QCMAXY9YJDNK2DSQUXWZDVJE","A36FBIDN58N139","3FVBZG9CLJ0K37PD5L6161S4HTM0HN","","null","<img src=""img/flower3.png"" style=""width:200px; border:14px solid green;"">","null","","","","","","","","",""
"","image-keyboard-response","78","59547","0.0-78.0","3KJYX6QCMAXY9YJDNK2DSQUXWZDVJE","A36FBIDN58N139","3FVBZG9CLJ0K37PD5L6161S4HTM0HN","","286.2000000476837","img/flower3.png","74","287.39999997615814","1","1","1","1","1,0.333,0.333,0.333,1,0.333,0.333,0.333,1","1,0.333,0.333,0.333,1,0.333,0.333,0.333,1","1",""
"","html-keyboard-response","79","59849","0.0-79.0","3KJYX6QCMAXY9YJDNK2DSQUXWZDVJE","A36FBIDN58N139","3FVBZG9CLJ0K37PD5L6161S4HTM0HN","","null","<img src=""img/flower3.png"" style=""width:200px; border:14px solid green;"">","null","","","","","","","","",""
"","image-keyboard-response","80","60955","0.0-80.0","3KJYX6QCMAXY9YJDNK2DSQUXWZDVJE","A36FBIDN58N139","3FVBZG9CLJ0K37PD5L6161S4HTM0HN","","1106","img/flower2.png","75","1106.6000000238419","2","1","2","1","1,0.333,0.333,0.333,1,0.333,0.333,0.333,1","1,0.333,0.333,0.333,1,0.333,0.333,0.333,1","1",""
"","html-keyboard-response","81","61257","0.0-81.0","3KJYX6QCMAXY9YJDNK2DSQUXWZDVJE","A36FBIDN58N139","3FVBZG9CLJ0K37PD5L6161S4HTM0HN","","null","<img src=""img/flower2.png"" style=""width:200px; border:14px solid green;"">","null","","","","","","","","",""
"","image-keyboard-response","82","61524","0.0-82.0","3KJYX6QCMAXY9YJDNK2DSQUXWZDVJE","A36FBIDN58N139","3FVBZG9CLJ0K37PD5L6161S4HTM0HN","","265.39999997615814","img/flower2.png","75","266.8000000715256","2","1","2","1","1,0.333,0.333,0.333,1,0.333,0.333,0.333,1","1,0.333,0.333,0.333,1,0.333,0.333,0.333,1","1",""
"","html-keyboard-response","83","61827","0.0-83.0","3KJYX6QCMAXY9YJDNK2DSQUXWZDVJE","A36FBIDN58N139","3FVBZG9CLJ0K37PD5L6161S4HTM0HN","","null","<img src=""img/flower2.png"" style=""width:200px; border:14px solid green;"">","null","","","","","","","","",""
"","image-keyboard-response","84","62659","0.0-84.0","3KJYX6QCMAXY9YJDNK2DSQUXWZDVJE","A36FBIDN58N139","3FVBZG9CLJ0K37PD5L6161S4HTM0HN","","831.3999999761581","img/flower4.png","76","831.8999999761581","3","1","3","1","1,0.333,0.333,0.333,1,0.333,0.333,0.333,1","1,0.333,0.333,0.333,1,0.333,0.333,0.333,1","1",""
"","html-keyboard-response","85","62960","0.0-85.0","3KJYX6QCMAXY9YJDNK2DSQUXWZDVJE","A36FBIDN58N139","3FVBZG9CLJ0K37PD5L6161S4HTM0HN","","null","<img src=""img/flower4.png"" style=""width:200px; border:14px solid green;"">","null","","","","","","","","",""
"","image-keyboard-response","86","63781","0.0-86.0","3KJYX6QCMAXY9YJDNK2DSQUXWZDVJE","A36FBIDN58N139","3FVBZG9CLJ0K37PD5L6161S4HTM0HN","","819.8000000715256","img/flower2.png","75","820.7000000476837","2","1","2","1","1,0.333,0.333,0.333,1,0.333,0.333,0.333,1","1,0.333,0.333,0.333,1,0.333,0.333,0.333,1","1",""
"","html-keyboard-response","87","64083","0.0-87.0","3KJYX6QCMAXY9YJDNK2DSQUXWZDVJE","A36FBIDN58N139","3FVBZG9CLJ0K37PD5L6161S4HTM0HN","","null","<img src=""img/flower2.png"" style=""width:200px; border:14px solid green;"">","null","","","","","","","","",""
"","image-keyboard-response","88","64828","0.0-88.0","3KJYX6QCMAXY9YJDNK2DSQUXWZDVJE","A36FBIDN58N139","3FVBZG9CLJ0K37PD5L6161S4HTM0HN","","743.5999999046326","img/flower3.png","74","745.1000000238419","1","1","1","1","1,0.333,0.333,0.333,1,0.333,0.333,0.333,1","1,0.333,0.333,0.333,1,0.333,0.333,0.333,1","1",""
"","html-keyboard-response","89","65130","0.0-89.0","3KJYX6QCMAXY9YJDNK2DSQUXWZDVJE","A36FBIDN58N139","3FVBZG9CLJ0K37PD5L6161S4HTM0HN","","null","<img src=""img/flower3.png"" style=""width:200px; border:14px solid green;"">","null","","","","","","","","",""
"","image-keyboard-response","90","66028","0.0-90.0","3KJYX6QCMAXY9YJDNK2DSQUXWZDVJE","A36FBIDN58N139","3FVBZG9CLJ0K37PD5L6161S4HTM0HN","","897.5","img/flower4.png","76","898.2999999523163","3","1","3","1","1,0.333,0.333,0.333,1,0.333,0.333,0.333,1","1,0.333,0.333,0.333,1,0.333,0.333,0.333,1","1",""
"","html-keyboard-response","91","66330","0.0-91.0","3KJYX6QCMAXY9YJDNK2DSQUXWZDVJE","A36FBIDN58N139","3FVBZG9CLJ0K37PD5L6161S4HTM0HN","","null","<img src=""img/flower4.png"" style=""width:200px; border:14px solid green;"">","null","","","","","","","","",""
"","image-keyboard-response","92","66548","0.0-92.0","3KJYX6QCMAXY9YJDNK2DSQUXWZDVJE","A36FBIDN58N139","3FVBZG9CLJ0K37PD5L6161S4HTM0HN","","216.30000007152557","img/flower4.png","76","217.80000007152557","3","1","3","1","1,0.333,0.333,0.333,1,0.333,0.333,0.333,1","1,0.333,0.333,0.333,1,0.333,0.333,0.333,1","1",""
"","html-keyboard-response","93","66850","0.0-93.0","3KJYX6QCMAXY9YJDNK2DSQUXWZDVJE","A36FBIDN58N139","3FVBZG9CLJ0K37PD5L6161S4HTM0HN","","null","<img src=""img/flower4.png"" style=""width:200px; border:14px solid green;"">","null","","","","","","","","",""
"","image-keyboard-response","94","67092","0.0-94.0","3KJYX6QCMAXY9YJDNK2DSQUXWZDVJE","A36FBIDN58N139","3FVBZG9CLJ0K37PD5L6161S4HTM0HN","","241.39999997615814","img/flower4.png","76","242.09999990463257","3","1","3","1","1,0.333,0.333,0.333,1,0.333,0.333,0.333,1","1,0.333,0.333,0.333,1,0.333,0.333,0.333,1","1",""
"","html-keyboard-response","95","67395","0.0-95.0","3KJYX6QCMAXY9YJDNK2DSQUXWZDVJE","A36FBIDN58N139","3FVBZG9CLJ0K37PD5L6161S4HTM0HN","","null","<img src=""img/flower4.png"" style=""width:200px; border:14px solid green;"">","null","","","","","","","","",""
"","image-keyboard-response","96","68204","0.0-96.0","3KJYX6QCMAXY9YJDNK2DSQUXWZDVJE","A36FBIDN58N139","3FVBZG9CLJ0K37PD5L6161S4HTM0HN","","808.5","img/flower2.png","75","809.3999999761581","2","1","2","1","1,0.333,0.333,0.333,1,0.333,0.333,0.333,1","1,0.333,0.333,0.333,1,0.333,0.333,0.333,1","1",""
"","html-keyboard-response","97","68506","0.0-97.0","3KJYX6QCMAXY9YJDNK2DSQUXWZDVJE","A36FBIDN58N139","3FVBZG9CLJ0K37PD5L6161S4HTM0HN","","null","<img src=""img/flower2.png"" style=""width:200px; border:14px solid green;"">","null","","","","","","","","",""
"","image-keyboard-response","98","69100","0.0-98.0","3KJYX6QCMAXY9YJDNK2DSQUXWZDVJE","A36FBIDN58N139","3FVBZG9CLJ0K37PD5L6161S4HTM0HN","","591.8999999761581","img/flower3.png","74","593.3999999761581","1","1","1","1","1,0.333,0.333,0.333,1,0.333,0.333,0.333,1","1,0.333,0.333,0.333,1,0.333,0.333,0.333,1","1",""
"","html-keyboard-response","99","69402","0.0-99.0","3KJYX6QCMAXY9YJDNK2DSQUXWZDVJE","A36FBIDN58N139","3FVBZG9CLJ0K37PD5L6161S4HTM0HN","","null","<img src=""img/flower3.png"" style=""width:200px; border:14px solid green;"">","null","","","","","","","","",""
"","image-keyboard-response","100","69947","0.0-100.0","3KJYX6QCMAXY9YJDNK2DSQUXWZDVJE","A36FBIDN58N139","3FVBZG9CLJ0K37PD5L6161S4HTM0HN","","543.5","img/flower2.png","75","544.7000000476837","2","1","2","1","1,0.333,0.333,0.333,1,0.333,0.333,0.333,1","1,0.333,0.333,0.333,1,0.333,0.333,0.333,1","1",""
"","html-keyboard-response","101","70249","0.0-101.0","3KJYX6QCMAXY9YJDNK2DSQUXWZDVJE","A36FBIDN58N139","3FVBZG9CLJ0K37PD5L6161S4HTM0HN","","null","<img src=""img/flower2.png"" style=""width:200px; border:14px solid green;"">","null","","","","","","","","",""
"","image-keyboard-response","102","70508","0.0-102.0","3KJYX6QCMAXY9YJDNK2DSQUXWZDVJE","A36FBIDN58N139","3FVBZG9CLJ0K37PD5L6161S4HTM0HN","","257.40000009536743","img/flower2.png","75","258.90000009536743","2","1","2","1","1,0.333,0.333,0.333,1,0.333,0.333,0.333,1","1,0.333,0.333,0.333,1,0.333,0.333,0.333,1","1",""
"","html-keyboard-response","103","70811","0.0-103.0","3KJYX6QCMAXY9YJDNK2DSQUXWZDVJE","A36FBIDN58N139","3FVBZG9CLJ0K37PD5L6161S4HTM0HN","","null","<img src=""img/flower2.png"" style=""width:200px; border:14px solid green;"">","null","","","","","","","","",""
"","image-keyboard-response","104","71054","0.0-104.0","3KJYX6QCMAXY9YJDNK2DSQUXWZDVJE","A36FBIDN58N139","3FVBZG9CLJ0K37PD5L6161S4HTM0HN","","242.09999990463257","img/flower2.png","75","243.29999995231628","2","1","2","1","1,0.333,0.333,0.333,1,0.333,0.333,0.333,1","1,0.333,0.333,0.333,1,0.333,0.333,0.333,1","1",""
"","html-keyboard-response","105","71355","0.0-105.0","3KJYX6QCMAXY9YJDNK2DSQUXWZDVJE","A36FBIDN58N139","3FVBZG9CLJ0K37PD5L6161S4HTM0HN","","null","<img src=""img/flower2.png"" style=""width:200px; border:14px solid green;"">","null","","","","","","","","",""
"","image-keyboard-response","106","71964","0.0-106.0","3KJYX6QCMAXY9YJDNK2DSQUXWZDVJE","A36FBIDN58N139","3FVBZG9CLJ0K37PD5L6161S4HTM0HN","","608.6999999284744","img/flower3.png","74","609.6999999284744","1","1","1","1","1,0.333,0.333,0.333,1,0.333,0.333,0.333,1","1,0.333,0.333,0.333,1,0.333,0.333,0.333,1","1",""
"","html-keyboard-response","107","72267","0.0-107.0","3KJYX6QCMAXY9YJDNK2DSQUXWZDVJE","A36FBIDN58N139","3FVBZG9CLJ0K37PD5L6161S4HTM0HN","","null","<img src=""img/flower3.png"" style=""width:200px; border:14px solid green;"">","null","","","","","","","","",""
"","image-keyboard-response","108","72925","0.0-108.0","3KJYX6QCMAXY9YJDNK2DSQUXWZDVJE","A36FBIDN58N139","3FVBZG9CLJ0K37PD5L6161S4HTM0HN","","656.2000000476837","img/flower2.png","75","657.8000000715256","2","1","2","1","1,0.333,0.333,0.333,1,0.333,0.333,0.333,1","1,0.333,0.333,0.333,1,0.333,0.333,0.333,1","1",""
"","html-keyboard-response","109","73227","0.0-109.0","3KJYX6QCMAXY9YJDNK2DSQUXWZDVJE","A36FBIDN58N139","3FVBZG9CLJ0K37PD5L6161S4HTM0HN","","null","<img src=""img/flower2.png"" style=""width:200px; border:14px solid green;"">","null","","","","","","","","",""
"","image-keyboard-response","110","73764","0.0-110.0","3KJYX6QCMAXY9YJDNK2DSQUXWZDVJE","A36FBIDN58N139","3FVBZG9CLJ0K37PD5L6161S4HTM0HN","","536.4000000953674","img/flower3.png","74","537.2000000476837","1","1","1","1","1,0.333,0.333,0.333,1,0.333,0.333,0.333,1","1,0.333,0.333,0.333,1,0.333,0.333,0.333,1","1",""
"","html-keyboard-response","111","74067","0.0-111.0","3KJYX6QCMAXY9YJDNK2DSQUXWZDVJE","A36FBIDN58N139","3FVBZG9CLJ0K37PD5L6161S4HTM0HN","","null","<img src=""img/flower3.png"" style=""width:200px; border:14px solid green;"">","null","","","","","","","","",""
"","image-keyboard-response","112","74516","0.0-112.0","3KJYX6QCMAXY9YJDNK2DSQUXWZDVJE","A36FBIDN58N139","3FVBZG9CLJ0K37PD5L6161S4HTM0HN","","448.09999990463257","img/flower2.png","75","449.5","2","1","2","1","1,0.333,0.333,0.333,1,0.333,0.333,0.333,1","1,0.333,0.333,0.333,1,0.333,0.333,0.333,1","1",""
"","html-keyboard-response","113","74819","0.0-113.0","3KJYX6QCMAXY9YJDNK2DSQUXWZDVJE","A36FBIDN58N139","3FVBZG9CLJ0K37PD5L6161S4HTM0HN","","null","<img src=""img/flower2.png"" style=""width:200px; border:14px solid green;"">","null","","","","","","","","",""
"","image-keyboard-response","114","75468","0.0-114.0","3KJYX6QCMAXY9YJDNK2DSQUXWZDVJE","A36FBIDN58N139","3FVBZG9CLJ0K37PD5L6161S4HTM0HN","","645","img/flower4.png","76","646.2999999523163","3","1","3","1","1,0.333,0.333,0.333,1,0.333,0.333,0.333,1","1,0.333,0.333,0.333,1,0.333,0.333,0.333,1","1",""
"","html-keyboard-response","115","75770","0.0-115.0","3KJYX6QCMAXY9YJDNK2DSQUXWZDVJE","A36FBIDN58N139","3FVBZG9CLJ0K37PD5L6161S4HTM0HN","","null","<img src=""img/flower4.png"" style=""width:200px; border:14px solid green;"">","null","","","","","","","","",""
"","image-keyboard-response","116","76068","0.0-116.0","3KJYX6QCMAXY9YJDNK2DSQUXWZDVJE","A36FBIDN58N139","3FVBZG9CLJ0K37PD5L6161S4HTM0HN","","296.5","img/flower4.png","76","298.10000002384186","3","1","3","1","1,0.333,0.333,0.333,1,0.333,0.333,0.333,1","1,0.333,0.333,0.333,1,0.333,0.333,0.333,1","1",""
"","html-keyboard-response","117","76371","0.0-117.0","3KJYX6QCMAXY9YJDNK2DSQUXWZDVJE","A36FBIDN58N139","3FVBZG9CLJ0K37PD5L6161S4HTM0HN","","null","<img src=""img/flower4.png"" style=""width:200px; border:14px solid green;"">","null","","","","","","","","",""
"","image-keyboard-response","118","76899","0.0-118.0","3KJYX6QCMAXY9YJDNK2DSQUXWZDVJE","A36FBIDN58N139","3FVBZG9CLJ0K37PD5L6161S4HTM0HN","","526.3999999761581","img/flower2.png","75","527.6000000238419","2","1","2","1","1,0.333,0.333,0.333,1,0.333,0.333,0.333,1","1,0.333,0.333,0.333,1,0.333,0.333,0.333,1","1",""
"","html-keyboard-response","119","77200","0.0-119.0","3KJYX6QCMAXY9YJDNK2DSQUXWZDVJE","A36FBIDN58N139","3FVBZG9CLJ0K37PD5L6161S4HTM0HN","","null","<img src=""img/flower2.png"" style=""width:200px; border:14px solid green;"">","null","","","","","","","","",""
"","image-keyboard-response","120","77467","0.0-120.0","3KJYX6QCMAXY9YJDNK2DSQUXWZDVJE","A36FBIDN58N139","3FVBZG9CLJ0K37PD5L6161S4HTM0HN","","266.09999990463257","img/flower2.png","75","266.60000002384186","2","1","2","1","1,0.333,0.333,0.333,1,0.333,0.333,0.333,1","1,0.333,0.333,0.333,1,0.333,0.333,0.333,1","1",""
"","html-keyboard-response","121","77768","0.0-121.0","3KJYX6QCMAXY9YJDNK2DSQUXWZDVJE","A36FBIDN58N139","3FVBZG9CLJ0K37PD5L6161S4HTM0HN","","null","<img src=""img/flower2.png"" style=""width:200px; border:14px solid green;"">","null","","","","","","","","",""
"","image-keyboard-response","122","78373","0.0-122.0","3KJYX6QCMAXY9YJDNK2DSQUXWZDVJE","A36FBIDN58N139","3FVBZG9CLJ0K37PD5L6161S4HTM0HN","","603.2999999523163","img/flower3.png","74","604.6000000238419","1","1","1","1","1,0.333,0.333,0.333,1,0.333,0.333,0.333,1","1,0.333,0.333,0.333,1,0.333,0.333,0.333,1","1",""
"","html-keyboard-response","123","78676","0.0-123.0","3KJYX6QCMAXY9YJDNK2DSQUXWZDVJE","A36FBIDN58N139","3FVBZG9CLJ0K37PD5L6161S4HTM0HN","","null","<img src=""img/flower3.png"" style=""width:200px; border:14px solid green;"">","null","","","","","","","","",""
"","image-keyboard-response","124","78891","0.0-124.0","3KJYX6QCMAXY9YJDNK2DSQUXWZDVJE","A36FBIDN58N139","3FVBZG9CLJ0K37PD5L6161S4HTM0HN","","214.70000004768372","img/flower3.png","74","215.19999992847443","1","1","1","1","1,0.333,0.333,0.333,1,0.333,0.333,0.333,1","1,0.333,0.333,0.333,1,0.333,0.333,0.333,1","1",""
"","html-keyboard-response","125","79192","0.0-125.0","3KJYX6QCMAXY9YJDNK2DSQUXWZDVJE","A36FBIDN58N139","3FVBZG9CLJ0K37PD5L6161S4HTM0HN","","null","<img src=""img/flower3.png"" style=""width:200px; border:14px solid green;"">","null","","","","","","","","",""
"","image-keyboard-response","126","79803","0.0-126.0","3KJYX6QCMAXY9YJDNK2DSQUXWZDVJE","A36FBIDN58N139","3FVBZG9CLJ0K37PD5L6161S4HTM0HN","","609.6000000238419","img/flower2.png","75","610.8999999761581","2","1","2","1","1,0.333,0.333,0.333,1,0.333,0.333,0.333,1","1,0.333,0.333,0.333,1,0.333,0.333,0.333,1","1",""
"","html-keyboard-response","127","80104","0.0-127.0","3KJYX6QCMAXY9YJDNK2DSQUXWZDVJE","A36FBIDN58N139","3FVBZG9CLJ0K37PD5L6161S4HTM0HN","","null","<img src=""img/flower2.png"" style=""width:200px; border:14px solid green;"">","null","","","","","","","","",""
"","image-keyboard-response","128","80332","0.0-128.0","3KJYX6QCMAXY9YJDNK2DSQUXWZDVJE","A36FBIDN58N139","3FVBZG9CLJ0K37PD5L6161S4HTM0HN","","226.30000007152557","img/flower2.png","75","227.70000004768372","2","1","2","1","1,0.333,0.333,0.333,1,0.333,0.333,0.333,1","1,0.333,0.333,0.333,1,0.333,0.333,0.333,1","1",""
"","html-keyboard-response","129","80637","0.0-129.0","3KJYX6QCMAXY9YJDNK2DSQUXWZDVJE","A36FBIDN58N139","3FVBZG9CLJ0K37PD5L6161S4HTM0HN","","null","<img src=""img/flower2.png"" style=""width:200px; border:14px solid green;"">","null","","","","","","","","",""
"","image-keyboard-response","130","81355","0.0-130.0","3KJYX6QCMAXY9YJDNK2DSQUXWZDVJE","A36FBIDN58N139","3FVBZG9CLJ0K37PD5L6161S4HTM0HN","","716.8999999761581","img/flower4.png","76","718.0999999046326","3","1","3","1","1,0.333,0.333,0.333,1,0.333,0.333,0.333,1","1,0.333,0.333,0.333,1,0.333,0.333,0.333,1","1",""
"","html-keyboard-response","131","81657","0.0-131.0","3KJYX6QCMAXY9YJDNK2DSQUXWZDVJE","A36FBIDN58N139","3FVBZG9CLJ0K37PD5L6161S4HTM0HN","","null","<img src=""img/flower4.png"" style=""width:200px; border:14px solid green;"">","null","","","","","","","","",""
"","image-keyboard-response","132","82292","0.0-132.0","3KJYX6QCMAXY9YJDNK2DSQUXWZDVJE","A36FBIDN58N139","3FVBZG9CLJ0K37PD5L6161S4HTM0HN","","633.3999999761581","img/flower3.png","74","635","1","1","1","1","1,0.333,0.333,0.333,1,0.333,0.333,0.333,1","1,0.333,0.333,0.333,1,0.333,0.333,0.333,1","1",""
"","html-keyboard-response","133","82594","0.0-133.0","3KJYX6QCMAXY9YJDNK2DSQUXWZDVJE","A36FBIDN58N139","3FVBZG9CLJ0K37PD5L6161S4HTM0HN","","null","<img src=""img/flower3.png"" style=""width:200px; border:14px solid green;"">","null","","","","","","","","",""
"","image-keyboard-response","134","83180","0.0-134.0","3KJYX6QCMAXY9YJDNK2DSQUXWZDVJE","A36FBIDN58N139","3FVBZG9CLJ0K37PD5L6161S4HTM0HN","","584.3000000715256","img/flower2.png","75","585.7000000476837","2","1","2","1","1,0.333,0.333,0.333,1,0.333,0.333,0.333,1","1,0.333,0.333,0.333,1,0.333,0.333,0.333,1","1",""
"","html-keyboard-response","135","83482","0.0-135.0","3KJYX6QCMAXY9YJDNK2DSQUXWZDVJE","A36FBIDN58N139","3FVBZG9CLJ0K37PD5L6161S4HTM0HN","","null","<img src=""img/flower2.png"" style=""width:200px; border:14px solid green;"">","null","","","","","","","","",""
"","image-keyboard-response","136","84004","0.0-136.0","3KJYX6QCMAXY9YJDNK2DSQUXWZDVJE","A36FBIDN58N139","3FVBZG9CLJ0K37PD5L6161S4HTM0HN","","521.0999999046326","img/flower3.png","74","522","1","1","1","1","1,0.333,0.333,0.333,1,0.333,0.333,0.333,1","1,0.333,0.333,0.333,1,0.333,0.333,0.333,1","1",""
"","html-keyboard-response","137","84307","0.0-137.0","3KJYX6QCMAXY9YJDNK2DSQUXWZDVJE","A36FBIDN58N139","3FVBZG9CLJ0K37PD5L6161S4HTM0HN","","null","<img src=""img/flower3.png"" style=""width:200px; border:14px solid green;"">","null","","","","","","","","",""
"","image-keyboard-response","138","84643","0.0-138.0","3KJYX6QCMAXY9YJDNK2DSQUXWZDVJE","A36FBIDN58N139","3FVBZG9CLJ0K37PD5L6161S4HTM0HN","","335.09999990463257","img/flower3.png","74","336.39999997615814","1","1","1","1","1,0.333,0.333,0.333,1,0.333,0.333,0.333,1","1,0.333,0.333,0.333,1,0.333,0.333,0.333,1","1",""
"","html-keyboard-response","139","84945","0.0-139.0","3KJYX6QCMAXY9YJDNK2DSQUXWZDVJE","A36FBIDN58N139","3FVBZG9CLJ0K37PD5L6161S4HTM0HN","","null","<img src=""img/flower3.png"" style=""width:200px; border:14px solid green;"">","null","","","","","","","","",""
"","image-keyboard-response","140","85212","0.0-140.0","3KJYX6QCMAXY9YJDNK2DSQUXWZDVJE","A36FBIDN58N139","3FVBZG9CLJ0K37PD5L6161S4HTM0HN","","265.8000000715256","img/flower3.png","74","267.5","1","1","1","1","1,0.333,0.333,0.333,1,0.333,0.333,0.333,1","1,0.333,0.333,0.333,1,0.333,0.333,0.333,1","1",""
"","html-keyboard-response","141","85516","0.0-141.0","3KJYX6QCMAXY9YJDNK2DSQUXWZDVJE","A36FBIDN58N139","3FVBZG9CLJ0K37PD5L6161S4HTM0HN","","null","<img src=""img/flower3.png"" style=""width:200px; border:14px solid green;"">","null","","","","","","","","",""
"","image-keyboard-response","142","86196","0.0-142.0","3KJYX6QCMAXY9YJDNK2DSQUXWZDVJE","A36FBIDN58N139","3FVBZG9CLJ0K37PD5L6161S4HTM0HN","","678.8000000715256","img/flower4.png","76","680.3000000715256","3","1","3","1","1,0.333,0.333,0.333,1,0.333,0.333,0.333,1","1,0.333,0.333,0.333,1,0.333,0.333,0.333,1","1",""
"","html-keyboard-response","143","86499","0.0-143.0","3KJYX6QCMAXY9YJDNK2DSQUXWZDVJE","A36FBIDN58N139","3FVBZG9CLJ0K37PD5L6161S4HTM0HN","","null","<img src=""img/flower4.png"" style=""width:200px; border:14px solid green;"">","null","","","","","","","","",""
"","image-keyboard-response","144","86699","0.0-144.0","3KJYX6QCMAXY9YJDNK2DSQUXWZDVJE","A36FBIDN58N139","3FVBZG9CLJ0K37PD5L6161S4HTM0HN","","198.10000002384186","img/flower4.png","76","199.20000004768372","3","1","3","1","1,0.333,0.333,0.333,1,0.333,0.333,0.333,1","1,0.333,0.333,0.333,1,0.333,0.333,0.333,1","1",""
"","html-keyboard-response","145","87001","0.0-145.0","3KJYX6QCMAXY9YJDNK2DSQUXWZDVJE","A36FBIDN58N139","3FVBZG9CLJ0K37PD5L6161S4HTM0HN","","null","<img src=""img/flower4.png"" style=""width:200px; border:14px solid green;"">","null","","","","","","","","",""
"","image-keyboard-response","146","87676","0.0-146.0","3KJYX6QCMAXY9YJDNK2DSQUXWZDVJE","A36FBIDN58N139","3FVBZG9CLJ0K37PD5L6161S4HTM0HN","","674.7999999523163","img/flower3.png","74","675.7999999523163","1","1","1","1","1,0.333,0.333,0.333,1,0.333,0.333,0.333,1","1,0.333,0.333,0.333,1,0.333,0.333,0.333,1","1",""
"","html-keyboard-response","147","87979","0.0-147.0","3KJYX6QCMAXY9YJDNK2DSQUXWZDVJE","A36FBIDN58N139","3FVBZG9CLJ0K37PD5L6161S4HTM0HN","","null","<img src=""img/flower3.png"" style=""width:200px; border:14px solid green;"">","null","","","","","","","","",""
"","image-keyboard-response","148","88764","0.0-148.0","3KJYX6QCMAXY9YJDNK2DSQUXWZDVJE","A36FBIDN58N139","3FVBZG9CLJ0K37PD5L6161S4HTM0HN","","783.3999999761581","img/flower4.png","76","784.7999999523163","3","1","3","1","1,0.333,0.333,0.333,1,0.333,0.333,0.333,1","1,0.333,0.333,0.333,1,0.333,0.333,0.333,1","1",""
"","html-keyboard-response","149","89066","0.0-149.0","3KJYX6QCMAXY9YJDNK2DSQUXWZDVJE","A36FBIDN58N139","3FVBZG9CLJ0K37PD5L6161S4HTM0HN","","null","<img src=""img/flower4.png"" style=""width:200px; border:14px solid green;"">","null","","","","","","","","",""
"","image-keyboard-response","150","89307","0.0-150.0","3KJYX6QCMAXY9YJDNK2DSQUXWZDVJE","A36FBIDN58N139","3FVBZG9CLJ0K37PD5L6161S4HTM0HN","","239.80000007152557","img/flower4.png","76","241","3","1","3","1","1,0.333,0.333,0.333,1,0.333,0.333,0.333,1","1,0.333,0.333,0.333,1,0.333,0.333,0.333,1","1",""
"","html-keyboard-response","151","89608","0.0-151.0","3KJYX6QCMAXY9YJDNK2DSQUXWZDVJE","A36FBIDN58N139","3FVBZG9CLJ0K37PD5L6161S4HTM0HN","","null","<img src=""img/flower4.png"" style=""width:200px; border:14px solid green;"">","null","","","","","","","","",""
"","image-keyboard-response","152","90123","0.0-152.0","3KJYX6QCMAXY9YJDNK2DSQUXWZDVJE","A36FBIDN58N139","3FVBZG9CLJ0K37PD5L6161S4HTM0HN","","513.2999999523163","img/flower2.png","75","514.6000000238419","2","1","2","1","1,0.333,0.333,0.333,1,0.333,0.333,0.333,1","1,0.333,0.333,0.333,1,0.333,0.333,0.333,1","1",""
"","html-keyboard-response","153","90426","0.0-153.0","3KJYX6QCMAXY9YJDNK2DSQUXWZDVJE","A36FBIDN58N139","3FVBZG9CLJ0K37PD5L6161S4HTM0HN","","null","<img src=""img/flower2.png"" style=""width:200px; border:14px solid green;"">","null","","","","","","","","",""
"","image-keyboard-response","154","90979","0.0-154.0","3KJYX6QCMAXY9YJDNK2DSQUXWZDVJE","A36FBIDN58N139","3FVBZG9CLJ0K37PD5L6161S4HTM0HN","","552","img/flower3.png","74","553.2000000476837","1","1","1","1","1,0.333,0.333,0.333,1,0.333,0.333,0.333,1","1,0.333,0.333,0.333,1,0.333,0.333,0.333,1","1",""
"","html-keyboard-response","155","91280","0.0-155.0","3KJYX6QCMAXY9YJDNK2DSQUXWZDVJE","A36FBIDN58N139","3FVBZG9CLJ0K37PD5L6161S4HTM0HN","","null","<img src=""img/flower3.png"" style=""width:200px; border:14px solid green;"">","null","","","","","","","","",""
"","image-keyboard-response","156","91956","0.0-156.0","3KJYX6QCMAXY9YJDNK2DSQUXWZDVJE","A36FBIDN58N139","3FVBZG9CLJ0K37PD5L6161S4HTM0HN","","675.1999999284744","img/flower4.png","76","676","3","1","3","1","1,0.333,0.333,0.333,1,0.333,0.333,0.333,1","1,0.333,0.333,0.333,1,0.333,0.333,0.333,1","1",""
"","html-keyboard-response","157","92259","0.0-157.0","3KJYX6QCMAXY9YJDNK2DSQUXWZDVJE","A36FBIDN58N139","3FVBZG9CLJ0K37PD5L6161S4HTM0HN","","null","<img src=""img/flower4.png"" style=""width:200px; border:14px solid green;"">","null","","","","","","","","",""
"","image-keyboard-response","158","92860","0.0-158.0","3KJYX6QCMAXY9YJDNK2DSQUXWZDVJE","A36FBIDN58N139","3FVBZG9CLJ0K37PD5L6161S4HTM0HN","","599.1000000238419","img/flower3.png","74","600.6000000238419","1","1","1","1","1,0.333,0.333,0.333,1,0.333,0.333,0.333,1","1,0.333,0.333,0.333,1,0.333,0.333,0.333,1","1",""
"","html-keyboard-response","159","93162","0.0-159.0","3KJYX6QCMAXY9YJDNK2DSQUXWZDVJE","A36FBIDN58N139","3FVBZG9CLJ0K37PD5L6161S4HTM0HN","","null","<img src=""img/flower3.png"" style=""width:200px; border:14px solid green;"">","null","","","","","","","","",""
"","image-keyboard-response","160","93445","0.0-160.0","3KJYX6QCMAXY9YJDNK2DSQUXWZDVJE","A36FBIDN58N139","3FVBZG9CLJ0K37PD5L6161S4HTM0HN","","281.60000002384186","img/flower3.png","74","282.2999999523163","1","1","1","1","1,0.333,0.333,0.333,1,0.333,0.333,0.333,1","1,0.333,0.333,0.333,1,0.333,0.333,0.333,1","1",""
"","html-keyboard-response","161","93747","0.0-161.0","3KJYX6QCMAXY9YJDNK2DSQUXWZDVJE","A36FBIDN58N139","3FVBZG9CLJ0K37PD5L6161S4HTM0HN","","null","<img src=""img/flower3.png"" style=""width:200px; border:14px solid green;"">","null","","","","","","","","",""
"","image-keyboard-response","162","94012","0.0-162.0","3KJYX6QCMAXY9YJDNK2DSQUXWZDVJE","A36FBIDN58N139","3FVBZG9CLJ0K37PD5L6161S4HTM0HN","","263.3000000715256","img/flower3.png","74","264.7000000476837","1","1","1","1","1,0.333,0.333,0.333,1,0.333,0.333,0.333,1","1,0.333,0.333,0.333,1,0.333,0.333,0.333,1","1",""
"","html-keyboard-response","163","94315","0.0-163.0","3KJYX6QCMAXY9YJDNK2DSQUXWZDVJE","A36FBIDN58N139","3FVBZG9CLJ0K37PD5L6161S4HTM0HN","","null","<img src=""img/flower3.png"" style=""width:200px; border:14px solid green;"">","null","","","","","","","","",""
"","image-keyboard-response","164","95035","0.0-164.0","3KJYX6QCMAXY9YJDNK2DSQUXWZDVJE","A36FBIDN58N139","3FVBZG9CLJ0K37PD5L6161S4HTM0HN","","719","img/flower4.png","76","720.0999999046326","3","1","3","1","1,0.333,0.333,0.333,1,0.333,0.333,0.333,1","1,0.333,0.333,0.333,1,0.333,0.333,0.333,1","1",""
"","html-keyboard-response","165","95336","0.0-165.0","3KJYX6QCMAXY9YJDNK2DSQUXWZDVJE","A36FBIDN58N139","3FVBZG9CLJ0K37PD5L6161S4HTM0HN","","null","<img src=""img/flower4.png"" style=""width:200px; border:14px solid green;"">","null","","","","","","","","",""
"","image-keyboard-response","166","95812","0.0-166.0","3KJYX6QCMAXY9YJDNK2DSQUXWZDVJE","A36FBIDN58N139","3FVBZG9CLJ0K37PD5L6161S4HTM0HN","","473.5","img/flower3.png","74","474.7999999523163","1","1","1","1","1,0.333,0.333,0.333,1,0.333,0.333,0.333,1","1,0.333,0.333,0.333,1,0.333,0.333,0.333,1","1",""
"","html-keyboard-response","167","96113","0.0-167.0","3KJYX6QCMAXY9YJDNK2DSQUXWZDVJE","A36FBIDN58N139","3FVBZG9CLJ0K37PD5L6161S4HTM0HN","","null","<img src=""img/flower3.png"" style=""width:200px; border:14px solid green;"">","null","","","","","","","","",""
"","image-keyboard-response","168","96732","0.0-168.0","3KJYX6QCMAXY9YJDNK2DSQUXWZDVJE","A36FBIDN58N139","3FVBZG9CLJ0K37PD5L6161S4HTM0HN","","617.4000000953674","img/flower2.png","75","618.8999999761581","2","1","2","1","1,0.333,0.333,0.333,1,0.333,0.333,0.333,1","1,0.333,0.333,0.333,1,0.333,0.333,0.333,1","1",""
"","html-keyboard-response","169","97035","0.0-169.0","3KJYX6QCMAXY9YJDNK2DSQUXWZDVJE","A36FBIDN58N139","3FVBZG9CLJ0K37PD5L6161S4HTM0HN","","null","<img src=""img/flower2.png"" style=""width:200px; border:14px solid green;"">","null","","","","","","","","",""
"","image-keyboard-response","170","97308","0.0-170.0","3KJYX6QCMAXY9YJDNK2DSQUXWZDVJE","A36FBIDN58N139","3FVBZG9CLJ0K37PD5L6161S4HTM0HN","","271.39999997615814","img/flower2.png","75","272.8000000715256","2","1","2","1","1,0.333,0.333,0.333,1,0.333,0.333,0.333,1","1,0.333,0.333,0.333,1,0.333,0.333,0.333,1","1",""
"","html-keyboard-response","171","97610","0.0-171.0","3KJYX6QCMAXY9YJDNK2DSQUXWZDVJE","A36FBIDN58N139","3FVBZG9CLJ0K37PD5L6161S4HTM0HN","","null","<img src=""img/flower2.png"" style=""width:200px; border:14px solid green;"">","null","","","","","","","","",""
"","image-keyboard-response","172","98252","0.0-172.0","3KJYX6QCMAXY9YJDNK2DSQUXWZDVJE","A36FBIDN58N139","3FVBZG9CLJ0K37PD5L6161S4HTM0HN","","640.3000000715256","img/flower4.png","76","641.7000000476837","3","1","3","1","1,0.333,0.333,0.333,1,0.333,0.333,0.333,1","1,0.333,0.333,0.333,1,0.333,0.333,0.333,1","1",""
"","html-keyboard-response","173","98555","0.0-173.0","3KJYX6QCMAXY9YJDNK2DSQUXWZDVJE","A36FBIDN58N139","3FVBZG9CLJ0K37PD5L6161S4HTM0HN","","null","<img src=""img/flower4.png"" style=""width:200px; border:14px solid green;"">","null","","","","","","","","",""
"","image-keyboard-response","174","98812","0.0-174.0","3KJYX6QCMAXY9YJDNK2DSQUXWZDVJE","A36FBIDN58N139","3FVBZG9CLJ0K37PD5L6161S4HTM0HN","","255.89999997615814","img/flower4.png","76","257.40000009536743","3","1","3","1","1,0.333,0.333,0.333,1,0.333,0.333,0.333,1","1,0.333,0.333,0.333,1,0.333,0.333,0.333,1","1",""
"","html-keyboard-response","175","99115","0.0-175.0","3KJYX6QCMAXY9YJDNK2DSQUXWZDVJE","A36FBIDN58N139","3FVBZG9CLJ0K37PD5L6161S4HTM0HN","","null","<img src=""img/flower4.png"" style=""width:200px; border:14px solid green;"">","null","","","","","","","","",""
"","image-keyboard-response","176","99340","0.0-176.0","3KJYX6QCMAXY9YJDNK2DSQUXWZDVJE","A36FBIDN58N139","3FVBZG9CLJ0K37PD5L6161S4HTM0HN","","224.5","img/flower4.png","76","225.20000004768372","3","1","3","1","1,0.333,0.333,0.333,1,0.333,0.333,0.333,1","1,0.333,0.333,0.333,1,0.333,0.333,0.333,1","1",""
"","html-keyboard-response","177","99642","0.0-177.0","3KJYX6QCMAXY9YJDNK2DSQUXWZDVJE","A36FBIDN58N139","3FVBZG9CLJ0K37PD5L6161S4HTM0HN","","null","<img src=""img/flower4.png"" style=""width:200px; border:14px solid green;"">","null","","","","","","","","",""
"","image-keyboard-response","178","100156","0.0-178.0","3KJYX6QCMAXY9YJDNK2DSQUXWZDVJE","A36FBIDN58N139","3FVBZG9CLJ0K37PD5L6161S4HTM0HN","","511.60000002384186","img/flower3.png","74","512.7999999523163","1","1","1","1","1,0.333,0.333,0.333,1,0.333,0.333,0.333,1","1,0.333,0.333,0.333,1,0.333,0.333,0.333,1","1",""
"","html-keyboard-response","179","100458","0.0-179.0","3KJYX6QCMAXY9YJDNK2DSQUXWZDVJE","A36FBIDN58N139","3FVBZG9CLJ0K37PD5L6161S4HTM0HN","","null","<img src=""img/flower3.png"" style=""width:200px; border:14px solid green;"">","null","","","","","","","","",""
"","image-keyboard-response","180","100716","0.0-180.0","3KJYX6QCMAXY9YJDNK2DSQUXWZDVJE","A36FBIDN58N139","3FVBZG9CLJ0K37PD5L6161S4HTM0HN","","256.60000002384186","img/flower3.png","74","258","1","1","1","1","1,0.333,0.333,0.333,1,0.333,0.333,0.333,1","1,0.333,0.333,0.333,1,0.333,0.333,0.333,1","1",""
"","html-keyboard-response","181","101019","0.0-181.0","3KJYX6QCMAXY9YJDNK2DSQUXWZDVJE","A36FBIDN58N139","3FVBZG9CLJ0K37PD5L6161S4HTM0HN","","null","<img src=""img/flower3.png"" style=""width:200px; border:14px solid green;"">","null","","","","","","","","",""
"","html-keyboard-response","182","103400","0.0-182.0","3KJYX6QCMAXY9YJDNK2DSQUXWZDVJE","A36FBIDN58N139","3FVBZG9CLJ0K37PD5L6161S4HTM0HN","","","","","","","","","","","","",""
"","image-keyboard-response","183","104437","0.0-183.0","3KJYX6QCMAXY9YJDNK2DSQUXWZDVJE","A36FBIDN58N139","3FVBZG9CLJ0K37PD5L6161S4HTM0HN","","1036.1000000238419","img/flower1.png","74","1037.1000000238419","1","1","1","2","1,0,0,1,1,0,1,0,1","1,0,0,1,1,0,1,0,1","1",""
"","html-keyboard-response","184","104739","0.0-184.0","3KJYX6QCMAXY9YJDNK2DSQUXWZDVJE","A36FBIDN58N139","3FVBZG9CLJ0K37PD5L6161S4HTM0HN","","null","<img src=""img/flower1.png"" style=""width:200px; border:14px solid green;"">","null","","","","","","","","",""
"","image-keyboard-response","185","105677","0.0-185.0","3KJYX6QCMAXY9YJDNK2DSQUXWZDVJE","A36FBIDN58N139","3FVBZG9CLJ0K37PD5L6161S4HTM0HN","","936.2999999523163","img/flower6.png","74","937.3999999761581","1","1","3","2","1,0,0,1,1,0,1,0,1","1,0,0,1,1,0,1,0,1","1",""
"","html-keyboard-response","186","105979","0.0-186.0","3KJYX6QCMAXY9YJDNK2DSQUXWZDVJE","A36FBIDN58N139","3FVBZG9CLJ0K37PD5L6161S4HTM0HN","","null","<img src=""img/flower6.png"" style=""width:200px; border:14px solid green;"">","null","","","","","","","","",""
"","image-keyboard-response","187","106683","0.0-187.0","3KJYX6QCMAXY9YJDNK2DSQUXWZDVJE","A36FBIDN58N139","3FVBZG9CLJ0K37PD5L6161S4HTM0HN","","702.6999999284744","img/flower5.png","74","703.8999999761581","1","1","2","2","1,0,0,1,1,0,1,0,1","1,0,0,1,1,0,1,0,1","1",""
"","html-keyboard-response","188","106992","0.0-188.0","3KJYX6QCMAXY9YJDNK2DSQUXWZDVJE","A36FBIDN58N139","3FVBZG9CLJ0K37PD5L6161S4HTM0HN","","null","<img src=""img/flower5.png"" style=""width:200px; border:14px solid green;"">","null","","","","","","","","",""
"","image-keyboard-response","189","107475","0.0-189.0","3KJYX6QCMAXY9YJDNK2DSQUXWZDVJE","A36FBIDN58N139","3FVBZG9CLJ0K37PD5L6161S4HTM0HN","","482.89999997615814","img/flower6.png","74","483.60000002384186","1","1","3","2","1,0,0,1,1,0,1,0,1","1,0,0,1,1,0,1,0,1","1",""
"","html-keyboard-response","190","107777","0.0-190.0","3KJYX6QCMAXY9YJDNK2DSQUXWZDVJE","A36FBIDN58N139","3FVBZG9CLJ0K37PD5L6161S4HTM0HN","","null","<img src=""img/flower6.png"" style=""width:200px; border:14px solid green;"">","null","","","","","","","","",""
"","image-keyboard-response","191","108180","0.0-191.0","3KJYX6QCMAXY9YJDNK2DSQUXWZDVJE","A36FBIDN58N139","3FVBZG9CLJ0K37PD5L6161S4HTM0HN","","401.89999997615814","img/flower5.png","74","403.5","1","1","2","2","1,0,0,1,1,0,1,0,1","1,0,0,1,1,0,1,0,1","1",""
"","html-keyboard-response","192","108483","0.0-192.0","3KJYX6QCMAXY9YJDNK2DSQUXWZDVJE","A36FBIDN58N139","3FVBZG9CLJ0K37PD5L6161S4HTM0HN","","null","<img src=""img/flower5.png"" style=""width:200px; border:14px solid green;"">","null","","","","","","","","",""
"","image-keyboard-response","193","108836","0.0-193.0","3KJYX6QCMAXY9YJDNK2DSQUXWZDVJE","A36FBIDN58N139","3FVBZG9CLJ0K37PD5L6161S4HTM0HN","","351.2000000476837","img/flower5.png","74","353","1","1","2","2","1,0,0,1,1,0,1,0,1","1,0,0,1,1,0,1,0,1","1",""
"","html-keyboard-response","194","109139","0.0-194.0","3KJYX6QCMAXY9YJDNK2DSQUXWZDVJE","A36FBIDN58N139","3FVBZG9CLJ0K37PD5L6161S4HTM0HN","","null","<img src=""img/flower5.png"" style=""width:200px; border:14px solid green;"">","null","","","","","","","","",""
"","image-keyboard-response","195","109492","0.0-195.0","3KJYX6QCMAXY9YJDNK2DSQUXWZDVJE","A36FBIDN58N139","3FVBZG9CLJ0K37PD5L6161S4HTM0HN","","352.10000002384186","img/flower6.png","74","352.8000000715256","1","1","3","2","1,0,0,1,1,0,1,0,1","1,0,0,1,1,0,1,0,1","1",""
"","html-keyboard-response","196","109796","0.0-196.0","3KJYX6QCMAXY9YJDNK2DSQUXWZDVJE","A36FBIDN58N139","3FVBZG9CLJ0K37PD5L6161S4HTM0HN","","null","<img src=""img/flower6.png"" style=""width:200px; border:14px solid green;"">","null","","","","","","","","",""
"","image-keyboard-response","197","110131","0.0-197.0","3KJYX6QCMAXY9YJDNK2DSQUXWZDVJE","A36FBIDN58N139","3FVBZG9CLJ0K37PD5L6161S4HTM0HN","","334.10000002384186","img/flower5.png","74","335.40000009536743","1","1","2","2","1,0,0,1,1,0,1,0,1","1,0,0,1,1,0,1,0,1","1",""
"","html-keyboard-response","198","110433","0.0-198.0","3KJYX6QCMAXY9YJDNK2DSQUXWZDVJE","A36FBIDN58N139","3FVBZG9CLJ0K37PD5L6161S4HTM0HN","","null","<img src=""img/flower5.png"" style=""width:200px; border:14px solid green;"">","null","","","","","","","","",""
"","image-keyboard-response","199","110708","0.0-199.0","3KJYX6QCMAXY9YJDNK2DSQUXWZDVJE","A36FBIDN58N139","3FVBZG9CLJ0K37PD5L6161S4HTM0HN","","273.2000000476837","img/flower5.png","74","274.7000000476837","1","1","2","2","1,0,0,1,1,0,1,0,1","1,0,0,1,1,0,1,0,1","1",""
"","html-keyboard-response","200","111009","0.0-200.0","3KJYX6QCMAXY9YJDNK2DSQUXWZDVJE","A36FBIDN58N139","3FVBZG9CLJ0K37PD5L6161S4HTM0HN","","null","<img src=""img/flower5.png"" style=""width:200px; border:14px solid green;"">","null","","","","","","","","",""
"","image-keyboard-response","201","111387","0.0-201.0","3KJYX6QCMAXY9YJDNK2DSQUXWZDVJE","A36FBIDN58N139","3FVBZG9CLJ0K37PD5L6161S4HTM0HN","","375.7999999523163","img/flower6.png","74","377.7000000476837","1","1","3","2","1,0,0,1,1,0,1,0,1","1,0,0,1,1,0,1,0,1","1",""
"","html-keyboard-response","202","111689","0.0-202.0","3KJYX6QCMAXY9YJDNK2DSQUXWZDVJE","A36FBIDN58N139","3FVBZG9CLJ0K37PD5L6161S4HTM0HN","","null","<img src=""img/flower6.png"" style=""width:200px; border:14px solid green;"">","null","","","","","","","","",""
"","image-keyboard-response","203","112028","0.0-203.0","3KJYX6QCMAXY9YJDNK2DSQUXWZDVJE","A36FBIDN58N139","3FVBZG9CLJ0K37PD5L6161S4HTM0HN","","337.60000002384186","img/flower5.png","74","339.2999999523163","1","1","2","2","1,0,0,1,1,0,1,0,1","1,0,0,1,1,0,1,0,1","1",""
"","html-keyboard-response","204","112331","0.0-204.0","3KJYX6QCMAXY9YJDNK2DSQUXWZDVJE","A36FBIDN58N139","3FVBZG9CLJ0K37PD5L6161S4HTM0HN","","null","<img src=""img/flower5.png"" style=""width:200px; border:14px solid green;"">","null","","","","","","","","",""
"","image-keyboard-response","205","112629","0.0-205.0","3KJYX6QCMAXY9YJDNK2DSQUXWZDVJE","A36FBIDN58N139","3FVBZG9CLJ0K37PD5L6161S4HTM0HN","","297","img/flower6.png","74","297.8000000715256","1","1","3","2","1,0,0,1,1,0,1,0,1","1,0,0,1,1,0,1,0,1","1",""
"","html-keyboard-response","206","112931","0.0-206.0","3KJYX6QCMAXY9YJDNK2DSQUXWZDVJE","A36FBIDN58N139","3FVBZG9CLJ0K37PD5L6161S4HTM0HN","","null","<img src=""img/flower6.png"" style=""width:200px; border:14px solid green;"">","null","","","","","","","","",""
"","image-keyboard-response","207","113188","0.0-207.0","3KJYX6QCMAXY9YJDNK2DSQUXWZDVJE","A36FBIDN58N139","3FVBZG9CLJ0K37PD5L6161S4HTM0HN","","255.10000002384186","img/flower5.png","74","256.60000002384186","1","1","2","2","1,0,0,1,1,0,1,0,1","1,0,0,1,1,0,1,0,1","1",""
"","html-keyboard-response","208","113491","0.0-208.0","3KJYX6QCMAXY9YJDNK2DSQUXWZDVJE","A36FBIDN58N139","3FVBZG9CLJ0K37PD5L6161S4HTM0HN","","null","<img src=""img/flower5.png"" style=""width:200px; border:14px solid green;"">","null","","","","","","","","",""
"","image-keyboard-response","209","113748","0.0-209.0","3KJYX6QCMAXY9YJDNK2DSQUXWZDVJE","A36FBIDN58N139","3FVBZG9CLJ0K37PD5L6161S4HTM0HN","","255.39999997615814","img/flower5.png","74","256.7999999523163","1","1","2","2","1,0,0,1,1,0,1,0,1","1,0,0,1,1,0,1,0,1","1",""
"","html-keyboard-response","210","114051","0.0-210.0","3KJYX6QCMAXY9YJDNK2DSQUXWZDVJE","A36FBIDN58N139","3FVBZG9CLJ0K37PD5L6161S4HTM0HN","","null","<img src=""img/flower5.png"" style=""width:200px; border:14px solid green;"">","null","","","","","","","","",""
"","image-keyboard-response","211","114309","0.0-211.0","3KJYX6QCMAXY9YJDNK2DSQUXWZDVJE","A36FBIDN58N139","3FVBZG9CLJ0K37PD5L6161S4HTM0HN","","255.70000004768372","img/flower6.png","74","257.2000000476837","1","1","3","2","1,0,0,1,1,0,1,0,1","1,0,0,1,1,0,1,0,1","1",""
"","html-keyboard-response","212","114611","0.0-212.0","3KJYX6QCMAXY9YJDNK2DSQUXWZDVJE","A36FBIDN58N139","3FVBZG9CLJ0K37PD5L6161S4HTM0HN","","null","<img src=""img/flower6.png"" style=""width:200px; border:14px solid green;"">","null","","","","","","","","",""
"","image-keyboard-response","213","114885","0.0-213.0","3KJYX6QCMAXY9YJDNK2DSQUXWZDVJE","A36FBIDN58N139","3FVBZG9CLJ0K37PD5L6161S4HTM0HN","","272.09999990463257","img/flower5.png","74","273.39999997615814","1","1","2","2","1,0,0,1,1,0,1,0,1","1,0,0,1,1,0,1,0,1","1",""
"","html-keyboard-response","214","115187","0.0-214.0","3KJYX6QCMAXY9YJDNK2DSQUXWZDVJE","A36FBIDN58N139","3FVBZG9CLJ0K37PD5L6161S4HTM0HN","","null","<img src=""img/flower5.png"" style=""width:200px; border:14px solid green;"">","null","","","","","","","","",""
"","image-keyboard-response","215","115420","0.0-215.0","3KJYX6QCMAXY9YJDNK2DSQUXWZDVJE","A36FBIDN58N139","3FVBZG9CLJ0K37PD5L6161S4HTM0HN","","232.09999990463257","img/flower5.png","74","232.70000004768372","1","1","2","2","1,0,0,1,1,0,1,0,1","1,0,0,1,1,0,1,0,1","1",""
"","html-keyboard-response","216","115723","0.0-216.0","3KJYX6QCMAXY9YJDNK2DSQUXWZDVJE","A36FBIDN58N139","3FVBZG9CLJ0K37PD5L6161S4HTM0HN","","null","<img src=""img/flower5.png"" style=""width:200px; border:14px solid green;"">","null","","","","","","","","",""
"","image-keyboard-response","217","115956","0.0-217.0","3KJYX6QCMAXY9YJDNK2DSQUXWZDVJE","A36FBIDN58N139","3FVBZG9CLJ0K37PD5L6161S4HTM0HN","","231.5","img/flower6.png","74","232.79999995231628","1","1","3","2","1,0,0,1,1,0,1,0,1","1,0,0,1,1,0,1,0,1","1",""
"","html-keyboard-response","218","116259","0.0-218.0","3KJYX6QCMAXY9YJDNK2DSQUXWZDVJE","A36FBIDN58N139","3FVBZG9CLJ0K37PD5L6161S4HTM0HN","","null","<img src=""img/flower6.png"" style=""width:200px; border:14px solid green;"">","null","","","","","","","","",""
"","image-keyboard-response","219","116468","0.0-219.0","3KJYX6QCMAXY9YJDNK2DSQUXWZDVJE","A36FBIDN58N139","3FVBZG9CLJ0K37PD5L6161S4HTM0HN","","207.80000007152557","img/flower6.png","74","209.39999997615814","1","1","3","2","1,0,0,1,1,0,1,0,1","1,0,0,1,1,0,1,0,1","1",""
"","html-keyboard-response","220","116771","0.0-220.0","3KJYX6QCMAXY9YJDNK2DSQUXWZDVJE","A36FBIDN58N139","3FVBZG9CLJ0K37PD5L6161S4HTM0HN","","null","<img src=""img/flower6.png"" style=""width:200px; border:14px solid green;"">","null","","","","","","","","",""
"","image-keyboard-response","221","116948","0.0-221.0","3KJYX6QCMAXY9YJDNK2DSQUXWZDVJE","A36FBIDN58N139","3FVBZG9CLJ0K37PD5L6161S4HTM0HN","","175.80000007152557","img/flower5.png","74","177.20000004768372","1","1","2","2","1,0,0,1,1,0,1,0,1","1,0,0,1,1,0,1,0,1","1",""
"","html-keyboard-response","222","117250","0.0-222.0","3KJYX6QCMAXY9YJDNK2DSQUXWZDVJE","A36FBIDN58N139","3FVBZG9CLJ0K37PD5L6161S4HTM0HN","","null","<img src=""img/flower5.png"" style=""width:200px; border:14px solid green;"">","null","","","","","","","","",""
"","image-keyboard-response","223","117443","0.0-223.0","3KJYX6QCMAXY9YJDNK2DSQUXWZDVJE","A36FBIDN58N139","3FVBZG9CLJ0K37PD5L6161S4HTM0HN","","191.79999995231628","img/flower5.png","74","192.89999997615814","1","1","2","2","1,0,0,1,1,0,1,0,1","1,0,0,1,1,0,1,0,1","1",""
"","html-keyboard-response","224","117745","0.0-224.0","3KJYX6QCMAXY9YJDNK2DSQUXWZDVJE","A36FBIDN58N139","3FVBZG9CLJ0K37PD5L6161S4HTM0HN","","null","<img src=""img/flower5.png"" style=""width:200px; border:14px solid green;"">","null","","","","","","","","",""
"","image-keyboard-response","225","117915","0.0-225.0","3KJYX6QCMAXY9YJDNK2DSQUXWZDVJE","A36FBIDN58N139","3FVBZG9CLJ0K37PD5L6161S4HTM0HN","","168.59999990463257","img/flower5.png","74","170.10000002384186","1","1","2","2","1,0,0,1,1,0,1,0,1","1,0,0,1,1,0,1,0,1","1",""
"","html-keyboard-response","226","118216","0.0-226.0","3KJYX6QCMAXY9YJDNK2DSQUXWZDVJE","A36FBIDN58N139","3FVBZG9CLJ0K37PD5L6161S4HTM0HN","","null","<img src=""img/flower5.png"" style=""width:200px; border:14px solid green;"">","null","","","","","","","","",""
"","image-keyboard-response","227","118388","0.0-227.0","3KJYX6QCMAXY9YJDNK2DSQUXWZDVJE","A36FBIDN58N139","3FVBZG9CLJ0K37PD5L6161S4HTM0HN","","170.39999997615814","img/flower5.png","74","171.69999992847443","1","1","2","2","1,0,0,1,1,0,1,0,1","1,0,0,1,1,0,1,0,1","1",""
"","html-keyboard-response","228","118691","0.0-228.0","3KJYX6QCMAXY9YJDNK2DSQUXWZDVJE","A36FBIDN58N139","3FVBZG9CLJ0K37PD5L6161S4HTM0HN","","null","<img src=""img/flower5.png"" style=""width:200px; border:14px solid green;"">","null","","","","","","","","",""
"","image-keyboard-response","229","118892","0.0-229.0","3KJYX6QCMAXY9YJDNK2DSQUXWZDVJE","A36FBIDN58N139","3FVBZG9CLJ0K37PD5L6161S4HTM0HN","","200.20000004768372","img/flower5.png","74","201.10000002384186","1","1","2","2","1,0,0,1,1,0,1,0,1","1,0,0,1,1,0,1,0,1","1",""
"","html-keyboard-response","230","119195","0.0-230.0","3KJYX6QCMAXY9YJDNK2DSQUXWZDVJE","A36FBIDN58N139","3FVBZG9CLJ0K37PD5L6161S4HTM0HN","","null","<img src=""img/flower5.png"" style=""width:200px; border:14px solid green;"">","null","","","","","","","","",""
"","image-keyboard-response","231","119395","0.0-231.0","3KJYX6QCMAXY9YJDNK2DSQUXWZDVJE","A36FBIDN58N139","3FVBZG9CLJ0K37PD5L6161S4HTM0HN","","198.29999995231628","img/flower1.png","74","200.79999995231628","1","1","1","2","1,0,0,1,1,0,1,0,1","1,0,0,1,1,0,1,0,1","1",""
"","html-keyboard-response","232","119699","0.0-232.0","3KJYX6QCMAXY9YJDNK2DSQUXWZDVJE","A36FBIDN58N139","3FVBZG9CLJ0K37PD5L6161S4HTM0HN","","null","<img src=""img/flower1.png"" style=""width:200px; border:14px solid green;"">","null","","","","","","","","",""
"","image-keyboard-response","233","119884","0.0-233.0","3KJYX6QCMAXY9YJDNK2DSQUXWZDVJE","A36FBIDN58N139","3FVBZG9CLJ0K37PD5L6161S4HTM0HN","","183.60000002384186","img/flower1.png","74","185.20000004768372","1","1","1","2","1,0,0,1,1,0,1,0,1","1,0,0,1,1,0,1,0,1","1",""
"","html-keyboard-response","234","120187","0.0-234.0","3KJYX6QCMAXY9YJDNK2DSQUXWZDVJE","A36FBIDN58N139","3FVBZG9CLJ0K37PD5L6161S4HTM0HN","","null","<img src=""img/flower1.png"" style=""width:200px; border:14px solid green;"">","null","","","","","","","","",""
"","image-keyboard-response","235","120364","0.0-235.0","3KJYX6QCMAXY9YJDNK2DSQUXWZDVJE","A36FBIDN58N139","3FVBZG9CLJ0K37PD5L6161S4HTM0HN","","176.69999992847443","img/flower1.png","74","177.39999997615814","1","1","1","2","1,0,0,1,1,0,1,0,1","1,0,0,1,1,0,1,0,1","1",""
"","html-keyboard-response","236","120666","0.0-236.0","3KJYX6QCMAXY9YJDNK2DSQUXWZDVJE","A36FBIDN58N139","3FVBZG9CLJ0K37PD5L6161S4HTM0HN","","null","<img src=""img/flower1.png"" style=""width:200px; border:14px solid green;"">","null","","","","","","","","",""
"","image-keyboard-response","237","120844","0.0-237.0","3KJYX6QCMAXY9YJDNK2DSQUXWZDVJE","A36FBIDN58N139","3FVBZG9CLJ0K37PD5L6161S4HTM0HN","","177.10000002384186","img/flower1.png","74","177.90000009536743","1","1","1","2","1,0,0,1,1,0,1,0,1","1,0,0,1,1,0,1,0,1","1",""
"","html-keyboard-response","238","121149","0.0-238.0","3KJYX6QCMAXY9YJDNK2DSQUXWZDVJE","A36FBIDN58N139","3FVBZG9CLJ0K37PD5L6161S4HTM0HN","","null","<img src=""img/flower1.png"" style=""width:200px; border:14px solid green;"">","null","","","","","","","","",""
"","image-keyboard-response","239","121355","0.0-239.0","3KJYX6QCMAXY9YJDNK2DSQUXWZDVJE","A36FBIDN58N139","3FVBZG9CLJ0K37PD5L6161S4HTM0HN","","205.09999990463257","img/flower1.png","74","205.5","1","1","1","2","1,0,0,1,1,0,1,0,1","1,0,0,1,1,0,1,0,1","1",""
"","html-keyboard-response","240","121657","0.0-240.0","3KJYX6QCMAXY9YJDNK2DSQUXWZDVJE","A36FBIDN58N139","3FVBZG9CLJ0K37PD5L6161S4HTM0HN","","null","<img src=""img/flower1.png"" style=""width:200px; border:14px solid green;"">","null","","","","","","","","",""
"","image-keyboard-response","241","121851","0.0-241.0","3KJYX6QCMAXY9YJDNK2DSQUXWZDVJE","A36FBIDN58N139","3FVBZG9CLJ0K37PD5L6161S4HTM0HN","","192.79999995231628","img/flower5.png","74","194","1","1","2","2","1,0,0,1,1,0,1,0,1","1,0,0,1,1,0,1,0,1","1",""
"","html-keyboard-response","242","122153","0.0-242.0","3KJYX6QCMAXY9YJDNK2DSQUXWZDVJE","A36FBIDN58N139","3FVBZG9CLJ0K37PD5L6161S4HTM0HN","","null","<img src=""img/flower5.png"" style=""width:200px; border:14px solid green;"">","null","","","","","","","","",""
"","image-keyboard-response","243","122356","0.0-243.0","3KJYX6QCMAXY9YJDNK2DSQUXWZDVJE","A36FBIDN58N139","3FVBZG9CLJ0K37PD5L6161S4HTM0HN","","202.40000009536743","img/flower6.png","74","203.39999997615814","1","1","3","2","1,0,0,1,1,0,1,0,1","1,0,0,1,1,0,1,0,1","1",""
"","html-keyboard-response","244","122658","0.0-244.0","3KJYX6QCMAXY9YJDNK2DSQUXWZDVJE","A36FBIDN58N139","3FVBZG9CLJ0K37PD5L6161S4HTM0HN","","null","<img src=""img/flower6.png"" style=""width:200px; border:14px solid green;"">","null","","","","","","","","",""
"","image-keyboard-response","245","122845","0.0-245.0","3KJYX6QCMAXY9YJDNK2DSQUXWZDVJE","A36FBIDN58N139","3FVBZG9CLJ0K37PD5L6161S4HTM0HN","","185.59999990463257","img/flower1.png","74","186.39999997615814","1","1","1","2","1,0,0,1,1,0,1,0,1","1,0,0,1,1,0,1,0,1","1",""
"","html-keyboard-response","246","123147","0.0-246.0","3KJYX6QCMAXY9YJDNK2DSQUXWZDVJE","A36FBIDN58N139","3FVBZG9CLJ0K37PD5L6161S4HTM0HN","","null","<img src=""img/flower1.png"" style=""width:200px; border:14px solid green;"">","null","","","","","","","","",""
"","image-keyboard-response","247","123332","0.0-247.0","3KJYX6QCMAXY9YJDNK2DSQUXWZDVJE","A36FBIDN58N139","3FVBZG9CLJ0K37PD5L6161S4HTM0HN","","182.79999995231628","img/flower1.png","74","184","1","1","1","2","1,0,0,1,1,0,1,0,1","1,0,0,1,1,0,1,0,1","1",""
"","html-keyboard-response","248","123634","0.0-248.0","3KJYX6QCMAXY9YJDNK2DSQUXWZDVJE","A36FBIDN58N139","3FVBZG9CLJ0K37PD5L6161S4HTM0HN","","null","<img src=""img/flower1.png"" style=""width:200px; border:14px solid green;"">","null","","","","","","","","",""
"","image-keyboard-response","249","123819","0.0-249.0","3KJYX6QCMAXY9YJDNK2DSQUXWZDVJE","A36FBIDN58N139","3FVBZG9CLJ0K37PD5L6161S4HTM0HN","","183.59999990463257","img/flower5.png","74","184.89999997615814","1","1","2","2","1,0,0,1,1,0,1,0,1","1,0,0,1,1,0,1,0,1","1",""
"","html-keyboard-response","250","124120","0.0-250.0","3KJYX6QCMAXY9YJDNK2DSQUXWZDVJE","A36FBIDN58N139","3FVBZG9CLJ0K37PD5L6161S4HTM0HN","","null","<img src=""img/flower5.png"" style=""width:200px; border:14px solid green;"">","null","","","","","","","","",""
"","image-keyboard-response","251","124324","0.0-251.0","3KJYX6QCMAXY9YJDNK2DSQUXWZDVJE","A36FBIDN58N139","3FVBZG9CLJ0K37PD5L6161S4HTM0HN","","202.90000009536743","img/flower6.png","74","203.80000007152557","1","1","3","2","1,0,0,1,1,0,1,0,1","1,0,0,1,1,0,1,0,1","1",""
"","html-keyboard-response","252","124626","0.0-252.0","3KJYX6QCMAXY9YJDNK2DSQUXWZDVJE","A36FBIDN58N139","3FVBZG9CLJ0K37PD5L6161S4HTM0HN","","null","<img src=""img/flower6.png"" style=""width:200px; border:14px solid green;"">","null","","","","","","","","",""
"","image-keyboard-response","253","124780","0.0-253.0","3KJYX6QCMAXY9YJDNK2DSQUXWZDVJE","A36FBIDN58N139","3FVBZG9CLJ0K37PD5L6161S4HTM0HN","","152.30000007152557","img/flower1.png","74","153.70000004768372","1","1","1","2","1,0,0,1,1,0,1,0,1","1,0,0,1,1,0,1,0,1","1",""
"","html-keyboard-response","254","125082","0.0-254.0","3KJYX6QCMAXY9YJDNK2DSQUXWZDVJE","A36FBIDN58N139","3FVBZG9CLJ0K37PD5L6161S4HTM0HN","","null","<img src=""img/flower1.png"" style=""width:200px; border:14px solid green;"">","null","","","","","","","","",""
"","image-keyboard-response","255","125269","0.0-255.0","3KJYX6QCMAXY9YJDNK2DSQUXWZDVJE","A36FBIDN58N139","3FVBZG9CLJ0K37PD5L6161S4HTM0HN","","184.89999997615814","img/flower1.png","74","186.30000007152557","1","1","1","2","1,0,0,1,1,0,1,0,1","1,0,0,1,1,0,1,0,1","1",""
"","html-keyboard-response","256","125572","0.0-256.0","3KJYX6QCMAXY9YJDNK2DSQUXWZDVJE","A36FBIDN58N139","3FVBZG9CLJ0K37PD5L6161S4HTM0HN","","null","<img src=""img/flower1.png"" style=""width:200px; border:14px solid green;"">","null","","","","","","","","",""
"","image-keyboard-response","257","125716","0.0-257.0","3KJYX6QCMAXY9YJDNK2DSQUXWZDVJE","A36FBIDN58N139","3FVBZG9CLJ0K37PD5L6161S4HTM0HN","","142.90000009536743","img/flower1.png","74","144.40000009536743","1","1","1","2","1,0,0,1,1,0,1,0,1","1,0,0,1,1,0,1,0,1","1",""
"","html-keyboard-response","258","126019","0.0-258.0","3KJYX6QCMAXY9YJDNK2DSQUXWZDVJE","A36FBIDN58N139","3FVBZG9CLJ0K37PD5L6161S4HTM0HN","","null","<img src=""img/flower1.png"" style=""width:200px; border:14px solid green;"">","null","","","","","","","","",""
"","image-keyboard-response","259","126187","0.0-259.0","3KJYX6QCMAXY9YJDNK2DSQUXWZDVJE","A36FBIDN58N139","3FVBZG9CLJ0K37PD5L6161S4HTM0HN","","167.20000004768372","img/flower1.png","74","168.39999997615814","1","1","1","2","1,0,0,1,1,0,1,0,1","1,0,0,1,1,0,1,0,1","1",""
"","html-keyboard-response","260","126489","0.0-260.0","3KJYX6QCMAXY9YJDNK2DSQUXWZDVJE","A36FBIDN58N139","3FVBZG9CLJ0K37PD5L6161S4HTM0HN","","null","<img src=""img/flower1.png"" style=""width:200px; border:14px solid green;"">","null","","","","","","","","",""
"","image-keyboard-response","261","126651","0.0-261.0","3KJYX6QCMAXY9YJDNK2DSQUXWZDVJE","A36FBIDN58N139","3FVBZG9CLJ0K37PD5L6161S4HTM0HN","","161.20000004768372","img/flower5.png","74","162.30000007152557","1","1","2","2","1,0,0,1,1,0,1,0,1","1,0,0,1,1,0,1,0,1","1",""
"","html-keyboard-response","262","126953","0.0-262.0","3KJYX6QCMAXY9YJDNK2DSQUXWZDVJE","A36FBIDN58N139","3FVBZG9CLJ0K37PD5L6161S4HTM0HN","","null","<img src=""img/flower5.png"" style=""width:200px; border:14px solid green;"">","null","","","","","","","","",""
"","image-keyboard-response","263","127132","0.0-263.0","3KJYX6QCMAXY9YJDNK2DSQUXWZDVJE","A36FBIDN58N139","3FVBZG9CLJ0K37PD5L6161S4HTM0HN","","177.10000002384186","img/flower5.png","74","178.80000007152557","1","1","2","2","1,0,0,1,1,0,1,0,1","1,0,0,1,1,0,1,0,1","1",""
"","html-keyboard-response","264","127435","0.0-264.0","3KJYX6QCMAXY9YJDNK2DSQUXWZDVJE","A36FBIDN58N139","3FVBZG9CLJ0K37PD5L6161S4HTM0HN","","null","<img src=""img/flower5.png"" style=""width:200px; border:14px solid green;"">","null","","","","","","","","",""
"","image-keyboard-response","265","127572","0.0-265.0","3KJYX6QCMAXY9YJDNK2DSQUXWZDVJE","A36FBIDN58N139","3FVBZG9CLJ0K37PD5L6161S4HTM0HN","","136.69999992847443","img/flower5.png","74","137.59999990463257","1","1","2","2","1,0,0,1,1,0,1,0,1","1,0,0,1,1,0,1,0,1","1",""
"","html-keyboard-response","266","127876","0.0-266.0","3KJYX6QCMAXY9YJDNK2DSQUXWZDVJE","A36FBIDN58N139","3FVBZG9CLJ0K37PD5L6161S4HTM0HN","","null","<img src=""img/flower5.png"" style=""width:200px; border:14px solid green;"">","null","","","","","","","","",""
"","image-keyboard-response","267","128036","0.0-267.0","3KJYX6QCMAXY9YJDNK2DSQUXWZDVJE","A36FBIDN58N139","3FVBZG9CLJ0K37PD5L6161S4HTM0HN","","159","img/flower6.png","74","160.5","1","1","3","2","1,0,0,1,1,0,1,0,1","1,0,0,1,1,0,1,0,1","1",""
"","html-keyboard-response","268","128338","0.0-268.0","3KJYX6QCMAXY9YJDNK2DSQUXWZDVJE","A36FBIDN58N139","3FVBZG9CLJ0K37PD5L6161S4HTM0HN","","null","<img src=""img/flower6.png"" style=""width:200px; border:14px solid green;"">","null","","","","","","","","",""
"","image-keyboard-response","269","128524","0.0-269.0","3KJYX6QCMAXY9YJDNK2DSQUXWZDVJE","A36FBIDN58N139","3FVBZG9CLJ0K37PD5L6161S4HTM0HN","","184.30000007152557","img/flower1.png","74","185.80000007152557","1","1","1","2","1,0,0,1,1,0,1,0,1","1,0,0,1,1,0,1,0,1","1",""
"","html-keyboard-response","270","128827","0.0-270.0","3KJYX6QCMAXY9YJDNK2DSQUXWZDVJE","A36FBIDN58N139","3FVBZG9CLJ0K37PD5L6161S4HTM0HN","","null","<img src=""img/flower1.png"" style=""width:200px; border:14px solid green;"">","null","","","","","","","","",""
"","image-keyboard-response","271","129003","0.0-271.0","3KJYX6QCMAXY9YJDNK2DSQUXWZDVJE","A36FBIDN58N139","3FVBZG9CLJ0K37PD5L6161S4HTM0HN","","174.89999997615814","img/flower5.png","74","176.10000002384186","1","1","2","2","1,0,0,1,1,0,1,0,1","1,0,0,1,1,0,1,0,1","1",""
"","html-keyboard-response","272","129305","0.0-272.0","3KJYX6QCMAXY9YJDNK2DSQUXWZDVJE","A36FBIDN58N139","3FVBZG9CLJ0K37PD5L6161S4HTM0HN","","null","<img src=""img/flower5.png"" style=""width:200px; border:14px solid green;"">","null","","","","","","","","",""
"","image-keyboard-response","273","129459","0.0-273.0","3KJYX6QCMAXY9YJDNK2DSQUXWZDVJE","A36FBIDN58N139","3FVBZG9CLJ0K37PD5L6161S4HTM0HN","","153.5","img/flower5.png","74","154","1","1","2","2","1,0,0,1,1,0,1,0,1","1,0,0,1,1,0,1,0,1","1",""
"","html-keyboard-response","274","129760","0.0-274.0","3KJYX6QCMAXY9YJDNK2DSQUXWZDVJE","A36FBIDN58N139","3FVBZG9CLJ0K37PD5L6161S4HTM0HN","","null","<img src=""img/flower5.png"" style=""width:200px; border:14px solid green;"">","null","","","","","","","","",""
"","image-keyboard-response","275","129931","0.0-275.0","3KJYX6QCMAXY9YJDNK2DSQUXWZDVJE","A36FBIDN58N139","3FVBZG9CLJ0K37PD5L6161S4HTM0HN","","169.19999992847443","img/flower6.png","74","170.29999995231628","1","1","3","2","1,0,0,1,1,0,1,0,1","1,0,0,1,1,0,1,0,1","1",""
"","html-keyboard-response","276","130233","0.0-276.0","3KJYX6QCMAXY9YJDNK2DSQUXWZDVJE","A36FBIDN58N139","3FVBZG9CLJ0K37PD5L6161S4HTM0HN","","null","<img src=""img/flower6.png"" style=""width:200px; border:14px solid green;"">","null","","","","","","","","",""
"","image-keyboard-response","277","130404","0.0-277.0","3KJYX6QCMAXY9YJDNK2DSQUXWZDVJE","A36FBIDN58N139","3FVBZG9CLJ0K37PD5L6161S4HTM0HN","","168.80000007152557","img/flower1.png","74","170.39999997615814","1","1","1","2","1,0,0,1,1,0,1,0,1","1,0,0,1,1,0,1,0,1","1",""
"","html-keyboard-response","278","130707","0.0-278.0","3KJYX6QCMAXY9YJDNK2DSQUXWZDVJE","A36FBIDN58N139","3FVBZG9CLJ0K37PD5L6161S4HTM0HN","","null","<img src=""img/flower1.png"" style=""width:200px; border:14px solid green;"">","null","","","","","","","","",""
"","image-keyboard-response","279","130876","0.0-279.0","3KJYX6QCMAXY9YJDNK2DSQUXWZDVJE","A36FBIDN58N139","3FVBZG9CLJ0K37PD5L6161S4HTM0HN","","167.5","img/flower5.png","74","168.90000009536743","1","1","2","2","1,0,0,1,1,0,1,0,1","1,0,0,1,1,0,1,0,1","1",""
"","html-keyboard-response","280","131179","0.0-280.0","3KJYX6QCMAXY9YJDNK2DSQUXWZDVJE","A36FBIDN58N139","3FVBZG9CLJ0K37PD5L6161S4HTM0HN","","null","<img src=""img/flower5.png"" style=""width:200px; border:14px solid green;"">","null","","","","","","","","",""
"","image-keyboard-response","281","131308","0.0-281.0","3KJYX6QCMAXY9YJDNK2DSQUXWZDVJE","A36FBIDN58N139","3FVBZG9CLJ0K37PD5L6161S4HTM0HN","","128.59999990463257","img/flower6.png","74","129.39999997615814","1","1","3","2","1,0,0,1,1,0,1,0,1","1,0,0,1,1,0,1,0,1","1",""
"","html-keyboard-response","282","131610","0.0-282.0","3KJYX6QCMAXY9YJDNK2DSQUXWZDVJE","A36FBIDN58N139","3FVBZG9CLJ0K37PD5L6161S4HTM0HN","","null","<img src=""img/flower6.png"" style=""width:200px; border:14px solid green;"">","null","","","","","","","","",""
"","image-keyboard-response","283","131780","0.0-283.0","3KJYX6QCMAXY9YJDNK2DSQUXWZDVJE","A36FBIDN58N139","3FVBZG9CLJ0K37PD5L6161S4HTM0HN","","167.89999997615814","img/flower6.png","74","169.40000009536743","1","1","3","2","1,0,0,1,1,0,1,0,1","1,0,0,1,1,0,1,0,1","1",""
"","html-keyboard-response","284","132083","0.0-284.0","3KJYX6QCMAXY9YJDNK2DSQUXWZDVJE","A36FBIDN58N139","3FVBZG9CLJ0K37PD5L6161S4HTM0HN","","null","<img src=""img/flower6.png"" style=""width:200px; border:14px solid green;"">","null","","","","","","","","",""
"","image-keyboard-response","285","132243","0.0-285.0","3KJYX6QCMAXY9YJDNK2DSQUXWZDVJE","A36FBIDN58N139","3FVBZG9CLJ0K37PD5L6161S4HTM0HN","","158.40000009536743","img/flower6.png","74","159.69999992847443","1","1","3","2","1,0,0,1,1,0,1,0,1","1,0,0,1,1,0,1,0,1","1",""
"","html-keyboard-response","286","132544","0.0-286.0","3KJYX6QCMAXY9YJDNK2DSQUXWZDVJE","A36FBIDN58N139","3FVBZG9CLJ0K37PD5L6161S4HTM0HN","","null","<img src=""img/flower6.png"" style=""width:200px; border:14px solid green;"">","null","","","","","","","","",""
"","image-keyboard-response","287","132715","0.0-287.0","3KJYX6QCMAXY9YJDNK2DSQUXWZDVJE","A36FBIDN58N139","3FVBZG9CLJ0K37PD5L6161S4HTM0HN","","169.5","img/flower1.png","74","170.80000007152557","1","1","1","2","1,0,0,1,1,0,1,0,1","1,0,0,1,1,0,1,0,1","1",""
"","html-keyboard-response","288","133017","0.0-288.0","3KJYX6QCMAXY9YJDNK2DSQUXWZDVJE","A36FBIDN58N139","3FVBZG9CLJ0K37PD5L6161S4HTM0HN","","null","<img src=""img/flower1.png"" style=""width:200px; border:14px solid green;"">","null","","","","","","","","",""
"","image-keyboard-response","289","133156","0.0-289.0","3KJYX6QCMAXY9YJDNK2DSQUXWZDVJE","A36FBIDN58N139","3FVBZG9CLJ0K37PD5L6161S4HTM0HN","","136.89999997615814","img/flower6.png","74","138.70000004768372","1","1","3","2","1,0,0,1,1,0,1,0,1","1,0,0,1,1,0,1,0,1","1",""
"","html-keyboard-response","290","133458","0.0-290.0","3KJYX6QCMAXY9YJDNK2DSQUXWZDVJE","A36FBIDN58N139","3FVBZG9CLJ0K37PD5L6161S4HTM0HN","","null","<img src=""img/flower6.png"" style=""width:200px; border:14px solid green;"">","null","","","","","","","","",""
"","image-keyboard-response","291","133636","0.0-291.0","3KJYX6QCMAXY9YJDNK2DSQUXWZDVJE","A36FBIDN58N139","3FVBZG9CLJ0K37PD5L6161S4HTM0HN","","176.40000009536743","img/flower6.png","74","178","1","1","3","2","1,0,0,1,1,0,1,0,1","1,0,0,1,1,0,1,0,1","1",""
"","html-keyboard-response","292","133939","0.0-292.0","3KJYX6QCMAXY9YJDNK2DSQUXWZDVJE","A36FBIDN58N139","3FVBZG9CLJ0K37PD5L6161S4HTM0HN","","null","<img src=""img/flower6.png"" style=""width:200px; border:14px solid green;"">","null","","","","","","","","",""
"","image-keyboard-response","293","134107","0.0-293.0","3KJYX6QCMAXY9YJDNK2DSQUXWZDVJE","A36FBIDN58N139","3FVBZG9CLJ0K37PD5L6161S4HTM0HN","","167","img/flower6.png","74","168.19999992847443","1","1","3","2","1,0,0,1,1,0,1,0,1","1,0,0,1,1,0,1,0,1","1",""
"","html-keyboard-response","294","134409","0.0-294.0","3KJYX6QCMAXY9YJDNK2DSQUXWZDVJE","A36FBIDN58N139","3FVBZG9CLJ0K37PD5L6161S4HTM0HN","","null","<img src=""img/flower6.png"" style=""width:200px; border:14px solid green;"">","null","","","","","","","","",""
"","image-keyboard-response","295","134572","0.0-295.0","3KJYX6QCMAXY9YJDNK2DSQUXWZDVJE","A36FBIDN58N139","3FVBZG9CLJ0K37PD5L6161S4HTM0HN","","161.40000009536743","img/flower1.png","74","162.80000007152557","1","1","1","2","1,0,0,1,1,0,1,0,1","1,0,0,1,1,0,1,0,1","1",""
"","html-keyboard-response","296","134874","0.0-296.0","3KJYX6QCMAXY9YJDNK2DSQUXWZDVJE","A36FBIDN58N139","3FVBZG9CLJ0K37PD5L6161S4HTM0HN","","null","<img src=""img/flower1.png"" style=""width:200px; border:14px solid green;"">","null","","","","","","","","",""
"","image-keyboard-response","297","135059","0.0-297.0","3KJYX6QCMAXY9YJDNK2DSQUXWZDVJE","A36FBIDN58N139","3FVBZG9CLJ0K37PD5L6161S4HTM0HN","","182.89999997615814","img/flower6.png","74","184.10000002384186","1","1","3","2","1,0,0,1,1,0,1,0,1","1,0,0,1,1,0,1,0,1","1",""
"","html-keyboard-response","298","135360","0.0-298.0","3KJYX6QCMAXY9YJDNK2DSQUXWZDVJE","A36FBIDN58N139","3FVBZG9CLJ0K37PD5L6161S4HTM0HN","","null","<img src=""img/flower6.png"" style=""width:200px; border:14px solid green;"">","null","","","","","","","","",""
"","image-keyboard-response","299","135515","0.0-299.0","3KJYX6QCMAXY9YJDNK2DSQUXWZDVJE","A36FBIDN58N139","3FVBZG9CLJ0K37PD5L6161S4HTM0HN","","155","img/flower1.png","74","155.39999997615814","1","1","1","2","1,0,0,1,1,0,1,0,1","1,0,0,1,1,0,1,0,1","1",""
"","html-keyboard-response","300","135817","0.0-300.0","3KJYX6QCMAXY9YJDNK2DSQUXWZDVJE","A36FBIDN58N139","3FVBZG9CLJ0K37PD5L6161S4HTM0HN","","null","<img src=""img/flower1.png"" style=""width:200px; border:14px solid green;"">","null","","","","","","","","",""
"","image-keyboard-response","301","135963","0.0-301.0","3KJYX6QCMAXY9YJDNK2DSQUXWZDVJE","A36FBIDN58N139","3FVBZG9CLJ0K37PD5L6161S4HTM0HN","","145","img/flower5.png","74","145.60000002384186","1","1","2","2","1,0,0,1,1,0,1,0,1","1,0,0,1,1,0,1,0,1","1",""
"","html-keyboard-response","302","136265","0.0-302.0","3KJYX6QCMAXY9YJDNK2DSQUXWZDVJE","A36FBIDN58N139","3FVBZG9CLJ0K37PD5L6161S4HTM0HN","","null","<img src=""img/flower5.png"" style=""width:200px; border:14px solid green;"">","null","","","","","","","","",""
"","image-keyboard-response","303","136420","0.0-303.0","3KJYX6QCMAXY9YJDNK2DSQUXWZDVJE","A36FBIDN58N139","3FVBZG9CLJ0K37PD5L6161S4HTM0HN","","154.10000002384186","img/flower6.png","74","155","1","1","3","2","1,0,0,1,1,0,1,0,1","1,0,0,1,1,0,1,0,1","1",""
"","html-keyboard-response","304","136723","0.0-304.0","3KJYX6QCMAXY9YJDNK2DSQUXWZDVJE","A36FBIDN58N139","3FVBZG9CLJ0K37PD5L6161S4HTM0HN","","null","<img src=""img/flower6.png"" style=""width:200px; border:14px solid green;"">","null","","","","","","","","",""
"","image-keyboard-response","305","136876","0.0-305.0","3KJYX6QCMAXY9YJDNK2DSQUXWZDVJE","A36FBIDN58N139","3FVBZG9CLJ0K37PD5L6161S4HTM0HN","","151.10000002384186","img/flower1.png","74","152.69999992847443","1","1","1","2","1,0,0,1,1,0,1,0,1","1,0,0,1,1,0,1,0,1","1",""
"","html-keyboard-response","306","137179","0.0-306.0","3KJYX6QCMAXY9YJDNK2DSQUXWZDVJE","A36FBIDN58N139","3FVBZG9CLJ0K37PD5L6161S4HTM0HN","","null","<img src=""img/flower1.png"" style=""width:200px; border:14px solid green;"">","null","","","","","","","","",""
"","image-keyboard-response","307","137323","0.0-307.0","3KJYX6QCMAXY9YJDNK2DSQUXWZDVJE","A36FBIDN58N139","3FVBZG9CLJ0K37PD5L6161S4HTM0HN","","142.70000004768372","img/flower1.png","74","143.90000009536743","1","1","1","2","1,0,0,1,1,0,1,0,1","1,0,0,1,1,0,1,0,1","1",""
"","html-keyboard-response","308","137625","0.0-308.0","3KJYX6QCMAXY9YJDNK2DSQUXWZDVJE","A36FBIDN58N139","3FVBZG9CLJ0K37PD5L6161S4HTM0HN","","null","<img src=""img/flower1.png"" style=""width:200px; border:14px solid green;"">","null","","","","","","","","",""
"","image-keyboard-response","309","137804","0.0-309.0","3KJYX6QCMAXY9YJDNK2DSQUXWZDVJE","A36FBIDN58N139","3FVBZG9CLJ0K37PD5L6161S4HTM0HN","","178.40000009536743","img/flower1.png","74","179.20000004768372","1","1","1","2","1,0,0,1,1,0,1,0,1","1,0,0,1,1,0,1,0,1","1",""
"","html-keyboard-response","310","138107","0.0-310.0","3KJYX6QCMAXY9YJDNK2DSQUXWZDVJE","A36FBIDN58N139","3FVBZG9CLJ0K37PD5L6161S4HTM0HN","","null","<img src=""img/flower1.png"" style=""width:200px; border:14px solid green;"">","null","","","","","","","","",""
"","image-keyboard-response","311","138268","0.0-311.0","3KJYX6QCMAXY9YJDNK2DSQUXWZDVJE","A36FBIDN58N139","3FVBZG9CLJ0K37PD5L6161S4HTM0HN","","159.80000007152557","img/flower6.png","74","161.69999992847443","1","1","3","2","1,0,0,1,1,0,1,0,1","1,0,0,1,1,0,1,0,1","1",""
"","html-keyboard-response","312","138571","0.0-312.0","3KJYX6QCMAXY9YJDNK2DSQUXWZDVJE","A36FBIDN58N139","3FVBZG9CLJ0K37PD5L6161S4HTM0HN","","null","<img src=""img/flower6.png"" style=""width:200px; border:14px solid green;"">","null","","","","","","","","",""
"","image-keyboard-response","313","138724","0.0-313.0","3KJYX6QCMAXY9YJDNK2DSQUXWZDVJE","A36FBIDN58N139","3FVBZG9CLJ0K37PD5L6161S4HTM0HN","","151.89999997615814","img/flower1.png","74","153.19999992847443","1","1","1","2","1,0,0,1,1,0,1,0,1","1,0,0,1,1,0,1,0,1","1",""
"","html-keyboard-response","314","139026","0.0-314.0","3KJYX6QCMAXY9YJDNK2DSQUXWZDVJE","A36FBIDN58N139","3FVBZG9CLJ0K37PD5L6161S4HTM0HN","","null","<img src=""img/flower1.png"" style=""width:200px; border:14px solid green;"">","null","","","","","","","","",""
"","image-keyboard-response","315","139196","0.0-315.0","3KJYX6QCMAXY9YJDNK2DSQUXWZDVJE","A36FBIDN58N139","3FVBZG9CLJ0K37PD5L6161S4HTM0HN","","168","img/flower6.png","74","169.40000009536743","1","1","3","2","1,0,0,1,1,0,1,0,1","1,0,0,1,1,0,1,0,1","1",""
"","html-keyboard-response","316","139498","0.0-316.0","3KJYX6QCMAXY9YJDNK2DSQUXWZDVJE","A36FBIDN58N139","3FVBZG9CLJ0K37PD5L6161S4HTM0HN","","null","<img src=""img/flower6.png"" style=""width:200px; border:14px solid green;"">","null","","","","","","","","",""
"","image-keyboard-response","317","139644","0.0-317.0","3KJYX6QCMAXY9YJDNK2DSQUXWZDVJE","A36FBIDN58N139","3FVBZG9CLJ0K37PD5L6161S4HTM0HN","","144","img/flower1.png","74","145.60000002384186","1","1","1","2","1,0,0,1,1,0,1,0,1","1,0,0,1,1,0,1,0,1","1",""
"","html-keyboard-response","318","139947","0.0-318.0","3KJYX6QCMAXY9YJDNK2DSQUXWZDVJE","A36FBIDN58N139","3FVBZG9CLJ0K37PD5L6161S4HTM0HN","","null","<img src=""img/flower1.png"" style=""width:200px; border:14px solid green;"">","null","","","","","","","","",""
"","image-keyboard-response","319","140084","0.0-319.0","3KJYX6QCMAXY9YJDNK2DSQUXWZDVJE","A36FBIDN58N139","3FVBZG9CLJ0K37PD5L6161S4HTM0HN","","136.39999997615814","img/flower1.png","74","137.39999997615814","1","1","1","2","1,0,0,1,1,0,1,0,1","1,0,0,1,1,0,1,0,1","1",""
"","html-keyboard-response","320","140387","0.0-320.0","3KJYX6QCMAXY9YJDNK2DSQUXWZDVJE","A36FBIDN58N139","3FVBZG9CLJ0K37PD5L6161S4HTM0HN","","null","<img src=""img/flower1.png"" style=""width:200px; border:14px solid green;"">","null","","","","","","","","",""
"","image-keyboard-response","321","140540","0.0-321.0","3KJYX6QCMAXY9YJDNK2DSQUXWZDVJE","A36FBIDN58N139","3FVBZG9CLJ0K37PD5L6161S4HTM0HN","","150.89999997615814","img/flower6.png","74","152.5","1","1","3","2","1,0,0,1,1,0,1,0,1","1,0,0,1,1,0,1,0,1","1",""
"","html-keyboard-response","322","140843","0.0-322.0","3KJYX6QCMAXY9YJDNK2DSQUXWZDVJE","A36FBIDN58N139","3FVBZG9CLJ0K37PD5L6161S4HTM0HN","","null","<img src=""img/flower6.png"" style=""width:200px; border:14px solid green;"">","null","","","","","","","","",""
"","image-keyboard-response","323","140973","0.0-323.0","3KJYX6QCMAXY9YJDNK2DSQUXWZDVJE","A36FBIDN58N139","3FVBZG9CLJ0K37PD5L6161S4HTM0HN","","128.20000004768372","img/flower1.png","74","129.70000004768372","1","1","1","2","1,0,0,1,1,0,1,0,1","1,0,0,1,1,0,1,0,1","1",""
"","html-keyboard-response","324","141274","0.0-324.0","3KJYX6QCMAXY9YJDNK2DSQUXWZDVJE","A36FBIDN58N139","3FVBZG9CLJ0K37PD5L6161S4HTM0HN","","null","<img src=""img/flower1.png"" style=""width:200px; border:14px solid green;"">","null","","","","","","","","",""
"","image-keyboard-response","325","141427","0.0-325.0","3KJYX6QCMAXY9YJDNK2DSQUXWZDVJE","A36FBIDN58N139","3FVBZG9CLJ0K37PD5L6161S4HTM0HN","","150.80000007152557","img/flower5.png","74","152.19999992847443","1","1","2","2","1,0,0,1,1,0,1,0,1","1,0,0,1,1,0,1,0,1","1",""
"","html-keyboard-response","326","141729","0.0-326.0","3KJYX6QCMAXY9YJDNK2DSQUXWZDVJE","A36FBIDN58N139","3FVBZG9CLJ0K37PD5L6161S4HTM0HN","","null","<img src=""img/flower5.png"" style=""width:200px; border:14px solid green;"">","null","","","","","","","","",""
"","image-keyboard-response","327","141868","0.0-327.0","3KJYX6QCMAXY9YJDNK2DSQUXWZDVJE","A36FBIDN58N139","3FVBZG9CLJ0K37PD5L6161S4HTM0HN","","137.60000002384186","img/flower5.png","74","138.80000007152557","1","1","2","2","1,0,0,1,1,0,1,0,1","1,0,0,1,1,0,1,0,1","1",""
"","html-keyboard-response","328","142169","0.0-328.0","3KJYX6QCMAXY9YJDNK2DSQUXWZDVJE","A36FBIDN58N139","3FVBZG9CLJ0K37PD5L6161S4HTM0HN","","null","<img src=""img/flower5.png"" style=""width:200px; border:14px solid green;"">","null","","","","","","","","",""
"","image-keyboard-response","329","142308","0.0-329.0","3KJYX6QCMAXY9YJDNK2DSQUXWZDVJE","A36FBIDN58N139","3FVBZG9CLJ0K37PD5L6161S4HTM0HN","","137.5","img/flower1.png","74","139.09999990463257","1","1","1","2","1,0,0,1,1,0,1,0,1","1,0,0,1,1,0,1,0,1","1",""
"","html-keyboard-response","330","142610","0.0-330.0","3KJYX6QCMAXY9YJDNK2DSQUXWZDVJE","A36FBIDN58N139","3FVBZG9CLJ0K37PD5L6161S4HTM0HN","","null","<img src=""img/flower1.png"" style=""width:200px; border:14px solid green;"">","null","","","","","","","","",""
"","image-keyboard-response","331","142756","0.0-331.0","3KJYX6QCMAXY9YJDNK2DSQUXWZDVJE","A36FBIDN58N139","3FVBZG9CLJ0K37PD5L6161S4HTM0HN","","144.09999990463257","img/flower1.png","74","145.60000002384186","1","1","1","2","1,0,0,1,1,0,1,0,1","1,0,0,1,1,0,1,0,1","1",""
"","html-keyboard-response","332","143059","0.0-332.0","3KJYX6QCMAXY9YJDNK2DSQUXWZDVJE","A36FBIDN58N139","3FVBZG9CLJ0K37PD5L6161S4HTM0HN","","null","<img src=""img/flower1.png"" style=""width:200px; border:14px solid green;"">","null","","","","","","","","",""
"","image-keyboard-response","333","143196","0.0-333.0","3KJYX6QCMAXY9YJDNK2DSQUXWZDVJE","A36FBIDN58N139","3FVBZG9CLJ0K37PD5L6161S4HTM0HN","","136.40000009536743","img/flower5.png","74","137.5","1","1","2","2","1,0,0,1,1,0,1,0,1","1,0,0,1,1,0,1,0,1","1",""
"","html-keyboard-response","334","143499","0.0-334.0","3KJYX6QCMAXY9YJDNK2DSQUXWZDVJE","A36FBIDN58N139","3FVBZG9CLJ0K37PD5L6161S4HTM0HN","","null","<img src=""img/flower5.png"" style=""width:200px; border:14px solid green;"">","null","","","","","","","","",""
"","image-keyboard-response","335","143652","0.0-335.0","3KJYX6QCMAXY9YJDNK2DSQUXWZDVJE","A36FBIDN58N139","3FVBZG9CLJ0K37PD5L6161S4HTM0HN","","151.5","img/flower1.png","74","153.20000004768372","1","1","1","2","1,0,0,1,1,0,1,0,1","1,0,0,1,1,0,1,0,1","1",""
"","html-keyboard-response","336","143954","0.0-336.0","3KJYX6QCMAXY9YJDNK2DSQUXWZDVJE","A36FBIDN58N139","3FVBZG9CLJ0K37PD5L6161S4HTM0HN","","null","<img src=""img/flower1.png"" style=""width:200px; border:14px solid green;"">","null","","","","","","","","",""
"","image-keyboard-response","337","144092","0.0-337.0","3KJYX6QCMAXY9YJDNK2DSQUXWZDVJE","A36FBIDN58N139","3FVBZG9CLJ0K37PD5L6161S4HTM0HN","","137.20000004768372","img/flower6.png","74","138.09999990463257","1","1","3","2","1,0,0,1,1,0,1,0,1","1,0,0,1,1,0,1,0,1","1",""
"","html-keyboard-response","338","144395","0.0-338.0","3KJYX6QCMAXY9YJDNK2DSQUXWZDVJE","A36FBIDN58N139","3FVBZG9CLJ0K37PD5L6161S4HTM0HN","","null","<img src=""img/flower6.png"" style=""width:200px; border:14px solid green;"">","null","","","","","","","","",""
"","image-keyboard-response","339","144541","0.0-339.0","3KJYX6QCMAXY9YJDNK2DSQUXWZDVJE","A36FBIDN58N139","3FVBZG9CLJ0K37PD5L6161S4HTM0HN","","144.40000009536743","img/flower5.png","74","145.80000007152557","1","1","2","2","1,0,0,1,1,0,1,0,1","1,0,0,1,1,0,1,0,1","1",""
"","html-keyboard-response","340","144843","0.0-340.0","3KJYX6QCMAXY9YJDNK2DSQUXWZDVJE","A36FBIDN58N139","3FVBZG9CLJ0K37PD5L6161S4HTM0HN","","null","<img src=""img/flower5.png"" style=""width:200px; border:14px solid green;"">","null","","","","","","","","",""
"","image-keyboard-response","341","144980","0.0-341.0","3KJYX6QCMAXY9YJDNK2DSQUXWZDVJE","A36FBIDN58N139","3FVBZG9CLJ0K37PD5L6161S4HTM0HN","","135","img/flower5.png","74","136.39999997615814","1","1","2","2","1,0,0,1,1,0,1,0,1","1,0,0,1,1,0,1,0,1","1",""
"","html-keyboard-response","342","145282","0.0-342.0","3KJYX6QCMAXY9YJDNK2DSQUXWZDVJE","A36FBIDN58N139","3FVBZG9CLJ0K37PD5L6161S4HTM0HN","","null","<img src=""img/flower5.png"" style=""width:200px; border:14px solid green;"">","null","","","","","","","","",""
"","image-keyboard-response","343","145428","0.0-343.0","3KJYX6QCMAXY9YJDNK2DSQUXWZDVJE","A36FBIDN58N139","3FVBZG9CLJ0K37PD5L6161S4HTM0HN","","144","img/flower1.png","74","145.60000002384186","1","1","1","2","1,0,0,1,1,0,1,0,1","1,0,0,1,1,0,1,0,1","1",""
"","html-keyboard-response","344","145729","0.0-344.0","3KJYX6QCMAXY9YJDNK2DSQUXWZDVJE","A36FBIDN58N139","3FVBZG9CLJ0K37PD5L6161S4HTM0HN","","null","<img src=""img/flower1.png"" style=""width:200px; border:14px solid green;"">","null","","","","","","","","",""
"","image-keyboard-response","345","145868","0.0-345.0","3KJYX6QCMAXY9YJDNK2DSQUXWZDVJE","A36FBIDN58N139","3FVBZG9CLJ0K37PD5L6161S4HTM0HN","","136.89999997615814","img/flower5.png","74","138.39999997615814","1","1","2","2","1,0,0,1,1,0,1,0,1","1,0,0,1,1,0,1,0,1","1",""
"","html-keyboard-response","346","146170","0.0-346.0","3KJYX6QCMAXY9YJDNK2DSQUXWZDVJE","A36FBIDN58N139","3FVBZG9CLJ0K37PD5L6161S4HTM0HN","","null","<img src=""img/flower5.png"" style=""width:200px; border:14px solid green;"">","null","","","","","","","","",""
"","image-keyboard-response","347","146300","0.0-347.0","3KJYX6QCMAXY9YJDNK2DSQUXWZDVJE","A36FBIDN58N139","3FVBZG9CLJ0K37PD5L6161S4HTM0HN","","128.20000004768372","img/flower6.png","74","129.60000002384186","1","1","3","2","1,0,0,1,1,0,1,0,1","1,0,0,1,1,0,1,0,1","1",""
"","html-keyboard-response","348","146603","0.0-348.0","3KJYX6QCMAXY9YJDNK2DSQUXWZDVJE","A36FBIDN58N139","3FVBZG9CLJ0K37PD5L6161S4HTM0HN","","null","<img src=""img/flower6.png"" style=""width:200px; border:14px solid green;"">","null","","","","","","","","",""
"","image-keyboard-response","349","146740","0.0-349.0","3KJYX6QCMAXY9YJDNK2DSQUXWZDVJE","A36FBIDN58N139","3FVBZG9CLJ0K37PD5L6161S4HTM0HN","","135.59999990463257","img/flower1.png","74","137.19999992847443","1","1","1","2","1,0,0,1,1,0,1,0,1","1,0,0,1,1,0,1,0,1","1",""
"","html-keyboard-response","350","147043","0.0-350.0","3KJYX6QCMAXY9YJDNK2DSQUXWZDVJE","A36FBIDN58N139","3FVBZG9CLJ0K37PD5L6161S4HTM0HN","","null","<img src=""img/flower1.png"" style=""width:200px; border:14px solid green;"">","null","","","","","","","","",""
"","image-keyboard-response","351","147181","0.0-351.0","3KJYX6QCMAXY9YJDNK2DSQUXWZDVJE","A36FBIDN58N139","3FVBZG9CLJ0K37PD5L6161S4HTM0HN","","137.10000002384186","img/flower1.png","74","138","1","1","1","2","1,0,0,1,1,0,1,0,1","1,0,0,1,1,0,1,0,1","1",""
"","html-keyboard-response","352","147483","0.0-352.0","3KJYX6QCMAXY9YJDNK2DSQUXWZDVJE","A36FBIDN58N139","3FVBZG9CLJ0K37PD5L6161S4HTM0HN","","null","<img src=""img/flower1.png"" style=""width:200px; border:14px solid green;"">","null","","","","","","","","",""
"","image-keyboard-response","353","147644","0.0-353.0","3KJYX6QCMAXY9YJDNK2DSQUXWZDVJE","A36FBIDN58N139","3FVBZG9CLJ0K37PD5L6161S4HTM0HN","","158.90000009536743","img/flower6.png","74","160.5","1","1","3","2","1,0,0,1,1,0,1,0,1","1,0,0,1,1,0,1,0,1","1",""
"","html-keyboard-response","354","147946","0.0-354.0","3KJYX6QCMAXY9YJDNK2DSQUXWZDVJE","A36FBIDN58N139","3FVBZG9CLJ0K37PD5L6161S4HTM0HN","","null","<img src=""img/flower6.png"" style=""width:200px; border:14px solid green;"">","null","","","","","","","","",""
"","image-keyboard-response","355","148084","0.0-355.0","3KJYX6QCMAXY9YJDNK2DSQUXWZDVJE","A36FBIDN58N139","3FVBZG9CLJ0K37PD5L6161S4HTM0HN","","137.10000002384186","img/flower6.png","74","138","1","1","3","2","1,0,0,1,1,0,1,0,1","1,0,0,1,1,0,1,0,1","1",""
"","html-keyboard-response","356","148387","0.0-356.0","3KJYX6QCMAXY9YJDNK2DSQUXWZDVJE","A36FBIDN58N139","3FVBZG9CLJ0K37PD5L6161S4HTM0HN","","null","<img src=""img/flower6.png"" style=""width:200px; border:14px solid green;"">","null","","","","","","","","",""
"","image-keyboard-response","357","148532","0.0-357.0","3KJYX6QCMAXY9YJDNK2DSQUXWZDVJE","A36FBIDN58N139","3FVBZG9CLJ0K37PD5L6161S4HTM0HN","","142.80000007152557","img/flower6.png","74","144.69999992847443","1","1","3","2","1,0,0,1,1,0,1,0,1","1,0,0,1,1,0,1,0,1","1",""
"","html-keyboard-response","358","148835","0.0-358.0","3KJYX6QCMAXY9YJDNK2DSQUXWZDVJE","A36FBIDN58N139","3FVBZG9CLJ0K37PD5L6161S4HTM0HN","","null","<img src=""img/flower6.png"" style=""width:200px; border:14px solid green;"">","null","","","","","","","","",""
"","image-keyboard-response","359","148979","0.0-359.0","3KJYX6QCMAXY9YJDNK2DSQUXWZDVJE","A36FBIDN58N139","3FVBZG9CLJ0K37PD5L6161S4HTM0HN","","142.29999995231628","img/flower6.png","74","143.70000004768372","1","1","3","2","1,0,0,1,1,0,1,0,1","1,0,0,1,1,0,1,0,1","1",""
"","html-keyboard-response","360","149281","0.0-360.0","3KJYX6QCMAXY9YJDNK2DSQUXWZDVJE","A36FBIDN58N139","3FVBZG9CLJ0K37PD5L6161S4HTM0HN","","null","<img src=""img/flower6.png"" style=""width:200px; border:14px solid green;"">","null","","","","","","","","",""
"","image-keyboard-response","361","149419","0.0-361.0","3KJYX6QCMAXY9YJDNK2DSQUXWZDVJE","A36FBIDN58N139","3FVBZG9CLJ0K37PD5L6161S4HTM0HN","","136.10000002384186","img/flower6.png","74","137.39999997615814","1","1","3","2","1,0,0,1,1,0,1,0,1","1,0,0,1,1,0,1,0,1","1",""
"","html-keyboard-response","362","149721","0.0-362.0","3KJYX6QCMAXY9YJDNK2DSQUXWZDVJE","A36FBIDN58N139","3FVBZG9CLJ0K37PD5L6161S4HTM0HN","","null","<img src=""img/flower6.png"" style=""width:200px; border:14px solid green;"">","null","","","","","","","","",""
