"success","trial_type","trial_index","time_elapsed","internal_node_id","assignmentID","mturkID","hitID","view_history","rt","stimulus","key_press","reactionTime","a","r","s","cond","reward_cond","reward_cond_actual","reward_matrix_idx","responses"
"true","fullscreen","0","1625","0.0-0.0","32ZKVD547G98F6JIFIJQB7J1X9V3BM","A3774HPOUKYTX7","3MXX6RQ9EVRTFC527Z18RDK8KW6P4R","","","","","","","","","","","","",""
"","instructions","1","6853","0.0-1.0","32ZKVD547G98F6JIFIJQB7J1X9V3BM","A3774HPOUKYTX7","3MXX6RQ9EVRTFC527Z18RDK8KW6P4R","[{""page_index"":0,""viewing_time"":863.8999999985099},{""page_index"":1,""viewing_time"":674},{""page_index"":2,""viewing_time"":765.7000000029802},{""page_index"":3,""viewing_time"":386.3999999985099},{""page_index"":4,""viewing_time"":611},{""page_index"":5,""viewing_time"":723.7000000029802},{""page_index"":6,""viewing_time"":601},{""page_index"":7,""viewing_time"":600.1999999955297}]","5226.30000000447","","","","","","","","","","",""
"","image-keyboard-response","2","8249","0.0-2.0","32ZKVD547G98F6JIFIJQB7J1X9V3BM","A3774HPOUKYTX7","3MXX6RQ9EVRTFC527Z18RDK8KW6P4R","","1393.8999999985099","img/flower4.png","75","1395.3999999985099","2","0","1","1","1,0.333,0.333,0.333,1,0.333,0.333,0.333,1","1,0.333,0.333,0.333,1,0.333,0.333,0.333,1","1",""
"","html-keyboard-response","3","8552","0.0-3.0","32ZKVD547G98F6JIFIJQB7J1X9V3BM","A3774HPOUKYTX7","3MXX6RQ9EVRTFC527Z18RDK8KW6P4R","","null","<img src=""img/flower4.png"" style=""width:200px;border:14px solid red;"">","null","","","","","","","","",""
"","image-keyboard-response","4","8823","0.0-4.0","32ZKVD547G98F6JIFIJQB7J1X9V3BM","A3774HPOUKYTX7","3MXX6RQ9EVRTFC527Z18RDK8KW6P4R","","269.6000000014901","img/flower4.png","76","270.79999999701977","3","0","1","1","1,0.333,0.333,0.333,1,0.333,0.333,0.333,1","1,0.333,0.333,0.333,1,0.333,0.333,0.333,1","1",""
"","html-keyboard-response","5","9124","0.0-5.0","32ZKVD547G98F6JIFIJQB7J1X9V3BM","A3774HPOUKYTX7","3MXX6RQ9EVRTFC527Z18RDK8KW6P4R","","null","<img src=""img/flower4.png"" style=""width:200px;border:14px solid red;"">","null","","","","","","","","",""
"","image-keyboard-response","6","9167","0.0-6.0","32ZKVD547G98F6JIFIJQB7J1X9V3BM","A3774HPOUKYTX7","3MXX6RQ9EVRTFC527Z18RDK8KW6P4R","","41.30000000447035","img/flower5.png","76","42.5","3","1","3","1","1,0.333,0.333,0.333,1,0.333,0.333,0.333,1","1,0.333,0.333,0.333,1,0.333,0.333,0.333,1","1",""
"","html-keyboard-response","7","9470","0.0-7.0","32ZKVD547G98F6JIFIJQB7J1X9V3BM","A3774HPOUKYTX7","3MXX6RQ9EVRTFC527Z18RDK8KW6P4R","","null","<img src=""img/flower5.png"" style=""width:200px; border:14px solid green;"">","null","","","","","","","","",""
"","image-keyboard-response","8","9500","0.0-8.0","32ZKVD547G98F6JIFIJQB7J1X9V3BM","A3774HPOUKYTX7","3MXX6RQ9EVRTFC527Z18RDK8KW6P4R","","28.399999998509884","img/flower5.png","76","29.100000001490116","3","1","3","1","1,0.333,0.333,0.333,1,0.333,0.333,0.333,1","1,0.333,0.333,0.333,1,0.333,0.333,0.333,1","1",""
"","html-keyboard-response","9","9802","0.0-9.0","32ZKVD547G98F6JIFIJQB7J1X9V3BM","A3774HPOUKYTX7","3MXX6RQ9EVRTFC527Z18RDK8KW6P4R","","null","<img src=""img/flower5.png"" style=""width:200px; border:14px solid green;"">","null","","","","","","","","",""
"","image-keyboard-response","10","9818","0.0-10.0","32ZKVD547G98F6JIFIJQB7J1X9V3BM","A3774HPOUKYTX7","3MXX6RQ9EVRTFC527Z18RDK8KW6P4R","","14.799999997019768","img/flower4.png","75","15.800000004470348","2","0","1","1","1,0.333,0.333,0.333,1,0.333,0.333,0.333,1","1,0.333,0.333,0.333,1,0.333,0.333,0.333,1","1",""
"","html-keyboard-response","11","10120","0.0-11.0","32ZKVD547G98F6JIFIJQB7J1X9V3BM","A3774HPOUKYTX7","3MXX6RQ9EVRTFC527Z18RDK8KW6P4R","","null","<img src=""img/flower4.png"" style=""width:200px;border:14px solid red;"">","null","","","","","","","","",""
"","image-keyboard-response","12","10374","0.0-12.0","32ZKVD547G98F6JIFIJQB7J1X9V3BM","A3774HPOUKYTX7","3MXX6RQ9EVRTFC527Z18RDK8KW6P4R","","253.60000000149012","img/flower3.png","76","254.5","3","0","2","1","1,0.333,0.333,0.333,1,0.333,0.333,0.333,1","1,0.333,0.333,0.333,1,0.333,0.333,0.333,1","1",""
"","html-keyboard-response","13","10676","0.0-13.0","32ZKVD547G98F6JIFIJQB7J1X9V3BM","A3774HPOUKYTX7","3MXX6RQ9EVRTFC527Z18RDK8KW6P4R","","null","<img src=""img/flower3.png"" style=""width:200px;border:14px solid red;"">","null","","","","","","","","",""
"","image-keyboard-response","14","10696","0.0-14.0","32ZKVD547G98F6JIFIJQB7J1X9V3BM","A3774HPOUKYTX7","3MXX6RQ9EVRTFC527Z18RDK8KW6P4R","","18.700000002980232","img/flower5.png","75","19.399999998509884","2","1","3","1","1,0.333,0.333,0.333,1,0.333,0.333,0.333,1","1,0.333,0.333,0.333,1,0.333,0.333,0.333,1","1",""
"","html-keyboard-response","15","10997","0.0-15.0","32ZKVD547G98F6JIFIJQB7J1X9V3BM","A3774HPOUKYTX7","3MXX6RQ9EVRTFC527Z18RDK8KW6P4R","","null","<img src=""img/flower5.png"" style=""width:200px; border:14px solid green;"">","null","","","","","","","","",""
"","image-keyboard-response","16","11270","0.0-16.0","32ZKVD547G98F6JIFIJQB7J1X9V3BM","A3774HPOUKYTX7","3MXX6RQ9EVRTFC527Z18RDK8KW6P4R","","271.3999999985099","img/flower3.png","76","272.3999999985099","3","0","2","1","1,0.333,0.333,0.333,1,0.333,0.333,0.333,1","1,0.333,0.333,0.333,1,0.333,0.333,0.333,1","1",""
"","html-keyboard-response","17","11572","0.0-17.0","32ZKVD547G98F6JIFIJQB7J1X9V3BM","A3774HPOUKYTX7","3MXX6RQ9EVRTFC527Z18RDK8KW6P4R","","null","<img src=""img/flower3.png"" style=""width:200px;border:14px solid red;"">","null","","","","","","","","",""
"","image-keyboard-response","18","11840","0.0-18.0","32ZKVD547G98F6JIFIJQB7J1X9V3BM","A3774HPOUKYTX7","3MXX6RQ9EVRTFC527Z18RDK8KW6P4R","","266.30000000447035","img/flower5.png","74","267.30000000447035","1","0","3","1","1,0.333,0.333,0.333,1,0.333,0.333,0.333,1","1,0.333,0.333,0.333,1,0.333,0.333,0.333,1","1",""
"","html-keyboard-response","19","12142","0.0-19.0","32ZKVD547G98F6JIFIJQB7J1X9V3BM","A3774HPOUKYTX7","3MXX6RQ9EVRTFC527Z18RDK8KW6P4R","","null","<img src=""img/flower5.png"" style=""width:200px;border:14px solid red;"">","null","","","","","","","","",""
"","image-keyboard-response","20","12402","0.0-20.0","32ZKVD547G98F6JIFIJQB7J1X9V3BM","A3774HPOUKYTX7","3MXX6RQ9EVRTFC527Z18RDK8KW6P4R","","258.3999999985099","img/flower5.png","76","259.3999999985099","3","1","3","1","1,0.333,0.333,0.333,1,0.333,0.333,0.333,1","1,0.333,0.333,0.333,1,0.333,0.333,0.333,1","1",""
"","html-keyboard-response","21","12704","0.0-21.0","32ZKVD547G98F6JIFIJQB7J1X9V3BM","A3774HPOUKYTX7","3MXX6RQ9EVRTFC527Z18RDK8KW6P4R","","null","<img src=""img/flower5.png"" style=""width:200px; border:14px solid green;"">","null","","","","","","","","",""
"","image-keyboard-response","22","12762","0.0-22.0","32ZKVD547G98F6JIFIJQB7J1X9V3BM","A3774HPOUKYTX7","3MXX6RQ9EVRTFC527Z18RDK8KW6P4R","","57.899999998509884","img/flower4.png","76","58.599999994039536","3","1","1","1","1,0.333,0.333,0.333,1,0.333,0.333,0.333,1","1,0.333,0.333,0.333,1,0.333,0.333,0.333,1","1",""
"","html-keyboard-response","23","13064","0.0-23.0","32ZKVD547G98F6JIFIJQB7J1X9V3BM","A3774HPOUKYTX7","3MXX6RQ9EVRTFC527Z18RDK8KW6P4R","","null","<img src=""img/flower4.png"" style=""width:200px; border:14px solid green;"">","null","","","","","","","","",""
"","image-keyboard-response","24","13103","0.0-24.0","32ZKVD547G98F6JIFIJQB7J1X9V3BM","A3774HPOUKYTX7","3MXX6RQ9EVRTFC527Z18RDK8KW6P4R","","37.899999998509884","img/flower3.png","75","38.600000001490116","2","1","2","1","1,0.333,0.333,0.333,1,0.333,0.333,0.333,1","1,0.333,0.333,0.333,1,0.333,0.333,0.333,1","1",""
"","html-keyboard-response","25","13405","0.0-25.0","32ZKVD547G98F6JIFIJQB7J1X9V3BM","A3774HPOUKYTX7","3MXX6RQ9EVRTFC527Z18RDK8KW6P4R","","null","<img src=""img/flower3.png"" style=""width:200px; border:14px solid green;"">","null","","","","","","","","",""
"","image-keyboard-response","26","13462","0.0-26.0","32ZKVD547G98F6JIFIJQB7J1X9V3BM","A3774HPOUKYTX7","3MXX6RQ9EVRTFC527Z18RDK8KW6P4R","","55.600000001490116","img/flower5.png","75","57.29999999701977","2","1","3","1","1,0.333,0.333,0.333,1,0.333,0.333,0.333,1","1,0.333,0.333,0.333,1,0.333,0.333,0.333,1","1",""
"","html-keyboard-response","27","13765","0.0-27.0","32ZKVD547G98F6JIFIJQB7J1X9V3BM","A3774HPOUKYTX7","3MXX6RQ9EVRTFC527Z18RDK8KW6P4R","","null","<img src=""img/flower5.png"" style=""width:200px; border:14px solid green;"">","null","","","","","","","","",""
"","image-keyboard-response","28","13870","0.0-28.0","32ZKVD547G98F6JIFIJQB7J1X9V3BM","A3774HPOUKYTX7","3MXX6RQ9EVRTFC527Z18RDK8KW6P4R","","102.69999999552965","img/flower4.png","75","104.20000000298023","2","0","1","1","1,0.333,0.333,0.333,1,0.333,0.333,0.333,1","1,0.333,0.333,0.333,1,0.333,0.333,0.333,1","1",""
"","html-keyboard-response","29","14172","0.0-29.0","32ZKVD547G98F6JIFIJQB7J1X9V3BM","A3774HPOUKYTX7","3MXX6RQ9EVRTFC527Z18RDK8KW6P4R","","null","<img src=""img/flower4.png"" style=""width:200px;border:14px solid red;"">","null","","","","","","","","",""
"","image-keyboard-response","30","14286","0.0-30.0","32ZKVD547G98F6JIFIJQB7J1X9V3BM","A3774HPOUKYTX7","3MXX6RQ9EVRTFC527Z18RDK8KW6P4R","","112.39999999850988","img/flower3.png","75","113.70000000298023","2","1","2","1","1,0.333,0.333,0.333,1,0.333,0.333,0.333,1","1,0.333,0.333,0.333,1,0.333,0.333,0.333,1","1",""
"","html-keyboard-response","31","14588","0.0-31.0","32ZKVD547G98F6JIFIJQB7J1X9V3BM","A3774HPOUKYTX7","3MXX6RQ9EVRTFC527Z18RDK8KW6P4R","","null","<img src=""img/flower3.png"" style=""width:200px; border:14px solid green;"">","null","","","","","","","","",""
"","image-keyboard-response","32","14686","0.0-32.0","32ZKVD547G98F6JIFIJQB7J1X9V3BM","A3774HPOUKYTX7","3MXX6RQ9EVRTFC527Z18RDK8KW6P4R","","96.20000000298023","img/flower3.png","75","97.39999999850988","2","1","2","1","1,0.333,0.333,0.333,1,0.333,0.333,0.333,1","1,0.333,0.333,0.333,1,0.333,0.333,0.333,1","1",""
"","html-keyboard-response","33","14987","0.0-33.0","32ZKVD547G98F6JIFIJQB7J1X9V3BM","A3774HPOUKYTX7","3MXX6RQ9EVRTFC527Z18RDK8KW6P4R","","null","<img src=""img/flower3.png"" style=""width:200px; border:14px solid green;"">","null","","","","","","","","",""
"","image-keyboard-response","34","15255","0.0-34.0","32ZKVD547G98F6JIFIJQB7J1X9V3BM","A3774HPOUKYTX7","3MXX6RQ9EVRTFC527Z18RDK8KW6P4R","","266.80000000447035","img/flower5.png","75","267.70000000298023","2","0","3","1","1,0.333,0.333,0.333,1,0.333,0.333,0.333,1","1,0.333,0.333,0.333,1,0.333,0.333,0.333,1","1",""
"","html-keyboard-response","35","15557","0.0-35.0","32ZKVD547G98F6JIFIJQB7J1X9V3BM","A3774HPOUKYTX7","3MXX6RQ9EVRTFC527Z18RDK8KW6P4R","","null","<img src=""img/flower5.png"" style=""width:200px;border:14px solid red;"">","null","","","","","","","","",""
"","image-keyboard-response","36","16166","0.0-36.0","32ZKVD547G98F6JIFIJQB7J1X9V3BM","A3774HPOUKYTX7","3MXX6RQ9EVRTFC527Z18RDK8KW6P4R","","607.4000000059605","img/flower4.png","75","608.3000000044703","2","0","1","1","1,0.333,0.333,0.333,1,0.333,0.333,0.333,1","1,0.333,0.333,0.333,1,0.333,0.333,0.333,1","1",""
"","html-keyboard-response","37","16468","0.0-37.0","32ZKVD547G98F6JIFIJQB7J1X9V3BM","A3774HPOUKYTX7","3MXX6RQ9EVRTFC527Z18RDK8KW6P4R","","null","<img src=""img/flower4.png"" style=""width:200px;border:14px solid red;"">","null","","","","","","","","",""
"","image-keyboard-response","38","17102","0.0-38.0","32ZKVD547G98F6JIFIJQB7J1X9V3BM","A3774HPOUKYTX7","3MXX6RQ9EVRTFC527Z18RDK8KW6P4R","","633","img/flower3.png","75","634","2","1","2","1","1,0.333,0.333,0.333,1,0.333,0.333,0.333,1","1,0.333,0.333,0.333,1,0.333,0.333,0.333,1","1",""
"","html-keyboard-response","39","17404","0.0-39.0","32ZKVD547G98F6JIFIJQB7J1X9V3BM","A3774HPOUKYTX7","3MXX6RQ9EVRTFC527Z18RDK8KW6P4R","","null","<img src=""img/flower3.png"" style=""width:200px; border:14px solid green;"">","null","","","","","","","","",""
"","image-keyboard-response","40","17928","0.0-40.0","32ZKVD547G98F6JIFIJQB7J1X9V3BM","A3774HPOUKYTX7","3MXX6RQ9EVRTFC527Z18RDK8KW6P4R","","522.6000000014901","img/flower5.png","76","523.9000000059605","3","1","3","1","1,0.333,0.333,0.333,1,0.333,0.333,0.333,1","1,0.333,0.333,0.333,1,0.333,0.333,0.333,1","1",""
"","html-keyboard-response","41","18230","0.0-41.0","32ZKVD547G98F6JIFIJQB7J1X9V3BM","A3774HPOUKYTX7","3MXX6RQ9EVRTFC527Z18RDK8KW6P4R","","null","<img src=""img/flower5.png"" style=""width:200px; border:14px solid green;"">","null","","","","","","","","",""
"","image-keyboard-response","42","19027","0.0-42.0","32ZKVD547G98F6JIFIJQB7J1X9V3BM","A3774HPOUKYTX7","3MXX6RQ9EVRTFC527Z18RDK8KW6P4R","","795.1000000014901","img/flower4.png","75","796.3999999985099","2","0","1","1","1,0.333,0.333,0.333,1,0.333,0.333,0.333,1","1,0.333,0.333,0.333,1,0.333,0.333,0.333,1","1",""
"","html-keyboard-response","43","19329","0.0-43.0","32ZKVD547G98F6JIFIJQB7J1X9V3BM","A3774HPOUKYTX7","3MXX6RQ9EVRTFC527Z18RDK8KW6P4R","","null","<img src=""img/flower4.png"" style=""width:200px;border:14px solid red;"">","null","","","","","","","","",""
"","image-keyboard-response","44","19600","0.0-44.0","32ZKVD547G98F6JIFIJQB7J1X9V3BM","A3774HPOUKYTX7","3MXX6RQ9EVRTFC527Z18RDK8KW6P4R","","269.6000000014901","img/flower4.png","75","270.8999999985099","2","0","1","1","1,0.333,0.333,0.333,1,0.333,0.333,0.333,1","1,0.333,0.333,0.333,1,0.333,0.333,0.333,1","1",""
"","html-keyboard-response","45","19902","0.0-45.0","32ZKVD547G98F6JIFIJQB7J1X9V3BM","A3774HPOUKYTX7","3MXX6RQ9EVRTFC527Z18RDK8KW6P4R","","null","<img src=""img/flower4.png"" style=""width:200px;border:14px solid red;"">","null","","","","","","","","",""
"","image-keyboard-response","46","20085","0.0-46.0","32ZKVD547G98F6JIFIJQB7J1X9V3BM","A3774HPOUKYTX7","3MXX6RQ9EVRTFC527Z18RDK8KW6P4R","","181.39999999850988","img/flower4.png","75","182.70000000298023","2","0","1","1","1,0.333,0.333,0.333,1,0.333,0.333,0.333,1","1,0.333,0.333,0.333,1,0.333,0.333,0.333,1","1",""
"","html-keyboard-response","47","20387","0.0-47.0","32ZKVD547G98F6JIFIJQB7J1X9V3BM","A3774HPOUKYTX7","3MXX6RQ9EVRTFC527Z18RDK8KW6P4R","","null","<img src=""img/flower4.png"" style=""width:200px;border:14px solid red;"">","null","","","","","","","","",""
"","image-keyboard-response","48","20466","0.0-48.0","32ZKVD547G98F6JIFIJQB7J1X9V3BM","A3774HPOUKYTX7","3MXX6RQ9EVRTFC527Z18RDK8KW6P4R","","76.70000000298023","img/flower5.png","74","78.19999999552965","1","0","3","1","1,0.333,0.333,0.333,1,0.333,0.333,0.333,1","1,0.333,0.333,0.333,1,0.333,0.333,0.333,1","1",""
"","html-keyboard-response","49","20770","0.0-49.0","32ZKVD547G98F6JIFIJQB7J1X9V3BM","A3774HPOUKYTX7","3MXX6RQ9EVRTFC527Z18RDK8KW6P4R","","null","<img src=""img/flower5.png"" style=""width:200px;border:14px solid red;"">","null","","","","","","","","",""
"","image-keyboard-response","50","20976","0.0-50.0","32ZKVD547G98F6JIFIJQB7J1X9V3BM","A3774HPOUKYTX7","3MXX6RQ9EVRTFC527Z18RDK8KW6P4R","","204.79999999701977","img/flower5.png","74","205.79999999701977","1","0","3","1","1,0.333,0.333,0.333,1,0.333,0.333,0.333,1","1,0.333,0.333,0.333,1,0.333,0.333,0.333,1","1",""
"","html-keyboard-response","51","21278","0.0-51.0","32ZKVD547G98F6JIFIJQB7J1X9V3BM","A3774HPOUKYTX7","3MXX6RQ9EVRTFC527Z18RDK8KW6P4R","","null","<img src=""img/flower5.png"" style=""width:200px;border:14px solid red;"">","null","","","","","","","","",""
"","image-keyboard-response","52","21564","0.0-52.0","32ZKVD547G98F6JIFIJQB7J1X9V3BM","A3774HPOUKYTX7","3MXX6RQ9EVRTFC527Z18RDK8KW6P4R","","285.5","img/flower5.png","76","286.6000000014901","3","1","3","1","1,0.333,0.333,0.333,1,0.333,0.333,0.333,1","1,0.333,0.333,0.333,1,0.333,0.333,0.333,1","1",""
"","html-keyboard-response","53","21867","0.0-53.0","32ZKVD547G98F6JIFIJQB7J1X9V3BM","A3774HPOUKYTX7","3MXX6RQ9EVRTFC527Z18RDK8KW6P4R","","null","<img src=""img/flower5.png"" style=""width:200px; border:14px solid green;"">","null","","","","","","","","",""
"","image-keyboard-response","54","22126","0.0-54.0","32ZKVD547G98F6JIFIJQB7J1X9V3BM","A3774HPOUKYTX7","3MXX6RQ9EVRTFC527Z18RDK8KW6P4R","","258.30000000447035","img/flower5.png","76","259.20000000298023","3","1","3","1","1,0.333,0.333,0.333,1,0.333,0.333,0.333,1","1,0.333,0.333,0.333,1,0.333,0.333,0.333,1","1",""
"","html-keyboard-response","55","22428","0.0-55.0","32ZKVD547G98F6JIFIJQB7J1X9V3BM","A3774HPOUKYTX7","3MXX6RQ9EVRTFC527Z18RDK8KW6P4R","","null","<img src=""img/flower5.png"" style=""width:200px; border:14px solid green;"">","null","","","","","","","","",""
"","image-keyboard-response","56","22674","0.0-56.0","32ZKVD547G98F6JIFIJQB7J1X9V3BM","A3774HPOUKYTX7","3MXX6RQ9EVRTFC527Z18RDK8KW6P4R","","244.69999999552965","img/flower5.png","74","245.5","1","0","3","1","1,0.333,0.333,0.333,1,0.333,0.333,0.333,1","1,0.333,0.333,0.333,1,0.333,0.333,0.333,1","1",""
"","html-keyboard-response","57","22975","0.0-57.0","32ZKVD547G98F6JIFIJQB7J1X9V3BM","A3774HPOUKYTX7","3MXX6RQ9EVRTFC527Z18RDK8KW6P4R","","null","<img src=""img/flower5.png"" style=""width:200px;border:14px solid red;"">","null","","","","","","","","",""
"","image-keyboard-response","58","23151","0.0-58.0","32ZKVD547G98F6JIFIJQB7J1X9V3BM","A3774HPOUKYTX7","3MXX6RQ9EVRTFC527Z18RDK8KW6P4R","","174.89999999850988","img/flower3.png","75","175.80000000447035","2","1","2","1","1,0.333,0.333,0.333,1,0.333,0.333,0.333,1","1,0.333,0.333,0.333,1,0.333,0.333,0.333,1","1",""
"","html-keyboard-response","59","23453","0.0-59.0","32ZKVD547G98F6JIFIJQB7J1X9V3BM","A3774HPOUKYTX7","3MXX6RQ9EVRTFC527Z18RDK8KW6P4R","","null","<img src=""img/flower3.png"" style=""width:200px; border:14px solid green;"">","null","","","","","","","","",""
"","image-keyboard-response","60","23595","0.0-60.0","32ZKVD547G98F6JIFIJQB7J1X9V3BM","A3774HPOUKYTX7","3MXX6RQ9EVRTFC527Z18RDK8KW6P4R","","141.60000000149012","img/flower4.png","76","142.5","3","0","1","1","1,0.333,0.333,0.333,1,0.333,0.333,0.333,1","1,0.333,0.333,0.333,1,0.333,0.333,0.333,1","1",""
"","html-keyboard-response","61","23897","0.0-61.0","32ZKVD547G98F6JIFIJQB7J1X9V3BM","A3774HPOUKYTX7","3MXX6RQ9EVRTFC527Z18RDK8KW6P4R","","null","<img src=""img/flower4.png"" style=""width:200px;border:14px solid red;"">","null","","","","","","","","",""
"","image-keyboard-response","62","24149","0.0-62.0","32ZKVD547G98F6JIFIJQB7J1X9V3BM","A3774HPOUKYTX7","3MXX6RQ9EVRTFC527Z18RDK8KW6P4R","","251.39999999850988","img/flower5.png","76","252.20000000298023","3","1","3","1","1,0.333,0.333,0.333,1,0.333,0.333,0.333,1","1,0.333,0.333,0.333,1,0.333,0.333,0.333,1","1",""
"","html-keyboard-response","63","24451","0.0-63.0","32ZKVD547G98F6JIFIJQB7J1X9V3BM","A3774HPOUKYTX7","3MXX6RQ9EVRTFC527Z18RDK8KW6P4R","","null","<img src=""img/flower5.png"" style=""width:200px; border:14px solid green;"">","null","","","","","","","","",""
"","image-keyboard-response","64","24637","0.0-64.0","32ZKVD547G98F6JIFIJQB7J1X9V3BM","A3774HPOUKYTX7","3MXX6RQ9EVRTFC527Z18RDK8KW6P4R","","185.40000000596046","img/flower5.png","75","186.40000000596046","2","0","3","1","1,0.333,0.333,0.333,1,0.333,0.333,0.333,1","1,0.333,0.333,0.333,1,0.333,0.333,0.333,1","1",""
"","html-keyboard-response","65","24940","0.0-65.0","32ZKVD547G98F6JIFIJQB7J1X9V3BM","A3774HPOUKYTX7","3MXX6RQ9EVRTFC527Z18RDK8KW6P4R","","null","<img src=""img/flower5.png"" style=""width:200px;border:14px solid red;"">","null","","","","","","","","",""
"","image-keyboard-response","66","24972","0.0-66.0","32ZKVD547G98F6JIFIJQB7J1X9V3BM","A3774HPOUKYTX7","3MXX6RQ9EVRTFC527Z18RDK8KW6P4R","","31.5","img/flower3.png","74","32.20000000298023","1","0","2","1","1,0.333,0.333,0.333,1,0.333,0.333,0.333,1","1,0.333,0.333,0.333,1,0.333,0.333,0.333,1","1",""
"","html-keyboard-response","67","25274","0.0-67.0","32ZKVD547G98F6JIFIJQB7J1X9V3BM","A3774HPOUKYTX7","3MXX6RQ9EVRTFC527Z18RDK8KW6P4R","","null","<img src=""img/flower3.png"" style=""width:200px;border:14px solid red;"">","null","","","","","","","","",""
"","image-keyboard-response","68","25405","0.0-68.0","32ZKVD547G98F6JIFIJQB7J1X9V3BM","A3774HPOUKYTX7","3MXX6RQ9EVRTFC527Z18RDK8KW6P4R","","128.70000000298023","img/flower4.png","76","129.79999999701977","3","1","1","1","1,0.333,0.333,0.333,1,0.333,0.333,0.333,1","1,0.333,0.333,0.333,1,0.333,0.333,0.333,1","1",""
"","html-keyboard-response","69","25706","0.0-69.0","32ZKVD547G98F6JIFIJQB7J1X9V3BM","A3774HPOUKYTX7","3MXX6RQ9EVRTFC527Z18RDK8KW6P4R","","null","<img src=""img/flower4.png"" style=""width:200px; border:14px solid green;"">","null","","","","","","","","",""
"","image-keyboard-response","70","25880","0.0-70.0","32ZKVD547G98F6JIFIJQB7J1X9V3BM","A3774HPOUKYTX7","3MXX6RQ9EVRTFC527Z18RDK8KW6P4R","","173.39999999850988","img/flower5.png","75","174.30000000447035","2","0","3","1","1,0.333,0.333,0.333,1,0.333,0.333,0.333,1","1,0.333,0.333,0.333,1,0.333,0.333,0.333,1","1",""
"","html-keyboard-response","71","26183","0.0-71.0","32ZKVD547G98F6JIFIJQB7J1X9V3BM","A3774HPOUKYTX7","3MXX6RQ9EVRTFC527Z18RDK8KW6P4R","","null","<img src=""img/flower5.png"" style=""width:200px;border:14px solid red;"">","null","","","","","","","","",""
"","image-keyboard-response","72","26367","0.0-72.0","32ZKVD547G98F6JIFIJQB7J1X9V3BM","A3774HPOUKYTX7","3MXX6RQ9EVRTFC527Z18RDK8KW6P4R","","183.19999999552965","img/flower5.png","76","183.89999999850988","3","1","3","1","1,0.333,0.333,0.333,1,0.333,0.333,0.333,1","1,0.333,0.333,0.333,1,0.333,0.333,0.333,1","1",""
"","html-keyboard-response","73","26669","0.0-73.0","32ZKVD547G98F6JIFIJQB7J1X9V3BM","A3774HPOUKYTX7","3MXX6RQ9EVRTFC527Z18RDK8KW6P4R","","null","<img src=""img/flower5.png"" style=""width:200px; border:14px solid green;"">","null","","","","","","","","",""
"","image-keyboard-response","74","26750","0.0-74.0","32ZKVD547G98F6JIFIJQB7J1X9V3BM","A3774HPOUKYTX7","3MXX6RQ9EVRTFC527Z18RDK8KW6P4R","","80","img/flower5.png","75","80.80000000447035","2","1","3","1","1,0.333,0.333,0.333,1,0.333,0.333,0.333,1","1,0.333,0.333,0.333,1,0.333,0.333,0.333,1","1",""
"","html-keyboard-response","75","27051","0.0-75.0","32ZKVD547G98F6JIFIJQB7J1X9V3BM","A3774HPOUKYTX7","3MXX6RQ9EVRTFC527Z18RDK8KW6P4R","","null","<img src=""img/flower5.png"" style=""width:200px; border:14px solid green;"">","null","","","","","","","","",""
"","image-keyboard-response","76","27346","0.0-76.0","32ZKVD547G98F6JIFIJQB7J1X9V3BM","A3774HPOUKYTX7","3MXX6RQ9EVRTFC527Z18RDK8KW6P4R","","293.5","img/flower3.png","76","294.5","3","0","2","1","1,0.333,0.333,0.333,1,0.333,0.333,0.333,1","1,0.333,0.333,0.333,1,0.333,0.333,0.333,1","1",""
"","html-keyboard-response","77","27648","0.0-77.0","32ZKVD547G98F6JIFIJQB7J1X9V3BM","A3774HPOUKYTX7","3MXX6RQ9EVRTFC527Z18RDK8KW6P4R","","null","<img src=""img/flower3.png"" style=""width:200px;border:14px solid red;"">","null","","","","","","","","",""
"","image-keyboard-response","78","27654","0.0-78.0","32ZKVD547G98F6JIFIJQB7J1X9V3BM","A3774HPOUKYTX7","3MXX6RQ9EVRTFC527Z18RDK8KW6P4R","","4.299999997019768","img/flower5.png","74","5.200000002980232","1","1","3","1","1,0.333,0.333,0.333,1,0.333,0.333,0.333,1","1,0.333,0.333,0.333,1,0.333,0.333,0.333,1","1",""
"","html-keyboard-response","79","27955","0.0-79.0","32ZKVD547G98F6JIFIJQB7J1X9V3BM","A3774HPOUKYTX7","3MXX6RQ9EVRTFC527Z18RDK8KW6P4R","","null","<img src=""img/flower5.png"" style=""width:200px; border:14px solid green;"">","null","","","","","","","","",""
"","image-keyboard-response","80","27974","0.0-80.0","32ZKVD547G98F6JIFIJQB7J1X9V3BM","A3774HPOUKYTX7","3MXX6RQ9EVRTFC527Z18RDK8KW6P4R","","17.899999998509884","img/flower3.png","75","18.600000001490116","2","1","2","1","1,0.333,0.333,0.333,1,0.333,0.333,0.333,1","1,0.333,0.333,0.333,1,0.333,0.333,0.333,1","1",""
"","html-keyboard-response","81","28275","0.0-81.0","32ZKVD547G98F6JIFIJQB7J1X9V3BM","A3774HPOUKYTX7","3MXX6RQ9EVRTFC527Z18RDK8KW6P4R","","null","<img src=""img/flower3.png"" style=""width:200px; border:14px solid green;"">","null","","","","","","","","",""
"","image-keyboard-response","82","28426","0.0-82.0","32ZKVD547G98F6JIFIJQB7J1X9V3BM","A3774HPOUKYTX7","3MXX6RQ9EVRTFC527Z18RDK8KW6P4R","","149.80000000447035","img/flower5.png","75","150.60000000149012","2","0","3","1","1,0.333,0.333,0.333,1,0.333,0.333,0.333,1","1,0.333,0.333,0.333,1,0.333,0.333,0.333,1","1",""
"","html-keyboard-response","83","28727","0.0-83.0","32ZKVD547G98F6JIFIJQB7J1X9V3BM","A3774HPOUKYTX7","3MXX6RQ9EVRTFC527Z18RDK8KW6P4R","","null","<img src=""img/flower5.png"" style=""width:200px;border:14px solid red;"">","null","","","","","","","","",""
"","image-keyboard-response","84","28792","0.0-84.0","32ZKVD547G98F6JIFIJQB7J1X9V3BM","A3774HPOUKYTX7","3MXX6RQ9EVRTFC527Z18RDK8KW6P4R","","63.600000001490116","img/flower4.png","74","64.29999999701977","1","1","1","1","1,0.333,0.333,0.333,1,0.333,0.333,0.333,1","1,0.333,0.333,0.333,1,0.333,0.333,0.333,1","1",""
"","html-keyboard-response","85","29093","0.0-85.0","32ZKVD547G98F6JIFIJQB7J1X9V3BM","A3774HPOUKYTX7","3MXX6RQ9EVRTFC527Z18RDK8KW6P4R","","null","<img src=""img/flower4.png"" style=""width:200px; border:14px solid green;"">","null","","","","","","","","",""
"","image-keyboard-response","86","29174","0.0-86.0","32ZKVD547G98F6JIFIJQB7J1X9V3BM","A3774HPOUKYTX7","3MXX6RQ9EVRTFC527Z18RDK8KW6P4R","","79.40000000596046","img/flower4.png","75","80.10000000149012","2","1","1","1","1,0.333,0.333,0.333,1,0.333,0.333,0.333,1","1,0.333,0.333,0.333,1,0.333,0.333,0.333,1","1",""
"","html-keyboard-response","87","29475","0.0-87.0","32ZKVD547G98F6JIFIJQB7J1X9V3BM","A3774HPOUKYTX7","3MXX6RQ9EVRTFC527Z18RDK8KW6P4R","","null","<img src=""img/flower4.png"" style=""width:200px; border:14px solid green;"">","null","","","","","","","","",""
"","image-keyboard-response","88","29705","0.0-88.0","32ZKVD547G98F6JIFIJQB7J1X9V3BM","A3774HPOUKYTX7","3MXX6RQ9EVRTFC527Z18RDK8KW6P4R","","228.30000000447035","img/flower3.png","75","229.29999999701977","2","1","2","1","1,0.333,0.333,0.333,1,0.333,0.333,0.333,1","1,0.333,0.333,0.333,1,0.333,0.333,0.333,1","1",""
"","html-keyboard-response","89","30007","0.0-89.0","32ZKVD547G98F6JIFIJQB7J1X9V3BM","A3774HPOUKYTX7","3MXX6RQ9EVRTFC527Z18RDK8KW6P4R","","null","<img src=""img/flower3.png"" style=""width:200px; border:14px solid green;"">","null","","","","","","","","",""
"","image-keyboard-response","90","30300","0.0-90.0","32ZKVD547G98F6JIFIJQB7J1X9V3BM","A3774HPOUKYTX7","3MXX6RQ9EVRTFC527Z18RDK8KW6P4R","","292.1000000014901","img/flower4.png","75","293","2","0","1","1","1,0.333,0.333,0.333,1,0.333,0.333,0.333,1","1,0.333,0.333,0.333,1,0.333,0.333,0.333,1","1",""
"","html-keyboard-response","91","30603","0.0-91.0","32ZKVD547G98F6JIFIJQB7J1X9V3BM","A3774HPOUKYTX7","3MXX6RQ9EVRTFC527Z18RDK8KW6P4R","","null","<img src=""img/flower4.png"" style=""width:200px;border:14px solid red;"">","null","","","","","","","","",""
"","image-keyboard-response","92","31178","0.0-92.0","32ZKVD547G98F6JIFIJQB7J1X9V3BM","A3774HPOUKYTX7","3MXX6RQ9EVRTFC527Z18RDK8KW6P4R","","573.6999999955297","img/flower3.png","75","574.8999999985099","2","1","2","1","1,0.333,0.333,0.333,1,0.333,0.333,0.333,1","1,0.333,0.333,0.333,1,0.333,0.333,0.333,1","1",""
"","html-keyboard-response","93","31480","0.0-93.0","32ZKVD547G98F6JIFIJQB7J1X9V3BM","A3774HPOUKYTX7","3MXX6RQ9EVRTFC527Z18RDK8KW6P4R","","null","<img src=""img/flower3.png"" style=""width:200px; border:14px solid green;"">","null","","","","","","","","",""
"","image-keyboard-response","94","31719","0.0-94.0","32ZKVD547G98F6JIFIJQB7J1X9V3BM","A3774HPOUKYTX7","3MXX6RQ9EVRTFC527Z18RDK8KW6P4R","","237.69999999552965","img/flower5.png","75","238.40000000596046","2","0","3","1","1,0.333,0.333,0.333,1,0.333,0.333,0.333,1","1,0.333,0.333,0.333,1,0.333,0.333,0.333,1","1",""
"","html-keyboard-response","95","32021","0.0-95.0","32ZKVD547G98F6JIFIJQB7J1X9V3BM","A3774HPOUKYTX7","3MXX6RQ9EVRTFC527Z18RDK8KW6P4R","","null","<img src=""img/flower5.png"" style=""width:200px;border:14px solid red;"">","null","","","","","","","","",""
"","image-keyboard-response","96","32593","0.0-96.0","32ZKVD547G98F6JIFIJQB7J1X9V3BM","A3774HPOUKYTX7","3MXX6RQ9EVRTFC527Z18RDK8KW6P4R","","570.6000000014901","img/flower3.png","75","571.3999999985099","2","1","2","1","1,0.333,0.333,0.333,1,0.333,0.333,0.333,1","1,0.333,0.333,0.333,1,0.333,0.333,0.333,1","1",""
"","html-keyboard-response","97","32894","0.0-97.0","32ZKVD547G98F6JIFIJQB7J1X9V3BM","A3774HPOUKYTX7","3MXX6RQ9EVRTFC527Z18RDK8KW6P4R","","null","<img src=""img/flower3.png"" style=""width:200px; border:14px solid green;"">","null","","","","","","","","",""
"","image-keyboard-response","98","33266","0.0-98.0","32ZKVD547G98F6JIFIJQB7J1X9V3BM","A3774HPOUKYTX7","3MXX6RQ9EVRTFC527Z18RDK8KW6P4R","","371.70000000298023","img/flower3.png","75","372.6000000014901","2","1","2","1","1,0.333,0.333,0.333,1,0.333,0.333,0.333,1","1,0.333,0.333,0.333,1,0.333,0.333,0.333,1","1",""
"","html-keyboard-response","99","33568","0.0-99.0","32ZKVD547G98F6JIFIJQB7J1X9V3BM","A3774HPOUKYTX7","3MXX6RQ9EVRTFC527Z18RDK8KW6P4R","","null","<img src=""img/flower3.png"" style=""width:200px; border:14px solid green;"">","null","","","","","","","","",""
"","image-keyboard-response","100","33738","0.0-100.0","32ZKVD547G98F6JIFIJQB7J1X9V3BM","A3774HPOUKYTX7","3MXX6RQ9EVRTFC527Z18RDK8KW6P4R","","168.20000000298023","img/flower3.png","75","169.10000000149012","2","1","2","1","1,0.333,0.333,0.333,1,0.333,0.333,0.333,1","1,0.333,0.333,0.333,1,0.333,0.333,0.333,1","1",""
"","html-keyboard-response","101","34040","0.0-101.0","32ZKVD547G98F6JIFIJQB7J1X9V3BM","A3774HPOUKYTX7","3MXX6RQ9EVRTFC527Z18RDK8KW6P4R","","null","<img src=""img/flower3.png"" style=""width:200px; border:14px solid green;"">","null","","","","","","","","",""
"","image-keyboard-response","102","34137","0.0-102.0","32ZKVD547G98F6JIFIJQB7J1X9V3BM","A3774HPOUKYTX7","3MXX6RQ9EVRTFC527Z18RDK8KW6P4R","","95.20000000298023","img/flower3.png","74","95.89999999850988","1","0","2","1","1,0.333,0.333,0.333,1,0.333,0.333,0.333,1","1,0.333,0.333,0.333,1,0.333,0.333,0.333,1","1",""
"","html-keyboard-response","103","34438","0.0-103.0","32ZKVD547G98F6JIFIJQB7J1X9V3BM","A3774HPOUKYTX7","3MXX6RQ9EVRTFC527Z18RDK8KW6P4R","","null","<img src=""img/flower3.png"" style=""width:200px;border:14px solid red;"">","null","","","","","","","","",""
"","image-keyboard-response","104","34609","0.0-104.0","32ZKVD547G98F6JIFIJQB7J1X9V3BM","A3774HPOUKYTX7","3MXX6RQ9EVRTFC527Z18RDK8KW6P4R","","169.79999999701977","img/flower5.png","76","170.60000000149012","3","1","3","1","1,0.333,0.333,0.333,1,0.333,0.333,0.333,1","1,0.333,0.333,0.333,1,0.333,0.333,0.333,1","1",""
"","html-keyboard-response","105","34910","0.0-105.0","32ZKVD547G98F6JIFIJQB7J1X9V3BM","A3774HPOUKYTX7","3MXX6RQ9EVRTFC527Z18RDK8KW6P4R","","null","<img src=""img/flower5.png"" style=""width:200px; border:14px solid green;"">","null","","","","","","","","",""
"","image-keyboard-response","106","35102","0.0-106.0","32ZKVD547G98F6JIFIJQB7J1X9V3BM","A3774HPOUKYTX7","3MXX6RQ9EVRTFC527Z18RDK8KW6P4R","","190.19999999552965","img/flower4.png","74","191.10000000149012","1","1","1","1","1,0.333,0.333,0.333,1,0.333,0.333,0.333,1","1,0.333,0.333,0.333,1,0.333,0.333,0.333,1","1",""
"","html-keyboard-response","107","35404","0.0-107.0","32ZKVD547G98F6JIFIJQB7J1X9V3BM","A3774HPOUKYTX7","3MXX6RQ9EVRTFC527Z18RDK8KW6P4R","","null","<img src=""img/flower4.png"" style=""width:200px; border:14px solid green;"">","null","","","","","","","","",""
"","image-keyboard-response","108","35607","0.0-108.0","32ZKVD547G98F6JIFIJQB7J1X9V3BM","A3774HPOUKYTX7","3MXX6RQ9EVRTFC527Z18RDK8KW6P4R","","201.89999999850988","img/flower5.png","75","202.70000000298023","2","1","3","1","1,0.333,0.333,0.333,1,0.333,0.333,0.333,1","1,0.333,0.333,0.333,1,0.333,0.333,0.333,1","1",""
"","html-keyboard-response","109","35908","0.0-109.0","32ZKVD547G98F6JIFIJQB7J1X9V3BM","A3774HPOUKYTX7","3MXX6RQ9EVRTFC527Z18RDK8KW6P4R","","null","<img src=""img/flower5.png"" style=""width:200px; border:14px solid green;"">","null","","","","","","","","",""
"","image-keyboard-response","110","36073","0.0-110.0","32ZKVD547G98F6JIFIJQB7J1X9V3BM","A3774HPOUKYTX7","3MXX6RQ9EVRTFC527Z18RDK8KW6P4R","","164.40000000596046","img/flower3.png","76","165.30000000447035","3","1","2","1","1,0.333,0.333,0.333,1,0.333,0.333,0.333,1","1,0.333,0.333,0.333,1,0.333,0.333,0.333,1","1",""
"","html-keyboard-response","111","36375","0.0-111.0","32ZKVD547G98F6JIFIJQB7J1X9V3BM","A3774HPOUKYTX7","3MXX6RQ9EVRTFC527Z18RDK8KW6P4R","","null","<img src=""img/flower3.png"" style=""width:200px; border:14px solid green;"">","null","","","","","","","","",""
"","image-keyboard-response","112","36630","0.0-112.0","32ZKVD547G98F6JIFIJQB7J1X9V3BM","A3774HPOUKYTX7","3MXX6RQ9EVRTFC527Z18RDK8KW6P4R","","253.60000000149012","img/flower4.png","74","254.5","1","1","1","1","1,0.333,0.333,0.333,1,0.333,0.333,0.333,1","1,0.333,0.333,0.333,1,0.333,0.333,0.333,1","1",""
"","html-keyboard-response","113","36932","0.0-113.0","32ZKVD547G98F6JIFIJQB7J1X9V3BM","A3774HPOUKYTX7","3MXX6RQ9EVRTFC527Z18RDK8KW6P4R","","null","<img src=""img/flower4.png"" style=""width:200px; border:14px solid green;"">","null","","","","","","","","",""
"","image-keyboard-response","114","37082","0.0-114.0","32ZKVD547G98F6JIFIJQB7J1X9V3BM","A3774HPOUKYTX7","3MXX6RQ9EVRTFC527Z18RDK8KW6P4R","","149.29999999701977","img/flower3.png","75","150.09999999403954","2","1","2","1","1,0.333,0.333,0.333,1,0.333,0.333,0.333,1","1,0.333,0.333,0.333,1,0.333,0.333,0.333,1","1",""
"","html-keyboard-response","115","37383","0.0-115.0","32ZKVD547G98F6JIFIJQB7J1X9V3BM","A3774HPOUKYTX7","3MXX6RQ9EVRTFC527Z18RDK8KW6P4R","","null","<img src=""img/flower3.png"" style=""width:200px; border:14px solid green;"">","null","","","","","","","","",""
"","image-keyboard-response","116","37493","0.0-116.0","32ZKVD547G98F6JIFIJQB7J1X9V3BM","A3774HPOUKYTX7","3MXX6RQ9EVRTFC527Z18RDK8KW6P4R","","109.09999999403954","img/flower5.png","76","110","3","1","3","1","1,0.333,0.333,0.333,1,0.333,0.333,0.333,1","1,0.333,0.333,0.333,1,0.333,0.333,0.333,1","1",""
"","html-keyboard-response","117","37794","0.0-117.0","32ZKVD547G98F6JIFIJQB7J1X9V3BM","A3774HPOUKYTX7","3MXX6RQ9EVRTFC527Z18RDK8KW6P4R","","null","<img src=""img/flower5.png"" style=""width:200px; border:14px solid green;"">","null","","","","","","","","",""
"","image-keyboard-response","118","37971","0.0-118.0","32ZKVD547G98F6JIFIJQB7J1X9V3BM","A3774HPOUKYTX7","3MXX6RQ9EVRTFC527Z18RDK8KW6P4R","","175.19999999552965","img/flower4.png","75","176.20000000298023","2","1","1","1","1,0.333,0.333,0.333,1,0.333,0.333,0.333,1","1,0.333,0.333,0.333,1,0.333,0.333,0.333,1","1",""
"","html-keyboard-response","119","38272","0.0-119.0","32ZKVD547G98F6JIFIJQB7J1X9V3BM","A3774HPOUKYTX7","3MXX6RQ9EVRTFC527Z18RDK8KW6P4R","","null","<img src=""img/flower4.png"" style=""width:200px; border:14px solid green;"">","null","","","","","","","","",""
"","image-keyboard-response","120","38423","0.0-120.0","32ZKVD547G98F6JIFIJQB7J1X9V3BM","A3774HPOUKYTX7","3MXX6RQ9EVRTFC527Z18RDK8KW6P4R","","149.20000000298023","img/flower3.png","74","150","1","0","2","1","1,0.333,0.333,0.333,1,0.333,0.333,0.333,1","1,0.333,0.333,0.333,1,0.333,0.333,0.333,1","1",""
"","html-keyboard-response","121","38724","0.0-121.0","32ZKVD547G98F6JIFIJQB7J1X9V3BM","A3774HPOUKYTX7","3MXX6RQ9EVRTFC527Z18RDK8KW6P4R","","null","<img src=""img/flower3.png"" style=""width:200px;border:14px solid red;"">","null","","","","","","","","",""
"","image-keyboard-response","122","39051","0.0-122.0","32ZKVD547G98F6JIFIJQB7J1X9V3BM","A3774HPOUKYTX7","3MXX6RQ9EVRTFC527Z18RDK8KW6P4R","","325.8999999985099","img/flower4.png","75","326.90000000596046","2","1","1","1","1,0.333,0.333,0.333,1,0.333,0.333,0.333,1","1,0.333,0.333,0.333,1,0.333,0.333,0.333,1","1",""
"","html-keyboard-response","123","39352","0.0-123.0","32ZKVD547G98F6JIFIJQB7J1X9V3BM","A3774HPOUKYTX7","3MXX6RQ9EVRTFC527Z18RDK8KW6P4R","","null","<img src=""img/flower4.png"" style=""width:200px; border:14px solid green;"">","null","","","","","","","","",""
"","image-keyboard-response","124","39498","0.0-124.0","32ZKVD547G98F6JIFIJQB7J1X9V3BM","A3774HPOUKYTX7","3MXX6RQ9EVRTFC527Z18RDK8KW6P4R","","144.29999999701977","img/flower3.png","76","145.10000000149012","3","0","2","1","1,0.333,0.333,0.333,1,0.333,0.333,0.333,1","1,0.333,0.333,0.333,1,0.333,0.333,0.333,1","1",""
"","html-keyboard-response","125","39799","0.0-125.0","32ZKVD547G98F6JIFIJQB7J1X9V3BM","A3774HPOUKYTX7","3MXX6RQ9EVRTFC527Z18RDK8KW6P4R","","null","<img src=""img/flower3.png"" style=""width:200px;border:14px solid red;"">","null","","","","","","","","",""
"","image-keyboard-response","126","39944","0.0-126.0","32ZKVD547G98F6JIFIJQB7J1X9V3BM","A3774HPOUKYTX7","3MXX6RQ9EVRTFC527Z18RDK8KW6P4R","","143.89999999850988","img/flower5.png","75","144.40000000596046","2","0","3","1","1,0.333,0.333,0.333,1,0.333,0.333,0.333,1","1,0.333,0.333,0.333,1,0.333,0.333,0.333,1","1",""
"","html-keyboard-response","127","40245","0.0-127.0","32ZKVD547G98F6JIFIJQB7J1X9V3BM","A3774HPOUKYTX7","3MXX6RQ9EVRTFC527Z18RDK8KW6P4R","","null","<img src=""img/flower5.png"" style=""width:200px;border:14px solid red;"">","null","","","","","","","","",""
"","image-keyboard-response","128","40362","0.0-128.0","32ZKVD547G98F6JIFIJQB7J1X9V3BM","A3774HPOUKYTX7","3MXX6RQ9EVRTFC527Z18RDK8KW6P4R","","116.29999999701977","img/flower3.png","74","117.20000000298023","1","0","2","1","1,0.333,0.333,0.333,1,0.333,0.333,0.333,1","1,0.333,0.333,0.333,1,0.333,0.333,0.333,1","1",""
"","html-keyboard-response","129","40663","0.0-129.0","32ZKVD547G98F6JIFIJQB7J1X9V3BM","A3774HPOUKYTX7","3MXX6RQ9EVRTFC527Z18RDK8KW6P4R","","null","<img src=""img/flower3.png"" style=""width:200px;border:14px solid red;"">","null","","","","","","","","",""
"","image-keyboard-response","130","40945","0.0-130.0","32ZKVD547G98F6JIFIJQB7J1X9V3BM","A3774HPOUKYTX7","3MXX6RQ9EVRTFC527Z18RDK8KW6P4R","","280.3999999985099","img/flower3.png","76","281.1000000014901","3","0","2","1","1,0.333,0.333,0.333,1,0.333,0.333,0.333,1","1,0.333,0.333,0.333,1,0.333,0.333,0.333,1","1",""
"","html-keyboard-response","131","41246","0.0-131.0","32ZKVD547G98F6JIFIJQB7J1X9V3BM","A3774HPOUKYTX7","3MXX6RQ9EVRTFC527Z18RDK8KW6P4R","","null","<img src=""img/flower3.png"" style=""width:200px;border:14px solid red;"">","null","","","","","","","","",""
"","image-keyboard-response","132","41564","0.0-132.0","32ZKVD547G98F6JIFIJQB7J1X9V3BM","A3774HPOUKYTX7","3MXX6RQ9EVRTFC527Z18RDK8KW6P4R","","317.5","img/flower3.png","75","318.29999999701977","2","1","2","1","1,0.333,0.333,0.333,1,0.333,0.333,0.333,1","1,0.333,0.333,0.333,1,0.333,0.333,0.333,1","1",""
"","html-keyboard-response","133","41866","0.0-133.0","32ZKVD547G98F6JIFIJQB7J1X9V3BM","A3774HPOUKYTX7","3MXX6RQ9EVRTFC527Z18RDK8KW6P4R","","null","<img src=""img/flower3.png"" style=""width:200px; border:14px solid green;"">","null","","","","","","","","",""
"","image-keyboard-response","134","42019","0.0-134.0","32ZKVD547G98F6JIFIJQB7J1X9V3BM","A3774HPOUKYTX7","3MXX6RQ9EVRTFC527Z18RDK8KW6P4R","","152.09999999403954","img/flower5.png","74","152.89999999850988","1","0","3","1","1,0.333,0.333,0.333,1,0.333,0.333,0.333,1","1,0.333,0.333,0.333,1,0.333,0.333,0.333,1","1",""
"","html-keyboard-response","135","42321","0.0-135.0","32ZKVD547G98F6JIFIJQB7J1X9V3BM","A3774HPOUKYTX7","3MXX6RQ9EVRTFC527Z18RDK8KW6P4R","","null","<img src=""img/flower5.png"" style=""width:200px;border:14px solid red;"">","null","","","","","","","","",""
"","image-keyboard-response","136","42575","0.0-136.0","32ZKVD547G98F6JIFIJQB7J1X9V3BM","A3774HPOUKYTX7","3MXX6RQ9EVRTFC527Z18RDK8KW6P4R","","252.80000000447035","img/flower3.png","75","253.5","2","1","2","1","1,0.333,0.333,0.333,1,0.333,0.333,0.333,1","1,0.333,0.333,0.333,1,0.333,0.333,0.333,1","1",""
"","html-keyboard-response","137","42877","0.0-137.0","32ZKVD547G98F6JIFIJQB7J1X9V3BM","A3774HPOUKYTX7","3MXX6RQ9EVRTFC527Z18RDK8KW6P4R","","null","<img src=""img/flower3.png"" style=""width:200px; border:14px solid green;"">","null","","","","","","","","",""
"","image-keyboard-response","138","43009","0.0-138.0","32ZKVD547G98F6JIFIJQB7J1X9V3BM","A3774HPOUKYTX7","3MXX6RQ9EVRTFC527Z18RDK8KW6P4R","","131","img/flower4.png","76","132","3","0","1","1","1,0.333,0.333,0.333,1,0.333,0.333,0.333,1","1,0.333,0.333,0.333,1,0.333,0.333,0.333,1","1",""
"","html-keyboard-response","139","43312","0.0-139.0","32ZKVD547G98F6JIFIJQB7J1X9V3BM","A3774HPOUKYTX7","3MXX6RQ9EVRTFC527Z18RDK8KW6P4R","","null","<img src=""img/flower4.png"" style=""width:200px;border:14px solid red;"">","null","","","","","","","","",""
"","image-keyboard-response","140","43681","0.0-140.0","32ZKVD547G98F6JIFIJQB7J1X9V3BM","A3774HPOUKYTX7","3MXX6RQ9EVRTFC527Z18RDK8KW6P4R","","367.90000000596046","img/flower5.png","75","369","2","1","3","1","1,0.333,0.333,0.333,1,0.333,0.333,0.333,1","1,0.333,0.333,0.333,1,0.333,0.333,0.333,1","1",""
"","html-keyboard-response","141","43983","0.0-141.0","32ZKVD547G98F6JIFIJQB7J1X9V3BM","A3774HPOUKYTX7","3MXX6RQ9EVRTFC527Z18RDK8KW6P4R","","null","<img src=""img/flower5.png"" style=""width:200px; border:14px solid green;"">","null","","","","","","","","",""
"","image-keyboard-response","142","44217","0.0-142.0","32ZKVD547G98F6JIFIJQB7J1X9V3BM","A3774HPOUKYTX7","3MXX6RQ9EVRTFC527Z18RDK8KW6P4R","","233.39999999850988","img/flower4.png","75","234.39999999850988","2","1","1","1","1,0.333,0.333,0.333,1,0.333,0.333,0.333,1","1,0.333,0.333,0.333,1,0.333,0.333,0.333,1","1",""
"","html-keyboard-response","143","44519","0.0-143.0","32ZKVD547G98F6JIFIJQB7J1X9V3BM","A3774HPOUKYTX7","3MXX6RQ9EVRTFC527Z18RDK8KW6P4R","","null","<img src=""img/flower4.png"" style=""width:200px; border:14px solid green;"">","null","","","","","","","","",""
"","image-keyboard-response","144","44616","0.0-144.0","32ZKVD547G98F6JIFIJQB7J1X9V3BM","A3774HPOUKYTX7","3MXX6RQ9EVRTFC527Z18RDK8KW6P4R","","96","img/flower3.png","74","96.79999999701977","1","1","2","1","1,0.333,0.333,0.333,1,0.333,0.333,0.333,1","1,0.333,0.333,0.333,1,0.333,0.333,0.333,1","1",""
"","html-keyboard-response","145","44918","0.0-145.0","32ZKVD547G98F6JIFIJQB7J1X9V3BM","A3774HPOUKYTX7","3MXX6RQ9EVRTFC527Z18RDK8KW6P4R","","null","<img src=""img/flower3.png"" style=""width:200px; border:14px solid green;"">","null","","","","","","","","",""
"","image-keyboard-response","146","45236","0.0-146.0","32ZKVD547G98F6JIFIJQB7J1X9V3BM","A3774HPOUKYTX7","3MXX6RQ9EVRTFC527Z18RDK8KW6P4R","","316.79999999701977","img/flower5.png","75","317.69999999552965","2","0","3","1","1,0.333,0.333,0.333,1,0.333,0.333,0.333,1","1,0.333,0.333,0.333,1,0.333,0.333,0.333,1","1",""
"","html-keyboard-response","147","45539","0.0-147.0","32ZKVD547G98F6JIFIJQB7J1X9V3BM","A3774HPOUKYTX7","3MXX6RQ9EVRTFC527Z18RDK8KW6P4R","","null","<img src=""img/flower5.png"" style=""width:200px;border:14px solid red;"">","null","","","","","","","","",""
"","image-keyboard-response","148","46026","0.0-148.0","32ZKVD547G98F6JIFIJQB7J1X9V3BM","A3774HPOUKYTX7","3MXX6RQ9EVRTFC527Z18RDK8KW6P4R","","486.09999999403954","img/flower4.png","74","487.1000000014901","1","1","1","1","1,0.333,0.333,0.333,1,0.333,0.333,0.333,1","1,0.333,0.333,0.333,1,0.333,0.333,0.333,1","1",""
"","html-keyboard-response","149","46330","0.0-149.0","32ZKVD547G98F6JIFIJQB7J1X9V3BM","A3774HPOUKYTX7","3MXX6RQ9EVRTFC527Z18RDK8KW6P4R","","null","<img src=""img/flower4.png"" style=""width:200px; border:14px solid green;"">","null","","","","","","","","",""
"","image-keyboard-response","150","46520","0.0-150.0","32ZKVD547G98F6JIFIJQB7J1X9V3BM","A3774HPOUKYTX7","3MXX6RQ9EVRTFC527Z18RDK8KW6P4R","","189.09999999403954","img/flower4.png","75","190","2","1","1","1","1,0.333,0.333,0.333,1,0.333,0.333,0.333,1","1,0.333,0.333,0.333,1,0.333,0.333,0.333,1","1",""
"","html-keyboard-response","151","46822","0.0-151.0","32ZKVD547G98F6JIFIJQB7J1X9V3BM","A3774HPOUKYTX7","3MXX6RQ9EVRTFC527Z18RDK8KW6P4R","","null","<img src=""img/flower4.png"" style=""width:200px; border:14px solid green;"">","null","","","","","","","","",""
"","image-keyboard-response","152","47033","0.0-152.0","32ZKVD547G98F6JIFIJQB7J1X9V3BM","A3774HPOUKYTX7","3MXX6RQ9EVRTFC527Z18RDK8KW6P4R","","210.10000000149012","img/flower4.png","76","211.5","3","0","1","1","1,0.333,0.333,0.333,1,0.333,0.333,0.333,1","1,0.333,0.333,0.333,1,0.333,0.333,0.333,1","1",""
"","html-keyboard-response","153","47336","0.0-153.0","32ZKVD547G98F6JIFIJQB7J1X9V3BM","A3774HPOUKYTX7","3MXX6RQ9EVRTFC527Z18RDK8KW6P4R","","null","<img src=""img/flower4.png"" style=""width:200px;border:14px solid red;"">","null","","","","","","","","",""
"","image-keyboard-response","154","47690","0.0-154.0","32ZKVD547G98F6JIFIJQB7J1X9V3BM","A3774HPOUKYTX7","3MXX6RQ9EVRTFC527Z18RDK8KW6P4R","","352.3999999985099","img/flower3.png","76","353.29999999701977","3","0","2","1","1,0.333,0.333,0.333,1,0.333,0.333,0.333,1","1,0.333,0.333,0.333,1,0.333,0.333,0.333,1","1",""
"","html-keyboard-response","155","47991","0.0-155.0","32ZKVD547G98F6JIFIJQB7J1X9V3BM","A3774HPOUKYTX7","3MXX6RQ9EVRTFC527Z18RDK8KW6P4R","","null","<img src=""img/flower3.png"" style=""width:200px;border:14px solid red;"">","null","","","","","","","","",""
"","image-keyboard-response","156","48197","0.0-156.0","32ZKVD547G98F6JIFIJQB7J1X9V3BM","A3774HPOUKYTX7","3MXX6RQ9EVRTFC527Z18RDK8KW6P4R","","204.29999999701977","img/flower3.png","75","205.09999999403954","2","1","2","1","1,0.333,0.333,0.333,1,0.333,0.333,0.333,1","1,0.333,0.333,0.333,1,0.333,0.333,0.333,1","1",""
"","html-keyboard-response","157","48498","0.0-157.0","32ZKVD547G98F6JIFIJQB7J1X9V3BM","A3774HPOUKYTX7","3MXX6RQ9EVRTFC527Z18RDK8KW6P4R","","null","<img src=""img/flower3.png"" style=""width:200px; border:14px solid green;"">","null","","","","","","","","",""
"","image-keyboard-response","158","48599","0.0-158.0","32ZKVD547G98F6JIFIJQB7J1X9V3BM","A3774HPOUKYTX7","3MXX6RQ9EVRTFC527Z18RDK8KW6P4R","","99.69999999552965","img/flower4.png","75","100.59999999403954","2","0","1","1","1,0.333,0.333,0.333,1,0.333,0.333,0.333,1","1,0.333,0.333,0.333,1,0.333,0.333,0.333,1","1",""
"","html-keyboard-response","159","48902","0.0-159.0","32ZKVD547G98F6JIFIJQB7J1X9V3BM","A3774HPOUKYTX7","3MXX6RQ9EVRTFC527Z18RDK8KW6P4R","","null","<img src=""img/flower4.png"" style=""width:200px;border:14px solid red;"">","null","","","","","","","","",""
"","image-keyboard-response","160","49246","0.0-160.0","32ZKVD547G98F6JIFIJQB7J1X9V3BM","A3774HPOUKYTX7","3MXX6RQ9EVRTFC527Z18RDK8KW6P4R","","342.79999999701977","img/flower4.png","75","343.90000000596046","2","0","1","1","1,0.333,0.333,0.333,1,0.333,0.333,0.333,1","1,0.333,0.333,0.333,1,0.333,0.333,0.333,1","1",""
"","html-keyboard-response","161","49547","0.0-161.0","32ZKVD547G98F6JIFIJQB7J1X9V3BM","A3774HPOUKYTX7","3MXX6RQ9EVRTFC527Z18RDK8KW6P4R","","null","<img src=""img/flower4.png"" style=""width:200px;border:14px solid red;"">","null","","","","","","","","",""
"","image-keyboard-response","162","49686","0.0-162.0","32ZKVD547G98F6JIFIJQB7J1X9V3BM","A3774HPOUKYTX7","3MXX6RQ9EVRTFC527Z18RDK8KW6P4R","","136.59999999403954","img/flower3.png","76","138","3","0","2","1","1,0.333,0.333,0.333,1,0.333,0.333,0.333,1","1,0.333,0.333,0.333,1,0.333,0.333,0.333,1","1",""
"","html-keyboard-response","163","49989","0.0-163.0","32ZKVD547G98F6JIFIJQB7J1X9V3BM","A3774HPOUKYTX7","3MXX6RQ9EVRTFC527Z18RDK8KW6P4R","","null","<img src=""img/flower3.png"" style=""width:200px;border:14px solid red;"">","null","","","","","","","","",""
"","image-keyboard-response","164","50161","0.0-164.0","32ZKVD547G98F6JIFIJQB7J1X9V3BM","A3774HPOUKYTX7","3MXX6RQ9EVRTFC527Z18RDK8KW6P4R","","170.39999999850988","img/flower4.png","76","171.79999999701977","3","0","1","1","1,0.333,0.333,0.333,1,0.333,0.333,0.333,1","1,0.333,0.333,0.333,1,0.333,0.333,0.333,1","1",""
"","html-keyboard-response","165","50464","0.0-165.0","32ZKVD547G98F6JIFIJQB7J1X9V3BM","A3774HPOUKYTX7","3MXX6RQ9EVRTFC527Z18RDK8KW6P4R","","null","<img src=""img/flower4.png"" style=""width:200px;border:14px solid red;"">","null","","","","","","","","",""
"","image-keyboard-response","166","50664","0.0-166.0","32ZKVD547G98F6JIFIJQB7J1X9V3BM","A3774HPOUKYTX7","3MXX6RQ9EVRTFC527Z18RDK8KW6P4R","","198.79999999701977","img/flower4.png","76","200.10000000149012","3","0","1","1","1,0.333,0.333,0.333,1,0.333,0.333,0.333,1","1,0.333,0.333,0.333,1,0.333,0.333,0.333,1","1",""
"","html-keyboard-response","167","50967","0.0-167.0","32ZKVD547G98F6JIFIJQB7J1X9V3BM","A3774HPOUKYTX7","3MXX6RQ9EVRTFC527Z18RDK8KW6P4R","","null","<img src=""img/flower4.png"" style=""width:200px;border:14px solid red;"">","null","","","","","","","","",""
"","image-keyboard-response","168","51114","0.0-168.0","32ZKVD547G98F6JIFIJQB7J1X9V3BM","A3774HPOUKYTX7","3MXX6RQ9EVRTFC527Z18RDK8KW6P4R","","146.29999999701977","img/flower5.png","75","147.29999999701977","2","0","3","1","1,0.333,0.333,0.333,1,0.333,0.333,0.333,1","1,0.333,0.333,0.333,1,0.333,0.333,0.333,1","1",""
"","html-keyboard-response","169","51418","0.0-169.0","32ZKVD547G98F6JIFIJQB7J1X9V3BM","A3774HPOUKYTX7","3MXX6RQ9EVRTFC527Z18RDK8KW6P4R","","null","<img src=""img/flower5.png"" style=""width:200px;border:14px solid red;"">","null","","","","","","","","",""
"","image-keyboard-response","170","52532","0.0-170.0","32ZKVD547G98F6JIFIJQB7J1X9V3BM","A3774HPOUKYTX7","3MXX6RQ9EVRTFC527Z18RDK8KW6P4R","","1113","img/flower4.png","76","1115.1000000014901","3","1","1","1","1,0.333,0.333,0.333,1,0.333,0.333,0.333,1","1,0.333,0.333,0.333,1,0.333,0.333,0.333,1","1",""
"","html-keyboard-response","171","52834","0.0-171.0","32ZKVD547G98F6JIFIJQB7J1X9V3BM","A3774HPOUKYTX7","3MXX6RQ9EVRTFC527Z18RDK8KW6P4R","","null","<img src=""img/flower4.png"" style=""width:200px; border:14px solid green;"">","null","","","","","","","","",""
"","image-keyboard-response","172","53083","0.0-172.0","32ZKVD547G98F6JIFIJQB7J1X9V3BM","A3774HPOUKYTX7","3MXX6RQ9EVRTFC527Z18RDK8KW6P4R","","247.5","img/flower3.png","74","248.29999999701977","1","1","2","1","1,0.333,0.333,0.333,1,0.333,0.333,0.333,1","1,0.333,0.333,0.333,1,0.333,0.333,0.333,1","1",""
"","html-keyboard-response","173","53385","0.0-173.0","32ZKVD547G98F6JIFIJQB7J1X9V3BM","A3774HPOUKYTX7","3MXX6RQ9EVRTFC527Z18RDK8KW6P4R","","null","<img src=""img/flower3.png"" style=""width:200px; border:14px solid green;"">","null","","","","","","","","",""
"","image-keyboard-response","174","53427","0.0-174.0","32ZKVD547G98F6JIFIJQB7J1X9V3BM","A3774HPOUKYTX7","3MXX6RQ9EVRTFC527Z18RDK8KW6P4R","","41.70000000298023","img/flower4.png","75","42.5","2","0","1","1","1,0.333,0.333,0.333,1,0.333,0.333,0.333,1","1,0.333,0.333,0.333,1,0.333,0.333,0.333,1","1",""
"","html-keyboard-response","175","53730","0.0-175.0","32ZKVD547G98F6JIFIJQB7J1X9V3BM","A3774HPOUKYTX7","3MXX6RQ9EVRTFC527Z18RDK8KW6P4R","","null","<img src=""img/flower4.png"" style=""width:200px;border:14px solid red;"">","null","","","","","","","","",""
"","image-keyboard-response","176","53899","0.0-176.0","32ZKVD547G98F6JIFIJQB7J1X9V3BM","A3774HPOUKYTX7","3MXX6RQ9EVRTFC527Z18RDK8KW6P4R","","168.5","img/flower5.png","75","169.29999999701977","2","0","3","1","1,0.333,0.333,0.333,1,0.333,0.333,0.333,1","1,0.333,0.333,0.333,1,0.333,0.333,0.333,1","1",""
"","html-keyboard-response","177","54201","0.0-177.0","32ZKVD547G98F6JIFIJQB7J1X9V3BM","A3774HPOUKYTX7","3MXX6RQ9EVRTFC527Z18RDK8KW6P4R","","null","<img src=""img/flower5.png"" style=""width:200px;border:14px solid red;"">","null","","","","","","","","",""
"","image-keyboard-response","178","54345","0.0-178.0","32ZKVD547G98F6JIFIJQB7J1X9V3BM","A3774HPOUKYTX7","3MXX6RQ9EVRTFC527Z18RDK8KW6P4R","","143.5","img/flower3.png","74","144.30000000447035","1","0","2","1","1,0.333,0.333,0.333,1,0.333,0.333,0.333,1","1,0.333,0.333,0.333,1,0.333,0.333,0.333,1","1",""
"","html-keyboard-response","179","54646","0.0-179.0","32ZKVD547G98F6JIFIJQB7J1X9V3BM","A3774HPOUKYTX7","3MXX6RQ9EVRTFC527Z18RDK8KW6P4R","","null","<img src=""img/flower3.png"" style=""width:200px;border:14px solid red;"">","null","","","","","","","","",""
"","image-keyboard-response","180","54696","0.0-180.0","32ZKVD547G98F6JIFIJQB7J1X9V3BM","A3774HPOUKYTX7","3MXX6RQ9EVRTFC527Z18RDK8KW6P4R","","48","img/flower4.png","75","49","2","0","1","1","1,0.333,0.333,0.333,1,0.333,0.333,0.333,1","1,0.333,0.333,0.333,1,0.333,0.333,0.333,1","1",""
"","html-keyboard-response","181","54998","0.0-181.0","32ZKVD547G98F6JIFIJQB7J1X9V3BM","A3774HPOUKYTX7","3MXX6RQ9EVRTFC527Z18RDK8KW6P4R","","null","<img src=""img/flower4.png"" style=""width:200px;border:14px solid red;"">","null","","","","","","","","",""
"","html-keyboard-response","182","56605","0.0-182.0","32ZKVD547G98F6JIFIJQB7J1X9V3BM","A3774HPOUKYTX7","3MXX6RQ9EVRTFC527Z18RDK8KW6P4R","","","","","","","","","","","","",""
"","image-keyboard-response","183","57001","0.0-183.0","32ZKVD547G98F6JIFIJQB7J1X9V3BM","A3774HPOUKYTX7","3MXX6RQ9EVRTFC527Z18RDK8KW6P4R","","395.3999999985099","img/flower6.png","76","396.6000000014901","3","1","2","2","1,0,0,1,1,0,1,0,1","0,1,0,0,1,1,1,1,0","3",""
"","html-keyboard-response","184","57303","0.0-184.0","32ZKVD547G98F6JIFIJQB7J1X9V3BM","A3774HPOUKYTX7","3MXX6RQ9EVRTFC527Z18RDK8KW6P4R","","null","<img src=""img/flower6.png"" style=""width:200px; border:14px solid green;"">","null","","","","","","","","",""
"","image-keyboard-response","185","57342","0.0-185.0","32ZKVD547G98F6JIFIJQB7J1X9V3BM","A3774HPOUKYTX7","3MXX6RQ9EVRTFC527Z18RDK8KW6P4R","","38","img/flower2.png","76","39","3","0","1","2","1,0,0,1,1,0,1,0,1","0,1,0,0,1,1,1,1,0","3",""
"","html-keyboard-response","186","57644","0.0-186.0","32ZKVD547G98F6JIFIJQB7J1X9V3BM","A3774HPOUKYTX7","3MXX6RQ9EVRTFC527Z18RDK8KW6P4R","","null","<img src=""img/flower2.png"" style=""width:200px;border:14px solid red;"">","null","","","","","","","","",""
"","image-keyboard-response","187","57670","0.0-187.0","32ZKVD547G98F6JIFIJQB7J1X9V3BM","A3774HPOUKYTX7","3MXX6RQ9EVRTFC527Z18RDK8KW6P4R","","24.69999999552965","img/flower6.png","75","25.700000002980232","2","1","2","2","1,0,0,1,1,0,1,0,1","0,1,0,0,1,1,1,1,0","3",""
"","html-keyboard-response","188","57972","0.0-188.0","32ZKVD547G98F6JIFIJQB7J1X9V3BM","A3774HPOUKYTX7","3MXX6RQ9EVRTFC527Z18RDK8KW6P4R","","null","<img src=""img/flower6.png"" style=""width:200px; border:14px solid green;"">","null","","","","","","","","",""
"","image-keyboard-response","189","57993","0.0-189.0","32ZKVD547G98F6JIFIJQB7J1X9V3BM","A3774HPOUKYTX7","3MXX6RQ9EVRTFC527Z18RDK8KW6P4R","","20.600000001490116","img/flower2.png","76","21.600000001490116","3","0","1","2","1,0,0,1,1,0,1,0,1","0,1,0,0,1,1,1,1,0","3",""
"","html-keyboard-response","190","58296","0.0-190.0","32ZKVD547G98F6JIFIJQB7J1X9V3BM","A3774HPOUKYTX7","3MXX6RQ9EVRTFC527Z18RDK8KW6P4R","","null","<img src=""img/flower2.png"" style=""width:200px;border:14px solid red;"">","null","","","","","","","","",""
"","image-keyboard-response","191","58359","0.0-191.0","32ZKVD547G98F6JIFIJQB7J1X9V3BM","A3774HPOUKYTX7","3MXX6RQ9EVRTFC527Z18RDK8KW6P4R","","61.5","img/flower1.png","76","62.5","3","0","3","2","1,0,0,1,1,0,1,0,1","0,1,0,0,1,1,1,1,0","3",""
"","html-keyboard-response","192","58661","0.0-192.0","32ZKVD547G98F6JIFIJQB7J1X9V3BM","A3774HPOUKYTX7","3MXX6RQ9EVRTFC527Z18RDK8KW6P4R","","null","<img src=""img/flower1.png"" style=""width:200px;border:14px solid red;"">","null","","","","","","","","",""
"","image-keyboard-response","193","58703","0.0-193.0","32ZKVD547G98F6JIFIJQB7J1X9V3BM","A3774HPOUKYTX7","3MXX6RQ9EVRTFC527Z18RDK8KW6P4R","","41.20000000298023","img/flower2.png","76","41.80000000447035","3","0","1","2","1,0,0,1,1,0,1,0,1","0,1,0,0,1,1,1,1,0","3",""
"","html-keyboard-response","194","59005","0.0-194.0","32ZKVD547G98F6JIFIJQB7J1X9V3BM","A3774HPOUKYTX7","3MXX6RQ9EVRTFC527Z18RDK8KW6P4R","","null","<img src=""img/flower2.png"" style=""width:200px;border:14px solid red;"">","null","","","","","","","","",""
"","image-keyboard-response","195","59192","0.0-195.0","32ZKVD547G98F6JIFIJQB7J1X9V3BM","A3774HPOUKYTX7","3MXX6RQ9EVRTFC527Z18RDK8KW6P4R","","186.5","img/flower2.png","74","187.39999999850988","1","0","1","2","1,0,0,1,1,0,1,0,1","0,1,0,0,1,1,1,1,0","3",""
"","html-keyboard-response","196","59493","0.0-196.0","32ZKVD547G98F6JIFIJQB7J1X9V3BM","A3774HPOUKYTX7","3MXX6RQ9EVRTFC527Z18RDK8KW6P4R","","null","<img src=""img/flower2.png"" style=""width:200px;border:14px solid red;"">","null","","","","","","","","",""
"","image-keyboard-response","197","59557","0.0-197.0","32ZKVD547G98F6JIFIJQB7J1X9V3BM","A3774HPOUKYTX7","3MXX6RQ9EVRTFC527Z18RDK8KW6P4R","","62","img/flower2.png","74","62.69999999552965","1","0","1","2","1,0,0,1,1,0,1,0,1","0,1,0,0,1,1,1,1,0","3",""
"","html-keyboard-response","198","59858","0.0-198.0","32ZKVD547G98F6JIFIJQB7J1X9V3BM","A3774HPOUKYTX7","3MXX6RQ9EVRTFC527Z18RDK8KW6P4R","","null","<img src=""img/flower2.png"" style=""width:200px;border:14px solid red;"">","null","","","","","","","","",""
"","image-keyboard-response","199","60097","0.0-199.0","32ZKVD547G98F6JIFIJQB7J1X9V3BM","A3774HPOUKYTX7","3MXX6RQ9EVRTFC527Z18RDK8KW6P4R","","238.10000000149012","img/flower1.png","76","238.89999999850988","3","0","3","2","1,0,0,1,1,0,1,0,1","0,1,0,0,1,1,1,1,0","3",""
"","html-keyboard-response","200","60400","0.0-200.0","32ZKVD547G98F6JIFIJQB7J1X9V3BM","A3774HPOUKYTX7","3MXX6RQ9EVRTFC527Z18RDK8KW6P4R","","null","<img src=""img/flower1.png"" style=""width:200px;border:14px solid red;"">","null","","","","","","","","",""
"","image-keyboard-response","201","60603","0.0-201.0","32ZKVD547G98F6JIFIJQB7J1X9V3BM","A3774HPOUKYTX7","3MXX6RQ9EVRTFC527Z18RDK8KW6P4R","","201.60000000149012","img/flower2.png","74","203.20000000298023","1","0","1","2","1,0,0,1,1,0,1,0,1","0,1,0,0,1,1,1,1,0","3",""
"","html-keyboard-response","202","60905","0.0-202.0","32ZKVD547G98F6JIFIJQB7J1X9V3BM","A3774HPOUKYTX7","3MXX6RQ9EVRTFC527Z18RDK8KW6P4R","","null","<img src=""img/flower2.png"" style=""width:200px;border:14px solid red;"">","null","","","","","","","","",""
"","image-keyboard-response","203","61145","0.0-203.0","32ZKVD547G98F6JIFIJQB7J1X9V3BM","A3774HPOUKYTX7","3MXX6RQ9EVRTFC527Z18RDK8KW6P4R","","238.29999999701977","img/flower6.png","74","239.39999999850988","1","0","2","2","1,0,0,1,1,0,1,0,1","0,1,0,0,1,1,1,1,0","3",""
"","html-keyboard-response","204","61447","0.0-204.0","32ZKVD547G98F6JIFIJQB7J1X9V3BM","A3774HPOUKYTX7","3MXX6RQ9EVRTFC527Z18RDK8KW6P4R","","null","<img src=""img/flower6.png"" style=""width:200px;border:14px solid red;"">","null","","","","","","","","",""
"","image-keyboard-response","205","61464","0.0-205.0","32ZKVD547G98F6JIFIJQB7J1X9V3BM","A3774HPOUKYTX7","3MXX6RQ9EVRTFC527Z18RDK8KW6P4R","","15.799999997019768","img/flower1.png","74","16.600000001490116","1","1","3","2","1,0,0,1,1,0,1,0,1","0,1,0,0,1,1,1,1,0","3",""
"","html-keyboard-response","206","61765","0.0-206.0","32ZKVD547G98F6JIFIJQB7J1X9V3BM","A3774HPOUKYTX7","3MXX6RQ9EVRTFC527Z18RDK8KW6P4R","","null","<img src=""img/flower1.png"" style=""width:200px; border:14px solid green;"">","null","","","","","","","","",""
"","image-keyboard-response","207","61786","0.0-207.0","32ZKVD547G98F6JIFIJQB7J1X9V3BM","A3774HPOUKYTX7","3MXX6RQ9EVRTFC527Z18RDK8KW6P4R","","19.80000000447035","img/flower6.png","75","20.5","2","1","2","2","1,0,0,1,1,0,1,0,1","0,1,0,0,1,1,1,1,0","3",""
"","html-keyboard-response","208","62087","0.0-208.0","32ZKVD547G98F6JIFIJQB7J1X9V3BM","A3774HPOUKYTX7","3MXX6RQ9EVRTFC527Z18RDK8KW6P4R","","null","<img src=""img/flower6.png"" style=""width:200px; border:14px solid green;"">","null","","","","","","","","",""
"","image-keyboard-response","209","62133","0.0-209.0","32ZKVD547G98F6JIFIJQB7J1X9V3BM","A3774HPOUKYTX7","3MXX6RQ9EVRTFC527Z18RDK8KW6P4R","","44.30000000447035","img/flower1.png","75","44.899999998509884","2","1","3","2","1,0,0,1,1,0,1,0,1","0,1,0,0,1,1,1,1,0","3",""
"","html-keyboard-response","210","62434","0.0-210.0","32ZKVD547G98F6JIFIJQB7J1X9V3BM","A3774HPOUKYTX7","3MXX6RQ9EVRTFC527Z18RDK8KW6P4R","","null","<img src=""img/flower1.png"" style=""width:200px; border:14px solid green;"">","null","","","","","","","","",""
"","image-keyboard-response","211","62436","0.0-211.0","32ZKVD547G98F6JIFIJQB7J1X9V3BM","A3774HPOUKYTX7","3MXX6RQ9EVRTFC527Z18RDK8KW6P4R","","0.29999999701976776","img/flower1.png","76","0.8999999985098839","3","0","3","2","1,0,0,1,1,0,1,0,1","0,1,0,0,1,1,1,1,0","3",""
"","html-keyboard-response","212","62736","0.0-212.0","32ZKVD547G98F6JIFIJQB7J1X9V3BM","A3774HPOUKYTX7","3MXX6RQ9EVRTFC527Z18RDK8KW6P4R","","null","<img src=""img/flower1.png"" style=""width:200px;border:14px solid red;"">","null","","","","","","","","",""
"","image-keyboard-response","213","62817","0.0-213.0","32ZKVD547G98F6JIFIJQB7J1X9V3BM","A3774HPOUKYTX7","3MXX6RQ9EVRTFC527Z18RDK8KW6P4R","","79.69999999552965","img/flower1.png","76","80.59999999403954","3","0","3","2","1,0,0,1,1,0,1,0,1","0,1,0,0,1,1,1,1,0","3",""
"","html-keyboard-response","214","63119","0.0-214.0","32ZKVD547G98F6JIFIJQB7J1X9V3BM","A3774HPOUKYTX7","3MXX6RQ9EVRTFC527Z18RDK8KW6P4R","","null","<img src=""img/flower1.png"" style=""width:200px;border:14px solid red;"">","null","","","","","","","","",""
"","image-keyboard-response","215","63276","0.0-215.0","32ZKVD547G98F6JIFIJQB7J1X9V3BM","A3774HPOUKYTX7","3MXX6RQ9EVRTFC527Z18RDK8KW6P4R","","155.60000000149012","img/flower1.png","76","156.60000000149012","3","0","3","2","1,0,0,1,1,0,1,0,1","0,1,0,0,1,1,1,1,0","3",""
"","html-keyboard-response","216","63577","0.0-216.0","32ZKVD547G98F6JIFIJQB7J1X9V3BM","A3774HPOUKYTX7","3MXX6RQ9EVRTFC527Z18RDK8KW6P4R","","null","<img src=""img/flower1.png"" style=""width:200px;border:14px solid red;"">","null","","","","","","","","",""
"","image-keyboard-response","217","63637","0.0-217.0","32ZKVD547G98F6JIFIJQB7J1X9V3BM","A3774HPOUKYTX7","3MXX6RQ9EVRTFC527Z18RDK8KW6P4R","","59.5","img/flower2.png","76","60.5","3","0","1","2","1,0,0,1,1,0,1,0,1","0,1,0,0,1,1,1,1,0","3",""
"","html-keyboard-response","218","63940","0.0-218.0","32ZKVD547G98F6JIFIJQB7J1X9V3BM","A3774HPOUKYTX7","3MXX6RQ9EVRTFC527Z18RDK8KW6P4R","","null","<img src=""img/flower2.png"" style=""width:200px;border:14px solid red;"">","null","","","","","","","","",""
"","image-keyboard-response","219","63996","0.0-219.0","32ZKVD547G98F6JIFIJQB7J1X9V3BM","A3774HPOUKYTX7","3MXX6RQ9EVRTFC527Z18RDK8KW6P4R","","54","img/flower2.png","75","54.899999998509884","2","1","1","2","1,0,0,1,1,0,1,0,1","0,1,0,0,1,1,1,1,0","3",""
"","html-keyboard-response","220","64298","0.0-220.0","32ZKVD547G98F6JIFIJQB7J1X9V3BM","A3774HPOUKYTX7","3MXX6RQ9EVRTFC527Z18RDK8KW6P4R","","null","<img src=""img/flower2.png"" style=""width:200px; border:14px solid green;"">","null","","","","","","","","",""
"","image-keyboard-response","221","64315","0.0-221.0","32ZKVD547G98F6JIFIJQB7J1X9V3BM","A3774HPOUKYTX7","3MXX6RQ9EVRTFC527Z18RDK8KW6P4R","","15.700000002980232","img/flower6.png","74","16.700000002980232","1","0","2","2","1,0,0,1,1,0,1,0,1","0,1,0,0,1,1,1,1,0","3",""
"","html-keyboard-response","222","64617","0.0-222.0","32ZKVD547G98F6JIFIJQB7J1X9V3BM","A3774HPOUKYTX7","3MXX6RQ9EVRTFC527Z18RDK8KW6P4R","","null","<img src=""img/flower6.png"" style=""width:200px;border:14px solid red;"">","null","","","","","","","","",""
"","image-keyboard-response","223","64859","0.0-223.0","32ZKVD547G98F6JIFIJQB7J1X9V3BM","A3774HPOUKYTX7","3MXX6RQ9EVRTFC527Z18RDK8KW6P4R","","239.79999999701977","img/flower6.png","76","241.10000000149012","3","1","2","2","1,0,0,1,1,0,1,0,1","0,1,0,0,1,1,1,1,0","3",""
"","html-keyboard-response","224","65161","0.0-224.0","32ZKVD547G98F6JIFIJQB7J1X9V3BM","A3774HPOUKYTX7","3MXX6RQ9EVRTFC527Z18RDK8KW6P4R","","null","<img src=""img/flower6.png"" style=""width:200px; border:14px solid green;"">","null","","","","","","","","",""
"","image-keyboard-response","225","65190","0.0-225.0","32ZKVD547G98F6JIFIJQB7J1X9V3BM","A3774HPOUKYTX7","3MXX6RQ9EVRTFC527Z18RDK8KW6P4R","","27.599999994039536","img/flower2.png","76","28.299999997019768","3","0","1","2","1,0,0,1,1,0,1,0,1","0,1,0,0,1,1,1,1,0","3",""
"","html-keyboard-response","226","65491","0.0-226.0","32ZKVD547G98F6JIFIJQB7J1X9V3BM","A3774HPOUKYTX7","3MXX6RQ9EVRTFC527Z18RDK8KW6P4R","","null","<img src=""img/flower2.png"" style=""width:200px;border:14px solid red;"">","null","","","","","","","","",""
"","image-keyboard-response","227","65509","0.0-227.0","32ZKVD547G98F6JIFIJQB7J1X9V3BM","A3774HPOUKYTX7","3MXX6RQ9EVRTFC527Z18RDK8KW6P4R","","16.5","img/flower6.png","76","17.30000000447035","3","1","2","2","1,0,0,1,1,0,1,0,1","0,1,0,0,1,1,1,1,0","3",""
"","html-keyboard-response","228","65811","0.0-228.0","32ZKVD547G98F6JIFIJQB7J1X9V3BM","A3774HPOUKYTX7","3MXX6RQ9EVRTFC527Z18RDK8KW6P4R","","null","<img src=""img/flower6.png"" style=""width:200px; border:14px solid green;"">","null","","","","","","","","",""
"","image-keyboard-response","229","66136","0.0-229.0","32ZKVD547G98F6JIFIJQB7J1X9V3BM","A3774HPOUKYTX7","3MXX6RQ9EVRTFC527Z18RDK8KW6P4R","","323.29999999701977","img/flower1.png","75","324.69999999552965","2","1","3","2","1,0,0,1,1,0,1,0,1","0,1,0,0,1,1,1,1,0","3",""
"","html-keyboard-response","230","66437","0.0-230.0","32ZKVD547G98F6JIFIJQB7J1X9V3BM","A3774HPOUKYTX7","3MXX6RQ9EVRTFC527Z18RDK8KW6P4R","","null","<img src=""img/flower1.png"" style=""width:200px; border:14px solid green;"">","null","","","","","","","","",""
"","image-keyboard-response","231","66697","0.0-231.0","32ZKVD547G98F6JIFIJQB7J1X9V3BM","A3774HPOUKYTX7","3MXX6RQ9EVRTFC527Z18RDK8KW6P4R","","258.3999999985099","img/flower6.png","75","259.79999999701977","2","1","2","2","1,0,0,1,1,0,1,0,1","0,1,0,0,1,1,1,1,0","3",""
"","html-keyboard-response","232","67000","0.0-232.0","32ZKVD547G98F6JIFIJQB7J1X9V3BM","A3774HPOUKYTX7","3MXX6RQ9EVRTFC527Z18RDK8KW6P4R","","null","<img src=""img/flower6.png"" style=""width:200px; border:14px solid green;"">","null","","","","","","","","",""
"","image-keyboard-response","233","67061","0.0-233.0","32ZKVD547G98F6JIFIJQB7J1X9V3BM","A3774HPOUKYTX7","3MXX6RQ9EVRTFC527Z18RDK8KW6P4R","","60.69999999552965","img/flower6.png","76","61.5","3","1","2","2","1,0,0,1,1,0,1,0,1","0,1,0,0,1,1,1,1,0","3",""
"","html-keyboard-response","234","67363","0.0-234.0","32ZKVD547G98F6JIFIJQB7J1X9V3BM","A3774HPOUKYTX7","3MXX6RQ9EVRTFC527Z18RDK8KW6P4R","","null","<img src=""img/flower6.png"" style=""width:200px; border:14px solid green;"">","null","","","","","","","","",""
"","image-keyboard-response","235","67437","0.0-235.0","32ZKVD547G98F6JIFIJQB7J1X9V3BM","A3774HPOUKYTX7","3MXX6RQ9EVRTFC527Z18RDK8KW6P4R","","72.70000000298023","img/flower1.png","76","73.60000000149012","3","0","3","2","1,0,0,1,1,0,1,0,1","0,1,0,0,1,1,1,1,0","3",""
"","html-keyboard-response","236","67739","0.0-236.0","32ZKVD547G98F6JIFIJQB7J1X9V3BM","A3774HPOUKYTX7","3MXX6RQ9EVRTFC527Z18RDK8KW6P4R","","null","<img src=""img/flower1.png"" style=""width:200px;border:14px solid red;"">","null","","","","","","","","",""
"","image-keyboard-response","237","67760","0.0-237.0","32ZKVD547G98F6JIFIJQB7J1X9V3BM","A3774HPOUKYTX7","3MXX6RQ9EVRTFC527Z18RDK8KW6P4R","","19.700000002980232","img/flower6.png","74","20.299999997019768","1","0","2","2","1,0,0,1,1,0,1,0,1","0,1,0,0,1,1,1,1,0","3",""
"","html-keyboard-response","238","68062","0.0-238.0","32ZKVD547G98F6JIFIJQB7J1X9V3BM","A3774HPOUKYTX7","3MXX6RQ9EVRTFC527Z18RDK8KW6P4R","","null","<img src=""img/flower6.png"" style=""width:200px;border:14px solid red;"">","null","","","","","","","","",""
"","image-keyboard-response","239","68067","0.0-239.0","32ZKVD547G98F6JIFIJQB7J1X9V3BM","A3774HPOUKYTX7","3MXX6RQ9EVRTFC527Z18RDK8KW6P4R","","2.600000001490116","img/flower2.png","76","3.2999999970197678","3","0","1","2","1,0,0,1,1,0,1,0,1","0,1,0,0,1,1,1,1,0","3",""
"","html-keyboard-response","240","68370","0.0-240.0","32ZKVD547G98F6JIFIJQB7J1X9V3BM","A3774HPOUKYTX7","3MXX6RQ9EVRTFC527Z18RDK8KW6P4R","","null","<img src=""img/flower2.png"" style=""width:200px;border:14px solid red;"">","null","","","","","","","","",""
"","image-keyboard-response","241","68565","0.0-241.0","32ZKVD547G98F6JIFIJQB7J1X9V3BM","A3774HPOUKYTX7","3MXX6RQ9EVRTFC527Z18RDK8KW6P4R","","193.29999999701977","img/flower6.png","74","194.79999999701977","1","0","2","2","1,0,0,1,1,0,1,0,1","0,1,0,0,1,1,1,1,0","3",""
"","html-keyboard-response","242","68867","0.0-242.0","32ZKVD547G98F6JIFIJQB7J1X9V3BM","A3774HPOUKYTX7","3MXX6RQ9EVRTFC527Z18RDK8KW6P4R","","null","<img src=""img/flower6.png"" style=""width:200px;border:14px solid red;"">","null","","","","","","","","",""
"","image-keyboard-response","243","68999","0.0-243.0","32ZKVD547G98F6JIFIJQB7J1X9V3BM","A3774HPOUKYTX7","3MXX6RQ9EVRTFC527Z18RDK8KW6P4R","","130.29999999701977","img/flower2.png","74","131.5","1","0","1","2","1,0,0,1,1,0,1,0,1","0,1,0,0,1,1,1,1,0","3",""
"","html-keyboard-response","244","69301","0.0-244.0","32ZKVD547G98F6JIFIJQB7J1X9V3BM","A3774HPOUKYTX7","3MXX6RQ9EVRTFC527Z18RDK8KW6P4R","","null","<img src=""img/flower2.png"" style=""width:200px;border:14px solid red;"">","null","","","","","","","","",""
"","image-keyboard-response","245","69672","0.0-245.0","32ZKVD547G98F6JIFIJQB7J1X9V3BM","A3774HPOUKYTX7","3MXX6RQ9EVRTFC527Z18RDK8KW6P4R","","369.69999999552965","img/flower1.png","74","371","1","1","3","2","1,0,0,1,1,0,1,0,1","0,1,0,0,1,1,1,1,0","3",""
"","html-keyboard-response","246","69973","0.0-246.0","32ZKVD547G98F6JIFIJQB7J1X9V3BM","A3774HPOUKYTX7","3MXX6RQ9EVRTFC527Z18RDK8KW6P4R","","null","<img src=""img/flower1.png"" style=""width:200px; border:14px solid green;"">","null","","","","","","","","",""
"","image-keyboard-response","247","70317","0.0-247.0","32ZKVD547G98F6JIFIJQB7J1X9V3BM","A3774HPOUKYTX7","3MXX6RQ9EVRTFC527Z18RDK8KW6P4R","","341.8999999985099","img/flower2.png","75","343","2","1","1","2","1,0,0,1,1,0,1,0,1","0,1,0,0,1,1,1,1,0","3",""
"","html-keyboard-response","248","70618","0.0-248.0","32ZKVD547G98F6JIFIJQB7J1X9V3BM","A3774HPOUKYTX7","3MXX6RQ9EVRTFC527Z18RDK8KW6P4R","","null","<img src=""img/flower2.png"" style=""width:200px; border:14px solid green;"">","null","","","","","","","","",""
"","image-keyboard-response","249","70687","0.0-249.0","32ZKVD547G98F6JIFIJQB7J1X9V3BM","A3774HPOUKYTX7","3MXX6RQ9EVRTFC527Z18RDK8KW6P4R","","67.5","img/flower6.png","75","68.29999999701977","2","1","2","2","1,0,0,1,1,0,1,0,1","0,1,0,0,1,1,1,1,0","3",""
"","html-keyboard-response","250","70989","0.0-250.0","32ZKVD547G98F6JIFIJQB7J1X9V3BM","A3774HPOUKYTX7","3MXX6RQ9EVRTFC527Z18RDK8KW6P4R","","null","<img src=""img/flower6.png"" style=""width:200px; border:14px solid green;"">","null","","","","","","","","",""
"","image-keyboard-response","251","71333","0.0-251.0","32ZKVD547G98F6JIFIJQB7J1X9V3BM","A3774HPOUKYTX7","3MXX6RQ9EVRTFC527Z18RDK8KW6P4R","","342.5","img/flower1.png","75","343.69999999552965","2","1","3","2","1,0,0,1,1,0,1,0,1","0,1,0,0,1,1,1,1,0","3",""
"","html-keyboard-response","252","71634","0.0-252.0","32ZKVD547G98F6JIFIJQB7J1X9V3BM","A3774HPOUKYTX7","3MXX6RQ9EVRTFC527Z18RDK8KW6P4R","","null","<img src=""img/flower1.png"" style=""width:200px; border:14px solid green;"">","null","","","","","","","","",""
"","image-keyboard-response","253","71942","0.0-253.0","32ZKVD547G98F6JIFIJQB7J1X9V3BM","A3774HPOUKYTX7","3MXX6RQ9EVRTFC527Z18RDK8KW6P4R","","306.3999999985099","img/flower1.png","75","307.40000000596046","2","1","3","2","1,0,0,1,1,0,1,0,1","0,1,0,0,1,1,1,1,0","3",""
"","html-keyboard-response","254","72244","0.0-254.0","32ZKVD547G98F6JIFIJQB7J1X9V3BM","A3774HPOUKYTX7","3MXX6RQ9EVRTFC527Z18RDK8KW6P4R","","null","<img src=""img/flower1.png"" style=""width:200px; border:14px solid green;"">","null","","","","","","","","",""
"","image-keyboard-response","255","72874","0.0-255.0","32ZKVD547G98F6JIFIJQB7J1X9V3BM","A3774HPOUKYTX7","3MXX6RQ9EVRTFC527Z18RDK8KW6P4R","","628.7000000029802","img/flower2.png","76","630.2999999970198","3","0","1","2","1,0,0,1,1,0,1,0,1","0,1,0,0,1,1,1,1,0","3",""
"","html-keyboard-response","256","73177","0.0-256.0","32ZKVD547G98F6JIFIJQB7J1X9V3BM","A3774HPOUKYTX7","3MXX6RQ9EVRTFC527Z18RDK8KW6P4R","","null","<img src=""img/flower2.png"" style=""width:200px;border:14px solid red;"">","null","","","","","","","","",""
"","image-keyboard-response","257","73893","0.0-257.0","32ZKVD547G98F6JIFIJQB7J1X9V3BM","A3774HPOUKYTX7","3MXX6RQ9EVRTFC527Z18RDK8KW6P4R","","713.6000000014901","img/flower2.png","76","714.8999999985099","3","0","1","2","1,0,0,1,1,0,1,0,1","0,1,0,0,1,1,1,1,0","3",""
"","html-keyboard-response","258","74194","0.0-258.0","32ZKVD547G98F6JIFIJQB7J1X9V3BM","A3774HPOUKYTX7","3MXX6RQ9EVRTFC527Z18RDK8KW6P4R","","null","<img src=""img/flower2.png"" style=""width:200px;border:14px solid red;"">","null","","","","","","","","",""
"","image-keyboard-response","259","74692","0.0-259.0","32ZKVD547G98F6JIFIJQB7J1X9V3BM","A3774HPOUKYTX7","3MXX6RQ9EVRTFC527Z18RDK8KW6P4R","","496.5","img/flower2.png","76","497.70000000298023","3","0","1","2","1,0,0,1,1,0,1,0,1","0,1,0,0,1,1,1,1,0","3",""
"","html-keyboard-response","260","74995","0.0-260.0","32ZKVD547G98F6JIFIJQB7J1X9V3BM","A3774HPOUKYTX7","3MXX6RQ9EVRTFC527Z18RDK8KW6P4R","","null","<img src=""img/flower2.png"" style=""width:200px;border:14px solid red;"">","null","","","","","","","","",""
"","image-keyboard-response","261","75705","0.0-261.0","32ZKVD547G98F6JIFIJQB7J1X9V3BM","A3774HPOUKYTX7","3MXX6RQ9EVRTFC527Z18RDK8KW6P4R","","708.6000000014901","img/flower6.png","76","709.6000000014901","3","1","2","2","1,0,0,1,1,0,1,0,1","0,1,0,0,1,1,1,1,0","3",""
"","html-keyboard-response","262","76006","0.0-262.0","32ZKVD547G98F6JIFIJQB7J1X9V3BM","A3774HPOUKYTX7","3MXX6RQ9EVRTFC527Z18RDK8KW6P4R","","null","<img src=""img/flower6.png"" style=""width:200px; border:14px solid green;"">","null","","","","","","","","",""
"","image-keyboard-response","263","76875","0.0-263.0","32ZKVD547G98F6JIFIJQB7J1X9V3BM","A3774HPOUKYTX7","3MXX6RQ9EVRTFC527Z18RDK8KW6P4R","","868.1000000014901","img/flower6.png","76","869.1000000014901","3","1","2","2","1,0,0,1,1,0,1,0,1","0,1,0,0,1,1,1,1,0","3",""
"","html-keyboard-response","264","77177","0.0-264.0","32ZKVD547G98F6JIFIJQB7J1X9V3BM","A3774HPOUKYTX7","3MXX6RQ9EVRTFC527Z18RDK8KW6P4R","","null","<img src=""img/flower6.png"" style=""width:200px; border:14px solid green;"">","null","","","","","","","","",""
"","image-keyboard-response","265","77635","0.0-265.0","32ZKVD547G98F6JIFIJQB7J1X9V3BM","A3774HPOUKYTX7","3MXX6RQ9EVRTFC527Z18RDK8KW6P4R","","456.70000000298023","img/flower2.png","75","457.5","2","1","1","2","1,0,0,1,1,0,1,0,1","0,1,0,0,1,1,1,1,0","3",""
"","html-keyboard-response","266","77936","0.0-266.0","32ZKVD547G98F6JIFIJQB7J1X9V3BM","A3774HPOUKYTX7","3MXX6RQ9EVRTFC527Z18RDK8KW6P4R","","null","<img src=""img/flower2.png"" style=""width:200px; border:14px solid green;"">","null","","","","","","","","",""
"","image-keyboard-response","267","78065","0.0-267.0","32ZKVD547G98F6JIFIJQB7J1X9V3BM","A3774HPOUKYTX7","3MXX6RQ9EVRTFC527Z18RDK8KW6P4R","","128","img/flower6.png","76","128.89999999850988","3","1","2","2","1,0,0,1,1,0,1,0,1","0,1,0,0,1,1,1,1,0","3",""
"","html-keyboard-response","268","78366","0.0-268.0","32ZKVD547G98F6JIFIJQB7J1X9V3BM","A3774HPOUKYTX7","3MXX6RQ9EVRTFC527Z18RDK8KW6P4R","","null","<img src=""img/flower6.png"" style=""width:200px; border:14px solid green;"">","null","","","","","","","","",""
"","image-keyboard-response","269","79570","0.0-269.0","32ZKVD547G98F6JIFIJQB7J1X9V3BM","A3774HPOUKYTX7","3MXX6RQ9EVRTFC527Z18RDK8KW6P4R","","1201.6999999955297","img/flower6.png","76","1203.2999999970198","3","1","2","2","1,0,0,1,1,0,1,0,1","0,1,0,0,1,1,1,1,0","3",""
"","html-keyboard-response","270","79872","0.0-270.0","32ZKVD547G98F6JIFIJQB7J1X9V3BM","A3774HPOUKYTX7","3MXX6RQ9EVRTFC527Z18RDK8KW6P4R","","null","<img src=""img/flower6.png"" style=""width:200px; border:14px solid green;"">","null","","","","","","","","",""
"","image-keyboard-response","271","80696","0.0-271.0","32ZKVD547G98F6JIFIJQB7J1X9V3BM","A3774HPOUKYTX7","3MXX6RQ9EVRTFC527Z18RDK8KW6P4R","","821.7000000029802","img/flower1.png","76","823.2000000029802","3","0","3","2","1,0,0,1,1,0,1,0,1","0,1,0,0,1,1,1,1,0","3",""
"","html-keyboard-response","272","80998","0.0-272.0","32ZKVD547G98F6JIFIJQB7J1X9V3BM","A3774HPOUKYTX7","3MXX6RQ9EVRTFC527Z18RDK8KW6P4R","","null","<img src=""img/flower1.png"" style=""width:200px;border:14px solid red;"">","null","","","","","","","","",""
"","image-keyboard-response","273","81515","0.0-273.0","32ZKVD547G98F6JIFIJQB7J1X9V3BM","A3774HPOUKYTX7","3MXX6RQ9EVRTFC527Z18RDK8KW6P4R","","515.6000000014901","img/flower1.png","76","516.8000000044703","3","0","3","2","1,0,0,1,1,0,1,0,1","0,1,0,0,1,1,1,1,0","3",""
"","html-keyboard-response","274","81817","0.0-274.0","32ZKVD547G98F6JIFIJQB7J1X9V3BM","A3774HPOUKYTX7","3MXX6RQ9EVRTFC527Z18RDK8KW6P4R","","null","<img src=""img/flower1.png"" style=""width:200px;border:14px solid red;"">","null","","","","","","","","",""
"","image-keyboard-response","275","82010","0.0-275.0","32ZKVD547G98F6JIFIJQB7J1X9V3BM","A3774HPOUKYTX7","3MXX6RQ9EVRTFC527Z18RDK8KW6P4R","","192.29999999701977","img/flower6.png","75","193.10000000149012","2","1","2","2","1,0,0,1,1,0,1,0,1","0,1,0,0,1,1,1,1,0","3",""
"","html-keyboard-response","276","82312","0.0-276.0","32ZKVD547G98F6JIFIJQB7J1X9V3BM","A3774HPOUKYTX7","3MXX6RQ9EVRTFC527Z18RDK8KW6P4R","","null","<img src=""img/flower6.png"" style=""width:200px; border:14px solid green;"">","null","","","","","","","","",""
"","image-keyboard-response","277","82374","0.0-277.0","32ZKVD547G98F6JIFIJQB7J1X9V3BM","A3774HPOUKYTX7","3MXX6RQ9EVRTFC527Z18RDK8KW6P4R","","61.29999999701977","img/flower2.png","76","62.100000001490116","3","0","1","2","1,0,0,1,1,0,1,0,1","0,1,0,0,1,1,1,1,0","3",""
"","html-keyboard-response","278","82675","0.0-278.0","32ZKVD547G98F6JIFIJQB7J1X9V3BM","A3774HPOUKYTX7","3MXX6RQ9EVRTFC527Z18RDK8KW6P4R","","null","<img src=""img/flower2.png"" style=""width:200px;border:14px solid red;"">","null","","","","","","","","",""
"","image-keyboard-response","279","82842","0.0-279.0","32ZKVD547G98F6JIFIJQB7J1X9V3BM","A3774HPOUKYTX7","3MXX6RQ9EVRTFC527Z18RDK8KW6P4R","","164.5","img/flower1.png","76","166.10000000149012","3","0","3","2","1,0,0,1,1,0,1,0,1","0,1,0,0,1,1,1,1,0","3",""
"","html-keyboard-response","280","83145","0.0-280.0","32ZKVD547G98F6JIFIJQB7J1X9V3BM","A3774HPOUKYTX7","3MXX6RQ9EVRTFC527Z18RDK8KW6P4R","","null","<img src=""img/flower1.png"" style=""width:200px;border:14px solid red;"">","null","","","","","","","","",""
"","image-keyboard-response","281","83575","0.0-281.0","32ZKVD547G98F6JIFIJQB7J1X9V3BM","A3774HPOUKYTX7","3MXX6RQ9EVRTFC527Z18RDK8KW6P4R","","427.8999999985099","img/flower1.png","75","429.20000000298023","2","1","3","2","1,0,0,1,1,0,1,0,1","0,1,0,0,1,1,1,1,0","3",""
"","html-keyboard-response","282","83876","0.0-282.0","32ZKVD547G98F6JIFIJQB7J1X9V3BM","A3774HPOUKYTX7","3MXX6RQ9EVRTFC527Z18RDK8KW6P4R","","null","<img src=""img/flower1.png"" style=""width:200px; border:14px solid green;"">","null","","","","","","","","",""
"","image-keyboard-response","283","84272","0.0-283.0","32ZKVD547G98F6JIFIJQB7J1X9V3BM","A3774HPOUKYTX7","3MXX6RQ9EVRTFC527Z18RDK8KW6P4R","","394.69999999552965","img/flower1.png","75","395.79999999701977","2","1","3","2","1,0,0,1,1,0,1,0,1","0,1,0,0,1,1,1,1,0","3",""
"","html-keyboard-response","284","84574","0.0-284.0","32ZKVD547G98F6JIFIJQB7J1X9V3BM","A3774HPOUKYTX7","3MXX6RQ9EVRTFC527Z18RDK8KW6P4R","","null","<img src=""img/flower1.png"" style=""width:200px; border:14px solid green;"">","null","","","","","","","","",""
"","image-keyboard-response","285","84812","0.0-285.0","32ZKVD547G98F6JIFIJQB7J1X9V3BM","A3774HPOUKYTX7","3MXX6RQ9EVRTFC527Z18RDK8KW6P4R","","236.39999999850988","img/flower6.png","76","237.79999999701977","3","1","2","2","1,0,0,1,1,0,1,0,1","0,1,0,0,1,1,1,1,0","3",""
"","html-keyboard-response","286","85114","0.0-286.0","32ZKVD547G98F6JIFIJQB7J1X9V3BM","A3774HPOUKYTX7","3MXX6RQ9EVRTFC527Z18RDK8KW6P4R","","null","<img src=""img/flower6.png"" style=""width:200px; border:14px solid green;"">","null","","","","","","","","",""
"","image-keyboard-response","287","85289","0.0-287.0","32ZKVD547G98F6JIFIJQB7J1X9V3BM","A3774HPOUKYTX7","3MXX6RQ9EVRTFC527Z18RDK8KW6P4R","","173.19999999552965","img/flower2.png","75","174.39999999850988","2","1","1","2","1,0,0,1,1,0,1,0,1","0,1,0,0,1,1,1,1,0","3",""
"","html-keyboard-response","288","85591","0.0-288.0","32ZKVD547G98F6JIFIJQB7J1X9V3BM","A3774HPOUKYTX7","3MXX6RQ9EVRTFC527Z18RDK8KW6P4R","","null","<img src=""img/flower2.png"" style=""width:200px; border:14px solid green;"">","null","","","","","","","","",""
"","image-keyboard-response","289","86065","0.0-289.0","32ZKVD547G98F6JIFIJQB7J1X9V3BM","A3774HPOUKYTX7","3MXX6RQ9EVRTFC527Z18RDK8KW6P4R","","472.80000000447035","img/flower6.png","75","473.70000000298023","2","1","2","2","1,0,0,1,1,0,1,0,1","0,1,0,0,1,1,1,1,0","3",""
"","html-keyboard-response","290","86367","0.0-290.0","32ZKVD547G98F6JIFIJQB7J1X9V3BM","A3774HPOUKYTX7","3MXX6RQ9EVRTFC527Z18RDK8KW6P4R","","null","<img src=""img/flower6.png"" style=""width:200px; border:14px solid green;"">","null","","","","","","","","",""
"","image-keyboard-response","291","86619","0.0-291.0","32ZKVD547G98F6JIFIJQB7J1X9V3BM","A3774HPOUKYTX7","3MXX6RQ9EVRTFC527Z18RDK8KW6P4R","","250.69999999552965","img/flower6.png","75","251.59999999403954","2","1","2","2","1,0,0,1,1,0,1,0,1","0,1,0,0,1,1,1,1,0","3",""
"","html-keyboard-response","292","86920","0.0-292.0","32ZKVD547G98F6JIFIJQB7J1X9V3BM","A3774HPOUKYTX7","3MXX6RQ9EVRTFC527Z18RDK8KW6P4R","","null","<img src=""img/flower6.png"" style=""width:200px; border:14px solid green;"">","null","","","","","","","","",""
"","image-keyboard-response","293","87363","0.0-293.0","32ZKVD547G98F6JIFIJQB7J1X9V3BM","A3774HPOUKYTX7","3MXX6RQ9EVRTFC527Z18RDK8KW6P4R","","440.8999999985099","img/flower1.png","75","442.29999999701977","2","1","3","2","1,0,0,1,1,0,1,0,1","0,1,0,0,1,1,1,1,0","3",""
"","html-keyboard-response","294","87665","0.0-294.0","32ZKVD547G98F6JIFIJQB7J1X9V3BM","A3774HPOUKYTX7","3MXX6RQ9EVRTFC527Z18RDK8KW6P4R","","null","<img src=""img/flower1.png"" style=""width:200px; border:14px solid green;"">","null","","","","","","","","",""
"","image-keyboard-response","295","88085","0.0-295.0","32ZKVD547G98F6JIFIJQB7J1X9V3BM","A3774HPOUKYTX7","3MXX6RQ9EVRTFC527Z18RDK8KW6P4R","","418.29999999701977","img/flower2.png","75","419.6000000014901","2","1","1","2","1,0,0,1,1,0,1,0,1","0,1,0,0,1,1,1,1,0","3",""
"","html-keyboard-response","296","88387","0.0-296.0","32ZKVD547G98F6JIFIJQB7J1X9V3BM","A3774HPOUKYTX7","3MXX6RQ9EVRTFC527Z18RDK8KW6P4R","","null","<img src=""img/flower2.png"" style=""width:200px; border:14px solid green;"">","null","","","","","","","","",""
"","image-keyboard-response","297","88560","0.0-297.0","32ZKVD547G98F6JIFIJQB7J1X9V3BM","A3774HPOUKYTX7","3MXX6RQ9EVRTFC527Z18RDK8KW6P4R","","171.69999999552965","img/flower1.png","75","174.5","2","1","3","2","1,0,0,1,1,0,1,0,1","0,1,0,0,1,1,1,1,0","3",""
"","html-keyboard-response","298","88863","0.0-298.0","32ZKVD547G98F6JIFIJQB7J1X9V3BM","A3774HPOUKYTX7","3MXX6RQ9EVRTFC527Z18RDK8KW6P4R","","null","<img src=""img/flower1.png"" style=""width:200px; border:14px solid green;"">","null","","","","","","","","",""
"","image-keyboard-response","299","88940","0.0-299.0","32ZKVD547G98F6JIFIJQB7J1X9V3BM","A3774HPOUKYTX7","3MXX6RQ9EVRTFC527Z18RDK8KW6P4R","","75.5","img/flower6.png","76","76.79999999701977","3","1","2","2","1,0,0,1,1,0,1,0,1","0,1,0,0,1,1,1,1,0","3",""
"","html-keyboard-response","300","89242","0.0-300.0","32ZKVD547G98F6JIFIJQB7J1X9V3BM","A3774HPOUKYTX7","3MXX6RQ9EVRTFC527Z18RDK8KW6P4R","","null","<img src=""img/flower6.png"" style=""width:200px; border:14px solid green;"">","null","","","","","","","","",""
"","image-keyboard-response","301","89244","0.0-301.0","32ZKVD547G98F6JIFIJQB7J1X9V3BM","A3774HPOUKYTX7","3MXX6RQ9EVRTFC527Z18RDK8KW6P4R","","0.29999999701976776","img/flower2.png","75","1.3000000044703484","2","1","1","2","1,0,0,1,1,0,1,0,1","0,1,0,0,1,1,1,1,0","3",""
"","html-keyboard-response","302","89546","0.0-302.0","32ZKVD547G98F6JIFIJQB7J1X9V3BM","A3774HPOUKYTX7","3MXX6RQ9EVRTFC527Z18RDK8KW6P4R","","null","<img src=""img/flower2.png"" style=""width:200px; border:14px solid green;"">","null","","","","","","","","",""
"","image-keyboard-response","303","89632","0.0-303.0","32ZKVD547G98F6JIFIJQB7J1X9V3BM","A3774HPOUKYTX7","3MXX6RQ9EVRTFC527Z18RDK8KW6P4R","","85","img/flower1.png","74","86.10000000149012","1","1","3","2","1,0,0,1,1,0,1,0,1","0,1,0,0,1,1,1,1,0","3",""
"","html-keyboard-response","304","89934","0.0-304.0","32ZKVD547G98F6JIFIJQB7J1X9V3BM","A3774HPOUKYTX7","3MXX6RQ9EVRTFC527Z18RDK8KW6P4R","","null","<img src=""img/flower1.png"" style=""width:200px; border:14px solid green;"">","null","","","","","","","","",""
"","image-keyboard-response","305","89980","0.0-305.0","32ZKVD547G98F6JIFIJQB7J1X9V3BM","A3774HPOUKYTX7","3MXX6RQ9EVRTFC527Z18RDK8KW6P4R","","44.69999999552965","img/flower6.png","75","45.399999998509884","2","1","2","2","1,0,0,1,1,0,1,0,1","0,1,0,0,1,1,1,1,0","3",""
"","html-keyboard-response","306","90281","0.0-306.0","32ZKVD547G98F6JIFIJQB7J1X9V3BM","A3774HPOUKYTX7","3MXX6RQ9EVRTFC527Z18RDK8KW6P4R","","null","<img src=""img/flower6.png"" style=""width:200px; border:14px solid green;"">","null","","","","","","","","",""
"","image-keyboard-response","307","90527","0.0-307.0","32ZKVD547G98F6JIFIJQB7J1X9V3BM","A3774HPOUKYTX7","3MXX6RQ9EVRTFC527Z18RDK8KW6P4R","","244.10000000149012","img/flower6.png","75","245.10000000149012","2","1","2","2","1,0,0,1,1,0,1,0,1","0,1,0,0,1,1,1,1,0","3",""
"","html-keyboard-response","308","90829","0.0-308.0","32ZKVD547G98F6JIFIJQB7J1X9V3BM","A3774HPOUKYTX7","3MXX6RQ9EVRTFC527Z18RDK8KW6P4R","","null","<img src=""img/flower6.png"" style=""width:200px; border:14px solid green;"">","null","","","","","","","","",""
"","image-keyboard-response","309","91051","0.0-309.0","32ZKVD547G98F6JIFIJQB7J1X9V3BM","A3774HPOUKYTX7","3MXX6RQ9EVRTFC527Z18RDK8KW6P4R","","220.29999999701977","img/flower1.png","75","221.60000000149012","2","1","3","2","1,0,0,1,1,0,1,0,1","0,1,0,0,1,1,1,1,0","3",""
"","html-keyboard-response","310","91353","0.0-310.0","32ZKVD547G98F6JIFIJQB7J1X9V3BM","A3774HPOUKYTX7","3MXX6RQ9EVRTFC527Z18RDK8KW6P4R","","null","<img src=""img/flower1.png"" style=""width:200px; border:14px solid green;"">","null","","","","","","","","",""
"","image-keyboard-response","311","91580","0.0-311.0","32ZKVD547G98F6JIFIJQB7J1X9V3BM","A3774HPOUKYTX7","3MXX6RQ9EVRTFC527Z18RDK8KW6P4R","","226","img/flower1.png","75","226.89999999850988","2","1","3","2","1,0,0,1,1,0,1,0,1","0,1,0,0,1,1,1,1,0","3",""
"","html-keyboard-response","312","91882","0.0-312.0","32ZKVD547G98F6JIFIJQB7J1X9V3BM","A3774HPOUKYTX7","3MXX6RQ9EVRTFC527Z18RDK8KW6P4R","","null","<img src=""img/flower1.png"" style=""width:200px; border:14px solid green;"">","null","","","","","","","","",""
"","image-keyboard-response","313","92156","0.0-313.0","32ZKVD547G98F6JIFIJQB7J1X9V3BM","A3774HPOUKYTX7","3MXX6RQ9EVRTFC527Z18RDK8KW6P4R","","272.20000000298023","img/flower2.png","75","273.5","2","1","1","2","1,0,0,1,1,0,1,0,1","0,1,0,0,1,1,1,1,0","3",""
"","html-keyboard-response","314","92457","0.0-314.0","32ZKVD547G98F6JIFIJQB7J1X9V3BM","A3774HPOUKYTX7","3MXX6RQ9EVRTFC527Z18RDK8KW6P4R","","null","<img src=""img/flower2.png"" style=""width:200px; border:14px solid green;"">","null","","","","","","","","",""
"","image-keyboard-response","315","92589","0.0-315.0","32ZKVD547G98F6JIFIJQB7J1X9V3BM","A3774HPOUKYTX7","3MXX6RQ9EVRTFC527Z18RDK8KW6P4R","","130.90000000596046","img/flower6.png","76","131.80000000447035","3","1","2","2","1,0,0,1,1,0,1,0,1","0,1,0,0,1,1,1,1,0","3",""
"","html-keyboard-response","316","92891","0.0-316.0","32ZKVD547G98F6JIFIJQB7J1X9V3BM","A3774HPOUKYTX7","3MXX6RQ9EVRTFC527Z18RDK8KW6P4R","","null","<img src=""img/flower6.png"" style=""width:200px; border:14px solid green;"">","null","","","","","","","","",""
"","image-keyboard-response","317","92955","0.0-317.0","32ZKVD547G98F6JIFIJQB7J1X9V3BM","A3774HPOUKYTX7","3MXX6RQ9EVRTFC527Z18RDK8KW6P4R","","62.599999994039536","img/flower6.png","75","63.600000001490116","2","1","2","2","1,0,0,1,1,0,1,0,1","0,1,0,0,1,1,1,1,0","3",""
"","html-keyboard-response","318","93256","0.0-318.0","32ZKVD547G98F6JIFIJQB7J1X9V3BM","A3774HPOUKYTX7","3MXX6RQ9EVRTFC527Z18RDK8KW6P4R","","null","<img src=""img/flower6.png"" style=""width:200px; border:14px solid green;"">","null","","","","","","","","",""
"","image-keyboard-response","319","93316","0.0-319.0","32ZKVD547G98F6JIFIJQB7J1X9V3BM","A3774HPOUKYTX7","3MXX6RQ9EVRTFC527Z18RDK8KW6P4R","","58.19999999552965","img/flower1.png","74","59","1","1","3","2","1,0,0,1,1,0,1,0,1","0,1,0,0,1,1,1,1,0","3",""
"","html-keyboard-response","320","93617","0.0-320.0","32ZKVD547G98F6JIFIJQB7J1X9V3BM","A3774HPOUKYTX7","3MXX6RQ9EVRTFC527Z18RDK8KW6P4R","","null","<img src=""img/flower1.png"" style=""width:200px; border:14px solid green;"">","null","","","","","","","","",""
"","image-keyboard-response","321","93662","0.0-321.0","32ZKVD547G98F6JIFIJQB7J1X9V3BM","A3774HPOUKYTX7","3MXX6RQ9EVRTFC527Z18RDK8KW6P4R","","43.19999999552965","img/flower6.png","75","44.599999994039536","2","1","2","2","1,0,0,1,1,0,1,0,1","0,1,0,0,1,1,1,1,0","3",""
"","html-keyboard-response","322","93964","0.0-322.0","32ZKVD547G98F6JIFIJQB7J1X9V3BM","A3774HPOUKYTX7","3MXX6RQ9EVRTFC527Z18RDK8KW6P4R","","null","<img src=""img/flower6.png"" style=""width:200px; border:14px solid green;"">","null","","","","","","","","",""
"","image-keyboard-response","323","94062","0.0-323.0","32ZKVD547G98F6JIFIJQB7J1X9V3BM","A3774HPOUKYTX7","3MXX6RQ9EVRTFC527Z18RDK8KW6P4R","","95.90000000596046","img/flower2.png","76","97.60000000149012","3","0","1","2","1,0,0,1,1,0,1,0,1","0,1,0,0,1,1,1,1,0","3",""
"","html-keyboard-response","324","94365","0.0-324.0","32ZKVD547G98F6JIFIJQB7J1X9V3BM","A3774HPOUKYTX7","3MXX6RQ9EVRTFC527Z18RDK8KW6P4R","","null","<img src=""img/flower2.png"" style=""width:200px;border:14px solid red;"">","null","","","","","","","","",""
"","image-keyboard-response","325","94422","0.0-325.0","32ZKVD547G98F6JIFIJQB7J1X9V3BM","A3774HPOUKYTX7","3MXX6RQ9EVRTFC527Z18RDK8KW6P4R","","55.20000000298023","img/flower2.png","75","56.400000005960464","2","1","1","2","1,0,0,1,1,0,1,0,1","0,1,0,0,1,1,1,1,0","3",""
"","html-keyboard-response","326","94724","0.0-326.0","32ZKVD547G98F6JIFIJQB7J1X9V3BM","A3774HPOUKYTX7","3MXX6RQ9EVRTFC527Z18RDK8KW6P4R","","null","<img src=""img/flower2.png"" style=""width:200px; border:14px solid green;"">","null","","","","","","","","",""
"","image-keyboard-response","327","94746","0.0-327.0","32ZKVD547G98F6JIFIJQB7J1X9V3BM","A3774HPOUKYTX7","3MXX6RQ9EVRTFC527Z18RDK8KW6P4R","","21","img/flower1.png","76","22","3","0","3","2","1,0,0,1,1,0,1,0,1","0,1,0,0,1,1,1,1,0","3",""
"","html-keyboard-response","328","95048","0.0-328.0","32ZKVD547G98F6JIFIJQB7J1X9V3BM","A3774HPOUKYTX7","3MXX6RQ9EVRTFC527Z18RDK8KW6P4R","","null","<img src=""img/flower1.png"" style=""width:200px;border:14px solid red;"">","null","","","","","","","","",""
"","image-keyboard-response","329","95059","0.0-329.0","32ZKVD547G98F6JIFIJQB7J1X9V3BM","A3774HPOUKYTX7","3MXX6RQ9EVRTFC527Z18RDK8KW6P4R","","9.399999998509884","img/flower6.png","75","10.200000002980232","2","1","2","2","1,0,0,1,1,0,1,0,1","0,1,0,0,1,1,1,1,0","3",""
"","html-keyboard-response","330","95361","0.0-330.0","32ZKVD547G98F6JIFIJQB7J1X9V3BM","A3774HPOUKYTX7","3MXX6RQ9EVRTFC527Z18RDK8KW6P4R","","null","<img src=""img/flower6.png"" style=""width:200px; border:14px solid green;"">","null","","","","","","","","",""
"","image-keyboard-response","331","95418","0.0-331.0","32ZKVD547G98F6JIFIJQB7J1X9V3BM","A3774HPOUKYTX7","3MXX6RQ9EVRTFC527Z18RDK8KW6P4R","","54.899999998509884","img/flower6.png","75","55.80000000447035","2","1","2","2","1,0,0,1,1,0,1,0,1","0,1,0,0,1,1,1,1,0","3",""
"","html-keyboard-response","332","95720","0.0-332.0","32ZKVD547G98F6JIFIJQB7J1X9V3BM","A3774HPOUKYTX7","3MXX6RQ9EVRTFC527Z18RDK8KW6P4R","","null","<img src=""img/flower6.png"" style=""width:200px; border:14px solid green;"">","null","","","","","","","","",""
"","image-keyboard-response","333","96019","0.0-333.0","32ZKVD547G98F6JIFIJQB7J1X9V3BM","A3774HPOUKYTX7","3MXX6RQ9EVRTFC527Z18RDK8KW6P4R","","297.6000000014901","img/flower2.png","75","298.69999999552965","2","1","1","2","1,0,0,1,1,0,1,0,1","0,1,0,0,1,1,1,1,0","3",""
"","html-keyboard-response","334","96322","0.0-334.0","32ZKVD547G98F6JIFIJQB7J1X9V3BM","A3774HPOUKYTX7","3MXX6RQ9EVRTFC527Z18RDK8KW6P4R","","null","<img src=""img/flower2.png"" style=""width:200px; border:14px solid green;"">","null","","","","","","","","",""
"","image-keyboard-response","335","96354","0.0-335.0","32ZKVD547G98F6JIFIJQB7J1X9V3BM","A3774HPOUKYTX7","3MXX6RQ9EVRTFC527Z18RDK8KW6P4R","","31.80000000447035","img/flower1.png","74","32.5","1","1","3","2","1,0,0,1,1,0,1,0,1","0,1,0,0,1,1,1,1,0","3",""
"","html-keyboard-response","336","96656","0.0-336.0","32ZKVD547G98F6JIFIJQB7J1X9V3BM","A3774HPOUKYTX7","3MXX6RQ9EVRTFC527Z18RDK8KW6P4R","","null","<img src=""img/flower1.png"" style=""width:200px; border:14px solid green;"">","null","","","","","","","","",""
"","image-keyboard-response","337","96687","0.0-337.0","32ZKVD547G98F6JIFIJQB7J1X9V3BM","A3774HPOUKYTX7","3MXX6RQ9EVRTFC527Z18RDK8KW6P4R","","29.5","img/flower2.png","75","30.19999999552965","2","1","1","2","1,0,0,1,1,0,1,0,1","0,1,0,0,1,1,1,1,0","3",""
"","html-keyboard-response","338","96989","0.0-338.0","32ZKVD547G98F6JIFIJQB7J1X9V3BM","A3774HPOUKYTX7","3MXX6RQ9EVRTFC527Z18RDK8KW6P4R","","null","<img src=""img/flower2.png"" style=""width:200px; border:14px solid green;"">","null","","","","","","","","",""
"","image-keyboard-response","339","97011","0.0-339.0","32ZKVD547G98F6JIFIJQB7J1X9V3BM","A3774HPOUKYTX7","3MXX6RQ9EVRTFC527Z18RDK8KW6P4R","","21.100000001490116","img/flower2.png","76","21.69999999552965","3","0","1","2","1,0,0,1,1,0,1,0,1","0,1,0,0,1,1,1,1,0","3",""
"","html-keyboard-response","340","97313","0.0-340.0","32ZKVD547G98F6JIFIJQB7J1X9V3BM","A3774HPOUKYTX7","3MXX6RQ9EVRTFC527Z18RDK8KW6P4R","","null","<img src=""img/flower2.png"" style=""width:200px;border:14px solid red;"">","null","","","","","","","","",""
"","image-keyboard-response","341","97660","0.0-341.0","32ZKVD547G98F6JIFIJQB7J1X9V3BM","A3774HPOUKYTX7","3MXX6RQ9EVRTFC527Z18RDK8KW6P4R","","344.6000000014901","img/flower1.png","74","346.09999999403954","1","1","3","2","1,0,0,1,1,0,1,0,1","0,1,0,0,1,1,1,1,0","3",""
"","html-keyboard-response","342","97962","0.0-342.0","32ZKVD547G98F6JIFIJQB7J1X9V3BM","A3774HPOUKYTX7","3MXX6RQ9EVRTFC527Z18RDK8KW6P4R","","null","<img src=""img/flower1.png"" style=""width:200px; border:14px solid green;"">","null","","","","","","","","",""
"","image-keyboard-response","343","97977","0.0-343.0","32ZKVD547G98F6JIFIJQB7J1X9V3BM","A3774HPOUKYTX7","3MXX6RQ9EVRTFC527Z18RDK8KW6P4R","","14","img/flower6.png","75","15","2","1","2","2","1,0,0,1,1,0,1,0,1","0,1,0,0,1,1,1,1,0","3",""
"","html-keyboard-response","344","98280","0.0-344.0","32ZKVD547G98F6JIFIJQB7J1X9V3BM","A3774HPOUKYTX7","3MXX6RQ9EVRTFC527Z18RDK8KW6P4R","","null","<img src=""img/flower6.png"" style=""width:200px; border:14px solid green;"">","null","","","","","","","","",""
"","image-keyboard-response","345","98301","0.0-345.0","32ZKVD547G98F6JIFIJQB7J1X9V3BM","A3774HPOUKYTX7","3MXX6RQ9EVRTFC527Z18RDK8KW6P4R","","19.899999998509884","img/flower1.png","76","20.899999998509884","3","0","3","2","1,0,0,1,1,0,1,0,1","0,1,0,0,1,1,1,1,0","3",""
"","html-keyboard-response","346","98604","0.0-346.0","32ZKVD547G98F6JIFIJQB7J1X9V3BM","A3774HPOUKYTX7","3MXX6RQ9EVRTFC527Z18RDK8KW6P4R","","null","<img src=""img/flower1.png"" style=""width:200px;border:14px solid red;"">","null","","","","","","","","",""
"","image-keyboard-response","347","98635","0.0-347.0","32ZKVD547G98F6JIFIJQB7J1X9V3BM","A3774HPOUKYTX7","3MXX6RQ9EVRTFC527Z18RDK8KW6P4R","","29.100000001490116","img/flower2.png","75","30.200000002980232","2","1","1","2","1,0,0,1,1,0,1,0,1","0,1,0,0,1,1,1,1,0","3",""
"","html-keyboard-response","348","98937","0.0-348.0","32ZKVD547G98F6JIFIJQB7J1X9V3BM","A3774HPOUKYTX7","3MXX6RQ9EVRTFC527Z18RDK8KW6P4R","","null","<img src=""img/flower2.png"" style=""width:200px; border:14px solid green;"">","null","","","","","","","","",""
"","image-keyboard-response","349","98990","0.0-349.0","32ZKVD547G98F6JIFIJQB7J1X9V3BM","A3774HPOUKYTX7","3MXX6RQ9EVRTFC527Z18RDK8KW6P4R","","52.20000000298023","img/flower6.png","74","53.100000001490116","1","0","2","2","1,0,0,1,1,0,1,0,1","0,1,0,0,1,1,1,1,0","3",""
"","html-keyboard-response","350","99293","0.0-350.0","32ZKVD547G98F6JIFIJQB7J1X9V3BM","A3774HPOUKYTX7","3MXX6RQ9EVRTFC527Z18RDK8KW6P4R","","null","<img src=""img/flower6.png"" style=""width:200px;border:14px solid red;"">","null","","","","","","","","",""
"","image-keyboard-response","351","99357","0.0-351.0","32ZKVD547G98F6JIFIJQB7J1X9V3BM","A3774HPOUKYTX7","3MXX6RQ9EVRTFC527Z18RDK8KW6P4R","","63.30000000447035","img/flower2.png","75","64.30000000447035","2","1","1","2","1,0,0,1,1,0,1,0,1","0,1,0,0,1,1,1,1,0","3",""
"","html-keyboard-response","352","99660","0.0-352.0","32ZKVD547G98F6JIFIJQB7J1X9V3BM","A3774HPOUKYTX7","3MXX6RQ9EVRTFC527Z18RDK8KW6P4R","","null","<img src=""img/flower2.png"" style=""width:200px; border:14px solid green;"">","null","","","","","","","","",""
"","image-keyboard-response","353","99871","0.0-353.0","32ZKVD547G98F6JIFIJQB7J1X9V3BM","A3774HPOUKYTX7","3MXX6RQ9EVRTFC527Z18RDK8KW6P4R","","210","img/flower1.png","76","211.09999999403954","3","0","3","2","1,0,0,1,1,0,1,0,1","0,1,0,0,1,1,1,1,0","3",""
"","html-keyboard-response","354","100173","0.0-354.0","32ZKVD547G98F6JIFIJQB7J1X9V3BM","A3774HPOUKYTX7","3MXX6RQ9EVRTFC527Z18RDK8KW6P4R","","null","<img src=""img/flower1.png"" style=""width:200px;border:14px solid red;"">","null","","","","","","","","",""
"","image-keyboard-response","355","100687","0.0-355.0","32ZKVD547G98F6JIFIJQB7J1X9V3BM","A3774HPOUKYTX7","3MXX6RQ9EVRTFC527Z18RDK8KW6P4R","","512","img/flower2.png","75","513.1999999955297","2","1","1","2","1,0,0,1,1,0,1,0,1","0,1,0,0,1,1,1,1,0","3",""
"","html-keyboard-response","356","100988","0.0-356.0","32ZKVD547G98F6JIFIJQB7J1X9V3BM","A3774HPOUKYTX7","3MXX6RQ9EVRTFC527Z18RDK8KW6P4R","","null","<img src=""img/flower2.png"" style=""width:200px; border:14px solid green;"">","null","","","","","","","","",""
"","image-keyboard-response","357","101142","0.0-357.0","32ZKVD547G98F6JIFIJQB7J1X9V3BM","A3774HPOUKYTX7","3MXX6RQ9EVRTFC527Z18RDK8KW6P4R","","152","img/flower1.png","76","153.10000000149012","3","0","3","2","1,0,0,1,1,0,1,0,1","0,1,0,0,1,1,1,1,0","3",""
"","html-keyboard-response","358","101443","0.0-358.0","32ZKVD547G98F6JIFIJQB7J1X9V3BM","A3774HPOUKYTX7","3MXX6RQ9EVRTFC527Z18RDK8KW6P4R","","null","<img src=""img/flower1.png"" style=""width:200px;border:14px solid red;"">","null","","","","","","","","",""
"","image-keyboard-response","359","102031","0.0-359.0","32ZKVD547G98F6JIFIJQB7J1X9V3BM","A3774HPOUKYTX7","3MXX6RQ9EVRTFC527Z18RDK8KW6P4R","","586.5","img/flower1.png","74","587.5","1","1","3","2","1,0,0,1,1,0,1,0,1","0,1,0,0,1,1,1,1,0","3",""
"","html-keyboard-response","360","102332","0.0-360.0","32ZKVD547G98F6JIFIJQB7J1X9V3BM","A3774HPOUKYTX7","3MXX6RQ9EVRTFC527Z18RDK8KW6P4R","","null","<img src=""img/flower1.png"" style=""width:200px; border:14px solid green;"">","null","","","","","","","","",""
"","image-keyboard-response","361","102759","0.0-361.0","32ZKVD547G98F6JIFIJQB7J1X9V3BM","A3774HPOUKYTX7","3MXX6RQ9EVRTFC527Z18RDK8KW6P4R","","425.3999999985099","img/flower2.png","75","426.40000000596046","2","1","1","2","1,0,0,1,1,0,1,0,1","0,1,0,0,1,1,1,1,0","3",""
"","html-keyboard-response","362","103061","0.0-362.0","32ZKVD547G98F6JIFIJQB7J1X9V3BM","A3774HPOUKYTX7","3MXX6RQ9EVRTFC527Z18RDK8KW6P4R","","null","<img src=""img/flower2.png"" style=""width:200px; border:14px solid green;"">","null","","","","","","","","",""
"","instructions","363","105322","0.0-363.0","32ZKVD547G98F6JIFIJQB7J1X9V3BM","A3774HPOUKYTX7","3MXX6RQ9EVRTFC527Z18RDK8KW6P4R","[{""page_index"":0,""viewing_time"":2259.7000000029802}]","2259.89999999851","","","","","","","","","","",""
"","survey-text","364","108644","0.0-364.0","32ZKVD547G98F6JIFIJQB7J1X9V3BM","A3774HPOUKYTX7","3MXX6RQ9EVRTFC527Z18RDK8KW6P4R","","3318.10000000149","","","","","","","","","","","{""Q0"":""A3774HPOUKYTX7""}"
