"success","trial_type","trial_index","time_elapsed","internal_node_id","assignmentID","mturkID","hitID","view_history","rt","stimulus","key_press","reactionTime","a","r","s","cond","reward_cond","reward_cond_actual","reward_matrix_idx","responses"
"true","fullscreen","0","3260","0.0-0.0","36U2A8VAG2LAOCK0AGP904Y4T91KY5","A37QFZ8I1TGH2C","3XT3KXP24ZKFDDMCDS43FE3AU9W6IW","","","","","","","","","","","","",""
"","instructions","1","37298","0.0-1.0","36U2A8VAG2LAOCK0AGP904Y4T91KY5","A37QFZ8I1TGH2C","3XT3KXP24ZKFDDMCDS43FE3AU9W6IW","[{""page_index"":0,""viewing_time"":2383.699999988079},{""page_index"":1,""viewing_time"":2301.7000000476837},{""page_index"":2,""viewing_time"":3000.199999988079},{""page_index"":3,""viewing_time"":4297.800000011921},{""page_index"":4,""viewing_time"":5184},{""page_index"":5,""viewing_time"":7223.899999976158},{""page_index"":6,""viewing_time"":7639.899999976158},{""page_index"":7,""viewing_time"":2003.800000011921}]","34035.5","","","","","","","","","","",""
"","image-keyboard-response","2","37995","0.0-2.0","36U2A8VAG2LAOCK0AGP904Y4T91KY5","A37QFZ8I1TGH2C","3XT3KXP24ZKFDDMCDS43FE3AU9W6IW","","695.1999999880791","img/flower5.png","75","696.4000000357628","2","0","3","1","1,0.333,0.333,0.333,1,0.333,0.333,0.333,1","1,0.333,0.333,0.333,1,0.333,0.333,0.333,1","1",""
"","html-keyboard-response","3","38299","0.0-3.0","36U2A8VAG2LAOCK0AGP904Y4T91KY5","A37QFZ8I1TGH2C","3XT3KXP24ZKFDDMCDS43FE3AU9W6IW","","null","<img src=""img/flower5.png"" style=""width:200px;border:14px solid red;"">","null","","","","","","","","",""
"","image-keyboard-response","4","39379","0.0-4.0","36U2A8VAG2LAOCK0AGP904Y4T91KY5","A37QFZ8I1TGH2C","3XT3KXP24ZKFDDMCDS43FE3AU9W6IW","","1078.3999999761581","img/flower5.png","75","1079.3999999761581","2","0","3","1","1,0.333,0.333,0.333,1,0.333,0.333,0.333,1","1,0.333,0.333,0.333,1,0.333,0.333,0.333,1","1",""
"","html-keyboard-response","5","39681","0.0-5.0","36U2A8VAG2LAOCK0AGP904Y4T91KY5","A37QFZ8I1TGH2C","3XT3KXP24ZKFDDMCDS43FE3AU9W6IW","","null","<img src=""img/flower5.png"" style=""width:200px;border:14px solid red;"">","null","","","","","","","","",""
"","image-keyboard-response","6","40139","0.0-6.0","36U2A8VAG2LAOCK0AGP904Y4T91KY5","A37QFZ8I1TGH2C","3XT3KXP24ZKFDDMCDS43FE3AU9W6IW","","456.9000000357628","img/flower5.png","76","457.80000001192093","3","1","3","1","1,0.333,0.333,0.333,1,0.333,0.333,0.333,1","1,0.333,0.333,0.333,1,0.333,0.333,0.333,1","1",""
"","html-keyboard-response","7","40441","0.0-7.0","36U2A8VAG2LAOCK0AGP904Y4T91KY5","A37QFZ8I1TGH2C","3XT3KXP24ZKFDDMCDS43FE3AU9W6IW","","null","<img src=""img/flower5.png"" style=""width:200px; border:14px solid green;"">","null","","","","","","","","",""
"","image-keyboard-response","8","40963","0.0-8.0","36U2A8VAG2LAOCK0AGP904Y4T91KY5","A37QFZ8I1TGH2C","3XT3KXP24ZKFDDMCDS43FE3AU9W6IW","","521.0999999642372","img/flower5.png","76","522.6000000238419","3","1","3","1","1,0.333,0.333,0.333,1,0.333,0.333,0.333,1","1,0.333,0.333,0.333,1,0.333,0.333,0.333,1","1",""
"","html-keyboard-response","9","41266","0.0-9.0","36U2A8VAG2LAOCK0AGP904Y4T91KY5","A37QFZ8I1TGH2C","3XT3KXP24ZKFDDMCDS43FE3AU9W6IW","","null","<img src=""img/flower5.png"" style=""width:200px; border:14px solid green;"">","null","","","","","","","","",""
"","image-keyboard-response","10","42083","0.0-10.0","36U2A8VAG2LAOCK0AGP904Y4T91KY5","A37QFZ8I1TGH2C","3XT3KXP24ZKFDDMCDS43FE3AU9W6IW","","815","img/flower4.png","74","816.3000000119209","1","1","1","1","1,0.333,0.333,0.333,1,0.333,0.333,0.333,1","1,0.333,0.333,0.333,1,0.333,0.333,0.333,1","1",""
"","html-keyboard-response","11","42385","0.0-11.0","36U2A8VAG2LAOCK0AGP904Y4T91KY5","A37QFZ8I1TGH2C","3XT3KXP24ZKFDDMCDS43FE3AU9W6IW","","null","<img src=""img/flower4.png"" style=""width:200px; border:14px solid green;"">","null","","","","","","","","",""
"","image-keyboard-response","12","43187","0.0-12.0","36U2A8VAG2LAOCK0AGP904Y4T91KY5","A37QFZ8I1TGH2C","3XT3KXP24ZKFDDMCDS43FE3AU9W6IW","","801.4000000357628","img/flower5.png","76","802.1999999880791","3","1","3","1","1,0.333,0.333,0.333,1,0.333,0.333,0.333,1","1,0.333,0.333,0.333,1,0.333,0.333,0.333,1","1",""
"","html-keyboard-response","13","43489","0.0-13.0","36U2A8VAG2LAOCK0AGP904Y4T91KY5","A37QFZ8I1TGH2C","3XT3KXP24ZKFDDMCDS43FE3AU9W6IW","","null","<img src=""img/flower5.png"" style=""width:200px; border:14px solid green;"">","null","","","","","","","","",""
"","image-keyboard-response","14","44171","0.0-14.0","36U2A8VAG2LAOCK0AGP904Y4T91KY5","A37QFZ8I1TGH2C","3XT3KXP24ZKFDDMCDS43FE3AU9W6IW","","677.8999999761581","img/flower5.png","76","681.9000000357628","3","1","3","1","1,0.333,0.333,0.333,1,0.333,0.333,0.333,1","1,0.333,0.333,0.333,1,0.333,0.333,0.333,1","1",""
"","html-keyboard-response","15","44474","0.0-15.0","36U2A8VAG2LAOCK0AGP904Y4T91KY5","A37QFZ8I1TGH2C","3XT3KXP24ZKFDDMCDS43FE3AU9W6IW","","null","<img src=""img/flower5.png"" style=""width:200px; border:14px solid green;"">","null","","","","","","","","",""
"","image-keyboard-response","16","45173","0.0-16.0","36U2A8VAG2LAOCK0AGP904Y4T91KY5","A37QFZ8I1TGH2C","3XT3KXP24ZKFDDMCDS43FE3AU9W6IW","","697.5","img/flower6.png","75","698.5999999642372","2","1","2","1","1,0.333,0.333,0.333,1,0.333,0.333,0.333,1","1,0.333,0.333,0.333,1,0.333,0.333,0.333,1","1",""
"","html-keyboard-response","17","45475","0.0-17.0","36U2A8VAG2LAOCK0AGP904Y4T91KY5","A37QFZ8I1TGH2C","3XT3KXP24ZKFDDMCDS43FE3AU9W6IW","","null","<img src=""img/flower6.png"" style=""width:200px; border:14px solid green;"">","null","","","","","","","","",""
"","image-keyboard-response","18","46107","0.0-18.0","36U2A8VAG2LAOCK0AGP904Y4T91KY5","A37QFZ8I1TGH2C","3XT3KXP24ZKFDDMCDS43FE3AU9W6IW","","630.1999999880791","img/flower6.png","75","631.6000000238419","2","1","2","1","1,0.333,0.333,0.333,1,0.333,0.333,0.333,1","1,0.333,0.333,0.333,1,0.333,0.333,0.333,1","1",""
"","html-keyboard-response","19","46410","0.0-19.0","36U2A8VAG2LAOCK0AGP904Y4T91KY5","A37QFZ8I1TGH2C","3XT3KXP24ZKFDDMCDS43FE3AU9W6IW","","null","<img src=""img/flower6.png"" style=""width:200px; border:14px solid green;"">","null","","","","","","","","",""
"","image-keyboard-response","20","46963","0.0-20.0","36U2A8VAG2LAOCK0AGP904Y4T91KY5","A37QFZ8I1TGH2C","3XT3KXP24ZKFDDMCDS43FE3AU9W6IW","","551.6000000238419","img/flower4.png","74","552.8999999761581","1","1","1","1","1,0.333,0.333,0.333,1,0.333,0.333,0.333,1","1,0.333,0.333,0.333,1,0.333,0.333,0.333,1","1",""
"","html-keyboard-response","21","47265","0.0-21.0","36U2A8VAG2LAOCK0AGP904Y4T91KY5","A37QFZ8I1TGH2C","3XT3KXP24ZKFDDMCDS43FE3AU9W6IW","","null","<img src=""img/flower4.png"" style=""width:200px; border:14px solid green;"">","null","","","","","","","","",""
"","image-keyboard-response","22","48117","0.0-22.0","36U2A8VAG2LAOCK0AGP904Y4T91KY5","A37QFZ8I1TGH2C","3XT3KXP24ZKFDDMCDS43FE3AU9W6IW","","849.4000000357628","img/flower6.png","75","851.1999999880791","2","1","2","1","1,0.333,0.333,0.333,1,0.333,0.333,0.333,1","1,0.333,0.333,0.333,1,0.333,0.333,0.333,1","1",""
"","html-keyboard-response","23","48419","0.0-23.0","36U2A8VAG2LAOCK0AGP904Y4T91KY5","A37QFZ8I1TGH2C","3XT3KXP24ZKFDDMCDS43FE3AU9W6IW","","null","<img src=""img/flower6.png"" style=""width:200px; border:14px solid green;"">","null","","","","","","","","",""
"","image-keyboard-response","24","49044","0.0-24.0","36U2A8VAG2LAOCK0AGP904Y4T91KY5","A37QFZ8I1TGH2C","3XT3KXP24ZKFDDMCDS43FE3AU9W6IW","","624.5","img/flower6.png","75","625.1999999880791","2","1","2","1","1,0.333,0.333,0.333,1,0.333,0.333,0.333,1","1,0.333,0.333,0.333,1,0.333,0.333,0.333,1","1",""
"","html-keyboard-response","25","49346","0.0-25.0","36U2A8VAG2LAOCK0AGP904Y4T91KY5","A37QFZ8I1TGH2C","3XT3KXP24ZKFDDMCDS43FE3AU9W6IW","","null","<img src=""img/flower6.png"" style=""width:200px; border:14px solid green;"">","null","","","","","","","","",""
"","image-keyboard-response","26","49827","0.0-26.0","36U2A8VAG2LAOCK0AGP904Y4T91KY5","A37QFZ8I1TGH2C","3XT3KXP24ZKFDDMCDS43FE3AU9W6IW","","479.4000000357628","img/flower6.png","75","480.5","2","1","2","1","1,0.333,0.333,0.333,1,0.333,0.333,0.333,1","1,0.333,0.333,0.333,1,0.333,0.333,0.333,1","1",""
"","html-keyboard-response","27","50128","0.0-27.0","36U2A8VAG2LAOCK0AGP904Y4T91KY5","A37QFZ8I1TGH2C","3XT3KXP24ZKFDDMCDS43FE3AU9W6IW","","null","<img src=""img/flower6.png"" style=""width:200px; border:14px solid green;"">","null","","","","","","","","",""
"","image-keyboard-response","28","51004","0.0-28.0","36U2A8VAG2LAOCK0AGP904Y4T91KY5","A37QFZ8I1TGH2C","3XT3KXP24ZKFDDMCDS43FE3AU9W6IW","","873.9000000357628","img/flower5.png","74","874.8999999761581","1","0","3","1","1,0.333,0.333,0.333,1,0.333,0.333,0.333,1","1,0.333,0.333,0.333,1,0.333,0.333,0.333,1","1",""
"","html-keyboard-response","29","51306","0.0-29.0","36U2A8VAG2LAOCK0AGP904Y4T91KY5","A37QFZ8I1TGH2C","3XT3KXP24ZKFDDMCDS43FE3AU9W6IW","","null","<img src=""img/flower5.png"" style=""width:200px;border:14px solid red;"">","null","","","","","","","","",""
"","image-keyboard-response","30","52067","0.0-30.0","36U2A8VAG2LAOCK0AGP904Y4T91KY5","A37QFZ8I1TGH2C","3XT3KXP24ZKFDDMCDS43FE3AU9W6IW","","759.9000000357628","img/flower5.png","76","761","3","1","3","1","1,0.333,0.333,0.333,1,0.333,0.333,0.333,1","1,0.333,0.333,0.333,1,0.333,0.333,0.333,1","1",""
"","html-keyboard-response","31","52370","0.0-31.0","36U2A8VAG2LAOCK0AGP904Y4T91KY5","A37QFZ8I1TGH2C","3XT3KXP24ZKFDDMCDS43FE3AU9W6IW","","null","<img src=""img/flower5.png"" style=""width:200px; border:14px solid green;"">","null","","","","","","","","",""
"","image-keyboard-response","32","53083","0.0-32.0","36U2A8VAG2LAOCK0AGP904Y4T91KY5","A37QFZ8I1TGH2C","3XT3KXP24ZKFDDMCDS43FE3AU9W6IW","","711.6000000238419","img/flower6.png","75","712.5","2","1","2","1","1,0.333,0.333,0.333,1,0.333,0.333,0.333,1","1,0.333,0.333,0.333,1,0.333,0.333,0.333,1","1",""
"","html-keyboard-response","33","53385","0.0-33.0","36U2A8VAG2LAOCK0AGP904Y4T91KY5","A37QFZ8I1TGH2C","3XT3KXP24ZKFDDMCDS43FE3AU9W6IW","","null","<img src=""img/flower6.png"" style=""width:200px; border:14px solid green;"">","null","","","","","","","","",""
"","image-keyboard-response","34","53861","0.0-34.0","36U2A8VAG2LAOCK0AGP904Y4T91KY5","A37QFZ8I1TGH2C","3XT3KXP24ZKFDDMCDS43FE3AU9W6IW","","474.80000001192093","img/flower6.png","75","476.0999999642372","2","1","2","1","1,0.333,0.333,0.333,1,0.333,0.333,0.333,1","1,0.333,0.333,0.333,1,0.333,0.333,0.333,1","1",""
"","html-keyboard-response","35","54164","0.0-35.0","36U2A8VAG2LAOCK0AGP904Y4T91KY5","A37QFZ8I1TGH2C","3XT3KXP24ZKFDDMCDS43FE3AU9W6IW","","null","<img src=""img/flower6.png"" style=""width:200px; border:14px solid green;"">","null","","","","","","","","",""
"","image-keyboard-response","36","54811","0.0-36.0","36U2A8VAG2LAOCK0AGP904Y4T91KY5","A37QFZ8I1TGH2C","3XT3KXP24ZKFDDMCDS43FE3AU9W6IW","","645.5","img/flower4.png","76","646.3000000119209","3","1","1","1","1,0.333,0.333,0.333,1,0.333,0.333,0.333,1","1,0.333,0.333,0.333,1,0.333,0.333,0.333,1","1",""
"","html-keyboard-response","37","55113","0.0-37.0","36U2A8VAG2LAOCK0AGP904Y4T91KY5","A37QFZ8I1TGH2C","3XT3KXP24ZKFDDMCDS43FE3AU9W6IW","","null","<img src=""img/flower4.png"" style=""width:200px; border:14px solid green;"">","null","","","","","","","","",""
"","image-keyboard-response","38","55715","0.0-38.0","36U2A8VAG2LAOCK0AGP904Y4T91KY5","A37QFZ8I1TGH2C","3XT3KXP24ZKFDDMCDS43FE3AU9W6IW","","600.8000000119209","img/flower6.png","75","601.6999999880791","2","1","2","1","1,0.333,0.333,0.333,1,0.333,0.333,0.333,1","1,0.333,0.333,0.333,1,0.333,0.333,0.333,1","1",""
"","html-keyboard-response","39","56016","0.0-39.0","36U2A8VAG2LAOCK0AGP904Y4T91KY5","A37QFZ8I1TGH2C","3XT3KXP24ZKFDDMCDS43FE3AU9W6IW","","null","<img src=""img/flower6.png"" style=""width:200px; border:14px solid green;"">","null","","","","","","","","",""
"","image-keyboard-response","40","57003","0.0-40.0","36U2A8VAG2LAOCK0AGP904Y4T91KY5","A37QFZ8I1TGH2C","3XT3KXP24ZKFDDMCDS43FE3AU9W6IW","","985.2999999523163","img/flower5.png","76","986.3000000119209","3","1","3","1","1,0.333,0.333,0.333,1,0.333,0.333,0.333,1","1,0.333,0.333,0.333,1,0.333,0.333,0.333,1","1",""
"","html-keyboard-response","41","57305","0.0-41.0","36U2A8VAG2LAOCK0AGP904Y4T91KY5","A37QFZ8I1TGH2C","3XT3KXP24ZKFDDMCDS43FE3AU9W6IW","","null","<img src=""img/flower5.png"" style=""width:200px; border:14px solid green;"">","null","","","","","","","","",""
"","image-keyboard-response","42","58252","0.0-42.0","36U2A8VAG2LAOCK0AGP904Y4T91KY5","A37QFZ8I1TGH2C","3XT3KXP24ZKFDDMCDS43FE3AU9W6IW","","946","img/flower4.png","74","947","1","1","1","1","1,0.333,0.333,0.333,1,0.333,0.333,0.333,1","1,0.333,0.333,0.333,1,0.333,0.333,0.333,1","1",""
"","html-keyboard-response","43","58554","0.0-43.0","36U2A8VAG2LAOCK0AGP904Y4T91KY5","A37QFZ8I1TGH2C","3XT3KXP24ZKFDDMCDS43FE3AU9W6IW","","null","<img src=""img/flower4.png"" style=""width:200px; border:14px solid green;"">","null","","","","","","","","",""
"","image-keyboard-response","44","59180","0.0-44.0","36U2A8VAG2LAOCK0AGP904Y4T91KY5","A37QFZ8I1TGH2C","3XT3KXP24ZKFDDMCDS43FE3AU9W6IW","","624.8999999761581","img/flower4.png","74","626","1","1","1","1","1,0.333,0.333,0.333,1,0.333,0.333,0.333,1","1,0.333,0.333,0.333,1,0.333,0.333,0.333,1","1",""
"","html-keyboard-response","45","59482","0.0-45.0","36U2A8VAG2LAOCK0AGP904Y4T91KY5","A37QFZ8I1TGH2C","3XT3KXP24ZKFDDMCDS43FE3AU9W6IW","","null","<img src=""img/flower4.png"" style=""width:200px; border:14px solid green;"">","null","","","","","","","","",""
"","image-keyboard-response","46","60508","0.0-46.0","36U2A8VAG2LAOCK0AGP904Y4T91KY5","A37QFZ8I1TGH2C","3XT3KXP24ZKFDDMCDS43FE3AU9W6IW","","1024.4000000357628","img/flower6.png","75","1025.5","2","1","2","1","1,0.333,0.333,0.333,1,0.333,0.333,0.333,1","1,0.333,0.333,0.333,1,0.333,0.333,0.333,1","1",""
"","html-keyboard-response","47","60811","0.0-47.0","36U2A8VAG2LAOCK0AGP904Y4T91KY5","A37QFZ8I1TGH2C","3XT3KXP24ZKFDDMCDS43FE3AU9W6IW","","null","<img src=""img/flower6.png"" style=""width:200px; border:14px solid green;"">","null","","","","","","","","",""
"","image-keyboard-response","48","61467","0.0-48.0","36U2A8VAG2LAOCK0AGP904Y4T91KY5","A37QFZ8I1TGH2C","3XT3KXP24ZKFDDMCDS43FE3AU9W6IW","","654.8000000119209","img/flower4.png","74","656","1","1","1","1","1,0.333,0.333,0.333,1,0.333,0.333,0.333,1","1,0.333,0.333,0.333,1,0.333,0.333,0.333,1","1",""
"","html-keyboard-response","49","61769","0.0-49.0","36U2A8VAG2LAOCK0AGP904Y4T91KY5","A37QFZ8I1TGH2C","3XT3KXP24ZKFDDMCDS43FE3AU9W6IW","","null","<img src=""img/flower4.png"" style=""width:200px; border:14px solid green;"">","null","","","","","","","","",""
"","image-keyboard-response","50","62483","0.0-50.0","36U2A8VAG2LAOCK0AGP904Y4T91KY5","A37QFZ8I1TGH2C","3XT3KXP24ZKFDDMCDS43FE3AU9W6IW","","712.2999999523163","img/flower6.png","75","713.1999999880791","2","1","2","1","1,0.333,0.333,0.333,1,0.333,0.333,0.333,1","1,0.333,0.333,0.333,1,0.333,0.333,0.333,1","1",""
"","html-keyboard-response","51","62785","0.0-51.0","36U2A8VAG2LAOCK0AGP904Y4T91KY5","A37QFZ8I1TGH2C","3XT3KXP24ZKFDDMCDS43FE3AU9W6IW","","null","<img src=""img/flower6.png"" style=""width:200px; border:14px solid green;"">","null","","","","","","","","",""
"","image-keyboard-response","52","63866","0.0-52.0","36U2A8VAG2LAOCK0AGP904Y4T91KY5","A37QFZ8I1TGH2C","3XT3KXP24ZKFDDMCDS43FE3AU9W6IW","","1080.199999988079","img/flower5.png","76","1081.5","3","1","3","1","1,0.333,0.333,0.333,1,0.333,0.333,0.333,1","1,0.333,0.333,0.333,1,0.333,0.333,0.333,1","1",""
"","html-keyboard-response","53","64168","0.0-53.0","36U2A8VAG2LAOCK0AGP904Y4T91KY5","A37QFZ8I1TGH2C","3XT3KXP24ZKFDDMCDS43FE3AU9W6IW","","null","<img src=""img/flower5.png"" style=""width:200px; border:14px solid green;"">","null","","","","","","","","",""
"","image-keyboard-response","54","64651","0.0-54.0","36U2A8VAG2LAOCK0AGP904Y4T91KY5","A37QFZ8I1TGH2C","3XT3KXP24ZKFDDMCDS43FE3AU9W6IW","","481.4000000357628","img/flower5.png","76","482.60000002384186","3","1","3","1","1,0.333,0.333,0.333,1,0.333,0.333,0.333,1","1,0.333,0.333,0.333,1,0.333,0.333,0.333,1","1",""
"","html-keyboard-response","55","64952","0.0-55.0","36U2A8VAG2LAOCK0AGP904Y4T91KY5","A37QFZ8I1TGH2C","3XT3KXP24ZKFDDMCDS43FE3AU9W6IW","","null","<img src=""img/flower5.png"" style=""width:200px; border:14px solid green;"">","null","","","","","","","","",""
"","image-keyboard-response","56","65795","0.0-56.0","36U2A8VAG2LAOCK0AGP904Y4T91KY5","A37QFZ8I1TGH2C","3XT3KXP24ZKFDDMCDS43FE3AU9W6IW","","841.5","img/flower4.png","74","842.3999999761581","1","1","1","1","1,0.333,0.333,0.333,1,0.333,0.333,0.333,1","1,0.333,0.333,0.333,1,0.333,0.333,0.333,1","1",""
"","html-keyboard-response","57","66097","0.0-57.0","36U2A8VAG2LAOCK0AGP904Y4T91KY5","A37QFZ8I1TGH2C","3XT3KXP24ZKFDDMCDS43FE3AU9W6IW","","null","<img src=""img/flower4.png"" style=""width:200px; border:14px solid green;"">","null","","","","","","","","",""
"","image-keyboard-response","58","66644","0.0-58.0","36U2A8VAG2LAOCK0AGP904Y4T91KY5","A37QFZ8I1TGH2C","3XT3KXP24ZKFDDMCDS43FE3AU9W6IW","","545.7000000476837","img/flower4.png","74","546.8999999761581","1","1","1","1","1,0.333,0.333,0.333,1,0.333,0.333,0.333,1","1,0.333,0.333,0.333,1,0.333,0.333,0.333,1","1",""
"","html-keyboard-response","59","66945","0.0-59.0","36U2A8VAG2LAOCK0AGP904Y4T91KY5","A37QFZ8I1TGH2C","3XT3KXP24ZKFDDMCDS43FE3AU9W6IW","","null","<img src=""img/flower4.png"" style=""width:200px; border:14px solid green;"">","null","","","","","","","","",""
"","image-keyboard-response","60","67420","0.0-60.0","36U2A8VAG2LAOCK0AGP904Y4T91KY5","A37QFZ8I1TGH2C","3XT3KXP24ZKFDDMCDS43FE3AU9W6IW","","473.0999999642372","img/flower4.png","74","474.4000000357628","1","1","1","1","1,0.333,0.333,0.333,1,0.333,0.333,0.333,1","1,0.333,0.333,0.333,1,0.333,0.333,0.333,1","1",""
"","html-keyboard-response","61","67722","0.0-61.0","36U2A8VAG2LAOCK0AGP904Y4T91KY5","A37QFZ8I1TGH2C","3XT3KXP24ZKFDDMCDS43FE3AU9W6IW","","null","<img src=""img/flower4.png"" style=""width:200px; border:14px solid green;"">","null","","","","","","","","",""
"","image-keyboard-response","62","68587","0.0-62.0","36U2A8VAG2LAOCK0AGP904Y4T91KY5","A37QFZ8I1TGH2C","3XT3KXP24ZKFDDMCDS43FE3AU9W6IW","","864.3999999761581","img/flower6.png","75","865.3000000119209","2","1","2","1","1,0.333,0.333,0.333,1,0.333,0.333,0.333,1","1,0.333,0.333,0.333,1,0.333,0.333,0.333,1","1",""
"","html-keyboard-response","63","68890","0.0-63.0","36U2A8VAG2LAOCK0AGP904Y4T91KY5","A37QFZ8I1TGH2C","3XT3KXP24ZKFDDMCDS43FE3AU9W6IW","","null","<img src=""img/flower6.png"" style=""width:200px; border:14px solid green;"">","null","","","","","","","","",""
"","image-keyboard-response","64","69259","0.0-64.0","36U2A8VAG2LAOCK0AGP904Y4T91KY5","A37QFZ8I1TGH2C","3XT3KXP24ZKFDDMCDS43FE3AU9W6IW","","367.9000000357628","img/flower6.png","75","368.80000001192093","2","1","2","1","1,0.333,0.333,0.333,1,0.333,0.333,0.333,1","1,0.333,0.333,0.333,1,0.333,0.333,0.333,1","1",""
"","html-keyboard-response","65","69561","0.0-65.0","36U2A8VAG2LAOCK0AGP904Y4T91KY5","A37QFZ8I1TGH2C","3XT3KXP24ZKFDDMCDS43FE3AU9W6IW","","null","<img src=""img/flower6.png"" style=""width:200px; border:14px solid green;"">","null","","","","","","","","",""
"","image-keyboard-response","66","69795","0.0-66.0","36U2A8VAG2LAOCK0AGP904Y4T91KY5","A37QFZ8I1TGH2C","3XT3KXP24ZKFDDMCDS43FE3AU9W6IW","","232.5999999642372","img/flower5.png","75","233.60000002384186","2","1","3","1","1,0.333,0.333,0.333,1,0.333,0.333,0.333,1","1,0.333,0.333,0.333,1,0.333,0.333,0.333,1","1",""
"","html-keyboard-response","67","70097","0.0-67.0","36U2A8VAG2LAOCK0AGP904Y4T91KY5","A37QFZ8I1TGH2C","3XT3KXP24ZKFDDMCDS43FE3AU9W6IW","","null","<img src=""img/flower5.png"" style=""width:200px; border:14px solid green;"">","null","","","","","","","","",""
"","image-keyboard-response","68","70899","0.0-68.0","36U2A8VAG2LAOCK0AGP904Y4T91KY5","A37QFZ8I1TGH2C","3XT3KXP24ZKFDDMCDS43FE3AU9W6IW","","800.4000000357628","img/flower6.png","75","801.3999999761581","2","1","2","1","1,0.333,0.333,0.333,1,0.333,0.333,0.333,1","1,0.333,0.333,0.333,1,0.333,0.333,0.333,1","1",""
"","html-keyboard-response","69","71200","0.0-69.0","36U2A8VAG2LAOCK0AGP904Y4T91KY5","A37QFZ8I1TGH2C","3XT3KXP24ZKFDDMCDS43FE3AU9W6IW","","null","<img src=""img/flower6.png"" style=""width:200px; border:14px solid green;"">","null","","","","","","","","",""
"","image-keyboard-response","70","71850","0.0-70.0","36U2A8VAG2LAOCK0AGP904Y4T91KY5","A37QFZ8I1TGH2C","3XT3KXP24ZKFDDMCDS43FE3AU9W6IW","","648.9000000357628","img/flower4.png","74","649.6999999880791","1","1","1","1","1,0.333,0.333,0.333,1,0.333,0.333,0.333,1","1,0.333,0.333,0.333,1,0.333,0.333,0.333,1","1",""
"","html-keyboard-response","71","72152","0.0-71.0","36U2A8VAG2LAOCK0AGP904Y4T91KY5","A37QFZ8I1TGH2C","3XT3KXP24ZKFDDMCDS43FE3AU9W6IW","","null","<img src=""img/flower4.png"" style=""width:200px; border:14px solid green;"">","null","","","","","","","","",""
"","image-keyboard-response","72","72971","0.0-72.0","36U2A8VAG2LAOCK0AGP904Y4T91KY5","A37QFZ8I1TGH2C","3XT3KXP24ZKFDDMCDS43FE3AU9W6IW","","817.5","img/flower6.png","75","818.6999999880791","2","1","2","1","1,0.333,0.333,0.333,1,0.333,0.333,0.333,1","1,0.333,0.333,0.333,1,0.333,0.333,0.333,1","1",""
"","html-keyboard-response","73","73273","0.0-73.0","36U2A8VAG2LAOCK0AGP904Y4T91KY5","A37QFZ8I1TGH2C","3XT3KXP24ZKFDDMCDS43FE3AU9W6IW","","null","<img src=""img/flower6.png"" style=""width:200px; border:14px solid green;"">","null","","","","","","","","",""
"","image-keyboard-response","74","73867","0.0-74.0","36U2A8VAG2LAOCK0AGP904Y4T91KY5","A37QFZ8I1TGH2C","3XT3KXP24ZKFDDMCDS43FE3AU9W6IW","","593","img/flower4.png","76","594","3","1","1","1","1,0.333,0.333,0.333,1,0.333,0.333,0.333,1","1,0.333,0.333,0.333,1,0.333,0.333,0.333,1","1",""
"","html-keyboard-response","75","74169","0.0-75.0","36U2A8VAG2LAOCK0AGP904Y4T91KY5","A37QFZ8I1TGH2C","3XT3KXP24ZKFDDMCDS43FE3AU9W6IW","","null","<img src=""img/flower4.png"" style=""width:200px; border:14px solid green;"">","null","","","","","","","","",""
"","image-keyboard-response","76","75066","0.0-76.0","36U2A8VAG2LAOCK0AGP904Y4T91KY5","A37QFZ8I1TGH2C","3XT3KXP24ZKFDDMCDS43FE3AU9W6IW","","896.1999999880791","img/flower4.png","76","897.1999999880791","3","1","1","1","1,0.333,0.333,0.333,1,0.333,0.333,0.333,1","1,0.333,0.333,0.333,1,0.333,0.333,0.333,1","1",""
"","html-keyboard-response","77","75374","0.0-77.0","36U2A8VAG2LAOCK0AGP904Y4T91KY5","A37QFZ8I1TGH2C","3XT3KXP24ZKFDDMCDS43FE3AU9W6IW","","null","<img src=""img/flower4.png"" style=""width:200px; border:14px solid green;"">","null","","","","","","","","",""
"","image-keyboard-response","78","76250","0.0-78.0","36U2A8VAG2LAOCK0AGP904Y4T91KY5","A37QFZ8I1TGH2C","3XT3KXP24ZKFDDMCDS43FE3AU9W6IW","","875.6000000238419","img/flower5.png","74","876.3999999761581","1","1","3","1","1,0.333,0.333,0.333,1,0.333,0.333,0.333,1","1,0.333,0.333,0.333,1,0.333,0.333,0.333,1","1",""
"","html-keyboard-response","79","76552","0.0-79.0","36U2A8VAG2LAOCK0AGP904Y4T91KY5","A37QFZ8I1TGH2C","3XT3KXP24ZKFDDMCDS43FE3AU9W6IW","","null","<img src=""img/flower5.png"" style=""width:200px; border:14px solid green;"">","null","","","","","","","","",""
"","image-keyboard-response","80","77227","0.0-80.0","36U2A8VAG2LAOCK0AGP904Y4T91KY5","A37QFZ8I1TGH2C","3XT3KXP24ZKFDDMCDS43FE3AU9W6IW","","673.1999999880791","img/flower6.png","75","674.1999999880791","2","1","2","1","1,0.333,0.333,0.333,1,0.333,0.333,0.333,1","1,0.333,0.333,0.333,1,0.333,0.333,0.333,1","1",""
"","html-keyboard-response","81","77529","0.0-81.0","36U2A8VAG2LAOCK0AGP904Y4T91KY5","A37QFZ8I1TGH2C","3XT3KXP24ZKFDDMCDS43FE3AU9W6IW","","null","<img src=""img/flower6.png"" style=""width:200px; border:14px solid green;"">","null","","","","","","","","",""
"","image-keyboard-response","82","78363","0.0-82.0","36U2A8VAG2LAOCK0AGP904Y4T91KY5","A37QFZ8I1TGH2C","3XT3KXP24ZKFDDMCDS43FE3AU9W6IW","","832.7999999523163","img/flower5.png","74","833.8000000119209","1","1","3","1","1,0.333,0.333,0.333,1,0.333,0.333,0.333,1","1,0.333,0.333,0.333,1,0.333,0.333,0.333,1","1",""
"","html-keyboard-response","83","78666","0.0-83.0","36U2A8VAG2LAOCK0AGP904Y4T91KY5","A37QFZ8I1TGH2C","3XT3KXP24ZKFDDMCDS43FE3AU9W6IW","","null","<img src=""img/flower5.png"" style=""width:200px; border:14px solid green;"">","null","","","","","","","","",""
"","image-keyboard-response","84","79522","0.0-84.0","36U2A8VAG2LAOCK0AGP904Y4T91KY5","A37QFZ8I1TGH2C","3XT3KXP24ZKFDDMCDS43FE3AU9W6IW","","855.8000000119209","img/flower4.png","74","856.5","1","1","1","1","1,0.333,0.333,0.333,1,0.333,0.333,0.333,1","1,0.333,0.333,0.333,1,0.333,0.333,0.333,1","1",""
"","html-keyboard-response","85","79824","0.0-85.0","36U2A8VAG2LAOCK0AGP904Y4T91KY5","A37QFZ8I1TGH2C","3XT3KXP24ZKFDDMCDS43FE3AU9W6IW","","null","<img src=""img/flower4.png"" style=""width:200px; border:14px solid green;"">","null","","","","","","","","",""
"","image-keyboard-response","86","80931","0.0-86.0","36U2A8VAG2LAOCK0AGP904Y4T91KY5","A37QFZ8I1TGH2C","3XT3KXP24ZKFDDMCDS43FE3AU9W6IW","","1105","img/flower5.png","75","1106.199999988079","2","0","3","1","1,0.333,0.333,0.333,1,0.333,0.333,0.333,1","1,0.333,0.333,0.333,1,0.333,0.333,0.333,1","1",""
"","html-keyboard-response","87","81233","0.0-87.0","36U2A8VAG2LAOCK0AGP904Y4T91KY5","A37QFZ8I1TGH2C","3XT3KXP24ZKFDDMCDS43FE3AU9W6IW","","null","<img src=""img/flower5.png"" style=""width:200px;border:14px solid red;"">","null","","","","","","","","",""
"","image-keyboard-response","88","82202","0.0-88.0","36U2A8VAG2LAOCK0AGP904Y4T91KY5","A37QFZ8I1TGH2C","3XT3KXP24ZKFDDMCDS43FE3AU9W6IW","","968.3999999761581","img/flower6.png","75","969.3999999761581","2","1","2","1","1,0.333,0.333,0.333,1,0.333,0.333,0.333,1","1,0.333,0.333,0.333,1,0.333,0.333,0.333,1","1",""
"","html-keyboard-response","89","82504","0.0-89.0","36U2A8VAG2LAOCK0AGP904Y4T91KY5","A37QFZ8I1TGH2C","3XT3KXP24ZKFDDMCDS43FE3AU9W6IW","","null","<img src=""img/flower6.png"" style=""width:200px; border:14px solid green;"">","null","","","","","","","","",""
"","image-keyboard-response","90","83266","0.0-90.0","36U2A8VAG2LAOCK0AGP904Y4T91KY5","A37QFZ8I1TGH2C","3XT3KXP24ZKFDDMCDS43FE3AU9W6IW","","761","img/flower5.png","74","762.1000000238419","1","0","3","1","1,0.333,0.333,0.333,1,0.333,0.333,0.333,1","1,0.333,0.333,0.333,1,0.333,0.333,0.333,1","1",""
"","html-keyboard-response","91","83568","0.0-91.0","36U2A8VAG2LAOCK0AGP904Y4T91KY5","A37QFZ8I1TGH2C","3XT3KXP24ZKFDDMCDS43FE3AU9W6IW","","null","<img src=""img/flower5.png"" style=""width:200px;border:14px solid red;"">","null","","","","","","","","",""
"","image-keyboard-response","92","84651","0.0-92.0","36U2A8VAG2LAOCK0AGP904Y4T91KY5","A37QFZ8I1TGH2C","3XT3KXP24ZKFDDMCDS43FE3AU9W6IW","","1080.5","img/flower5.png","76","1081.699999988079","3","1","3","1","1,0.333,0.333,0.333,1,0.333,0.333,0.333,1","1,0.333,0.333,0.333,1,0.333,0.333,0.333,1","1",""
"","html-keyboard-response","93","84952","0.0-93.0","36U2A8VAG2LAOCK0AGP904Y4T91KY5","A37QFZ8I1TGH2C","3XT3KXP24ZKFDDMCDS43FE3AU9W6IW","","null","<img src=""img/flower5.png"" style=""width:200px; border:14px solid green;"">","null","","","","","","","","",""
"","image-keyboard-response","94","85668","0.0-94.0","36U2A8VAG2LAOCK0AGP904Y4T91KY5","A37QFZ8I1TGH2C","3XT3KXP24ZKFDDMCDS43FE3AU9W6IW","","714.1999999880791","img/flower6.png","75","715.1000000238419","2","1","2","1","1,0.333,0.333,0.333,1,0.333,0.333,0.333,1","1,0.333,0.333,0.333,1,0.333,0.333,0.333,1","1",""
"","html-keyboard-response","95","85969","0.0-95.0","36U2A8VAG2LAOCK0AGP904Y4T91KY5","A37QFZ8I1TGH2C","3XT3KXP24ZKFDDMCDS43FE3AU9W6IW","","null","<img src=""img/flower6.png"" style=""width:200px; border:14px solid green;"">","null","","","","","","","","",""
"","image-keyboard-response","96","86626","0.0-96.0","36U2A8VAG2LAOCK0AGP904Y4T91KY5","A37QFZ8I1TGH2C","3XT3KXP24ZKFDDMCDS43FE3AU9W6IW","","656.3000000119209","img/flower4.png","74","657.0999999642372","1","1","1","1","1,0.333,0.333,0.333,1,0.333,0.333,0.333,1","1,0.333,0.333,0.333,1,0.333,0.333,0.333,1","1",""
"","html-keyboard-response","97","86927","0.0-97.0","36U2A8VAG2LAOCK0AGP904Y4T91KY5","A37QFZ8I1TGH2C","3XT3KXP24ZKFDDMCDS43FE3AU9W6IW","","null","<img src=""img/flower4.png"" style=""width:200px; border:14px solid green;"">","null","","","","","","","","",""
"","image-keyboard-response","98","87690","0.0-98.0","36U2A8VAG2LAOCK0AGP904Y4T91KY5","A37QFZ8I1TGH2C","3XT3KXP24ZKFDDMCDS43FE3AU9W6IW","","761.3000000119209","img/flower6.png","75","762.4000000357628","2","1","2","1","1,0.333,0.333,0.333,1,0.333,0.333,0.333,1","1,0.333,0.333,0.333,1,0.333,0.333,0.333,1","1",""
"","html-keyboard-response","99","87991","0.0-99.0","36U2A8VAG2LAOCK0AGP904Y4T91KY5","A37QFZ8I1TGH2C","3XT3KXP24ZKFDDMCDS43FE3AU9W6IW","","null","<img src=""img/flower6.png"" style=""width:200px; border:14px solid green;"">","null","","","","","","","","",""
"","image-keyboard-response","100","88722","0.0-100.0","36U2A8VAG2LAOCK0AGP904Y4T91KY5","A37QFZ8I1TGH2C","3XT3KXP24ZKFDDMCDS43FE3AU9W6IW","","729.8000000119209","img/flower5.png","76","730.6000000238419","3","1","3","1","1,0.333,0.333,0.333,1,0.333,0.333,0.333,1","1,0.333,0.333,0.333,1,0.333,0.333,0.333,1","1",""
"","html-keyboard-response","101","89024","0.0-101.0","36U2A8VAG2LAOCK0AGP904Y4T91KY5","A37QFZ8I1TGH2C","3XT3KXP24ZKFDDMCDS43FE3AU9W6IW","","null","<img src=""img/flower5.png"" style=""width:200px; border:14px solid green;"">","null","","","","","","","","",""
"","image-keyboard-response","102","89924","0.0-102.0","36U2A8VAG2LAOCK0AGP904Y4T91KY5","A37QFZ8I1TGH2C","3XT3KXP24ZKFDDMCDS43FE3AU9W6IW","","899.1999999880791","img/flower4.png","74","900.3999999761581","1","1","1","1","1,0.333,0.333,0.333,1,0.333,0.333,0.333,1","1,0.333,0.333,0.333,1,0.333,0.333,0.333,1","1",""
"","html-keyboard-response","103","90226","0.0-103.0","36U2A8VAG2LAOCK0AGP904Y4T91KY5","A37QFZ8I1TGH2C","3XT3KXP24ZKFDDMCDS43FE3AU9W6IW","","null","<img src=""img/flower4.png"" style=""width:200px; border:14px solid green;"">","null","","","","","","","","",""
"","image-keyboard-response","104","90874","0.0-104.0","36U2A8VAG2LAOCK0AGP904Y4T91KY5","A37QFZ8I1TGH2C","3XT3KXP24ZKFDDMCDS43FE3AU9W6IW","","647","img/flower6.png","75","647.8000000119209","2","1","2","1","1,0.333,0.333,0.333,1,0.333,0.333,0.333,1","1,0.333,0.333,0.333,1,0.333,0.333,0.333,1","1",""
"","html-keyboard-response","105","91176","0.0-105.0","36U2A8VAG2LAOCK0AGP904Y4T91KY5","A37QFZ8I1TGH2C","3XT3KXP24ZKFDDMCDS43FE3AU9W6IW","","null","<img src=""img/flower6.png"" style=""width:200px; border:14px solid green;"">","null","","","","","","","","",""
"","image-keyboard-response","106","92283","0.0-106.0","36U2A8VAG2LAOCK0AGP904Y4T91KY5","A37QFZ8I1TGH2C","3XT3KXP24ZKFDDMCDS43FE3AU9W6IW","","1105.699999988079","img/flower4.png","74","1106.5","1","1","1","1","1,0.333,0.333,0.333,1,0.333,0.333,0.333,1","1,0.333,0.333,0.333,1,0.333,0.333,0.333,1","1",""
"","html-keyboard-response","107","92585","0.0-107.0","36U2A8VAG2LAOCK0AGP904Y4T91KY5","A37QFZ8I1TGH2C","3XT3KXP24ZKFDDMCDS43FE3AU9W6IW","","null","<img src=""img/flower4.png"" style=""width:200px; border:14px solid green;"">","null","","","","","","","","",""
"","image-keyboard-response","108","93314","0.0-108.0","36U2A8VAG2LAOCK0AGP904Y4T91KY5","A37QFZ8I1TGH2C","3XT3KXP24ZKFDDMCDS43FE3AU9W6IW","","728.1999999880791","img/flower4.png","74","729.1999999880791","1","1","1","1","1,0.333,0.333,0.333,1,0.333,0.333,0.333,1","1,0.333,0.333,0.333,1,0.333,0.333,0.333,1","1",""
"","html-keyboard-response","109","93616","0.0-109.0","36U2A8VAG2LAOCK0AGP904Y4T91KY5","A37QFZ8I1TGH2C","3XT3KXP24ZKFDDMCDS43FE3AU9W6IW","","null","<img src=""img/flower4.png"" style=""width:200px; border:14px solid green;"">","null","","","","","","","","",""
"","image-keyboard-response","110","94274","0.0-110.0","36U2A8VAG2LAOCK0AGP904Y4T91KY5","A37QFZ8I1TGH2C","3XT3KXP24ZKFDDMCDS43FE3AU9W6IW","","656.8000000119209","img/flower6.png","75","657.8999999761581","2","1","2","1","1,0.333,0.333,0.333,1,0.333,0.333,0.333,1","1,0.333,0.333,0.333,1,0.333,0.333,0.333,1","1",""
"","html-keyboard-response","111","94576","0.0-111.0","36U2A8VAG2LAOCK0AGP904Y4T91KY5","A37QFZ8I1TGH2C","3XT3KXP24ZKFDDMCDS43FE3AU9W6IW","","null","<img src=""img/flower6.png"" style=""width:200px; border:14px solid green;"">","null","","","","","","","","",""
"","image-keyboard-response","112","95298","0.0-112.0","36U2A8VAG2LAOCK0AGP904Y4T91KY5","A37QFZ8I1TGH2C","3XT3KXP24ZKFDDMCDS43FE3AU9W6IW","","720.2000000476837","img/flower5.png","76","721.4000000357628","3","1","3","1","1,0.333,0.333,0.333,1,0.333,0.333,0.333,1","1,0.333,0.333,0.333,1,0.333,0.333,0.333,1","1",""
"","html-keyboard-response","113","95600","0.0-113.0","36U2A8VAG2LAOCK0AGP904Y4T91KY5","A37QFZ8I1TGH2C","3XT3KXP24ZKFDDMCDS43FE3AU9W6IW","","null","<img src=""img/flower5.png"" style=""width:200px; border:14px solid green;"">","null","","","","","","","","",""
"","image-keyboard-response","114","96714","0.0-114.0","36U2A8VAG2LAOCK0AGP904Y4T91KY5","A37QFZ8I1TGH2C","3XT3KXP24ZKFDDMCDS43FE3AU9W6IW","","1112.5999999642372","img/flower4.png","74","1113.9000000357628","1","1","1","1","1,0.333,0.333,0.333,1,0.333,0.333,0.333,1","1,0.333,0.333,0.333,1,0.333,0.333,0.333,1","1",""
"","html-keyboard-response","115","97017","0.0-115.0","36U2A8VAG2LAOCK0AGP904Y4T91KY5","A37QFZ8I1TGH2C","3XT3KXP24ZKFDDMCDS43FE3AU9W6IW","","null","<img src=""img/flower4.png"" style=""width:200px; border:14px solid green;"">","null","","","","","","","","",""
"","image-keyboard-response","116","97714","0.0-116.0","36U2A8VAG2LAOCK0AGP904Y4T91KY5","A37QFZ8I1TGH2C","3XT3KXP24ZKFDDMCDS43FE3AU9W6IW","","695.6000000238419","img/flower6.png","75","696.4000000357628","2","1","2","1","1,0.333,0.333,0.333,1,0.333,0.333,0.333,1","1,0.333,0.333,0.333,1,0.333,0.333,0.333,1","1",""
"","html-keyboard-response","117","98017","0.0-117.0","36U2A8VAG2LAOCK0AGP904Y4T91KY5","A37QFZ8I1TGH2C","3XT3KXP24ZKFDDMCDS43FE3AU9W6IW","","null","<img src=""img/flower6.png"" style=""width:200px; border:14px solid green;"">","null","","","","","","","","",""
"","image-keyboard-response","118","98595","0.0-118.0","36U2A8VAG2LAOCK0AGP904Y4T91KY5","A37QFZ8I1TGH2C","3XT3KXP24ZKFDDMCDS43FE3AU9W6IW","","576.1000000238419","img/flower6.png","75","577.3000000119209","2","1","2","1","1,0.333,0.333,0.333,1,0.333,0.333,0.333,1","1,0.333,0.333,0.333,1,0.333,0.333,0.333,1","1",""
"","html-keyboard-response","119","98897","0.0-119.0","36U2A8VAG2LAOCK0AGP904Y4T91KY5","A37QFZ8I1TGH2C","3XT3KXP24ZKFDDMCDS43FE3AU9W6IW","","null","<img src=""img/flower6.png"" style=""width:200px; border:14px solid green;"">","null","","","","","","","","",""
"","image-keyboard-response","120","99762","0.0-120.0","36U2A8VAG2LAOCK0AGP904Y4T91KY5","A37QFZ8I1TGH2C","3XT3KXP24ZKFDDMCDS43FE3AU9W6IW","","864.6999999880791","img/flower4.png","74","865.6000000238419","1","1","1","1","1,0.333,0.333,0.333,1,0.333,0.333,0.333,1","1,0.333,0.333,0.333,1,0.333,0.333,0.333,1","1",""
"","html-keyboard-response","121","100065","0.0-121.0","36U2A8VAG2LAOCK0AGP904Y4T91KY5","A37QFZ8I1TGH2C","3XT3KXP24ZKFDDMCDS43FE3AU9W6IW","","null","<img src=""img/flower4.png"" style=""width:200px; border:14px solid green;"">","null","","","","","","","","",""
"","image-keyboard-response","122","100690","0.0-122.0","36U2A8VAG2LAOCK0AGP904Y4T91KY5","A37QFZ8I1TGH2C","3XT3KXP24ZKFDDMCDS43FE3AU9W6IW","","624.1999999880791","img/flower5.png","76","625.3999999761581","3","1","3","1","1,0.333,0.333,0.333,1,0.333,0.333,0.333,1","1,0.333,0.333,0.333,1,0.333,0.333,0.333,1","1",""
"","html-keyboard-response","123","100992","0.0-123.0","36U2A8VAG2LAOCK0AGP904Y4T91KY5","A37QFZ8I1TGH2C","3XT3KXP24ZKFDDMCDS43FE3AU9W6IW","","null","<img src=""img/flower5.png"" style=""width:200px; border:14px solid green;"">","null","","","","","","","","",""
"","image-keyboard-response","124","101427","0.0-124.0","36U2A8VAG2LAOCK0AGP904Y4T91KY5","A37QFZ8I1TGH2C","3XT3KXP24ZKFDDMCDS43FE3AU9W6IW","","433","img/flower5.png","76","434.19999998807907","3","1","3","1","1,0.333,0.333,0.333,1,0.333,0.333,0.333,1","1,0.333,0.333,0.333,1,0.333,0.333,0.333,1","1",""
"","html-keyboard-response","125","101729","0.0-125.0","36U2A8VAG2LAOCK0AGP904Y4T91KY5","A37QFZ8I1TGH2C","3XT3KXP24ZKFDDMCDS43FE3AU9W6IW","","null","<img src=""img/flower5.png"" style=""width:200px; border:14px solid green;"">","null","","","","","","","","",""
"","image-keyboard-response","126","102258","0.0-126.0","36U2A8VAG2LAOCK0AGP904Y4T91KY5","A37QFZ8I1TGH2C","3XT3KXP24ZKFDDMCDS43FE3AU9W6IW","","528.6999999880791","img/flower5.png","76","529.6000000238419","3","1","3","1","1,0.333,0.333,0.333,1,0.333,0.333,0.333,1","1,0.333,0.333,0.333,1,0.333,0.333,0.333,1","1",""
"","html-keyboard-response","127","102560","0.0-127.0","36U2A8VAG2LAOCK0AGP904Y4T91KY5","A37QFZ8I1TGH2C","3XT3KXP24ZKFDDMCDS43FE3AU9W6IW","","null","<img src=""img/flower5.png"" style=""width:200px; border:14px solid green;"">","null","","","","","","","","",""
"","image-keyboard-response","128","103330","0.0-128.0","36U2A8VAG2LAOCK0AGP904Y4T91KY5","A37QFZ8I1TGH2C","3XT3KXP24ZKFDDMCDS43FE3AU9W6IW","","769","img/flower4.png","74","769.8000000119209","1","1","1","1","1,0.333,0.333,0.333,1,0.333,0.333,0.333,1","1,0.333,0.333,0.333,1,0.333,0.333,0.333,1","1",""
"","html-keyboard-response","129","103632","0.0-129.0","36U2A8VAG2LAOCK0AGP904Y4T91KY5","A37QFZ8I1TGH2C","3XT3KXP24ZKFDDMCDS43FE3AU9W6IW","","null","<img src=""img/flower4.png"" style=""width:200px; border:14px solid green;"">","null","","","","","","","","",""
"","image-keyboard-response","130","104147","0.0-130.0","36U2A8VAG2LAOCK0AGP904Y4T91KY5","A37QFZ8I1TGH2C","3XT3KXP24ZKFDDMCDS43FE3AU9W6IW","","513.7999999523163","img/flower4.png","74","514.6999999880791","1","1","1","1","1,0.333,0.333,0.333,1,0.333,0.333,0.333,1","1,0.333,0.333,0.333,1,0.333,0.333,0.333,1","1",""
"","html-keyboard-response","131","104448","0.0-131.0","36U2A8VAG2LAOCK0AGP904Y4T91KY5","A37QFZ8I1TGH2C","3XT3KXP24ZKFDDMCDS43FE3AU9W6IW","","null","<img src=""img/flower4.png"" style=""width:200px; border:14px solid green;"">","null","","","","","","","","",""
"","image-keyboard-response","132","105187","0.0-132.0","36U2A8VAG2LAOCK0AGP904Y4T91KY5","A37QFZ8I1TGH2C","3XT3KXP24ZKFDDMCDS43FE3AU9W6IW","","736.7999999523163","img/flower5.png","76","738.1000000238419","3","1","3","1","1,0.333,0.333,0.333,1,0.333,0.333,0.333,1","1,0.333,0.333,0.333,1,0.333,0.333,0.333,1","1",""
"","html-keyboard-response","133","105489","0.0-133.0","36U2A8VAG2LAOCK0AGP904Y4T91KY5","A37QFZ8I1TGH2C","3XT3KXP24ZKFDDMCDS43FE3AU9W6IW","","null","<img src=""img/flower5.png"" style=""width:200px; border:14px solid green;"">","null","","","","","","","","",""
"","image-keyboard-response","134","106107","0.0-134.0","36U2A8VAG2LAOCK0AGP904Y4T91KY5","A37QFZ8I1TGH2C","3XT3KXP24ZKFDDMCDS43FE3AU9W6IW","","616.3999999761581","img/flower4.png","74","617.1999999880791","1","1","1","1","1,0.333,0.333,0.333,1,0.333,0.333,0.333,1","1,0.333,0.333,0.333,1,0.333,0.333,0.333,1","1",""
"","html-keyboard-response","135","106408","0.0-135.0","36U2A8VAG2LAOCK0AGP904Y4T91KY5","A37QFZ8I1TGH2C","3XT3KXP24ZKFDDMCDS43FE3AU9W6IW","","null","<img src=""img/flower4.png"" style=""width:200px; border:14px solid green;"">","null","","","","","","","","",""
"","image-keyboard-response","136","106867","0.0-136.0","36U2A8VAG2LAOCK0AGP904Y4T91KY5","A37QFZ8I1TGH2C","3XT3KXP24ZKFDDMCDS43FE3AU9W6IW","","457.2000000476837","img/flower4.png","74","458","1","1","1","1","1,0.333,0.333,0.333,1,0.333,0.333,0.333,1","1,0.333,0.333,0.333,1,0.333,0.333,0.333,1","1",""
"","html-keyboard-response","137","107169","0.0-137.0","36U2A8VAG2LAOCK0AGP904Y4T91KY5","A37QFZ8I1TGH2C","3XT3KXP24ZKFDDMCDS43FE3AU9W6IW","","null","<img src=""img/flower4.png"" style=""width:200px; border:14px solid green;"">","null","","","","","","","","",""
"","image-keyboard-response","138","107858","0.0-138.0","36U2A8VAG2LAOCK0AGP904Y4T91KY5","A37QFZ8I1TGH2C","3XT3KXP24ZKFDDMCDS43FE3AU9W6IW","","687.5","img/flower6.png","75","688.5","2","1","2","1","1,0.333,0.333,0.333,1,0.333,0.333,0.333,1","1,0.333,0.333,0.333,1,0.333,0.333,0.333,1","1",""
"","html-keyboard-response","139","108160","0.0-139.0","36U2A8VAG2LAOCK0AGP904Y4T91KY5","A37QFZ8I1TGH2C","3XT3KXP24ZKFDDMCDS43FE3AU9W6IW","","null","<img src=""img/flower6.png"" style=""width:200px; border:14px solid green;"">","null","","","","","","","","",""
"","image-keyboard-response","140","108970","0.0-140.0","36U2A8VAG2LAOCK0AGP904Y4T91KY5","A37QFZ8I1TGH2C","3XT3KXP24ZKFDDMCDS43FE3AU9W6IW","","808.8999999761581","img/flower5.png","76","810.2000000476837","3","1","3","1","1,0.333,0.333,0.333,1,0.333,0.333,0.333,1","1,0.333,0.333,0.333,1,0.333,0.333,0.333,1","1",""
"","html-keyboard-response","141","109273","0.0-141.0","36U2A8VAG2LAOCK0AGP904Y4T91KY5","A37QFZ8I1TGH2C","3XT3KXP24ZKFDDMCDS43FE3AU9W6IW","","null","<img src=""img/flower5.png"" style=""width:200px; border:14px solid green;"">","null","","","","","","","","",""
"","image-keyboard-response","142","109714","0.0-142.0","36U2A8VAG2LAOCK0AGP904Y4T91KY5","A37QFZ8I1TGH2C","3XT3KXP24ZKFDDMCDS43FE3AU9W6IW","","440.69999998807907","img/flower5.png","76","441.60000002384186","3","1","3","1","1,0.333,0.333,0.333,1,0.333,0.333,0.333,1","1,0.333,0.333,0.333,1,0.333,0.333,0.333,1","1",""
"","html-keyboard-response","143","110016","0.0-143.0","36U2A8VAG2LAOCK0AGP904Y4T91KY5","A37QFZ8I1TGH2C","3XT3KXP24ZKFDDMCDS43FE3AU9W6IW","","null","<img src=""img/flower5.png"" style=""width:200px; border:14px solid green;"">","null","","","","","","","","",""
"","image-keyboard-response","144","110738","0.0-144.0","36U2A8VAG2LAOCK0AGP904Y4T91KY5","A37QFZ8I1TGH2C","3XT3KXP24ZKFDDMCDS43FE3AU9W6IW","","720.6000000238419","img/flower4.png","74","721.8000000119209","1","1","1","1","1,0.333,0.333,0.333,1,0.333,0.333,0.333,1","1,0.333,0.333,0.333,1,0.333,0.333,0.333,1","1",""
"","html-keyboard-response","145","111040","0.0-145.0","36U2A8VAG2LAOCK0AGP904Y4T91KY5","A37QFZ8I1TGH2C","3XT3KXP24ZKFDDMCDS43FE3AU9W6IW","","null","<img src=""img/flower4.png"" style=""width:200px; border:14px solid green;"">","null","","","","","","","","",""
"","image-keyboard-response","146","111698","0.0-146.0","36U2A8VAG2LAOCK0AGP904Y4T91KY5","A37QFZ8I1TGH2C","3XT3KXP24ZKFDDMCDS43FE3AU9W6IW","","657","img/flower6.png","75","657.8000000119209","2","1","2","1","1,0.333,0.333,0.333,1,0.333,0.333,0.333,1","1,0.333,0.333,0.333,1,0.333,0.333,0.333,1","1",""
"","html-keyboard-response","147","111999","0.0-147.0","36U2A8VAG2LAOCK0AGP904Y4T91KY5","A37QFZ8I1TGH2C","3XT3KXP24ZKFDDMCDS43FE3AU9W6IW","","null","<img src=""img/flower6.png"" style=""width:200px; border:14px solid green;"">","null","","","","","","","","",""
"","image-keyboard-response","148","112642","0.0-148.0","36U2A8VAG2LAOCK0AGP904Y4T91KY5","A37QFZ8I1TGH2C","3XT3KXP24ZKFDDMCDS43FE3AU9W6IW","","642","img/flower6.png","75","642.9000000357628","2","1","2","1","1,0.333,0.333,0.333,1,0.333,0.333,0.333,1","1,0.333,0.333,0.333,1,0.333,0.333,0.333,1","1",""
"","html-keyboard-response","149","112945","0.0-149.0","36U2A8VAG2LAOCK0AGP904Y4T91KY5","A37QFZ8I1TGH2C","3XT3KXP24ZKFDDMCDS43FE3AU9W6IW","","null","<img src=""img/flower6.png"" style=""width:200px; border:14px solid green;"">","null","","","","","","","","",""
"","image-keyboard-response","150","113515","0.0-150.0","36U2A8VAG2LAOCK0AGP904Y4T91KY5","A37QFZ8I1TGH2C","3XT3KXP24ZKFDDMCDS43FE3AU9W6IW","","567.6999999880791","img/flower6.png","75","568.9000000357628","2","1","2","1","1,0.333,0.333,0.333,1,0.333,0.333,0.333,1","1,0.333,0.333,0.333,1,0.333,0.333,0.333,1","1",""
"","html-keyboard-response","151","113818","0.0-151.0","36U2A8VAG2LAOCK0AGP904Y4T91KY5","A37QFZ8I1TGH2C","3XT3KXP24ZKFDDMCDS43FE3AU9W6IW","","null","<img src=""img/flower6.png"" style=""width:200px; border:14px solid green;"">","null","","","","","","","","",""
"","image-keyboard-response","152","114450","0.0-152.0","36U2A8VAG2LAOCK0AGP904Y4T91KY5","A37QFZ8I1TGH2C","3XT3KXP24ZKFDDMCDS43FE3AU9W6IW","","631.3000000119209","img/flower4.png","74","632.1999999880791","1","1","1","1","1,0.333,0.333,0.333,1,0.333,0.333,0.333,1","1,0.333,0.333,0.333,1,0.333,0.333,0.333,1","1",""
"","html-keyboard-response","153","114753","0.0-153.0","36U2A8VAG2LAOCK0AGP904Y4T91KY5","A37QFZ8I1TGH2C","3XT3KXP24ZKFDDMCDS43FE3AU9W6IW","","null","<img src=""img/flower4.png"" style=""width:200px; border:14px solid green;"">","null","","","","","","","","",""
"","image-keyboard-response","154","115498","0.0-154.0","36U2A8VAG2LAOCK0AGP904Y4T91KY5","A37QFZ8I1TGH2C","3XT3KXP24ZKFDDMCDS43FE3AU9W6IW","","743.1999999880791","img/flower5.png","76","744.1999999880791","3","1","3","1","1,0.333,0.333,0.333,1,0.333,0.333,0.333,1","1,0.333,0.333,0.333,1,0.333,0.333,0.333,1","1",""
"","html-keyboard-response","155","115799","0.0-155.0","36U2A8VAG2LAOCK0AGP904Y4T91KY5","A37QFZ8I1TGH2C","3XT3KXP24ZKFDDMCDS43FE3AU9W6IW","","null","<img src=""img/flower5.png"" style=""width:200px; border:14px solid green;"">","null","","","","","","","","",""
"","image-keyboard-response","156","116538","0.0-156.0","36U2A8VAG2LAOCK0AGP904Y4T91KY5","A37QFZ8I1TGH2C","3XT3KXP24ZKFDDMCDS43FE3AU9W6IW","","737.8000000119209","img/flower6.png","75","738.6999999880791","2","1","2","1","1,0.333,0.333,0.333,1,0.333,0.333,0.333,1","1,0.333,0.333,0.333,1,0.333,0.333,0.333,1","1",""
"","html-keyboard-response","157","116840","0.0-157.0","36U2A8VAG2LAOCK0AGP904Y4T91KY5","A37QFZ8I1TGH2C","3XT3KXP24ZKFDDMCDS43FE3AU9W6IW","","null","<img src=""img/flower6.png"" style=""width:200px; border:14px solid green;"">","null","","","","","","","","",""
"","image-keyboard-response","158","117530","0.0-158.0","36U2A8VAG2LAOCK0AGP904Y4T91KY5","A37QFZ8I1TGH2C","3XT3KXP24ZKFDDMCDS43FE3AU9W6IW","","689","img/flower4.png","74","690.1000000238419","1","1","1","1","1,0.333,0.333,0.333,1,0.333,0.333,0.333,1","1,0.333,0.333,0.333,1,0.333,0.333,0.333,1","1",""
"","html-keyboard-response","159","117832","0.0-159.0","36U2A8VAG2LAOCK0AGP904Y4T91KY5","A37QFZ8I1TGH2C","3XT3KXP24ZKFDDMCDS43FE3AU9W6IW","","null","<img src=""img/flower4.png"" style=""width:200px; border:14px solid green;"">","null","","","","","","","","",""
"","image-keyboard-response","160","118314","0.0-160.0","36U2A8VAG2LAOCK0AGP904Y4T91KY5","A37QFZ8I1TGH2C","3XT3KXP24ZKFDDMCDS43FE3AU9W6IW","","480.80000001192093","img/flower4.png","74","481.69999998807907","1","1","1","1","1,0.333,0.333,0.333,1,0.333,0.333,0.333,1","1,0.333,0.333,0.333,1,0.333,0.333,0.333,1","1",""
"","html-keyboard-response","161","118617","0.0-161.0","36U2A8VAG2LAOCK0AGP904Y4T91KY5","A37QFZ8I1TGH2C","3XT3KXP24ZKFDDMCDS43FE3AU9W6IW","","null","<img src=""img/flower4.png"" style=""width:200px; border:14px solid green;"">","null","","","","","","","","",""
"","image-keyboard-response","162","119250","0.0-162.0","36U2A8VAG2LAOCK0AGP904Y4T91KY5","A37QFZ8I1TGH2C","3XT3KXP24ZKFDDMCDS43FE3AU9W6IW","","632.0999999642372","img/flower5.png","76","633.1000000238419","3","1","3","1","1,0.333,0.333,0.333,1,0.333,0.333,0.333,1","1,0.333,0.333,0.333,1,0.333,0.333,0.333,1","1",""
"","html-keyboard-response","163","119552","0.0-163.0","36U2A8VAG2LAOCK0AGP904Y4T91KY5","A37QFZ8I1TGH2C","3XT3KXP24ZKFDDMCDS43FE3AU9W6IW","","null","<img src=""img/flower5.png"" style=""width:200px; border:14px solid green;"">","null","","","","","","","","",""
"","image-keyboard-response","164","119962","0.0-164.0","36U2A8VAG2LAOCK0AGP904Y4T91KY5","A37QFZ8I1TGH2C","3XT3KXP24ZKFDDMCDS43FE3AU9W6IW","","408.80000001192093","img/flower5.png","76","409.89999997615814","3","1","3","1","1,0.333,0.333,0.333,1,0.333,0.333,0.333,1","1,0.333,0.333,0.333,1,0.333,0.333,0.333,1","1",""
"","html-keyboard-response","165","120264","0.0-165.0","36U2A8VAG2LAOCK0AGP904Y4T91KY5","A37QFZ8I1TGH2C","3XT3KXP24ZKFDDMCDS43FE3AU9W6IW","","null","<img src=""img/flower5.png"" style=""width:200px; border:14px solid green;"">","null","","","","","","","","",""
"","image-keyboard-response","166","120674","0.0-166.0","36U2A8VAG2LAOCK0AGP904Y4T91KY5","A37QFZ8I1TGH2C","3XT3KXP24ZKFDDMCDS43FE3AU9W6IW","","409.19999998807907","img/flower5.png","76","410","3","1","3","1","1,0.333,0.333,0.333,1,0.333,0.333,0.333,1","1,0.333,0.333,0.333,1,0.333,0.333,0.333,1","1",""
"","html-keyboard-response","167","120976","0.0-167.0","36U2A8VAG2LAOCK0AGP904Y4T91KY5","A37QFZ8I1TGH2C","3XT3KXP24ZKFDDMCDS43FE3AU9W6IW","","null","<img src=""img/flower5.png"" style=""width:200px; border:14px solid green;"">","null","","","","","","","","",""
"","image-keyboard-response","168","121666","0.0-168.0","36U2A8VAG2LAOCK0AGP904Y4T91KY5","A37QFZ8I1TGH2C","3XT3KXP24ZKFDDMCDS43FE3AU9W6IW","","689.0999999642372","img/flower4.png","74","690.3000000119209","1","1","1","1","1,0.333,0.333,0.333,1,0.333,0.333,0.333,1","1,0.333,0.333,0.333,1,0.333,0.333,0.333,1","1",""
"","html-keyboard-response","169","121968","0.0-169.0","36U2A8VAG2LAOCK0AGP904Y4T91KY5","A37QFZ8I1TGH2C","3XT3KXP24ZKFDDMCDS43FE3AU9W6IW","","null","<img src=""img/flower4.png"" style=""width:200px; border:14px solid green;"">","null","","","","","","","","",""
"","image-keyboard-response","170","122171","0.0-170.0","36U2A8VAG2LAOCK0AGP904Y4T91KY5","A37QFZ8I1TGH2C","3XT3KXP24ZKFDDMCDS43FE3AU9W6IW","","201.89999997615814","img/flower6.png","74","202.89999997615814","1","1","2","1","1,0.333,0.333,0.333,1,0.333,0.333,0.333,1","1,0.333,0.333,0.333,1,0.333,0.333,0.333,1","1",""
"","html-keyboard-response","171","122472","0.0-171.0","36U2A8VAG2LAOCK0AGP904Y4T91KY5","A37QFZ8I1TGH2C","3XT3KXP24ZKFDDMCDS43FE3AU9W6IW","","null","<img src=""img/flower6.png"" style=""width:200px; border:14px solid green;"">","null","","","","","","","","",""
"","image-keyboard-response","172","123418","0.0-172.0","36U2A8VAG2LAOCK0AGP904Y4T91KY5","A37QFZ8I1TGH2C","3XT3KXP24ZKFDDMCDS43FE3AU9W6IW","","945","img/flower4.png","74","945.8999999761581","1","1","1","1","1,0.333,0.333,0.333,1,0.333,0.333,0.333,1","1,0.333,0.333,0.333,1,0.333,0.333,0.333,1","1",""
"","html-keyboard-response","173","123720","0.0-173.0","36U2A8VAG2LAOCK0AGP904Y4T91KY5","A37QFZ8I1TGH2C","3XT3KXP24ZKFDDMCDS43FE3AU9W6IW","","null","<img src=""img/flower4.png"" style=""width:200px; border:14px solid green;"">","null","","","","","","","","",""
"","image-keyboard-response","174","124178","0.0-174.0","36U2A8VAG2LAOCK0AGP904Y4T91KY5","A37QFZ8I1TGH2C","3XT3KXP24ZKFDDMCDS43FE3AU9W6IW","","456.80000001192093","img/flower4.png","74","457.5","1","1","1","1","1,0.333,0.333,0.333,1,0.333,0.333,0.333,1","1,0.333,0.333,0.333,1,0.333,0.333,0.333,1","1",""
"","html-keyboard-response","175","124480","0.0-175.0","36U2A8VAG2LAOCK0AGP904Y4T91KY5","A37QFZ8I1TGH2C","3XT3KXP24ZKFDDMCDS43FE3AU9W6IW","","null","<img src=""img/flower4.png"" style=""width:200px; border:14px solid green;"">","null","","","","","","","","",""
"","image-keyboard-response","176","125226","0.0-176.0","36U2A8VAG2LAOCK0AGP904Y4T91KY5","A37QFZ8I1TGH2C","3XT3KXP24ZKFDDMCDS43FE3AU9W6IW","","744.8000000119209","img/flower6.png","75","745.8999999761581","2","1","2","1","1,0.333,0.333,0.333,1,0.333,0.333,0.333,1","1,0.333,0.333,0.333,1,0.333,0.333,0.333,1","1",""
"","html-keyboard-response","177","125531","0.0-177.0","36U2A8VAG2LAOCK0AGP904Y4T91KY5","A37QFZ8I1TGH2C","3XT3KXP24ZKFDDMCDS43FE3AU9W6IW","","null","<img src=""img/flower6.png"" style=""width:200px; border:14px solid green;"">","null","","","","","","","","",""
"","image-keyboard-response","178","126074","0.0-178.0","36U2A8VAG2LAOCK0AGP904Y4T91KY5","A37QFZ8I1TGH2C","3XT3KXP24ZKFDDMCDS43FE3AU9W6IW","","541.5","img/flower6.png","75","542.5999999642372","2","1","2","1","1,0.333,0.333,0.333,1,0.333,0.333,0.333,1","1,0.333,0.333,0.333,1,0.333,0.333,0.333,1","1",""
"","html-keyboard-response","179","126377","0.0-179.0","36U2A8VAG2LAOCK0AGP904Y4T91KY5","A37QFZ8I1TGH2C","3XT3KXP24ZKFDDMCDS43FE3AU9W6IW","","null","<img src=""img/flower6.png"" style=""width:200px; border:14px solid green;"">","null","","","","","","","","",""
"","image-keyboard-response","180","126923","0.0-180.0","36U2A8VAG2LAOCK0AGP904Y4T91KY5","A37QFZ8I1TGH2C","3XT3KXP24ZKFDDMCDS43FE3AU9W6IW","","544.4000000357628","img/flower5.png","76","545.7000000476837","3","1","3","1","1,0.333,0.333,0.333,1,0.333,0.333,0.333,1","1,0.333,0.333,0.333,1,0.333,0.333,0.333,1","1",""
"","html-keyboard-response","181","127226","0.0-181.0","36U2A8VAG2LAOCK0AGP904Y4T91KY5","A37QFZ8I1TGH2C","3XT3KXP24ZKFDDMCDS43FE3AU9W6IW","","null","<img src=""img/flower5.png"" style=""width:200px; border:14px solid green;"">","null","","","","","","","","",""
"","html-keyboard-response","182","131652","0.0-182.0","36U2A8VAG2LAOCK0AGP904Y4T91KY5","A37QFZ8I1TGH2C","3XT3KXP24ZKFDDMCDS43FE3AU9W6IW","","","","","","","","","","","","",""
"","image-keyboard-response","183","133500","0.0-183.0","36U2A8VAG2LAOCK0AGP904Y4T91KY5","A37QFZ8I1TGH2C","3XT3KXP24ZKFDDMCDS43FE3AU9W6IW","","1847.2000000476837","img/flower1.png","74","1848.199999988079","1","1","3","2","1,0,0,1,1,0,1,0,1","1,0,0,1,1,0,1,0,1","1",""
"","html-keyboard-response","184","133802","0.0-184.0","36U2A8VAG2LAOCK0AGP904Y4T91KY5","A37QFZ8I1TGH2C","3XT3KXP24ZKFDDMCDS43FE3AU9W6IW","","null","<img src=""img/flower1.png"" style=""width:200px; border:14px solid green;"">","null","","","","","","","","",""
"","image-keyboard-response","185","134986","0.0-185.0","36U2A8VAG2LAOCK0AGP904Y4T91KY5","A37QFZ8I1TGH2C","3XT3KXP24ZKFDDMCDS43FE3AU9W6IW","","1183.0999999642372","img/flower2.png","76","1184.3999999761581","3","0","1","2","1,0,0,1,1,0,1,0,1","1,0,0,1,1,0,1,0,1","1",""
"","html-keyboard-response","186","135289","0.0-186.0","36U2A8VAG2LAOCK0AGP904Y4T91KY5","A37QFZ8I1TGH2C","3XT3KXP24ZKFDDMCDS43FE3AU9W6IW","","null","<img src=""img/flower2.png"" style=""width:200px;border:14px solid red;"">","null","","","","","","","","",""
"","image-keyboard-response","187","136291","0.0-187.0","36U2A8VAG2LAOCK0AGP904Y4T91KY5","A37QFZ8I1TGH2C","3XT3KXP24ZKFDDMCDS43FE3AU9W6IW","","1000.6999999880791","img/flower1.png","75","1001.5999999642372","2","0","3","2","1,0,0,1,1,0,1,0,1","1,0,0,1,1,0,1,0,1","1",""
"","html-keyboard-response","188","136593","0.0-188.0","36U2A8VAG2LAOCK0AGP904Y4T91KY5","A37QFZ8I1TGH2C","3XT3KXP24ZKFDDMCDS43FE3AU9W6IW","","null","<img src=""img/flower1.png"" style=""width:200px;border:14px solid red;"">","null","","","","","","","","",""
"","image-keyboard-response","189","137626","0.0-189.0","36U2A8VAG2LAOCK0AGP904Y4T91KY5","A37QFZ8I1TGH2C","3XT3KXP24ZKFDDMCDS43FE3AU9W6IW","","1031.199999988079","img/flower3.png","74","1032.199999988079","1","1","2","2","1,0,0,1,1,0,1,0,1","1,0,0,1,1,0,1,0,1","1",""
"","html-keyboard-response","190","137928","0.0-190.0","36U2A8VAG2LAOCK0AGP904Y4T91KY5","A37QFZ8I1TGH2C","3XT3KXP24ZKFDDMCDS43FE3AU9W6IW","","null","<img src=""img/flower3.png"" style=""width:200px; border:14px solid green;"">","null","","","","","","","","",""
"","image-keyboard-response","191","138498","0.0-191.0","36U2A8VAG2LAOCK0AGP904Y4T91KY5","A37QFZ8I1TGH2C","3XT3KXP24ZKFDDMCDS43FE3AU9W6IW","","568.2999999523163","img/flower1.png","74","569.0999999642372","1","1","3","2","1,0,0,1,1,0,1,0,1","1,0,0,1,1,0,1,0,1","1",""
"","html-keyboard-response","192","138800","0.0-192.0","36U2A8VAG2LAOCK0AGP904Y4T91KY5","A37QFZ8I1TGH2C","3XT3KXP24ZKFDDMCDS43FE3AU9W6IW","","null","<img src=""img/flower1.png"" style=""width:200px; border:14px solid green;"">","null","","","","","","","","",""
"","image-keyboard-response","193","139378","0.0-193.0","36U2A8VAG2LAOCK0AGP904Y4T91KY5","A37QFZ8I1TGH2C","3XT3KXP24ZKFDDMCDS43FE3AU9W6IW","","576.3000000119209","img/flower1.png","74","577.2999999523163","1","1","3","2","1,0,0,1,1,0,1,0,1","1,0,0,1,1,0,1,0,1","1",""
"","html-keyboard-response","194","139680","0.0-194.0","36U2A8VAG2LAOCK0AGP904Y4T91KY5","A37QFZ8I1TGH2C","3XT3KXP24ZKFDDMCDS43FE3AU9W6IW","","null","<img src=""img/flower1.png"" style=""width:200px; border:14px solid green;"">","null","","","","","","","","",""
"","image-keyboard-response","195","140322","0.0-195.0","36U2A8VAG2LAOCK0AGP904Y4T91KY5","A37QFZ8I1TGH2C","3XT3KXP24ZKFDDMCDS43FE3AU9W6IW","","641.1999999880791","img/flower1.png","74","642.0999999642372","1","1","3","2","1,0,0,1,1,0,1,0,1","1,0,0,1,1,0,1,0,1","1",""
"","html-keyboard-response","196","140623","0.0-196.0","36U2A8VAG2LAOCK0AGP904Y4T91KY5","A37QFZ8I1TGH2C","3XT3KXP24ZKFDDMCDS43FE3AU9W6IW","","null","<img src=""img/flower1.png"" style=""width:200px; border:14px solid green;"">","null","","","","","","","","",""
"","image-keyboard-response","197","141058","0.0-197.0","36U2A8VAG2LAOCK0AGP904Y4T91KY5","A37QFZ8I1TGH2C","3XT3KXP24ZKFDDMCDS43FE3AU9W6IW","","433.19999998807907","img/flower1.png","74","434.19999998807907","1","1","3","2","1,0,0,1,1,0,1,0,1","1,0,0,1,1,0,1,0,1","1",""
"","html-keyboard-response","198","141360","0.0-198.0","36U2A8VAG2LAOCK0AGP904Y4T91KY5","A37QFZ8I1TGH2C","3XT3KXP24ZKFDDMCDS43FE3AU9W6IW","","null","<img src=""img/flower1.png"" style=""width:200px; border:14px solid green;"">","null","","","","","","","","",""
"","image-keyboard-response","199","142546","0.0-199.0","36U2A8VAG2LAOCK0AGP904Y4T91KY5","A37QFZ8I1TGH2C","3XT3KXP24ZKFDDMCDS43FE3AU9W6IW","","1184.699999988079","img/flower3.png","76","1185.699999988079","3","0","2","2","1,0,0,1,1,0,1,0,1","1,0,0,1,1,0,1,0,1","1",""
"","html-keyboard-response","200","142848","0.0-200.0","36U2A8VAG2LAOCK0AGP904Y4T91KY5","A37QFZ8I1TGH2C","3XT3KXP24ZKFDDMCDS43FE3AU9W6IW","","null","<img src=""img/flower3.png"" style=""width:200px;border:14px solid red;"">","null","","","","","","","","",""
"","image-keyboard-response","201","143746","0.0-201.0","36U2A8VAG2LAOCK0AGP904Y4T91KY5","A37QFZ8I1TGH2C","3XT3KXP24ZKFDDMCDS43FE3AU9W6IW","","896.1000000238419","img/flower1.png","75","897.7999999523163","2","0","3","2","1,0,0,1,1,0,1,0,1","1,0,0,1,1,0,1,0,1","1",""
"","html-keyboard-response","202","144049","0.0-202.0","36U2A8VAG2LAOCK0AGP904Y4T91KY5","A37QFZ8I1TGH2C","3XT3KXP24ZKFDDMCDS43FE3AU9W6IW","","null","<img src=""img/flower1.png"" style=""width:200px;border:14px solid red;"">","null","","","","","","","","",""
"","image-keyboard-response","203","144914","0.0-203.0","36U2A8VAG2LAOCK0AGP904Y4T91KY5","A37QFZ8I1TGH2C","3XT3KXP24ZKFDDMCDS43FE3AU9W6IW","","864.1999999880791","img/flower3.png","76","865.4000000357628","3","0","2","2","1,0,0,1,1,0,1,0,1","1,0,0,1,1,0,1,0,1","1",""
"","html-keyboard-response","204","145216","0.0-204.0","36U2A8VAG2LAOCK0AGP904Y4T91KY5","A37QFZ8I1TGH2C","3XT3KXP24ZKFDDMCDS43FE3AU9W6IW","","null","<img src=""img/flower3.png"" style=""width:200px;border:14px solid red;"">","null","","","","","","","","",""
"","image-keyboard-response","205","145986","0.0-205.0","36U2A8VAG2LAOCK0AGP904Y4T91KY5","A37QFZ8I1TGH2C","3XT3KXP24ZKFDDMCDS43FE3AU9W6IW","","768.8000000119209","img/flower3.png","75","769.7000000476837","2","1","2","2","1,0,0,1,1,0,1,0,1","1,0,0,1,1,0,1,0,1","1",""
"","html-keyboard-response","206","146289","0.0-206.0","36U2A8VAG2LAOCK0AGP904Y4T91KY5","A37QFZ8I1TGH2C","3XT3KXP24ZKFDDMCDS43FE3AU9W6IW","","null","<img src=""img/flower3.png"" style=""width:200px; border:14px solid green;"">","null","","","","","","","","",""
"","image-keyboard-response","207","147364","0.0-207.0","36U2A8VAG2LAOCK0AGP904Y4T91KY5","A37QFZ8I1TGH2C","3XT3KXP24ZKFDDMCDS43FE3AU9W6IW","","1073.5","img/flower2.png","75","1074.6000000238419","2","0","1","2","1,0,0,1,1,0,1,0,1","1,0,0,1,1,0,1,0,1","1",""
"","html-keyboard-response","208","147672","0.0-208.0","36U2A8VAG2LAOCK0AGP904Y4T91KY5","A37QFZ8I1TGH2C","3XT3KXP24ZKFDDMCDS43FE3AU9W6IW","","null","<img src=""img/flower2.png"" style=""width:200px;border:14px solid red;"">","null","","","","","","","","",""
"","image-keyboard-response","209","149026","0.0-209.0","36U2A8VAG2LAOCK0AGP904Y4T91KY5","A37QFZ8I1TGH2C","3XT3KXP24ZKFDDMCDS43FE3AU9W6IW","","1352.2999999523163","img/flower1.png","74","1353.4000000357628","1","1","3","2","1,0,0,1,1,0,1,0,1","1,0,0,1,1,0,1,0,1","1",""
"","html-keyboard-response","210","149328","0.0-210.0","36U2A8VAG2LAOCK0AGP904Y4T91KY5","A37QFZ8I1TGH2C","3XT3KXP24ZKFDDMCDS43FE3AU9W6IW","","null","<img src=""img/flower1.png"" style=""width:200px; border:14px solid green;"">","null","","","","","","","","",""
"","image-keyboard-response","211","150074","0.0-211.0","36U2A8VAG2LAOCK0AGP904Y4T91KY5","A37QFZ8I1TGH2C","3XT3KXP24ZKFDDMCDS43FE3AU9W6IW","","744.3999999761581","img/flower1.png","74","745.5","1","1","3","2","1,0,0,1,1,0,1,0,1","1,0,0,1,1,0,1,0,1","1",""
"","html-keyboard-response","212","150375","0.0-212.0","36U2A8VAG2LAOCK0AGP904Y4T91KY5","A37QFZ8I1TGH2C","3XT3KXP24ZKFDDMCDS43FE3AU9W6IW","","null","<img src=""img/flower1.png"" style=""width:200px; border:14px solid green;"">","null","","","","","","","","",""
"","image-keyboard-response","213","151147","0.0-213.0","36U2A8VAG2LAOCK0AGP904Y4T91KY5","A37QFZ8I1TGH2C","3XT3KXP24ZKFDDMCDS43FE3AU9W6IW","","771.1999999880791","img/flower3.png","76","772.3000000119209","3","0","2","2","1,0,0,1,1,0,1,0,1","1,0,0,1,1,0,1,0,1","1",""
"","html-keyboard-response","214","151452","0.0-214.0","36U2A8VAG2LAOCK0AGP904Y4T91KY5","A37QFZ8I1TGH2C","3XT3KXP24ZKFDDMCDS43FE3AU9W6IW","","null","<img src=""img/flower3.png"" style=""width:200px;border:14px solid red;"">","null","","","","","","","","",""
"","image-keyboard-response","215","153051","0.0-215.0","36U2A8VAG2LAOCK0AGP904Y4T91KY5","A37QFZ8I1TGH2C","3XT3KXP24ZKFDDMCDS43FE3AU9W6IW","","1597.3999999761581","img/flower1.png","76","1598.699999988079","3","1","3","2","1,0,0,1,1,0,1,0,1","1,0,0,1,1,0,1,0,1","1",""
"","html-keyboard-response","216","153354","0.0-216.0","36U2A8VAG2LAOCK0AGP904Y4T91KY5","A37QFZ8I1TGH2C","3XT3KXP24ZKFDDMCDS43FE3AU9W6IW","","null","<img src=""img/flower1.png"" style=""width:200px; border:14px solid green;"">","null","","","","","","","","",""
"","image-keyboard-response","217","154218","0.0-217.0","36U2A8VAG2LAOCK0AGP904Y4T91KY5","A37QFZ8I1TGH2C","3XT3KXP24ZKFDDMCDS43FE3AU9W6IW","","863.1000000238419","img/flower2.png","75","864.1999999880791","2","0","1","2","1,0,0,1,1,0,1,0,1","1,0,0,1,1,0,1,0,1","1",""
"","html-keyboard-response","218","154520","0.0-218.0","36U2A8VAG2LAOCK0AGP904Y4T91KY5","A37QFZ8I1TGH2C","3XT3KXP24ZKFDDMCDS43FE3AU9W6IW","","null","<img src=""img/flower2.png"" style=""width:200px;border:14px solid red;"">","null","","","","","","","","",""
"","image-keyboard-response","219","155250","0.0-219.0","36U2A8VAG2LAOCK0AGP904Y4T91KY5","A37QFZ8I1TGH2C","3XT3KXP24ZKFDDMCDS43FE3AU9W6IW","","728.8000000119209","img/flower2.png","76","730.1000000238419","3","0","1","2","1,0,0,1,1,0,1,0,1","1,0,0,1,1,0,1,0,1","1",""
"","html-keyboard-response","220","155552","0.0-220.0","36U2A8VAG2LAOCK0AGP904Y4T91KY5","A37QFZ8I1TGH2C","3XT3KXP24ZKFDDMCDS43FE3AU9W6IW","","null","<img src=""img/flower2.png"" style=""width:200px;border:14px solid red;"">","null","","","","","","","","",""
"","image-keyboard-response","221","156002","0.0-221.0","36U2A8VAG2LAOCK0AGP904Y4T91KY5","A37QFZ8I1TGH2C","3XT3KXP24ZKFDDMCDS43FE3AU9W6IW","","448.30000001192093","img/flower2.png","74","449.2000000476837","1","1","1","2","1,0,0,1,1,0,1,0,1","1,0,0,1,1,0,1,0,1","1",""
"","html-keyboard-response","222","156303","0.0-222.0","36U2A8VAG2LAOCK0AGP904Y4T91KY5","A37QFZ8I1TGH2C","3XT3KXP24ZKFDDMCDS43FE3AU9W6IW","","null","<img src=""img/flower2.png"" style=""width:200px; border:14px solid green;"">","null","","","","","","","","",""
"","image-keyboard-response","223","157586","0.0-223.0","36U2A8VAG2LAOCK0AGP904Y4T91KY5","A37QFZ8I1TGH2C","3XT3KXP24ZKFDDMCDS43FE3AU9W6IW","","1281.5","img/flower3.png","74","1282.300000011921","1","1","2","2","1,0,0,1,1,0,1,0,1","1,0,0,1,1,0,1,0,1","1",""
"","html-keyboard-response","224","157888","0.0-224.0","36U2A8VAG2LAOCK0AGP904Y4T91KY5","A37QFZ8I1TGH2C","3XT3KXP24ZKFDDMCDS43FE3AU9W6IW","","null","<img src=""img/flower3.png"" style=""width:200px; border:14px solid green;"">","null","","","","","","","","",""
"","image-keyboard-response","225","159290","0.0-225.0","36U2A8VAG2LAOCK0AGP904Y4T91KY5","A37QFZ8I1TGH2C","3XT3KXP24ZKFDDMCDS43FE3AU9W6IW","","1400.5999999642372","img/flower1.png","75","1402.1000000238419","2","0","3","2","1,0,0,1,1,0,1,0,1","1,0,0,1,1,0,1,0,1","1",""
"","html-keyboard-response","226","159592","0.0-226.0","36U2A8VAG2LAOCK0AGP904Y4T91KY5","A37QFZ8I1TGH2C","3XT3KXP24ZKFDDMCDS43FE3AU9W6IW","","null","<img src=""img/flower1.png"" style=""width:200px;border:14px solid red;"">","null","","","","","","","","",""
"","image-keyboard-response","227","160074","0.0-227.0","36U2A8VAG2LAOCK0AGP904Y4T91KY5","A37QFZ8I1TGH2C","3XT3KXP24ZKFDDMCDS43FE3AU9W6IW","","480.30000001192093","img/flower1.png","74","481","1","1","3","2","1,0,0,1,1,0,1,0,1","1,0,0,1,1,0,1,0,1","1",""
"","html-keyboard-response","228","160376","0.0-228.0","36U2A8VAG2LAOCK0AGP904Y4T91KY5","A37QFZ8I1TGH2C","3XT3KXP24ZKFDDMCDS43FE3AU9W6IW","","null","<img src=""img/flower1.png"" style=""width:200px; border:14px solid green;"">","null","","","","","","","","",""
"","image-keyboard-response","229","161506","0.0-229.0","36U2A8VAG2LAOCK0AGP904Y4T91KY5","A37QFZ8I1TGH2C","3XT3KXP24ZKFDDMCDS43FE3AU9W6IW","","1128.800000011921","img/flower3.png","75","1129.699999988079","2","1","2","2","1,0,0,1,1,0,1,0,1","1,0,0,1,1,0,1,0,1","1",""
"","html-keyboard-response","230","161808","0.0-230.0","36U2A8VAG2LAOCK0AGP904Y4T91KY5","A37QFZ8I1TGH2C","3XT3KXP24ZKFDDMCDS43FE3AU9W6IW","","null","<img src=""img/flower3.png"" style=""width:200px; border:14px solid green;"">","null","","","","","","","","",""
"","image-keyboard-response","231","162346","0.0-231.0","36U2A8VAG2LAOCK0AGP904Y4T91KY5","A37QFZ8I1TGH2C","3XT3KXP24ZKFDDMCDS43FE3AU9W6IW","","537.0999999642372","img/flower3.png","75","537.9000000357628","2","1","2","2","1,0,0,1,1,0,1,0,1","1,0,0,1,1,0,1,0,1","1",""
"","html-keyboard-response","232","162648","0.0-232.0","36U2A8VAG2LAOCK0AGP904Y4T91KY5","A37QFZ8I1TGH2C","3XT3KXP24ZKFDDMCDS43FE3AU9W6IW","","null","<img src=""img/flower3.png"" style=""width:200px; border:14px solid green;"">","null","","","","","","","","",""
"","image-keyboard-response","233","163754","0.0-233.0","36U2A8VAG2LAOCK0AGP904Y4T91KY5","A37QFZ8I1TGH2C","3XT3KXP24ZKFDDMCDS43FE3AU9W6IW","","1104.800000011921","img/flower2.png","76","1106","3","0","1","2","1,0,0,1,1,0,1,0,1","1,0,0,1,1,0,1,0,1","1",""
"","html-keyboard-response","234","164057","0.0-234.0","36U2A8VAG2LAOCK0AGP904Y4T91KY5","A37QFZ8I1TGH2C","3XT3KXP24ZKFDDMCDS43FE3AU9W6IW","","null","<img src=""img/flower2.png"" style=""width:200px;border:14px solid red;"">","null","","","","","","","","",""
"","image-keyboard-response","235","165090","0.0-235.0","36U2A8VAG2LAOCK0AGP904Y4T91KY5","A37QFZ8I1TGH2C","3XT3KXP24ZKFDDMCDS43FE3AU9W6IW","","1032.1000000238419","img/flower3.png","75","1033.199999988079","2","1","2","2","1,0,0,1,1,0,1,0,1","1,0,0,1,1,0,1,0,1","1",""
"","html-keyboard-response","236","165393","0.0-236.0","36U2A8VAG2LAOCK0AGP904Y4T91KY5","A37QFZ8I1TGH2C","3XT3KXP24ZKFDDMCDS43FE3AU9W6IW","","null","<img src=""img/flower3.png"" style=""width:200px; border:14px solid green;"">","null","","","","","","","","",""
"","image-keyboard-response","237","166234","0.0-237.0","36U2A8VAG2LAOCK0AGP904Y4T91KY5","A37QFZ8I1TGH2C","3XT3KXP24ZKFDDMCDS43FE3AU9W6IW","","839.5","img/flower1.png","74","840.1999999880791","1","1","3","2","1,0,0,1,1,0,1,0,1","1,0,0,1,1,0,1,0,1","1",""
"","html-keyboard-response","238","166535","0.0-238.0","36U2A8VAG2LAOCK0AGP904Y4T91KY5","A37QFZ8I1TGH2C","3XT3KXP24ZKFDDMCDS43FE3AU9W6IW","","null","<img src=""img/flower1.png"" style=""width:200px; border:14px solid green;"">","null","","","","","","","","",""
"","image-keyboard-response","239","167738","0.0-239.0","36U2A8VAG2LAOCK0AGP904Y4T91KY5","A37QFZ8I1TGH2C","3XT3KXP24ZKFDDMCDS43FE3AU9W6IW","","1201.7000000476837","img/flower2.png","74","1202.6000000238419","1","1","1","2","1,0,0,1,1,0,1,0,1","1,0,0,1,1,0,1,0,1","1",""
"","html-keyboard-response","240","168040","0.0-240.0","36U2A8VAG2LAOCK0AGP904Y4T91KY5","A37QFZ8I1TGH2C","3XT3KXP24ZKFDDMCDS43FE3AU9W6IW","","null","<img src=""img/flower2.png"" style=""width:200px; border:14px solid green;"">","null","","","","","","","","",""
"","image-keyboard-response","241","169195","0.0-241.0","36U2A8VAG2LAOCK0AGP904Y4T91KY5","A37QFZ8I1TGH2C","3XT3KXP24ZKFDDMCDS43FE3AU9W6IW","","1153.2999999523163","img/flower3.png","75","1154.199999988079","2","1","2","2","1,0,0,1,1,0,1,0,1","1,0,0,1,1,0,1,0,1","1",""
"","html-keyboard-response","242","169496","0.0-242.0","36U2A8VAG2LAOCK0AGP904Y4T91KY5","A37QFZ8I1TGH2C","3XT3KXP24ZKFDDMCDS43FE3AU9W6IW","","null","<img src=""img/flower3.png"" style=""width:200px; border:14px solid green;"">","null","","","","","","","","",""
"","image-keyboard-response","243","170194","0.0-243.0","36U2A8VAG2LAOCK0AGP904Y4T91KY5","A37QFZ8I1TGH2C","3XT3KXP24ZKFDDMCDS43FE3AU9W6IW","","696.2000000476837","img/flower2.png","74","697","1","1","1","2","1,0,0,1,1,0,1,0,1","1,0,0,1,1,0,1,0,1","1",""
"","html-keyboard-response","244","170496","0.0-244.0","36U2A8VAG2LAOCK0AGP904Y4T91KY5","A37QFZ8I1TGH2C","3XT3KXP24ZKFDDMCDS43FE3AU9W6IW","","null","<img src=""img/flower2.png"" style=""width:200px; border:14px solid green;"">","null","","","","","","","","",""
"","image-keyboard-response","245","171122","0.0-245.0","36U2A8VAG2LAOCK0AGP904Y4T91KY5","A37QFZ8I1TGH2C","3XT3KXP24ZKFDDMCDS43FE3AU9W6IW","","624.7000000476837","img/flower2.png","74","625.5999999642372","1","1","1","2","1,0,0,1,1,0,1,0,1","1,0,0,1,1,0,1,0,1","1",""
"","html-keyboard-response","246","171423","0.0-246.0","36U2A8VAG2LAOCK0AGP904Y4T91KY5","A37QFZ8I1TGH2C","3XT3KXP24ZKFDDMCDS43FE3AU9W6IW","","null","<img src=""img/flower2.png"" style=""width:200px; border:14px solid green;"">","null","","","","","","","","",""
"","image-keyboard-response","247","171883","0.0-247.0","36U2A8VAG2LAOCK0AGP904Y4T91KY5","A37QFZ8I1TGH2C","3XT3KXP24ZKFDDMCDS43FE3AU9W6IW","","459.30000001192093","img/flower2.png","74","460.19999998807907","1","1","1","2","1,0,0,1,1,0,1,0,1","1,0,0,1,1,0,1,0,1","1",""
"","html-keyboard-response","248","172184","0.0-248.0","36U2A8VAG2LAOCK0AGP904Y4T91KY5","A37QFZ8I1TGH2C","3XT3KXP24ZKFDDMCDS43FE3AU9W6IW","","null","<img src=""img/flower2.png"" style=""width:200px; border:14px solid green;"">","null","","","","","","","","",""
"","image-keyboard-response","249","172914","0.0-249.0","36U2A8VAG2LAOCK0AGP904Y4T91KY5","A37QFZ8I1TGH2C","3XT3KXP24ZKFDDMCDS43FE3AU9W6IW","","728.5","img/flower1.png","75","729.5","2","0","3","2","1,0,0,1,1,0,1,0,1","1,0,0,1,1,0,1,0,1","1",""
"","html-keyboard-response","250","173217","0.0-250.0","36U2A8VAG2LAOCK0AGP904Y4T91KY5","A37QFZ8I1TGH2C","3XT3KXP24ZKFDDMCDS43FE3AU9W6IW","","null","<img src=""img/flower1.png"" style=""width:200px;border:14px solid red;"">","null","","","","","","","","",""
"","image-keyboard-response","251","173970","0.0-251.0","36U2A8VAG2LAOCK0AGP904Y4T91KY5","A37QFZ8I1TGH2C","3XT3KXP24ZKFDDMCDS43FE3AU9W6IW","","751.7000000476837","img/flower1.png","76","752.5","3","1","3","2","1,0,0,1,1,0,1,0,1","1,0,0,1,1,0,1,0,1","1",""
"","html-keyboard-response","252","174272","0.0-252.0","36U2A8VAG2LAOCK0AGP904Y4T91KY5","A37QFZ8I1TGH2C","3XT3KXP24ZKFDDMCDS43FE3AU9W6IW","","null","<img src=""img/flower1.png"" style=""width:200px; border:14px solid green;"">","null","","","","","","","","",""
"","image-keyboard-response","253","175626","0.0-253.0","36U2A8VAG2LAOCK0AGP904Y4T91KY5","A37QFZ8I1TGH2C","3XT3KXP24ZKFDDMCDS43FE3AU9W6IW","","1352.9000000357628","img/flower2.png","75","1354.2000000476837","2","0","1","2","1,0,0,1,1,0,1,0,1","1,0,0,1,1,0,1,0,1","1",""
"","html-keyboard-response","254","175928","0.0-254.0","36U2A8VAG2LAOCK0AGP904Y4T91KY5","A37QFZ8I1TGH2C","3XT3KXP24ZKFDDMCDS43FE3AU9W6IW","","null","<img src=""img/flower2.png"" style=""width:200px;border:14px solid red;"">","null","","","","","","","","",""
"","image-keyboard-response","255","177033","0.0-255.0","36U2A8VAG2LAOCK0AGP904Y4T91KY5","A37QFZ8I1TGH2C","3XT3KXP24ZKFDDMCDS43FE3AU9W6IW","","1104.4000000357628","img/flower1.png","76","1105.300000011921","3","1","3","2","1,0,0,1,1,0,1,0,1","1,0,0,1,1,0,1,0,1","1",""
"","html-keyboard-response","256","177335","0.0-256.0","36U2A8VAG2LAOCK0AGP904Y4T91KY5","A37QFZ8I1TGH2C","3XT3KXP24ZKFDDMCDS43FE3AU9W6IW","","null","<img src=""img/flower1.png"" style=""width:200px; border:14px solid green;"">","null","","","","","","","","",""
"","image-keyboard-response","257","177787","0.0-257.0","36U2A8VAG2LAOCK0AGP904Y4T91KY5","A37QFZ8I1TGH2C","3XT3KXP24ZKFDDMCDS43FE3AU9W6IW","","450.10000002384186","img/flower1.png","76","451.60000002384186","3","1","3","2","1,0,0,1,1,0,1,0,1","1,0,0,1,1,0,1,0,1","1",""
"","html-keyboard-response","258","178089","0.0-258.0","36U2A8VAG2LAOCK0AGP904Y4T91KY5","A37QFZ8I1TGH2C","3XT3KXP24ZKFDDMCDS43FE3AU9W6IW","","null","<img src=""img/flower1.png"" style=""width:200px; border:14px solid green;"">","null","","","","","","","","",""
"","image-keyboard-response","259","179186","0.0-259.0","36U2A8VAG2LAOCK0AGP904Y4T91KY5","A37QFZ8I1TGH2C","3XT3KXP24ZKFDDMCDS43FE3AU9W6IW","","1095.199999988079","img/flower3.png","75","1096.5","2","1","2","2","1,0,0,1,1,0,1,0,1","1,0,0,1,1,0,1,0,1","1",""
"","html-keyboard-response","260","179489","0.0-260.0","36U2A8VAG2LAOCK0AGP904Y4T91KY5","A37QFZ8I1TGH2C","3XT3KXP24ZKFDDMCDS43FE3AU9W6IW","","null","<img src=""img/flower3.png"" style=""width:200px; border:14px solid green;"">","null","","","","","","","","",""
"","image-keyboard-response","261","180098","0.0-261.0","36U2A8VAG2LAOCK0AGP904Y4T91KY5","A37QFZ8I1TGH2C","3XT3KXP24ZKFDDMCDS43FE3AU9W6IW","","607.5","img/flower3.png","75","608.8000000119209","2","1","2","2","1,0,0,1,1,0,1,0,1","1,0,0,1,1,0,1,0,1","1",""
"","html-keyboard-response","262","180400","0.0-262.0","36U2A8VAG2LAOCK0AGP904Y4T91KY5","A37QFZ8I1TGH2C","3XT3KXP24ZKFDDMCDS43FE3AU9W6IW","","null","<img src=""img/flower3.png"" style=""width:200px; border:14px solid green;"">","null","","","","","","","","",""
"","image-keyboard-response","263","180930","0.0-263.0","36U2A8VAG2LAOCK0AGP904Y4T91KY5","A37QFZ8I1TGH2C","3XT3KXP24ZKFDDMCDS43FE3AU9W6IW","","528.5999999642372","img/flower3.png","75","529.6999999880791","2","1","2","2","1,0,0,1,1,0,1,0,1","1,0,0,1,1,0,1,0,1","1",""
"","html-keyboard-response","264","181232","0.0-264.0","36U2A8VAG2LAOCK0AGP904Y4T91KY5","A37QFZ8I1TGH2C","3XT3KXP24ZKFDDMCDS43FE3AU9W6IW","","null","<img src=""img/flower3.png"" style=""width:200px; border:14px solid green;"">","null","","","","","","","","",""
"","image-keyboard-response","265","181850","0.0-265.0","36U2A8VAG2LAOCK0AGP904Y4T91KY5","A37QFZ8I1TGH2C","3XT3KXP24ZKFDDMCDS43FE3AU9W6IW","","616.3000000119209","img/flower3.png","75","617.5999999642372","2","1","2","2","1,0,0,1,1,0,1,0,1","1,0,0,1,1,0,1,0,1","1",""
"","html-keyboard-response","266","182153","0.0-266.0","36U2A8VAG2LAOCK0AGP904Y4T91KY5","A37QFZ8I1TGH2C","3XT3KXP24ZKFDDMCDS43FE3AU9W6IW","","null","<img src=""img/flower3.png"" style=""width:200px; border:14px solid green;"">","null","","","","","","","","",""
"","image-keyboard-response","267","182922","0.0-267.0","36U2A8VAG2LAOCK0AGP904Y4T91KY5","A37QFZ8I1TGH2C","3XT3KXP24ZKFDDMCDS43FE3AU9W6IW","","767.8000000119209","img/flower2.png","76","768.7999999523163","3","0","1","2","1,0,0,1,1,0,1,0,1","1,0,0,1,1,0,1,0,1","1",""
"","html-keyboard-response","268","183223","0.0-268.0","36U2A8VAG2LAOCK0AGP904Y4T91KY5","A37QFZ8I1TGH2C","3XT3KXP24ZKFDDMCDS43FE3AU9W6IW","","null","<img src=""img/flower2.png"" style=""width:200px;border:14px solid red;"">","null","","","","","","","","",""
"","image-keyboard-response","269","184009","0.0-269.0","36U2A8VAG2LAOCK0AGP904Y4T91KY5","A37QFZ8I1TGH2C","3XT3KXP24ZKFDDMCDS43FE3AU9W6IW","","785.1000000238419","img/flower3.png","75","786","2","1","2","2","1,0,0,1,1,0,1,0,1","1,0,0,1,1,0,1,0,1","1",""
"","html-keyboard-response","270","184311","0.0-270.0","36U2A8VAG2LAOCK0AGP904Y4T91KY5","A37QFZ8I1TGH2C","3XT3KXP24ZKFDDMCDS43FE3AU9W6IW","","null","<img src=""img/flower3.png"" style=""width:200px; border:14px solid green;"">","null","","","","","","","","",""
"","image-keyboard-response","271","185130","0.0-271.0","36U2A8VAG2LAOCK0AGP904Y4T91KY5","A37QFZ8I1TGH2C","3XT3KXP24ZKFDDMCDS43FE3AU9W6IW","","816.7000000476837","img/flower2.png","74","817.9000000357628","1","1","1","2","1,0,0,1,1,0,1,0,1","1,0,0,1,1,0,1,0,1","1",""
"","html-keyboard-response","272","185431","0.0-272.0","36U2A8VAG2LAOCK0AGP904Y4T91KY5","A37QFZ8I1TGH2C","3XT3KXP24ZKFDDMCDS43FE3AU9W6IW","","null","<img src=""img/flower2.png"" style=""width:200px; border:14px solid green;"">","null","","","","","","","","",""
"","image-keyboard-response","273","186178","0.0-273.0","36U2A8VAG2LAOCK0AGP904Y4T91KY5","A37QFZ8I1TGH2C","3XT3KXP24ZKFDDMCDS43FE3AU9W6IW","","746","img/flower1.png","75","747.3000000119209","2","0","3","2","1,0,0,1,1,0,1,0,1","1,0,0,1,1,0,1,0,1","1",""
"","html-keyboard-response","274","186481","0.0-274.0","36U2A8VAG2LAOCK0AGP904Y4T91KY5","A37QFZ8I1TGH2C","3XT3KXP24ZKFDDMCDS43FE3AU9W6IW","","null","<img src=""img/flower1.png"" style=""width:200px;border:14px solid red;"">","null","","","","","","","","",""
"","image-keyboard-response","275","187481","0.0-275.0","36U2A8VAG2LAOCK0AGP904Y4T91KY5","A37QFZ8I1TGH2C","3XT3KXP24ZKFDDMCDS43FE3AU9W6IW","","998.8000000119209","img/flower2.png","74","999.9000000357628","1","1","1","2","1,0,0,1,1,0,1,0,1","1,0,0,1,1,0,1,0,1","1",""
"","html-keyboard-response","276","187783","0.0-276.0","36U2A8VAG2LAOCK0AGP904Y4T91KY5","A37QFZ8I1TGH2C","3XT3KXP24ZKFDDMCDS43FE3AU9W6IW","","null","<img src=""img/flower2.png"" style=""width:200px; border:14px solid green;"">","null","","","","","","","","",""
"","image-keyboard-response","277","188201","0.0-277.0","36U2A8VAG2LAOCK0AGP904Y4T91KY5","A37QFZ8I1TGH2C","3XT3KXP24ZKFDDMCDS43FE3AU9W6IW","","417.19999998807907","img/flower2.png","74","418.0999999642372","1","1","1","2","1,0,0,1,1,0,1,0,1","1,0,0,1,1,0,1,0,1","1",""
"","html-keyboard-response","278","188503","0.0-278.0","36U2A8VAG2LAOCK0AGP904Y4T91KY5","A37QFZ8I1TGH2C","3XT3KXP24ZKFDDMCDS43FE3AU9W6IW","","null","<img src=""img/flower2.png"" style=""width:200px; border:14px solid green;"">","null","","","","","","","","",""
"","image-keyboard-response","279","188681","0.0-279.0","36U2A8VAG2LAOCK0AGP904Y4T91KY5","A37QFZ8I1TGH2C","3XT3KXP24ZKFDDMCDS43FE3AU9W6IW","","176.80000001192093","img/flower2.png","74","177.60000002384186","1","1","1","2","1,0,0,1,1,0,1,0,1","1,0,0,1,1,0,1,0,1","1",""
"","html-keyboard-response","280","188983","0.0-280.0","36U2A8VAG2LAOCK0AGP904Y4T91KY5","A37QFZ8I1TGH2C","3XT3KXP24ZKFDDMCDS43FE3AU9W6IW","","null","<img src=""img/flower2.png"" style=""width:200px; border:14px solid green;"">","null","","","","","","","","",""
"","image-keyboard-response","281","189778","0.0-281.0","36U2A8VAG2LAOCK0AGP904Y4T91KY5","A37QFZ8I1TGH2C","3XT3KXP24ZKFDDMCDS43FE3AU9W6IW","","794.1000000238419","img/flower1.png","76","795.1999999880791","3","1","3","2","1,0,0,1,1,0,1,0,1","1,0,0,1,1,0,1,0,1","1",""
"","html-keyboard-response","282","190081","0.0-282.0","36U2A8VAG2LAOCK0AGP904Y4T91KY5","A37QFZ8I1TGH2C","3XT3KXP24ZKFDDMCDS43FE3AU9W6IW","","null","<img src=""img/flower1.png"" style=""width:200px; border:14px solid green;"">","null","","","","","","","","",""
"","image-keyboard-response","283","190794","0.0-283.0","36U2A8VAG2LAOCK0AGP904Y4T91KY5","A37QFZ8I1TGH2C","3XT3KXP24ZKFDDMCDS43FE3AU9W6IW","","711.5999999642372","img/flower2.png","74","712.8999999761581","1","1","1","2","1,0,0,1,1,0,1,0,1","1,0,0,1,1,0,1,0,1","1",""
"","html-keyboard-response","284","191095","0.0-284.0","36U2A8VAG2LAOCK0AGP904Y4T91KY5","A37QFZ8I1TGH2C","3XT3KXP24ZKFDDMCDS43FE3AU9W6IW","","null","<img src=""img/flower2.png"" style=""width:200px; border:14px solid green;"">","null","","","","","","","","",""
"","image-keyboard-response","285","192178","0.0-285.0","36U2A8VAG2LAOCK0AGP904Y4T91KY5","A37QFZ8I1TGH2C","3XT3KXP24ZKFDDMCDS43FE3AU9W6IW","","1081.300000011921","img/flower3.png","75","1082.5","2","1","2","2","1,0,0,1,1,0,1,0,1","1,0,0,1,1,0,1,0,1","1",""
"","html-keyboard-response","286","192481","0.0-286.0","36U2A8VAG2LAOCK0AGP904Y4T91KY5","A37QFZ8I1TGH2C","3XT3KXP24ZKFDDMCDS43FE3AU9W6IW","","null","<img src=""img/flower3.png"" style=""width:200px; border:14px solid green;"">","null","","","","","","","","",""
"","image-keyboard-response","287","193257","0.0-287.0","36U2A8VAG2LAOCK0AGP904Y4T91KY5","A37QFZ8I1TGH2C","3XT3KXP24ZKFDDMCDS43FE3AU9W6IW","","774.9000000357628","img/flower2.png","74","776.0999999642372","1","1","1","2","1,0,0,1,1,0,1,0,1","1,0,0,1,1,0,1,0,1","1",""
"","html-keyboard-response","288","193558","0.0-288.0","36U2A8VAG2LAOCK0AGP904Y4T91KY5","A37QFZ8I1TGH2C","3XT3KXP24ZKFDDMCDS43FE3AU9W6IW","","null","<img src=""img/flower2.png"" style=""width:200px; border:14px solid green;"">","null","","","","","","","","",""
"","image-keyboard-response","289","194858","0.0-289.0","36U2A8VAG2LAOCK0AGP904Y4T91KY5","A37QFZ8I1TGH2C","3XT3KXP24ZKFDDMCDS43FE3AU9W6IW","","1297.800000011921","img/flower3.png","75","1299","2","1","2","2","1,0,0,1,1,0,1,0,1","1,0,0,1,1,0,1,0,1","1",""
"","html-keyboard-response","290","195161","0.0-290.0","36U2A8VAG2LAOCK0AGP904Y4T91KY5","A37QFZ8I1TGH2C","3XT3KXP24ZKFDDMCDS43FE3AU9W6IW","","null","<img src=""img/flower3.png"" style=""width:200px; border:14px solid green;"">","null","","","","","","","","",""
"","image-keyboard-response","291","195953","0.0-291.0","36U2A8VAG2LAOCK0AGP904Y4T91KY5","A37QFZ8I1TGH2C","3XT3KXP24ZKFDDMCDS43FE3AU9W6IW","","791.5999999642372","img/flower1.png","76","792.5","3","1","3","2","1,0,0,1,1,0,1,0,1","1,0,0,1,1,0,1,0,1","1",""
"","html-keyboard-response","292","196256","0.0-292.0","36U2A8VAG2LAOCK0AGP904Y4T91KY5","A37QFZ8I1TGH2C","3XT3KXP24ZKFDDMCDS43FE3AU9W6IW","","null","<img src=""img/flower1.png"" style=""width:200px; border:14px solid green;"">","null","","","","","","","","",""
"","image-keyboard-response","293","197393","0.0-293.0","36U2A8VAG2LAOCK0AGP904Y4T91KY5","A37QFZ8I1TGH2C","3XT3KXP24ZKFDDMCDS43FE3AU9W6IW","","1136.5","img/flower3.png","75","1137.5999999642372","2","1","2","2","1,0,0,1,1,0,1,0,1","1,0,0,1,1,0,1,0,1","1",""
"","html-keyboard-response","294","197696","0.0-294.0","36U2A8VAG2LAOCK0AGP904Y4T91KY5","A37QFZ8I1TGH2C","3XT3KXP24ZKFDDMCDS43FE3AU9W6IW","","null","<img src=""img/flower3.png"" style=""width:200px; border:14px solid green;"">","null","","","","","","","","",""
"","image-keyboard-response","295","198338","0.0-295.0","36U2A8VAG2LAOCK0AGP904Y4T91KY5","A37QFZ8I1TGH2C","3XT3KXP24ZKFDDMCDS43FE3AU9W6IW","","640.5","img/flower2.png","76","641.3999999761581","3","0","1","2","1,0,0,1,1,0,1,0,1","1,0,0,1,1,0,1,0,1","1",""
"","html-keyboard-response","296","198640","0.0-296.0","36U2A8VAG2LAOCK0AGP904Y4T91KY5","A37QFZ8I1TGH2C","3XT3KXP24ZKFDDMCDS43FE3AU9W6IW","","null","<img src=""img/flower2.png"" style=""width:200px;border:14px solid red;"">","null","","","","","","","","",""
"","image-keyboard-response","297","199450","0.0-297.0","36U2A8VAG2LAOCK0AGP904Y4T91KY5","A37QFZ8I1TGH2C","3XT3KXP24ZKFDDMCDS43FE3AU9W6IW","","809","img/flower1.png","76","810","3","1","3","2","1,0,0,1,1,0,1,0,1","1,0,0,1,1,0,1,0,1","1",""
"","html-keyboard-response","298","199753","0.0-298.0","36U2A8VAG2LAOCK0AGP904Y4T91KY5","A37QFZ8I1TGH2C","3XT3KXP24ZKFDDMCDS43FE3AU9W6IW","","null","<img src=""img/flower1.png"" style=""width:200px; border:14px solid green;"">","null","","","","","","","","",""
"","image-keyboard-response","299","200642","0.0-299.0","36U2A8VAG2LAOCK0AGP904Y4T91KY5","A37QFZ8I1TGH2C","3XT3KXP24ZKFDDMCDS43FE3AU9W6IW","","888","img/flower1.png","76","889","3","1","3","2","1,0,0,1,1,0,1,0,1","1,0,0,1,1,0,1,0,1","1",""
"","html-keyboard-response","300","200945","0.0-300.0","36U2A8VAG2LAOCK0AGP904Y4T91KY5","A37QFZ8I1TGH2C","3XT3KXP24ZKFDDMCDS43FE3AU9W6IW","","null","<img src=""img/flower1.png"" style=""width:200px; border:14px solid green;"">","null","","","","","","","","",""
"","image-keyboard-response","301","201857","0.0-301.0","36U2A8VAG2LAOCK0AGP904Y4T91KY5","A37QFZ8I1TGH2C","3XT3KXP24ZKFDDMCDS43FE3AU9W6IW","","910.9000000357628","img/flower3.png","75","912","2","1","2","2","1,0,0,1,1,0,1,0,1","1,0,0,1,1,0,1,0,1","1",""
"","html-keyboard-response","302","202159","0.0-302.0","36U2A8VAG2LAOCK0AGP904Y4T91KY5","A37QFZ8I1TGH2C","3XT3KXP24ZKFDDMCDS43FE3AU9W6IW","","null","<img src=""img/flower3.png"" style=""width:200px; border:14px solid green;"">","null","","","","","","","","",""
"","image-keyboard-response","303","203098","0.0-303.0","36U2A8VAG2LAOCK0AGP904Y4T91KY5","A37QFZ8I1TGH2C","3XT3KXP24ZKFDDMCDS43FE3AU9W6IW","","936.6000000238419","img/flower1.png","74","937.8999999761581","1","1","3","2","1,0,0,1,1,0,1,0,1","1,0,0,1,1,0,1,0,1","1",""
"","html-keyboard-response","304","203400","0.0-304.0","36U2A8VAG2LAOCK0AGP904Y4T91KY5","A37QFZ8I1TGH2C","3XT3KXP24ZKFDDMCDS43FE3AU9W6IW","","null","<img src=""img/flower1.png"" style=""width:200px; border:14px solid green;"">","null","","","","","","","","",""
"","image-keyboard-response","305","204073","0.0-305.0","36U2A8VAG2LAOCK0AGP904Y4T91KY5","A37QFZ8I1TGH2C","3XT3KXP24ZKFDDMCDS43FE3AU9W6IW","","672.5999999642372","img/flower1.png","74","673.3999999761581","1","1","3","2","1,0,0,1,1,0,1,0,1","1,0,0,1,1,0,1,0,1","1",""
"","html-keyboard-response","306","204375","0.0-306.0","36U2A8VAG2LAOCK0AGP904Y4T91KY5","A37QFZ8I1TGH2C","3XT3KXP24ZKFDDMCDS43FE3AU9W6IW","","null","<img src=""img/flower1.png"" style=""width:200px; border:14px solid green;"">","null","","","","","","","","",""
"","image-keyboard-response","307","205273","0.0-307.0","36U2A8VAG2LAOCK0AGP904Y4T91KY5","A37QFZ8I1TGH2C","3XT3KXP24ZKFDDMCDS43FE3AU9W6IW","","896.8999999761581","img/flower2.png","74","898","1","1","1","2","1,0,0,1,1,0,1,0,1","1,0,0,1,1,0,1,0,1","1",""
"","html-keyboard-response","308","205576","0.0-308.0","36U2A8VAG2LAOCK0AGP904Y4T91KY5","A37QFZ8I1TGH2C","3XT3KXP24ZKFDDMCDS43FE3AU9W6IW","","null","<img src=""img/flower2.png"" style=""width:200px; border:14px solid green;"">","null","","","","","","","","",""
"","image-keyboard-response","309","206194","0.0-309.0","36U2A8VAG2LAOCK0AGP904Y4T91KY5","A37QFZ8I1TGH2C","3XT3KXP24ZKFDDMCDS43FE3AU9W6IW","","616.6000000238419","img/flower2.png","74","617.8999999761581","1","1","1","2","1,0,0,1,1,0,1,0,1","1,0,0,1,1,0,1,0,1","1",""
"","html-keyboard-response","310","206495","0.0-310.0","36U2A8VAG2LAOCK0AGP904Y4T91KY5","A37QFZ8I1TGH2C","3XT3KXP24ZKFDDMCDS43FE3AU9W6IW","","null","<img src=""img/flower2.png"" style=""width:200px; border:14px solid green;"">","null","","","","","","","","",""
"","image-keyboard-response","311","207273","0.0-311.0","36U2A8VAG2LAOCK0AGP904Y4T91KY5","A37QFZ8I1TGH2C","3XT3KXP24ZKFDDMCDS43FE3AU9W6IW","","776.5","img/flower3.png","75","777.6000000238419","2","1","2","2","1,0,0,1,1,0,1,0,1","1,0,0,1,1,0,1,0,1","1",""
"","html-keyboard-response","312","207575","0.0-312.0","36U2A8VAG2LAOCK0AGP904Y4T91KY5","A37QFZ8I1TGH2C","3XT3KXP24ZKFDDMCDS43FE3AU9W6IW","","null","<img src=""img/flower3.png"" style=""width:200px; border:14px solid green;"">","null","","","","","","","","",""
"","image-keyboard-response","313","208370","0.0-313.0","36U2A8VAG2LAOCK0AGP904Y4T91KY5","A37QFZ8I1TGH2C","3XT3KXP24ZKFDDMCDS43FE3AU9W6IW","","793.1999999880791","img/flower3.png","75","794.4000000357628","2","1","2","2","1,0,0,1,1,0,1,0,1","1,0,0,1,1,0,1,0,1","1",""
"","html-keyboard-response","314","208671","0.0-314.0","36U2A8VAG2LAOCK0AGP904Y4T91KY5","A37QFZ8I1TGH2C","3XT3KXP24ZKFDDMCDS43FE3AU9W6IW","","null","<img src=""img/flower3.png"" style=""width:200px; border:14px solid green;"">","null","","","","","","","","",""
"","image-keyboard-response","315","209681","0.0-315.0","36U2A8VAG2LAOCK0AGP904Y4T91KY5","A37QFZ8I1TGH2C","3XT3KXP24ZKFDDMCDS43FE3AU9W6IW","","1008.3000000119209","img/flower1.png","74","1009.6000000238419","1","1","3","2","1,0,0,1,1,0,1,0,1","1,0,0,1,1,0,1,0,1","1",""
"","html-keyboard-response","316","209983","0.0-316.0","36U2A8VAG2LAOCK0AGP904Y4T91KY5","A37QFZ8I1TGH2C","3XT3KXP24ZKFDDMCDS43FE3AU9W6IW","","null","<img src=""img/flower1.png"" style=""width:200px; border:14px solid green;"">","null","","","","","","","","",""
"","image-keyboard-response","317","210698","0.0-317.0","36U2A8VAG2LAOCK0AGP904Y4T91KY5","A37QFZ8I1TGH2C","3XT3KXP24ZKFDDMCDS43FE3AU9W6IW","","713.1999999880791","img/flower3.png","75","714.0999999642372","2","1","2","2","1,0,0,1,1,0,1,0,1","1,0,0,1,1,0,1,0,1","1",""
"","html-keyboard-response","318","211001","0.0-318.0","36U2A8VAG2LAOCK0AGP904Y4T91KY5","A37QFZ8I1TGH2C","3XT3KXP24ZKFDDMCDS43FE3AU9W6IW","","null","<img src=""img/flower3.png"" style=""width:200px; border:14px solid green;"">","null","","","","","","","","",""
"","image-keyboard-response","319","212146","0.0-319.0","36U2A8VAG2LAOCK0AGP904Y4T91KY5","A37QFZ8I1TGH2C","3XT3KXP24ZKFDDMCDS43FE3AU9W6IW","","1143.8999999761581","img/flower2.png","74","1144.8999999761581","1","1","1","2","1,0,0,1,1,0,1,0,1","1,0,0,1,1,0,1,0,1","1",""
"","html-keyboard-response","320","212448","0.0-320.0","36U2A8VAG2LAOCK0AGP904Y4T91KY5","A37QFZ8I1TGH2C","3XT3KXP24ZKFDDMCDS43FE3AU9W6IW","","null","<img src=""img/flower2.png"" style=""width:200px; border:14px solid green;"">","null","","","","","","","","",""
"","image-keyboard-response","321","213217","0.0-321.0","36U2A8VAG2LAOCK0AGP904Y4T91KY5","A37QFZ8I1TGH2C","3XT3KXP24ZKFDDMCDS43FE3AU9W6IW","","768","img/flower3.png","75","768.7999999523163","2","1","2","2","1,0,0,1,1,0,1,0,1","1,0,0,1,1,0,1,0,1","1",""
"","html-keyboard-response","322","213519","0.0-322.0","36U2A8VAG2LAOCK0AGP904Y4T91KY5","A37QFZ8I1TGH2C","3XT3KXP24ZKFDDMCDS43FE3AU9W6IW","","null","<img src=""img/flower3.png"" style=""width:200px; border:14px solid green;"">","null","","","","","","","","",""
"","image-keyboard-response","323","214297","0.0-323.0","36U2A8VAG2LAOCK0AGP904Y4T91KY5","A37QFZ8I1TGH2C","3XT3KXP24ZKFDDMCDS43FE3AU9W6IW","","777.2999999523163","img/flower2.png","74","778.1999999880791","1","1","1","2","1,0,0,1,1,0,1,0,1","1,0,0,1,1,0,1,0,1","1",""
"","html-keyboard-response","324","214598","0.0-324.0","36U2A8VAG2LAOCK0AGP904Y4T91KY5","A37QFZ8I1TGH2C","3XT3KXP24ZKFDDMCDS43FE3AU9W6IW","","null","<img src=""img/flower2.png"" style=""width:200px; border:14px solid green;"">","null","","","","","","","","",""
"","image-keyboard-response","325","215273","0.0-325.0","36U2A8VAG2LAOCK0AGP904Y4T91KY5","A37QFZ8I1TGH2C","3XT3KXP24ZKFDDMCDS43FE3AU9W6IW","","674.1999999880791","img/flower2.png","74","675.1999999880791","1","1","1","2","1,0,0,1,1,0,1,0,1","1,0,0,1,1,0,1,0,1","1",""
"","html-keyboard-response","326","215575","0.0-326.0","36U2A8VAG2LAOCK0AGP904Y4T91KY5","A37QFZ8I1TGH2C","3XT3KXP24ZKFDDMCDS43FE3AU9W6IW","","null","<img src=""img/flower2.png"" style=""width:200px; border:14px solid green;"">","null","","","","","","","","",""
"","image-keyboard-response","327","216161","0.0-327.0","36U2A8VAG2LAOCK0AGP904Y4T91KY5","A37QFZ8I1TGH2C","3XT3KXP24ZKFDDMCDS43FE3AU9W6IW","","584.6999999880791","img/flower1.png","75","585.7000000476837","2","0","3","2","1,0,0,1,1,0,1,0,1","1,0,0,1,1,0,1,0,1","1",""
"","html-keyboard-response","328","216462","0.0-328.0","36U2A8VAG2LAOCK0AGP904Y4T91KY5","A37QFZ8I1TGH2C","3XT3KXP24ZKFDDMCDS43FE3AU9W6IW","","null","<img src=""img/flower1.png"" style=""width:200px;border:14px solid red;"">","null","","","","","","","","",""
"","image-keyboard-response","329","217418","0.0-329.0","36U2A8VAG2LAOCK0AGP904Y4T91KY5","A37QFZ8I1TGH2C","3XT3KXP24ZKFDDMCDS43FE3AU9W6IW","","954.4000000357628","img/flower3.png","75","955.3000000119209","2","1","2","2","1,0,0,1,1,0,1,0,1","1,0,0,1,1,0,1,0,1","1",""
"","html-keyboard-response","330","217719","0.0-330.0","36U2A8VAG2LAOCK0AGP904Y4T91KY5","A37QFZ8I1TGH2C","3XT3KXP24ZKFDDMCDS43FE3AU9W6IW","","null","<img src=""img/flower3.png"" style=""width:200px; border:14px solid green;"">","null","","","","","","","","",""
"","image-keyboard-response","331","218778","0.0-331.0","36U2A8VAG2LAOCK0AGP904Y4T91KY5","A37QFZ8I1TGH2C","3XT3KXP24ZKFDDMCDS43FE3AU9W6IW","","1057.0999999642372","img/flower3.png","75","1058.199999988079","2","1","2","2","1,0,0,1,1,0,1,0,1","1,0,0,1,1,0,1,0,1","1",""
"","html-keyboard-response","332","219079","0.0-332.0","36U2A8VAG2LAOCK0AGP904Y4T91KY5","A37QFZ8I1TGH2C","3XT3KXP24ZKFDDMCDS43FE3AU9W6IW","","null","<img src=""img/flower3.png"" style=""width:200px; border:14px solid green;"">","null","","","","","","","","",""
"","image-keyboard-response","333","220169","0.0-333.0","36U2A8VAG2LAOCK0AGP904Y4T91KY5","A37QFZ8I1TGH2C","3XT3KXP24ZKFDDMCDS43FE3AU9W6IW","","1088.5","img/flower2.png","74","1089.4000000357628","1","1","1","2","1,0,0,1,1,0,1,0,1","1,0,0,1,1,0,1,0,1","1",""
"","html-keyboard-response","334","220471","0.0-334.0","36U2A8VAG2LAOCK0AGP904Y4T91KY5","A37QFZ8I1TGH2C","3XT3KXP24ZKFDDMCDS43FE3AU9W6IW","","null","<img src=""img/flower2.png"" style=""width:200px; border:14px solid green;"">","null","","","","","","","","",""
"","image-keyboard-response","335","221185","0.0-335.0","36U2A8VAG2LAOCK0AGP904Y4T91KY5","A37QFZ8I1TGH2C","3XT3KXP24ZKFDDMCDS43FE3AU9W6IW","","713.3000000119209","img/flower3.png","75","714.1999999880791","2","1","2","2","1,0,0,1,1,0,1,0,1","1,0,0,1,1,0,1,0,1","1",""
"","html-keyboard-response","336","221487","0.0-336.0","36U2A8VAG2LAOCK0AGP904Y4T91KY5","A37QFZ8I1TGH2C","3XT3KXP24ZKFDDMCDS43FE3AU9W6IW","","null","<img src=""img/flower3.png"" style=""width:200px; border:14px solid green;"">","null","","","","","","","","",""
"","image-keyboard-response","337","222393","0.0-337.0","36U2A8VAG2LAOCK0AGP904Y4T91KY5","A37QFZ8I1TGH2C","3XT3KXP24ZKFDDMCDS43FE3AU9W6IW","","904.8000000119209","img/flower2.png","74","905.9000000357628","1","1","1","2","1,0,0,1,1,0,1,0,1","1,0,0,1,1,0,1,0,1","1",""
"","html-keyboard-response","338","222694","0.0-338.0","36U2A8VAG2LAOCK0AGP904Y4T91KY5","A37QFZ8I1TGH2C","3XT3KXP24ZKFDDMCDS43FE3AU9W6IW","","null","<img src=""img/flower2.png"" style=""width:200px; border:14px solid green;"">","null","","","","","","","","",""
"","image-keyboard-response","339","223313","0.0-339.0","36U2A8VAG2LAOCK0AGP904Y4T91KY5","A37QFZ8I1TGH2C","3XT3KXP24ZKFDDMCDS43FE3AU9W6IW","","618.3000000119209","img/flower3.png","75","619.1000000238419","2","1","2","2","1,0,0,1,1,0,1,0,1","1,0,0,1,1,0,1,0,1","1",""
"","html-keyboard-response","340","223616","0.0-340.0","36U2A8VAG2LAOCK0AGP904Y4T91KY5","A37QFZ8I1TGH2C","3XT3KXP24ZKFDDMCDS43FE3AU9W6IW","","null","<img src=""img/flower3.png"" style=""width:200px; border:14px solid green;"">","null","","","","","","","","",""
"","image-keyboard-response","341","224513","0.0-341.0","36U2A8VAG2LAOCK0AGP904Y4T91KY5","A37QFZ8I1TGH2C","3XT3KXP24ZKFDDMCDS43FE3AU9W6IW","","895.7000000476837","img/flower1.png","76","896.8999999761581","3","1","3","2","1,0,0,1,1,0,1,0,1","1,0,0,1,1,0,1,0,1","1",""
"","html-keyboard-response","342","224815","0.0-342.0","36U2A8VAG2LAOCK0AGP904Y4T91KY5","A37QFZ8I1TGH2C","3XT3KXP24ZKFDDMCDS43FE3AU9W6IW","","null","<img src=""img/flower1.png"" style=""width:200px; border:14px solid green;"">","null","","","","","","","","",""
"","image-keyboard-response","343","225746","0.0-343.0","36U2A8VAG2LAOCK0AGP904Y4T91KY5","A37QFZ8I1TGH2C","3XT3KXP24ZKFDDMCDS43FE3AU9W6IW","","929.2999999523163","img/flower2.png","74","930.8000000119209","1","1","1","2","1,0,0,1,1,0,1,0,1","1,0,0,1,1,0,1,0,1","1",""
"","html-keyboard-response","344","226048","0.0-344.0","36U2A8VAG2LAOCK0AGP904Y4T91KY5","A37QFZ8I1TGH2C","3XT3KXP24ZKFDDMCDS43FE3AU9W6IW","","null","<img src=""img/flower2.png"" style=""width:200px; border:14px solid green;"">","null","","","","","","","","",""
"","image-keyboard-response","345","226881","0.0-345.0","36U2A8VAG2LAOCK0AGP904Y4T91KY5","A37QFZ8I1TGH2C","3XT3KXP24ZKFDDMCDS43FE3AU9W6IW","","832.4000000357628","img/flower3.png","75","833.5","2","1","2","2","1,0,0,1,1,0,1,0,1","1,0,0,1,1,0,1,0,1","1",""
"","html-keyboard-response","346","227184","0.0-346.0","36U2A8VAG2LAOCK0AGP904Y4T91KY5","A37QFZ8I1TGH2C","3XT3KXP24ZKFDDMCDS43FE3AU9W6IW","","null","<img src=""img/flower3.png"" style=""width:200px; border:14px solid green;"">","null","","","","","","","","",""
"","image-keyboard-response","347","227921","0.0-347.0","36U2A8VAG2LAOCK0AGP904Y4T91KY5","A37QFZ8I1TGH2C","3XT3KXP24ZKFDDMCDS43FE3AU9W6IW","","734.8000000119209","img/flower3.png","75","736.8000000119209","2","1","2","2","1,0,0,1,1,0,1,0,1","1,0,0,1,1,0,1,0,1","1",""
"","html-keyboard-response","348","228223","0.0-348.0","36U2A8VAG2LAOCK0AGP904Y4T91KY5","A37QFZ8I1TGH2C","3XT3KXP24ZKFDDMCDS43FE3AU9W6IW","","null","<img src=""img/flower3.png"" style=""width:200px; border:14px solid green;"">","null","","","","","","","","",""
"","image-keyboard-response","349","228834","0.0-349.0","36U2A8VAG2LAOCK0AGP904Y4T91KY5","A37QFZ8I1TGH2C","3XT3KXP24ZKFDDMCDS43FE3AU9W6IW","","610.5","img/flower2.png","74","611.5","1","1","1","2","1,0,0,1,1,0,1,0,1","1,0,0,1,1,0,1,0,1","1",""
"","html-keyboard-response","350","229136","0.0-350.0","36U2A8VAG2LAOCK0AGP904Y4T91KY5","A37QFZ8I1TGH2C","3XT3KXP24ZKFDDMCDS43FE3AU9W6IW","","null","<img src=""img/flower2.png"" style=""width:200px; border:14px solid green;"">","null","","","","","","","","",""
"","image-keyboard-response","351","229841","0.0-351.0","36U2A8VAG2LAOCK0AGP904Y4T91KY5","A37QFZ8I1TGH2C","3XT3KXP24ZKFDDMCDS43FE3AU9W6IW","","703.3999999761581","img/flower1.png","75","704.1000000238419","2","0","3","2","1,0,0,1,1,0,1,0,1","1,0,0,1,1,0,1,0,1","1",""
"","html-keyboard-response","352","230142","0.0-352.0","36U2A8VAG2LAOCK0AGP904Y4T91KY5","A37QFZ8I1TGH2C","3XT3KXP24ZKFDDMCDS43FE3AU9W6IW","","null","<img src=""img/flower1.png"" style=""width:200px;border:14px solid red;"">","null","","","","","","","","",""
"","image-keyboard-response","353","230393","0.0-353.0","36U2A8VAG2LAOCK0AGP904Y4T91KY5","A37QFZ8I1TGH2C","3XT3KXP24ZKFDDMCDS43FE3AU9W6IW","","249.60000002384186","img/flower1.png","76","250.69999998807907","3","1","3","2","1,0,0,1,1,0,1,0,1","1,0,0,1,1,0,1,0,1","1",""
"","html-keyboard-response","354","230694","0.0-354.0","36U2A8VAG2LAOCK0AGP904Y4T91KY5","A37QFZ8I1TGH2C","3XT3KXP24ZKFDDMCDS43FE3AU9W6IW","","null","<img src=""img/flower1.png"" style=""width:200px; border:14px solid green;"">","null","","","","","","","","",""
"","image-keyboard-response","355","231753","0.0-355.0","36U2A8VAG2LAOCK0AGP904Y4T91KY5","A37QFZ8I1TGH2C","3XT3KXP24ZKFDDMCDS43FE3AU9W6IW","","1057.300000011921","img/flower3.png","75","1058.5999999642372","2","1","2","2","1,0,0,1,1,0,1,0,1","1,0,0,1,1,0,1,0,1","1",""
"","html-keyboard-response","356","232056","0.0-356.0","36U2A8VAG2LAOCK0AGP904Y4T91KY5","A37QFZ8I1TGH2C","3XT3KXP24ZKFDDMCDS43FE3AU9W6IW","","null","<img src=""img/flower3.png"" style=""width:200px; border:14px solid green;"">","null","","","","","","","","",""
"","image-keyboard-response","357","232689","0.0-357.0","36U2A8VAG2LAOCK0AGP904Y4T91KY5","A37QFZ8I1TGH2C","3XT3KXP24ZKFDDMCDS43FE3AU9W6IW","","632.5999999642372","img/flower2.png","74","633.6000000238419","1","1","1","2","1,0,0,1,1,0,1,0,1","1,0,0,1,1,0,1,0,1","1",""
"","html-keyboard-response","358","232991","0.0-358.0","36U2A8VAG2LAOCK0AGP904Y4T91KY5","A37QFZ8I1TGH2C","3XT3KXP24ZKFDDMCDS43FE3AU9W6IW","","null","<img src=""img/flower2.png"" style=""width:200px; border:14px solid green;"">","null","","","","","","","","",""
"","image-keyboard-response","359","233465","0.0-359.0","36U2A8VAG2LAOCK0AGP904Y4T91KY5","A37QFZ8I1TGH2C","3XT3KXP24ZKFDDMCDS43FE3AU9W6IW","","472.60000002384186","img/flower2.png","74","473.39999997615814","1","1","1","2","1,0,0,1,1,0,1,0,1","1,0,0,1,1,0,1,0,1","1",""
"","html-keyboard-response","360","233767","0.0-360.0","36U2A8VAG2LAOCK0AGP904Y4T91KY5","A37QFZ8I1TGH2C","3XT3KXP24ZKFDDMCDS43FE3AU9W6IW","","null","<img src=""img/flower2.png"" style=""width:200px; border:14px solid green;"">","null","","","","","","","","",""
"","image-keyboard-response","361","234673","0.0-361.0","36U2A8VAG2LAOCK0AGP904Y4T91KY5","A37QFZ8I1TGH2C","3XT3KXP24ZKFDDMCDS43FE3AU9W6IW","","904.8000000119209","img/flower1.png","76","906.0999999642372","3","1","3","2","1,0,0,1,1,0,1,0,1","1,0,0,1,1,0,1,0,1","1",""
"","html-keyboard-response","362","234976","0.0-362.0","36U2A8VAG2LAOCK0AGP904Y4T91KY5","A37QFZ8I1TGH2C","3XT3KXP24ZKFDDMCDS43FE3AU9W6IW","","null","<img src=""img/flower1.png"" style=""width:200px; border:14px solid green;"">","null","","","","","","","","",""
"","instructions","363","240596","0.0-363.0","36U2A8VAG2LAOCK0AGP904Y4T91KY5","A37QFZ8I1TGH2C","3XT3KXP24ZKFDDMCDS43FE3AU9W6IW","[{""page_index"":0,""viewing_time"":5619.199999988079}]","5619.399999976158","","","","","","","","","","",""
