"success","trial_type","trial_index","time_elapsed","internal_node_id","assignmentID","mturkID","hitID","view_history","rt","stimulus","key_press","reactionTime","a","r","s","cond","reward_cond","reward_cond_actual","reward_matrix_idx","responses"
"true","fullscreen","0","10765","0.0-0.0","3L4D84MIL0ETRXOTIVL9DP3OOEXHJT","A39SK1E6IMQBD5","3JUDR1D0D6D4CARU3YX9Y3DK5DJ2QK","","","","","","","","","","","","",""
"","instructions","1","46052","0.0-1.0","3L4D84MIL0ETRXOTIVL9DP3OOEXHJT","A39SK1E6IMQBD5","3JUDR1D0D6D4CARU3YX9Y3DK5DJ2QK","[{""page_index"":0,""viewing_time"":4581.899999976158},{""page_index"":1,""viewing_time"":1636.300000011921},{""page_index"":2,""viewing_time"":4400.100000023842},{""page_index"":3,""viewing_time"":1952.8999999761581},{""page_index"":4,""viewing_time"":6882.5},{""page_index"":5,""viewing_time"":3659.899999976158},{""page_index"":6,""viewing_time"":6240.400000035763},{""page_index"":7,""viewing_time"":5929.899999976158}]","35284.80000001192","","","","","","","","","","",""
"","image-keyboard-response","2","47075","0.0-2.0","3L4D84MIL0ETRXOTIVL9DP3OOEXHJT","A39SK1E6IMQBD5","3JUDR1D0D6D4CARU3YX9Y3DK5DJ2QK","","1016.6000000238419","img/flower4.png","74","1020.8999999761581","1","1","3","1","1,0.333,0.333,0.333,1,0.333,0.333,0.333,1","1,0.333,0.333,0.333,1,0.333,0.333,0.333,1","1",""
"","html-keyboard-response","3","47384","0.0-3.0","3L4D84MIL0ETRXOTIVL9DP3OOEXHJT","A39SK1E6IMQBD5","3JUDR1D0D6D4CARU3YX9Y3DK5DJ2QK","","null","<img src=""img/flower4.png"" style=""width:200px; border:14px solid green;"">","null","","","","","","","","",""
"","image-keyboard-response","4","48022","0.0-4.0","3L4D84MIL0ETRXOTIVL9DP3OOEXHJT","A39SK1E6IMQBD5","3JUDR1D0D6D4CARU3YX9Y3DK5DJ2QK","","637.3999999761581","img/flower6.png","75","638.6999999880791","2","1","2","1","1,0.333,0.333,0.333,1,0.333,0.333,0.333,1","1,0.333,0.333,0.333,1,0.333,0.333,0.333,1","1",""
"","html-keyboard-response","5","48340","0.0-5.0","3L4D84MIL0ETRXOTIVL9DP3OOEXHJT","A39SK1E6IMQBD5","3JUDR1D0D6D4CARU3YX9Y3DK5DJ2QK","","null","<img src=""img/flower6.png"" style=""width:200px; border:14px solid green;"">","null","","","","","","","","",""
"","image-keyboard-response","6","48830","0.0-6.0","3L4D84MIL0ETRXOTIVL9DP3OOEXHJT","A39SK1E6IMQBD5","3JUDR1D0D6D4CARU3YX9Y3DK5DJ2QK","","486.89999997615814","img/flower2.png","76","489.30000001192093","3","0","1","1","1,0.333,0.333,0.333,1,0.333,0.333,0.333,1","1,0.333,0.333,0.333,1,0.333,0.333,0.333,1","1",""
"","html-keyboard-response","7","49135","0.0-7.0","3L4D84MIL0ETRXOTIVL9DP3OOEXHJT","A39SK1E6IMQBD5","3JUDR1D0D6D4CARU3YX9Y3DK5DJ2QK","","null","<img src=""img/flower2.png"" style=""width:200px;border:14px solid red;"">","null","","","","","","","","",""
"","image-keyboard-response","8","49687","0.0-8.0","3L4D84MIL0ETRXOTIVL9DP3OOEXHJT","A39SK1E6IMQBD5","3JUDR1D0D6D4CARU3YX9Y3DK5DJ2QK","","548.5","img/flower6.png","74","551.7000000476837","1","1","2","1","1,0.333,0.333,0.333,1,0.333,0.333,0.333,1","1,0.333,0.333,0.333,1,0.333,0.333,0.333,1","1",""
"","html-keyboard-response","9","50005","0.0-9.0","3L4D84MIL0ETRXOTIVL9DP3OOEXHJT","A39SK1E6IMQBD5","3JUDR1D0D6D4CARU3YX9Y3DK5DJ2QK","","null","<img src=""img/flower6.png"" style=""width:200px; border:14px solid green;"">","null","","","","","","","","",""
"","image-keyboard-response","10","50968","0.0-10.0","3L4D84MIL0ETRXOTIVL9DP3OOEXHJT","A39SK1E6IMQBD5","3JUDR1D0D6D4CARU3YX9Y3DK5DJ2QK","","958.1000000238419","img/flower4.png","74","960.7999999523163","1","1","3","1","1,0.333,0.333,0.333,1,0.333,0.333,0.333,1","1,0.333,0.333,0.333,1,0.333,0.333,0.333,1","1",""
"","html-keyboard-response","11","51287","0.0-11.0","3L4D84MIL0ETRXOTIVL9DP3OOEXHJT","A39SK1E6IMQBD5","3JUDR1D0D6D4CARU3YX9Y3DK5DJ2QK","","null","<img src=""img/flower4.png"" style=""width:200px; border:14px solid green;"">","null","","","","","","","","",""
"","image-keyboard-response","12","51782","0.0-12.0","3L4D84MIL0ETRXOTIVL9DP3OOEXHJT","A39SK1E6IMQBD5","3JUDR1D0D6D4CARU3YX9Y3DK5DJ2QK","","493.5","img/flower6.png","75","494.89999997615814","2","1","2","1","1,0.333,0.333,0.333,1,0.333,0.333,0.333,1","1,0.333,0.333,0.333,1,0.333,0.333,0.333,1","1",""
"","html-keyboard-response","13","52090","0.0-13.0","3L4D84MIL0ETRXOTIVL9DP3OOEXHJT","A39SK1E6IMQBD5","3JUDR1D0D6D4CARU3YX9Y3DK5DJ2QK","","null","<img src=""img/flower6.png"" style=""width:200px; border:14px solid green;"">","null","","","","","","","","",""
"","image-keyboard-response","14","52485","0.0-14.0","3L4D84MIL0ETRXOTIVL9DP3OOEXHJT","A39SK1E6IMQBD5","3JUDR1D0D6D4CARU3YX9Y3DK5DJ2QK","","392.89999997615814","img/flower6.png","75","394.5","2","1","2","1","1,0.333,0.333,0.333,1,0.333,0.333,0.333,1","1,0.333,0.333,0.333,1,0.333,0.333,0.333,1","1",""
"","html-keyboard-response","15","52799","0.0-15.0","3L4D84MIL0ETRXOTIVL9DP3OOEXHJT","A39SK1E6IMQBD5","3JUDR1D0D6D4CARU3YX9Y3DK5DJ2QK","","null","<img src=""img/flower6.png"" style=""width:200px; border:14px solid green;"">","null","","","","","","","","",""
"","image-keyboard-response","16","53063","0.0-16.0","3L4D84MIL0ETRXOTIVL9DP3OOEXHJT","A39SK1E6IMQBD5","3JUDR1D0D6D4CARU3YX9Y3DK5DJ2QK","","261.60000002384186","img/flower6.png","75","263.60000002384186","2","1","2","1","1,0.333,0.333,0.333,1,0.333,0.333,0.333,1","1,0.333,0.333,0.333,1,0.333,0.333,0.333,1","1",""
"","html-keyboard-response","17","53366","0.0-17.0","3L4D84MIL0ETRXOTIVL9DP3OOEXHJT","A39SK1E6IMQBD5","3JUDR1D0D6D4CARU3YX9Y3DK5DJ2QK","","null","<img src=""img/flower6.png"" style=""width:200px; border:14px solid green;"">","null","","","","","","","","",""
"","image-keyboard-response","18","53678","0.0-18.0","3L4D84MIL0ETRXOTIVL9DP3OOEXHJT","A39SK1E6IMQBD5","3JUDR1D0D6D4CARU3YX9Y3DK5DJ2QK","","309.4000000357628","img/flower6.png","75","311.39999997615814","2","1","2","1","1,0.333,0.333,0.333,1,0.333,0.333,0.333,1","1,0.333,0.333,0.333,1,0.333,0.333,0.333,1","1",""
"","html-keyboard-response","19","53990","0.0-19.0","3L4D84MIL0ETRXOTIVL9DP3OOEXHJT","A39SK1E6IMQBD5","3JUDR1D0D6D4CARU3YX9Y3DK5DJ2QK","","null","<img src=""img/flower6.png"" style=""width:200px; border:14px solid green;"">","null","","","","","","","","",""
"","image-keyboard-response","20","54558","0.0-20.0","3L4D84MIL0ETRXOTIVL9DP3OOEXHJT","A39SK1E6IMQBD5","3JUDR1D0D6D4CARU3YX9Y3DK5DJ2QK","","565.6999999880791","img/flower2.png","76","568.1000000238419","3","1","1","1","1,0.333,0.333,0.333,1,0.333,0.333,0.333,1","1,0.333,0.333,0.333,1,0.333,0.333,0.333,1","1",""
"","html-keyboard-response","21","54866","0.0-21.0","3L4D84MIL0ETRXOTIVL9DP3OOEXHJT","A39SK1E6IMQBD5","3JUDR1D0D6D4CARU3YX9Y3DK5DJ2QK","","null","<img src=""img/flower2.png"" style=""width:200px; border:14px solid green;"">","null","","","","","","","","",""
"","image-keyboard-response","22","55613","0.0-22.0","3L4D84MIL0ETRXOTIVL9DP3OOEXHJT","A39SK1E6IMQBD5","3JUDR1D0D6D4CARU3YX9Y3DK5DJ2QK","","744.9000000357628","img/flower6.png","75","746.0999999642372","2","1","2","1","1,0.333,0.333,0.333,1,0.333,0.333,0.333,1","1,0.333,0.333,0.333,1,0.333,0.333,0.333,1","1",""
"","html-keyboard-response","23","55919","0.0-23.0","3L4D84MIL0ETRXOTIVL9DP3OOEXHJT","A39SK1E6IMQBD5","3JUDR1D0D6D4CARU3YX9Y3DK5DJ2QK","","null","<img src=""img/flower6.png"" style=""width:200px; border:14px solid green;"">","null","","","","","","","","",""
"","image-keyboard-response","24","56422","0.0-24.0","3L4D84MIL0ETRXOTIVL9DP3OOEXHJT","A39SK1E6IMQBD5","3JUDR1D0D6D4CARU3YX9Y3DK5DJ2QK","","501.60000002384186","img/flower4.png","74","503.0999999642372","1","0","3","1","1,0.333,0.333,0.333,1,0.333,0.333,0.333,1","1,0.333,0.333,0.333,1,0.333,0.333,0.333,1","1",""
"","html-keyboard-response","25","56730","0.0-25.0","3L4D84MIL0ETRXOTIVL9DP3OOEXHJT","A39SK1E6IMQBD5","3JUDR1D0D6D4CARU3YX9Y3DK5DJ2QK","","null","<img src=""img/flower4.png"" style=""width:200px;border:14px solid red;"">","null","","","","","","","","",""
"","image-keyboard-response","26","57382","0.0-26.0","3L4D84MIL0ETRXOTIVL9DP3OOEXHJT","A39SK1E6IMQBD5","3JUDR1D0D6D4CARU3YX9Y3DK5DJ2QK","","649.6999999880791","img/flower6.png","75","652.1999999880791","2","1","2","1","1,0.333,0.333,0.333,1,0.333,0.333,0.333,1","1,0.333,0.333,0.333,1,0.333,0.333,0.333,1","1",""
"","html-keyboard-response","27","57696","0.0-27.0","3L4D84MIL0ETRXOTIVL9DP3OOEXHJT","A39SK1E6IMQBD5","3JUDR1D0D6D4CARU3YX9Y3DK5DJ2QK","","null","<img src=""img/flower6.png"" style=""width:200px; border:14px solid green;"">","null","","","","","","","","",""
"","image-keyboard-response","28","58053","0.0-28.0","3L4D84MIL0ETRXOTIVL9DP3OOEXHJT","A39SK1E6IMQBD5","3JUDR1D0D6D4CARU3YX9Y3DK5DJ2QK","","354.5","img/flower6.png","75","355.89999997615814","2","1","2","1","1,0.333,0.333,0.333,1,0.333,0.333,0.333,1","1,0.333,0.333,0.333,1,0.333,0.333,0.333,1","1",""
"","html-keyboard-response","29","58362","0.0-29.0","3L4D84MIL0ETRXOTIVL9DP3OOEXHJT","A39SK1E6IMQBD5","3JUDR1D0D6D4CARU3YX9Y3DK5DJ2QK","","null","<img src=""img/flower6.png"" style=""width:200px; border:14px solid green;"">","null","","","","","","","","",""
"","image-keyboard-response","30","58558","0.0-30.0","3L4D84MIL0ETRXOTIVL9DP3OOEXHJT","A39SK1E6IMQBD5","3JUDR1D0D6D4CARU3YX9Y3DK5DJ2QK","","193.69999998807907","img/flower6.png","75","195.69999998807907","2","1","2","1","1,0.333,0.333,0.333,1,0.333,0.333,0.333,1","1,0.333,0.333,0.333,1,0.333,0.333,0.333,1","1",""
"","html-keyboard-response","31","58866","0.0-31.0","3L4D84MIL0ETRXOTIVL9DP3OOEXHJT","A39SK1E6IMQBD5","3JUDR1D0D6D4CARU3YX9Y3DK5DJ2QK","","null","<img src=""img/flower6.png"" style=""width:200px; border:14px solid green;"">","null","","","","","","","","",""
"","image-keyboard-response","32","59174","0.0-32.0","3L4D84MIL0ETRXOTIVL9DP3OOEXHJT","A39SK1E6IMQBD5","3JUDR1D0D6D4CARU3YX9Y3DK5DJ2QK","","306","img/flower6.png","75","307.60000002384186","2","1","2","1","1,0.333,0.333,0.333,1,0.333,0.333,0.333,1","1,0.333,0.333,0.333,1,0.333,0.333,0.333,1","1",""
"","html-keyboard-response","33","59481","0.0-33.0","3L4D84MIL0ETRXOTIVL9DP3OOEXHJT","A39SK1E6IMQBD5","3JUDR1D0D6D4CARU3YX9Y3DK5DJ2QK","","null","<img src=""img/flower6.png"" style=""width:200px; border:14px solid green;"">","null","","","","","","","","",""
"","image-keyboard-response","34","60054","0.0-34.0","3L4D84MIL0ETRXOTIVL9DP3OOEXHJT","A39SK1E6IMQBD5","3JUDR1D0D6D4CARU3YX9Y3DK5DJ2QK","","570","img/flower2.png","76","572.5999999642372","3","0","1","1","1,0.333,0.333,0.333,1,0.333,0.333,0.333,1","1,0.333,0.333,0.333,1,0.333,0.333,0.333,1","1",""
"","html-keyboard-response","35","60357","0.0-35.0","3L4D84MIL0ETRXOTIVL9DP3OOEXHJT","A39SK1E6IMQBD5","3JUDR1D0D6D4CARU3YX9Y3DK5DJ2QK","","null","<img src=""img/flower2.png"" style=""width:200px;border:14px solid red;"">","null","","","","","","","","",""
"","image-keyboard-response","36","61223","0.0-36.0","3L4D84MIL0ETRXOTIVL9DP3OOEXHJT","A39SK1E6IMQBD5","3JUDR1D0D6D4CARU3YX9Y3DK5DJ2QK","","863.5999999642372","img/flower4.png","74","865.0999999642372","1","1","3","1","1,0.333,0.333,0.333,1,0.333,0.333,0.333,1","1,0.333,0.333,0.333,1,0.333,0.333,0.333,1","1",""
"","html-keyboard-response","37","61530","0.0-37.0","3L4D84MIL0ETRXOTIVL9DP3OOEXHJT","A39SK1E6IMQBD5","3JUDR1D0D6D4CARU3YX9Y3DK5DJ2QK","","null","<img src=""img/flower4.png"" style=""width:200px; border:14px solid green;"">","null","","","","","","","","",""
"","image-keyboard-response","38","62029","0.0-38.0","3L4D84MIL0ETRXOTIVL9DP3OOEXHJT","A39SK1E6IMQBD5","3JUDR1D0D6D4CARU3YX9Y3DK5DJ2QK","","496.39999997615814","img/flower6.png","75","498.69999998807907","2","1","2","1","1,0.333,0.333,0.333,1,0.333,0.333,0.333,1","1,0.333,0.333,0.333,1,0.333,0.333,0.333,1","1",""
"","html-keyboard-response","39","62337","0.0-39.0","3L4D84MIL0ETRXOTIVL9DP3OOEXHJT","A39SK1E6IMQBD5","3JUDR1D0D6D4CARU3YX9Y3DK5DJ2QK","","null","<img src=""img/flower6.png"" style=""width:200px; border:14px solid green;"">","null","","","","","","","","",""
"","image-keyboard-response","40","62847","0.0-40.0","3L4D84MIL0ETRXOTIVL9DP3OOEXHJT","A39SK1E6IMQBD5","3JUDR1D0D6D4CARU3YX9Y3DK5DJ2QK","","507.5","img/flower4.png","75","509.2000000476837","2","1","3","1","1,0.333,0.333,0.333,1,0.333,0.333,0.333,1","1,0.333,0.333,0.333,1,0.333,0.333,0.333,1","1",""
"","html-keyboard-response","41","63163","0.0-41.0","3L4D84MIL0ETRXOTIVL9DP3OOEXHJT","A39SK1E6IMQBD5","3JUDR1D0D6D4CARU3YX9Y3DK5DJ2QK","","null","<img src=""img/flower4.png"" style=""width:200px; border:14px solid green;"">","null","","","","","","","","",""
"","image-keyboard-response","42","64021","0.0-42.0","3L4D84MIL0ETRXOTIVL9DP3OOEXHJT","A39SK1E6IMQBD5","3JUDR1D0D6D4CARU3YX9Y3DK5DJ2QK","","855.6000000238419","img/flower2.png","74","857.6999999880791","1","1","1","1","1,0.333,0.333,0.333,1,0.333,0.333,0.333,1","1,0.333,0.333,0.333,1,0.333,0.333,0.333,1","1",""
"","html-keyboard-response","43","64337","0.0-43.0","3L4D84MIL0ETRXOTIVL9DP3OOEXHJT","A39SK1E6IMQBD5","3JUDR1D0D6D4CARU3YX9Y3DK5DJ2QK","","null","<img src=""img/flower2.png"" style=""width:200px; border:14px solid green;"">","null","","","","","","","","",""
"","image-keyboard-response","44","64661","0.0-44.0","3L4D84MIL0ETRXOTIVL9DP3OOEXHJT","A39SK1E6IMQBD5","3JUDR1D0D6D4CARU3YX9Y3DK5DJ2QK","","322.80000001192093","img/flower2.png","74","323.80000001192093","1","1","1","1","1,0.333,0.333,0.333,1,0.333,0.333,0.333,1","1,0.333,0.333,0.333,1,0.333,0.333,0.333,1","1",""
"","html-keyboard-response","45","64965","0.0-45.0","3L4D84MIL0ETRXOTIVL9DP3OOEXHJT","A39SK1E6IMQBD5","3JUDR1D0D6D4CARU3YX9Y3DK5DJ2QK","","null","<img src=""img/flower2.png"" style=""width:200px; border:14px solid green;"">","null","","","","","","","","",""
"","image-keyboard-response","46","65549","0.0-46.0","3L4D84MIL0ETRXOTIVL9DP3OOEXHJT","A39SK1E6IMQBD5","3JUDR1D0D6D4CARU3YX9Y3DK5DJ2QK","","582.6999999880791","img/flower4.png","75","583.9000000357628","2","0","3","1","1,0.333,0.333,0.333,1,0.333,0.333,0.333,1","1,0.333,0.333,0.333,1,0.333,0.333,0.333,1","1",""
"","html-keyboard-response","47","65858","0.0-47.0","3L4D84MIL0ETRXOTIVL9DP3OOEXHJT","A39SK1E6IMQBD5","3JUDR1D0D6D4CARU3YX9Y3DK5DJ2QK","","null","<img src=""img/flower4.png"" style=""width:200px;border:14px solid red;"">","null","","","","","","","","",""
"","image-keyboard-response","48","66264","0.0-48.0","3L4D84MIL0ETRXOTIVL9DP3OOEXHJT","A39SK1E6IMQBD5","3JUDR1D0D6D4CARU3YX9Y3DK5DJ2QK","","403.80000001192093","img/flower4.png","75","406.19999998807907","2","0","3","1","1,0.333,0.333,0.333,1,0.333,0.333,0.333,1","1,0.333,0.333,0.333,1,0.333,0.333,0.333,1","1",""
"","html-keyboard-response","49","66576","0.0-49.0","3L4D84MIL0ETRXOTIVL9DP3OOEXHJT","A39SK1E6IMQBD5","3JUDR1D0D6D4CARU3YX9Y3DK5DJ2QK","","null","<img src=""img/flower4.png"" style=""width:200px;border:14px solid red;"">","null","","","","","","","","",""
"","image-keyboard-response","50","67285","0.0-50.0","3L4D84MIL0ETRXOTIVL9DP3OOEXHJT","A39SK1E6IMQBD5","3JUDR1D0D6D4CARU3YX9Y3DK5DJ2QK","","707","img/flower2.png","74","708.5999999642372","1","1","1","1","1,0.333,0.333,0.333,1,0.333,0.333,0.333,1","1,0.333,0.333,0.333,1,0.333,0.333,0.333,1","1",""
"","html-keyboard-response","51","67602","0.0-51.0","3L4D84MIL0ETRXOTIVL9DP3OOEXHJT","A39SK1E6IMQBD5","3JUDR1D0D6D4CARU3YX9Y3DK5DJ2QK","","null","<img src=""img/flower2.png"" style=""width:200px; border:14px solid green;"">","null","","","","","","","","",""
"","image-keyboard-response","52","68541","0.0-52.0","3L4D84MIL0ETRXOTIVL9DP3OOEXHJT","A39SK1E6IMQBD5","3JUDR1D0D6D4CARU3YX9Y3DK5DJ2QK","","937.4000000357628","img/flower4.png","76","938.5","3","1","3","1","1,0.333,0.333,0.333,1,0.333,0.333,0.333,1","1,0.333,0.333,0.333,1,0.333,0.333,0.333,1","1",""
"","html-keyboard-response","53","68857","0.0-53.0","3L4D84MIL0ETRXOTIVL9DP3OOEXHJT","A39SK1E6IMQBD5","3JUDR1D0D6D4CARU3YX9Y3DK5DJ2QK","","null","<img src=""img/flower4.png"" style=""width:200px; border:14px solid green;"">","null","","","","","","","","",""
"","image-keyboard-response","54","69469","0.0-54.0","3L4D84MIL0ETRXOTIVL9DP3OOEXHJT","A39SK1E6IMQBD5","3JUDR1D0D6D4CARU3YX9Y3DK5DJ2QK","","610.9000000357628","img/flower2.png","74","611.7999999523163","1","1","1","1","1,0.333,0.333,0.333,1,0.333,0.333,0.333,1","1,0.333,0.333,0.333,1,0.333,0.333,0.333,1","1",""
"","html-keyboard-response","55","69776","0.0-55.0","3L4D84MIL0ETRXOTIVL9DP3OOEXHJT","A39SK1E6IMQBD5","3JUDR1D0D6D4CARU3YX9Y3DK5DJ2QK","","null","<img src=""img/flower2.png"" style=""width:200px; border:14px solid green;"">","null","","","","","","","","",""
"","image-keyboard-response","56","70188","0.0-56.0","3L4D84MIL0ETRXOTIVL9DP3OOEXHJT","A39SK1E6IMQBD5","3JUDR1D0D6D4CARU3YX9Y3DK5DJ2QK","","408.19999998807907","img/flower2.png","74","411.89999997615814","1","1","1","1","1,0.333,0.333,0.333,1,0.333,0.333,0.333,1","1,0.333,0.333,0.333,1,0.333,0.333,0.333,1","1",""
"","html-keyboard-response","57","70503","0.0-57.0","3L4D84MIL0ETRXOTIVL9DP3OOEXHJT","A39SK1E6IMQBD5","3JUDR1D0D6D4CARU3YX9Y3DK5DJ2QK","","null","<img src=""img/flower2.png"" style=""width:200px; border:14px solid green;"">","null","","","","","","","","",""
"","image-keyboard-response","58","70773","0.0-58.0","3L4D84MIL0ETRXOTIVL9DP3OOEXHJT","A39SK1E6IMQBD5","3JUDR1D0D6D4CARU3YX9Y3DK5DJ2QK","","267.7999999523163","img/flower2.png","74","269.30000001192093","1","1","1","1","1,0.333,0.333,0.333,1,0.333,0.333,0.333,1","1,0.333,0.333,0.333,1,0.333,0.333,0.333,1","1",""
"","html-keyboard-response","59","71090","0.0-59.0","3L4D84MIL0ETRXOTIVL9DP3OOEXHJT","A39SK1E6IMQBD5","3JUDR1D0D6D4CARU3YX9Y3DK5DJ2QK","","null","<img src=""img/flower2.png"" style=""width:200px; border:14px solid green;"">","null","","","","","","","","",""
"","image-keyboard-response","60","71580","0.0-60.0","3L4D84MIL0ETRXOTIVL9DP3OOEXHJT","A39SK1E6IMQBD5","3JUDR1D0D6D4CARU3YX9Y3DK5DJ2QK","","488.80000001192093","img/flower4.png","76","490.5","3","1","3","1","1,0.333,0.333,0.333,1,0.333,0.333,0.333,1","1,0.333,0.333,0.333,1,0.333,0.333,0.333,1","1",""
"","html-keyboard-response","61","71896","0.0-61.0","3L4D84MIL0ETRXOTIVL9DP3OOEXHJT","A39SK1E6IMQBD5","3JUDR1D0D6D4CARU3YX9Y3DK5DJ2QK","","null","<img src=""img/flower4.png"" style=""width:200px; border:14px solid green;"">","null","","","","","","","","",""
"","image-keyboard-response","62","72213","0.0-62.0","3L4D84MIL0ETRXOTIVL9DP3OOEXHJT","A39SK1E6IMQBD5","3JUDR1D0D6D4CARU3YX9Y3DK5DJ2QK","","314.5","img/flower4.png","76","316.30000001192093","3","1","3","1","1,0.333,0.333,0.333,1,0.333,0.333,0.333,1","1,0.333,0.333,0.333,1,0.333,0.333,0.333,1","1",""
"","html-keyboard-response","63","72523","0.0-63.0","3L4D84MIL0ETRXOTIVL9DP3OOEXHJT","A39SK1E6IMQBD5","3JUDR1D0D6D4CARU3YX9Y3DK5DJ2QK","","null","<img src=""img/flower4.png"" style=""width:200px; border:14px solid green;"">","null","","","","","","","","",""
"","image-keyboard-response","64","72798","0.0-64.0","3L4D84MIL0ETRXOTIVL9DP3OOEXHJT","A39SK1E6IMQBD5","3JUDR1D0D6D4CARU3YX9Y3DK5DJ2QK","","274.39999997615814","img/flower4.png","76","275.60000002384186","3","1","3","1","1,0.333,0.333,0.333,1,0.333,0.333,0.333,1","1,0.333,0.333,0.333,1,0.333,0.333,0.333,1","1",""
"","html-keyboard-response","65","73105","0.0-65.0","3L4D84MIL0ETRXOTIVL9DP3OOEXHJT","A39SK1E6IMQBD5","3JUDR1D0D6D4CARU3YX9Y3DK5DJ2QK","","null","<img src=""img/flower4.png"" style=""width:200px; border:14px solid green;"">","null","","","","","","","","",""
"","image-keyboard-response","66","73421","0.0-66.0","3L4D84MIL0ETRXOTIVL9DP3OOEXHJT","A39SK1E6IMQBD5","3JUDR1D0D6D4CARU3YX9Y3DK5DJ2QK","","315.10000002384186","img/flower4.png","76","316.4000000357628","3","1","3","1","1,0.333,0.333,0.333,1,0.333,0.333,0.333,1","1,0.333,0.333,0.333,1,0.333,0.333,0.333,1","1",""
"","html-keyboard-response","67","73726","0.0-67.0","3L4D84MIL0ETRXOTIVL9DP3OOEXHJT","A39SK1E6IMQBD5","3JUDR1D0D6D4CARU3YX9Y3DK5DJ2QK","","null","<img src=""img/flower4.png"" style=""width:200px; border:14px solid green;"">","null","","","","","","","","",""
"","image-keyboard-response","68","74373","0.0-68.0","3L4D84MIL0ETRXOTIVL9DP3OOEXHJT","A39SK1E6IMQBD5","3JUDR1D0D6D4CARU3YX9Y3DK5DJ2QK","","645.1999999880791","img/flower2.png","74","646.5","1","1","1","1","1,0.333,0.333,0.333,1,0.333,0.333,0.333,1","1,0.333,0.333,0.333,1,0.333,0.333,0.333,1","1",""
"","html-keyboard-response","69","74685","0.0-69.0","3L4D84MIL0ETRXOTIVL9DP3OOEXHJT","A39SK1E6IMQBD5","3JUDR1D0D6D4CARU3YX9Y3DK5DJ2QK","","null","<img src=""img/flower2.png"" style=""width:200px; border:14px solid green;"">","null","","","","","","","","",""
"","image-keyboard-response","70","75221","0.0-70.0","3L4D84MIL0ETRXOTIVL9DP3OOEXHJT","A39SK1E6IMQBD5","3JUDR1D0D6D4CARU3YX9Y3DK5DJ2QK","","534.9000000357628","img/flower4.png","76","536.1999999880791","3","1","3","1","1,0.333,0.333,0.333,1,0.333,0.333,0.333,1","1,0.333,0.333,0.333,1,0.333,0.333,0.333,1","1",""
"","html-keyboard-response","71","75532","0.0-71.0","3L4D84MIL0ETRXOTIVL9DP3OOEXHJT","A39SK1E6IMQBD5","3JUDR1D0D6D4CARU3YX9Y3DK5DJ2QK","","null","<img src=""img/flower4.png"" style=""width:200px; border:14px solid green;"">","null","","","","","","","","",""
"","image-keyboard-response","72","76230","0.0-72.0","3L4D84MIL0ETRXOTIVL9DP3OOEXHJT","A39SK1E6IMQBD5","3JUDR1D0D6D4CARU3YX9Y3DK5DJ2QK","","695.6999999880791","img/flower2.png","76","697.5","3","0","1","1","1,0.333,0.333,0.333,1,0.333,0.333,0.333,1","1,0.333,0.333,0.333,1,0.333,0.333,0.333,1","1",""
"","html-keyboard-response","73","76537","0.0-73.0","3L4D84MIL0ETRXOTIVL9DP3OOEXHJT","A39SK1E6IMQBD5","3JUDR1D0D6D4CARU3YX9Y3DK5DJ2QK","","null","<img src=""img/flower2.png"" style=""width:200px;border:14px solid red;"">","null","","","","","","","","",""
"","image-keyboard-response","74","77279","0.0-74.0","3L4D84MIL0ETRXOTIVL9DP3OOEXHJT","A39SK1E6IMQBD5","3JUDR1D0D6D4CARU3YX9Y3DK5DJ2QK","","739.1999999880791","img/flower6.png","75","741.5","2","1","2","1","1,0.333,0.333,0.333,1,0.333,0.333,0.333,1","1,0.333,0.333,0.333,1,0.333,0.333,0.333,1","1",""
"","html-keyboard-response","75","77586","0.0-75.0","3L4D84MIL0ETRXOTIVL9DP3OOEXHJT","A39SK1E6IMQBD5","3JUDR1D0D6D4CARU3YX9Y3DK5DJ2QK","","null","<img src=""img/flower6.png"" style=""width:200px; border:14px solid green;"">","null","","","","","","","","",""
"","image-keyboard-response","76","78510","0.0-76.0","3L4D84MIL0ETRXOTIVL9DP3OOEXHJT","A39SK1E6IMQBD5","3JUDR1D0D6D4CARU3YX9Y3DK5DJ2QK","","921.5999999642372","img/flower2.png","74","923.6999999880791","1","1","1","1","1,0.333,0.333,0.333,1,0.333,0.333,0.333,1","1,0.333,0.333,0.333,1,0.333,0.333,0.333,1","1",""
"","html-keyboard-response","77","78814","0.0-77.0","3L4D84MIL0ETRXOTIVL9DP3OOEXHJT","A39SK1E6IMQBD5","3JUDR1D0D6D4CARU3YX9Y3DK5DJ2QK","","null","<img src=""img/flower2.png"" style=""width:200px; border:14px solid green;"">","null","","","","","","","","",""
"","image-keyboard-response","78","79104","0.0-78.0","3L4D84MIL0ETRXOTIVL9DP3OOEXHJT","A39SK1E6IMQBD5","3JUDR1D0D6D4CARU3YX9Y3DK5DJ2QK","","287.5","img/flower2.png","74","289.10000002384186","1","1","1","1","1,0.333,0.333,0.333,1,0.333,0.333,0.333,1","1,0.333,0.333,0.333,1,0.333,0.333,0.333,1","1",""
"","html-keyboard-response","79","79416","0.0-79.0","3L4D84MIL0ETRXOTIVL9DP3OOEXHJT","A39SK1E6IMQBD5","3JUDR1D0D6D4CARU3YX9Y3DK5DJ2QK","","null","<img src=""img/flower2.png"" style=""width:200px; border:14px solid green;"">","null","","","","","","","","",""
"","image-keyboard-response","80","80231","0.0-80.0","3L4D84MIL0ETRXOTIVL9DP3OOEXHJT","A39SK1E6IMQBD5","3JUDR1D0D6D4CARU3YX9Y3DK5DJ2QK","","812.1000000238419","img/flower4.png","75","814.6000000238419","2","1","3","1","1,0.333,0.333,0.333,1,0.333,0.333,0.333,1","1,0.333,0.333,0.333,1,0.333,0.333,0.333,1","1",""
"","html-keyboard-response","81","80539","0.0-81.0","3L4D84MIL0ETRXOTIVL9DP3OOEXHJT","A39SK1E6IMQBD5","3JUDR1D0D6D4CARU3YX9Y3DK5DJ2QK","","null","<img src=""img/flower4.png"" style=""width:200px; border:14px solid green;"">","null","","","","","","","","",""
"","image-keyboard-response","82","81444","0.0-82.0","3L4D84MIL0ETRXOTIVL9DP3OOEXHJT","A39SK1E6IMQBD5","3JUDR1D0D6D4CARU3YX9Y3DK5DJ2QK","","903.8000000119209","img/flower6.png","76","905.1000000238419","3","1","2","1","1,0.333,0.333,0.333,1,0.333,0.333,0.333,1","1,0.333,0.333,0.333,1,0.333,0.333,0.333,1","1",""
"","html-keyboard-response","83","81757","0.0-83.0","3L4D84MIL0ETRXOTIVL9DP3OOEXHJT","A39SK1E6IMQBD5","3JUDR1D0D6D4CARU3YX9Y3DK5DJ2QK","","null","<img src=""img/flower6.png"" style=""width:200px; border:14px solid green;"">","null","","","","","","","","",""
"","image-keyboard-response","84","83110","0.0-84.0","3L4D84MIL0ETRXOTIVL9DP3OOEXHJT","A39SK1E6IMQBD5","3JUDR1D0D6D4CARU3YX9Y3DK5DJ2QK","","1350.5","img/flower2.png","75","1352.9000000357628","2","0","1","1","1,0.333,0.333,0.333,1,0.333,0.333,0.333,1","1,0.333,0.333,0.333,1,0.333,0.333,0.333,1","1",""
"","html-keyboard-response","85","83420","0.0-85.0","3L4D84MIL0ETRXOTIVL9DP3OOEXHJT","A39SK1E6IMQBD5","3JUDR1D0D6D4CARU3YX9Y3DK5DJ2QK","","null","<img src=""img/flower2.png"" style=""width:200px;border:14px solid red;"">","null","","","","","","","","",""
"","image-keyboard-response","86","83982","0.0-86.0","3L4D84MIL0ETRXOTIVL9DP3OOEXHJT","A39SK1E6IMQBD5","3JUDR1D0D6D4CARU3YX9Y3DK5DJ2QK","","559.8000000119209","img/flower2.png","76","561.8000000119209","3","0","1","1","1,0.333,0.333,0.333,1,0.333,0.333,0.333,1","1,0.333,0.333,0.333,1,0.333,0.333,0.333,1","1",""
"","html-keyboard-response","87","84293","0.0-87.0","3L4D84MIL0ETRXOTIVL9DP3OOEXHJT","A39SK1E6IMQBD5","3JUDR1D0D6D4CARU3YX9Y3DK5DJ2QK","","null","<img src=""img/flower2.png"" style=""width:200px;border:14px solid red;"">","null","","","","","","","","",""
"","image-keyboard-response","88","84420","0.0-88.0","3L4D84MIL0ETRXOTIVL9DP3OOEXHJT","A39SK1E6IMQBD5","3JUDR1D0D6D4CARU3YX9Y3DK5DJ2QK","","123.60000002384186","img/flower6.png","74","126.80000001192093","1","1","2","1","1,0.333,0.333,0.333,1,0.333,0.333,0.333,1","1,0.333,0.333,0.333,1,0.333,0.333,0.333,1","1",""
"","html-keyboard-response","89","84736","0.0-89.0","3L4D84MIL0ETRXOTIVL9DP3OOEXHJT","A39SK1E6IMQBD5","3JUDR1D0D6D4CARU3YX9Y3DK5DJ2QK","","null","<img src=""img/flower6.png"" style=""width:200px; border:14px solid green;"">","null","","","","","","","","",""
"","image-keyboard-response","90","85431","0.0-90.0","3L4D84MIL0ETRXOTIVL9DP3OOEXHJT","A39SK1E6IMQBD5","3JUDR1D0D6D4CARU3YX9Y3DK5DJ2QK","","693.6000000238419","img/flower6.png","74","694.8000000119209","1","1","2","1","1,0.333,0.333,0.333,1,0.333,0.333,0.333,1","1,0.333,0.333,0.333,1,0.333,0.333,0.333,1","1",""
"","html-keyboard-response","91","85741","0.0-91.0","3L4D84MIL0ETRXOTIVL9DP3OOEXHJT","A39SK1E6IMQBD5","3JUDR1D0D6D4CARU3YX9Y3DK5DJ2QK","","null","<img src=""img/flower6.png"" style=""width:200px; border:14px solid green;"">","null","","","","","","","","",""
"","image-keyboard-response","92","86173","0.0-92.0","3L4D84MIL0ETRXOTIVL9DP3OOEXHJT","A39SK1E6IMQBD5","3JUDR1D0D6D4CARU3YX9Y3DK5DJ2QK","","430.39999997615814","img/flower6.png","74","431.69999998807907","1","0","2","1","1,0.333,0.333,0.333,1,0.333,0.333,0.333,1","1,0.333,0.333,0.333,1,0.333,0.333,0.333,1","1",""
"","html-keyboard-response","93","86478","0.0-93.0","3L4D84MIL0ETRXOTIVL9DP3OOEXHJT","A39SK1E6IMQBD5","3JUDR1D0D6D4CARU3YX9Y3DK5DJ2QK","","null","<img src=""img/flower6.png"" style=""width:200px;border:14px solid red;"">","null","","","","","","","","",""
"","image-keyboard-response","94","87768","0.0-94.0","3L4D84MIL0ETRXOTIVL9DP3OOEXHJT","A39SK1E6IMQBD5","3JUDR1D0D6D4CARU3YX9Y3DK5DJ2QK","","1287.9000000357628","img/flower2.png","75","1289.7999999523163","2","0","1","1","1,0.333,0.333,0.333,1,0.333,0.333,0.333,1","1,0.333,0.333,0.333,1,0.333,0.333,0.333,1","1",""
"","html-keyboard-response","95","88088","0.0-95.0","3L4D84MIL0ETRXOTIVL9DP3OOEXHJT","A39SK1E6IMQBD5","3JUDR1D0D6D4CARU3YX9Y3DK5DJ2QK","","null","<img src=""img/flower2.png"" style=""width:200px;border:14px solid red;"">","null","","","","","","","","",""
"","image-keyboard-response","96","88244","0.0-96.0","3L4D84MIL0ETRXOTIVL9DP3OOEXHJT","A39SK1E6IMQBD5","3JUDR1D0D6D4CARU3YX9Y3DK5DJ2QK","","154.80000001192093","img/flower6.png","75","156","2","1","2","1","1,0.333,0.333,0.333,1,0.333,0.333,0.333,1","1,0.333,0.333,0.333,1,0.333,0.333,0.333,1","1",""
"","html-keyboard-response","97","88554","0.0-97.0","3L4D84MIL0ETRXOTIVL9DP3OOEXHJT","A39SK1E6IMQBD5","3JUDR1D0D6D4CARU3YX9Y3DK5DJ2QK","","null","<img src=""img/flower6.png"" style=""width:200px; border:14px solid green;"">","null","","","","","","","","",""
"","image-keyboard-response","98","89558","0.0-98.0","3L4D84MIL0ETRXOTIVL9DP3OOEXHJT","A39SK1E6IMQBD5","3JUDR1D0D6D4CARU3YX9Y3DK5DJ2QK","","1002.4000000357628","img/flower4.png","76","1003.6999999880791","3","1","3","1","1,0.333,0.333,0.333,1,0.333,0.333,0.333,1","1,0.333,0.333,0.333,1,0.333,0.333,0.333,1","1",""
"","html-keyboard-response","99","89866","0.0-99.0","3L4D84MIL0ETRXOTIVL9DP3OOEXHJT","A39SK1E6IMQBD5","3JUDR1D0D6D4CARU3YX9Y3DK5DJ2QK","","null","<img src=""img/flower4.png"" style=""width:200px; border:14px solid green;"">","null","","","","","","","","",""
"","image-keyboard-response","100","90581","0.0-100.0","3L4D84MIL0ETRXOTIVL9DP3OOEXHJT","A39SK1E6IMQBD5","3JUDR1D0D6D4CARU3YX9Y3DK5DJ2QK","","712.7999999523163","img/flower6.png","75","714.1999999880791","2","1","2","1","1,0.333,0.333,0.333,1,0.333,0.333,0.333,1","1,0.333,0.333,0.333,1,0.333,0.333,0.333,1","1",""
"","html-keyboard-response","101","90889","0.0-101.0","3L4D84MIL0ETRXOTIVL9DP3OOEXHJT","A39SK1E6IMQBD5","3JUDR1D0D6D4CARU3YX9Y3DK5DJ2QK","","null","<img src=""img/flower6.png"" style=""width:200px; border:14px solid green;"">","null","","","","","","","","",""
"","image-keyboard-response","102","91342","0.0-102.0","3L4D84MIL0ETRXOTIVL9DP3OOEXHJT","A39SK1E6IMQBD5","3JUDR1D0D6D4CARU3YX9Y3DK5DJ2QK","","451","img/flower6.png","75","452.5","2","1","2","1","1,0.333,0.333,0.333,1,0.333,0.333,0.333,1","1,0.333,0.333,0.333,1,0.333,0.333,0.333,1","1",""
"","html-keyboard-response","103","91652","0.0-103.0","3L4D84MIL0ETRXOTIVL9DP3OOEXHJT","A39SK1E6IMQBD5","3JUDR1D0D6D4CARU3YX9Y3DK5DJ2QK","","null","<img src=""img/flower6.png"" style=""width:200px; border:14px solid green;"">","null","","","","","","","","",""
"","image-keyboard-response","104","91967","0.0-104.0","3L4D84MIL0ETRXOTIVL9DP3OOEXHJT","A39SK1E6IMQBD5","3JUDR1D0D6D4CARU3YX9Y3DK5DJ2QK","","312.10000002384186","img/flower6.png","75","314.5","2","1","2","1","1,0.333,0.333,0.333,1,0.333,0.333,0.333,1","1,0.333,0.333,0.333,1,0.333,0.333,0.333,1","1",""
"","html-keyboard-response","105","92272","0.0-105.0","3L4D84MIL0ETRXOTIVL9DP3OOEXHJT","A39SK1E6IMQBD5","3JUDR1D0D6D4CARU3YX9Y3DK5DJ2QK","","null","<img src=""img/flower6.png"" style=""width:200px; border:14px solid green;"">","null","","","","","","","","",""
"","image-keyboard-response","106","92749","0.0-106.0","3L4D84MIL0ETRXOTIVL9DP3OOEXHJT","A39SK1E6IMQBD5","3JUDR1D0D6D4CARU3YX9Y3DK5DJ2QK","","474.0999999642372","img/flower4.png","76","476.5999999642372","3","1","3","1","1,0.333,0.333,0.333,1,0.333,0.333,0.333,1","1,0.333,0.333,0.333,1,0.333,0.333,0.333,1","1",""
"","html-keyboard-response","107","93054","0.0-107.0","3L4D84MIL0ETRXOTIVL9DP3OOEXHJT","A39SK1E6IMQBD5","3JUDR1D0D6D4CARU3YX9Y3DK5DJ2QK","","null","<img src=""img/flower4.png"" style=""width:200px; border:14px solid green;"">","null","","","","","","","","",""
"","image-keyboard-response","108","93372","0.0-108.0","3L4D84MIL0ETRXOTIVL9DP3OOEXHJT","A39SK1E6IMQBD5","3JUDR1D0D6D4CARU3YX9Y3DK5DJ2QK","","316.39999997615814","img/flower4.png","76","317.69999998807907","3","1","3","1","1,0.333,0.333,0.333,1,0.333,0.333,0.333,1","1,0.333,0.333,0.333,1,0.333,0.333,0.333,1","1",""
"","html-keyboard-response","109","93686","0.0-109.0","3L4D84MIL0ETRXOTIVL9DP3OOEXHJT","A39SK1E6IMQBD5","3JUDR1D0D6D4CARU3YX9Y3DK5DJ2QK","","null","<img src=""img/flower4.png"" style=""width:200px; border:14px solid green;"">","null","","","","","","","","",""
"","image-keyboard-response","110","93965","0.0-110.0","3L4D84MIL0ETRXOTIVL9DP3OOEXHJT","A39SK1E6IMQBD5","3JUDR1D0D6D4CARU3YX9Y3DK5DJ2QK","","276.89999997615814","img/flower4.png","76","278.19999998807907","3","1","3","1","1,0.333,0.333,0.333,1,0.333,0.333,0.333,1","1,0.333,0.333,0.333,1,0.333,0.333,0.333,1","1",""
"","html-keyboard-response","111","94275","0.0-111.0","3L4D84MIL0ETRXOTIVL9DP3OOEXHJT","A39SK1E6IMQBD5","3JUDR1D0D6D4CARU3YX9Y3DK5DJ2QK","","null","<img src=""img/flower4.png"" style=""width:200px; border:14px solid green;"">","null","","","","","","","","",""
"","image-keyboard-response","112","94574","0.0-112.0","3L4D84MIL0ETRXOTIVL9DP3OOEXHJT","A39SK1E6IMQBD5","3JUDR1D0D6D4CARU3YX9Y3DK5DJ2QK","","296.60000002384186","img/flower4.png","76","298.19999998807907","3","1","3","1","1,0.333,0.333,0.333,1,0.333,0.333,0.333,1","1,0.333,0.333,0.333,1,0.333,0.333,0.333,1","1",""
"","html-keyboard-response","113","94881","0.0-113.0","3L4D84MIL0ETRXOTIVL9DP3OOEXHJT","A39SK1E6IMQBD5","3JUDR1D0D6D4CARU3YX9Y3DK5DJ2QK","","null","<img src=""img/flower4.png"" style=""width:200px; border:14px solid green;"">","null","","","","","","","","",""
"","image-keyboard-response","114","95144","0.0-114.0","3L4D84MIL0ETRXOTIVL9DP3OOEXHJT","A39SK1E6IMQBD5","3JUDR1D0D6D4CARU3YX9Y3DK5DJ2QK","","259.2999999523163","img/flower2.png","76","262.69999998807907","3","0","1","1","1,0.333,0.333,0.333,1,0.333,0.333,0.333,1","1,0.333,0.333,0.333,1,0.333,0.333,0.333,1","1",""
"","html-keyboard-response","115","95453","0.0-115.0","3L4D84MIL0ETRXOTIVL9DP3OOEXHJT","A39SK1E6IMQBD5","3JUDR1D0D6D4CARU3YX9Y3DK5DJ2QK","","null","<img src=""img/flower2.png"" style=""width:200px;border:14px solid red;"">","null","","","","","","","","",""
"","image-keyboard-response","116","96126","0.0-116.0","3L4D84MIL0ETRXOTIVL9DP3OOEXHJT","A39SK1E6IMQBD5","3JUDR1D0D6D4CARU3YX9Y3DK5DJ2QK","","670.6000000238419","img/flower6.png","75","672.9000000357628","2","1","2","1","1,0.333,0.333,0.333,1,0.333,0.333,0.333,1","1,0.333,0.333,0.333,1,0.333,0.333,0.333,1","1",""
"","html-keyboard-response","117","96434","0.0-117.0","3L4D84MIL0ETRXOTIVL9DP3OOEXHJT","A39SK1E6IMQBD5","3JUDR1D0D6D4CARU3YX9Y3DK5DJ2QK","","null","<img src=""img/flower6.png"" style=""width:200px; border:14px solid green;"">","null","","","","","","","","",""
"","image-keyboard-response","118","96830","0.0-118.0","3L4D84MIL0ETRXOTIVL9DP3OOEXHJT","A39SK1E6IMQBD5","3JUDR1D0D6D4CARU3YX9Y3DK5DJ2QK","","393.39999997615814","img/flower4.png","76","395.80000001192093","3","1","3","1","1,0.333,0.333,0.333,1,0.333,0.333,0.333,1","1,0.333,0.333,0.333,1,0.333,0.333,0.333,1","1",""
"","html-keyboard-response","119","97136","0.0-119.0","3L4D84MIL0ETRXOTIVL9DP3OOEXHJT","A39SK1E6IMQBD5","3JUDR1D0D6D4CARU3YX9Y3DK5DJ2QK","","null","<img src=""img/flower4.png"" style=""width:200px; border:14px solid green;"">","null","","","","","","","","",""
"","image-keyboard-response","120","97678","0.0-120.0","3L4D84MIL0ETRXOTIVL9DP3OOEXHJT","A39SK1E6IMQBD5","3JUDR1D0D6D4CARU3YX9Y3DK5DJ2QK","","540.4000000357628","img/flower2.png","74","541.8000000119209","1","1","1","1","1,0.333,0.333,0.333,1,0.333,0.333,0.333,1","1,0.333,0.333,0.333,1,0.333,0.333,0.333,1","1",""
"","html-keyboard-response","121","97991","0.0-121.0","3L4D84MIL0ETRXOTIVL9DP3OOEXHJT","A39SK1E6IMQBD5","3JUDR1D0D6D4CARU3YX9Y3DK5DJ2QK","","null","<img src=""img/flower2.png"" style=""width:200px; border:14px solid green;"">","null","","","","","","","","",""
"","image-keyboard-response","122","98310","0.0-122.0","3L4D84MIL0ETRXOTIVL9DP3OOEXHJT","A39SK1E6IMQBD5","3JUDR1D0D6D4CARU3YX9Y3DK5DJ2QK","","315.39999997615814","img/flower2.png","74","318","1","1","1","1","1,0.333,0.333,0.333,1,0.333,0.333,0.333,1","1,0.333,0.333,0.333,1,0.333,0.333,0.333,1","1",""
"","html-keyboard-response","123","98617","0.0-123.0","3L4D84MIL0ETRXOTIVL9DP3OOEXHJT","A39SK1E6IMQBD5","3JUDR1D0D6D4CARU3YX9Y3DK5DJ2QK","","null","<img src=""img/flower2.png"" style=""width:200px; border:14px solid green;"">","null","","","","","","","","",""
"","image-keyboard-response","124","98903","0.0-124.0","3L4D84MIL0ETRXOTIVL9DP3OOEXHJT","A39SK1E6IMQBD5","3JUDR1D0D6D4CARU3YX9Y3DK5DJ2QK","","282.69999998807907","img/flower4.png","74","285","1","0","3","1","1,0.333,0.333,0.333,1,0.333,0.333,0.333,1","1,0.333,0.333,0.333,1,0.333,0.333,0.333,1","1",""
"","html-keyboard-response","125","99215","0.0-125.0","3L4D84MIL0ETRXOTIVL9DP3OOEXHJT","A39SK1E6IMQBD5","3JUDR1D0D6D4CARU3YX9Y3DK5DJ2QK","","null","<img src=""img/flower4.png"" style=""width:200px;border:14px solid red;"">","null","","","","","","","","",""
"","image-keyboard-response","126","99656","0.0-126.0","3L4D84MIL0ETRXOTIVL9DP3OOEXHJT","A39SK1E6IMQBD5","3JUDR1D0D6D4CARU3YX9Y3DK5DJ2QK","","438.69999998807907","img/flower4.png","75","440.5999999642372","2","0","3","1","1,0.333,0.333,0.333,1,0.333,0.333,0.333,1","1,0.333,0.333,0.333,1,0.333,0.333,0.333,1","1",""
"","html-keyboard-response","127","99967","0.0-127.0","3L4D84MIL0ETRXOTIVL9DP3OOEXHJT","A39SK1E6IMQBD5","3JUDR1D0D6D4CARU3YX9Y3DK5DJ2QK","","null","<img src=""img/flower4.png"" style=""width:200px;border:14px solid red;"">","null","","","","","","","","",""
"","image-keyboard-response","128","100357","0.0-128.0","3L4D84MIL0ETRXOTIVL9DP3OOEXHJT","A39SK1E6IMQBD5","3JUDR1D0D6D4CARU3YX9Y3DK5DJ2QK","","386.19999998807907","img/flower4.png","75","389.19999998807907","2","1","3","1","1,0.333,0.333,0.333,1,0.333,0.333,0.333,1","1,0.333,0.333,0.333,1,0.333,0.333,0.333,1","1",""
"","html-keyboard-response","129","100668","0.0-129.0","3L4D84MIL0ETRXOTIVL9DP3OOEXHJT","A39SK1E6IMQBD5","3JUDR1D0D6D4CARU3YX9Y3DK5DJ2QK","","null","<img src=""img/flower4.png"" style=""width:200px; border:14px solid green;"">","null","","","","","","","","",""
"","image-keyboard-response","130","101726","0.0-130.0","3L4D84MIL0ETRXOTIVL9DP3OOEXHJT","A39SK1E6IMQBD5","3JUDR1D0D6D4CARU3YX9Y3DK5DJ2QK","","1055.0999999642372","img/flower6.png","75","1057.3999999761581","2","1","2","1","1,0.333,0.333,0.333,1,0.333,0.333,0.333,1","1,0.333,0.333,0.333,1,0.333,0.333,0.333,1","1",""
"","html-keyboard-response","131","102033","0.0-131.0","3L4D84MIL0ETRXOTIVL9DP3OOEXHJT","A39SK1E6IMQBD5","3JUDR1D0D6D4CARU3YX9Y3DK5DJ2QK","","null","<img src=""img/flower6.png"" style=""width:200px; border:14px solid green;"">","null","","","","","","","","",""
"","image-keyboard-response","132","102390","0.0-132.0","3L4D84MIL0ETRXOTIVL9DP3OOEXHJT","A39SK1E6IMQBD5","3JUDR1D0D6D4CARU3YX9Y3DK5DJ2QK","","351.69999998807907","img/flower6.png","75","355.10000002384186","2","1","2","1","1,0.333,0.333,0.333,1,0.333,0.333,0.333,1","1,0.333,0.333,0.333,1,0.333,0.333,0.333,1","1",""
"","html-keyboard-response","133","102703","0.0-133.0","3L4D84MIL0ETRXOTIVL9DP3OOEXHJT","A39SK1E6IMQBD5","3JUDR1D0D6D4CARU3YX9Y3DK5DJ2QK","","null","<img src=""img/flower6.png"" style=""width:200px; border:14px solid green;"">","null","","","","","","","","",""
"","image-keyboard-response","134","102965","0.0-134.0","3L4D84MIL0ETRXOTIVL9DP3OOEXHJT","A39SK1E6IMQBD5","3JUDR1D0D6D4CARU3YX9Y3DK5DJ2QK","","259.5","img/flower6.png","75","261.10000002384186","2","1","2","1","1,0.333,0.333,0.333,1,0.333,0.333,0.333,1","1,0.333,0.333,0.333,1,0.333,0.333,0.333,1","1",""
"","html-keyboard-response","135","103268","0.0-135.0","3L4D84MIL0ETRXOTIVL9DP3OOEXHJT","A39SK1E6IMQBD5","3JUDR1D0D6D4CARU3YX9Y3DK5DJ2QK","","null","<img src=""img/flower6.png"" style=""width:200px; border:14px solid green;"">","null","","","","","","","","",""
"","image-keyboard-response","136","103572","0.0-136.0","3L4D84MIL0ETRXOTIVL9DP3OOEXHJT","A39SK1E6IMQBD5","3JUDR1D0D6D4CARU3YX9Y3DK5DJ2QK","","301.89999997615814","img/flower6.png","75","304.0999999642372","2","1","2","1","1,0.333,0.333,0.333,1,0.333,0.333,0.333,1","1,0.333,0.333,0.333,1,0.333,0.333,0.333,1","1",""
"","html-keyboard-response","137","103888","0.0-137.0","3L4D84MIL0ETRXOTIVL9DP3OOEXHJT","A39SK1E6IMQBD5","3JUDR1D0D6D4CARU3YX9Y3DK5DJ2QK","","null","<img src=""img/flower6.png"" style=""width:200px; border:14px solid green;"">","null","","","","","","","","",""
"","image-keyboard-response","138","104573","0.0-138.0","3L4D84MIL0ETRXOTIVL9DP3OOEXHJT","A39SK1E6IMQBD5","3JUDR1D0D6D4CARU3YX9Y3DK5DJ2QK","","682.6999999880791","img/flower2.png","74","684.3000000119209","1","1","1","1","1,0.333,0.333,0.333,1,0.333,0.333,0.333,1","1,0.333,0.333,0.333,1,0.333,0.333,0.333,1","1",""
"","html-keyboard-response","139","104883","0.0-139.0","3L4D84MIL0ETRXOTIVL9DP3OOEXHJT","A39SK1E6IMQBD5","3JUDR1D0D6D4CARU3YX9Y3DK5DJ2QK","","null","<img src=""img/flower2.png"" style=""width:200px; border:14px solid green;"">","null","","","","","","","","",""
"","image-keyboard-response","140","105550","0.0-140.0","3L4D84MIL0ETRXOTIVL9DP3OOEXHJT","A39SK1E6IMQBD5","3JUDR1D0D6D4CARU3YX9Y3DK5DJ2QK","","665.4000000357628","img/flower6.png","75","666.6000000238419","2","1","2","1","1,0.333,0.333,0.333,1,0.333,0.333,0.333,1","1,0.333,0.333,0.333,1,0.333,0.333,0.333,1","1",""
"","html-keyboard-response","141","105866","0.0-141.0","3L4D84MIL0ETRXOTIVL9DP3OOEXHJT","A39SK1E6IMQBD5","3JUDR1D0D6D4CARU3YX9Y3DK5DJ2QK","","null","<img src=""img/flower6.png"" style=""width:200px; border:14px solid green;"">","null","","","","","","","","",""
"","image-keyboard-response","142","106684","0.0-142.0","3L4D84MIL0ETRXOTIVL9DP3OOEXHJT","A39SK1E6IMQBD5","3JUDR1D0D6D4CARU3YX9Y3DK5DJ2QK","","816.5999999642372","img/flower4.png","76","817.8000000119209","3","1","3","1","1,0.333,0.333,0.333,1,0.333,0.333,0.333,1","1,0.333,0.333,0.333,1,0.333,0.333,0.333,1","1",""
"","html-keyboard-response","143","106998","0.0-143.0","3L4D84MIL0ETRXOTIVL9DP3OOEXHJT","A39SK1E6IMQBD5","3JUDR1D0D6D4CARU3YX9Y3DK5DJ2QK","","null","<img src=""img/flower4.png"" style=""width:200px; border:14px solid green;"">","null","","","","","","","","",""
"","image-keyboard-response","144","107726","0.0-144.0","3L4D84MIL0ETRXOTIVL9DP3OOEXHJT","A39SK1E6IMQBD5","3JUDR1D0D6D4CARU3YX9Y3DK5DJ2QK","","725.6000000238419","img/flower2.png","75","728","2","1","1","1","1,0.333,0.333,0.333,1,0.333,0.333,0.333,1","1,0.333,0.333,0.333,1,0.333,0.333,0.333,1","1",""
"","html-keyboard-response","145","108034","0.0-145.0","3L4D84MIL0ETRXOTIVL9DP3OOEXHJT","A39SK1E6IMQBD5","3JUDR1D0D6D4CARU3YX9Y3DK5DJ2QK","","null","<img src=""img/flower2.png"" style=""width:200px; border:14px solid green;"">","null","","","","","","","","",""
"","image-keyboard-response","146","108336","0.0-146.0","3L4D84MIL0ETRXOTIVL9DP3OOEXHJT","A39SK1E6IMQBD5","3JUDR1D0D6D4CARU3YX9Y3DK5DJ2QK","","300.0999999642372","img/flower2.png","74","301.9000000357628","1","1","1","1","1,0.333,0.333,0.333,1,0.333,0.333,0.333,1","1,0.333,0.333,0.333,1,0.333,0.333,0.333,1","1",""
"","html-keyboard-response","147","108640","0.0-147.0","3L4D84MIL0ETRXOTIVL9DP3OOEXHJT","A39SK1E6IMQBD5","3JUDR1D0D6D4CARU3YX9Y3DK5DJ2QK","","null","<img src=""img/flower2.png"" style=""width:200px; border:14px solid green;"">","null","","","","","","","","",""
"","image-keyboard-response","148","109270","0.0-148.0","3L4D84MIL0ETRXOTIVL9DP3OOEXHJT","A39SK1E6IMQBD5","3JUDR1D0D6D4CARU3YX9Y3DK5DJ2QK","","626.5","img/flower6.png","75","628.8999999761581","2","1","2","1","1,0.333,0.333,0.333,1,0.333,0.333,0.333,1","1,0.333,0.333,0.333,1,0.333,0.333,0.333,1","1",""
"","html-keyboard-response","149","109573","0.0-149.0","3L4D84MIL0ETRXOTIVL9DP3OOEXHJT","A39SK1E6IMQBD5","3JUDR1D0D6D4CARU3YX9Y3DK5DJ2QK","","null","<img src=""img/flower6.png"" style=""width:200px; border:14px solid green;"">","null","","","","","","","","",""
"","image-keyboard-response","150","109693","0.0-150.0","3L4D84MIL0ETRXOTIVL9DP3OOEXHJT","A39SK1E6IMQBD5","3JUDR1D0D6D4CARU3YX9Y3DK5DJ2QK","","118.19999998807907","img/flower6.png","75","120.19999998807907","2","1","2","1","1,0.333,0.333,0.333,1,0.333,0.333,0.333,1","1,0.333,0.333,0.333,1,0.333,0.333,0.333,1","1",""
"","html-keyboard-response","151","110018","0.0-151.0","3L4D84MIL0ETRXOTIVL9DP3OOEXHJT","A39SK1E6IMQBD5","3JUDR1D0D6D4CARU3YX9Y3DK5DJ2QK","","null","<img src=""img/flower6.png"" style=""width:200px; border:14px solid green;"">","null","","","","","","","","",""
"","image-keyboard-response","152","110892","0.0-152.0","3L4D84MIL0ETRXOTIVL9DP3OOEXHJT","A39SK1E6IMQBD5","3JUDR1D0D6D4CARU3YX9Y3DK5DJ2QK","","872.5999999642372","img/flower4.png","76","873.8999999761581","3","1","3","1","1,0.333,0.333,0.333,1,0.333,0.333,0.333,1","1,0.333,0.333,0.333,1,0.333,0.333,0.333,1","1",""
"","html-keyboard-response","153","111202","0.0-153.0","3L4D84MIL0ETRXOTIVL9DP3OOEXHJT","A39SK1E6IMQBD5","3JUDR1D0D6D4CARU3YX9Y3DK5DJ2QK","","null","<img src=""img/flower4.png"" style=""width:200px; border:14px solid green;"">","null","","","","","","","","",""
"","image-keyboard-response","154","111781","0.0-154.0","3L4D84MIL0ETRXOTIVL9DP3OOEXHJT","A39SK1E6IMQBD5","3JUDR1D0D6D4CARU3YX9Y3DK5DJ2QK","","576.8000000119209","img/flower2.png","74","577.8000000119209","1","1","1","1","1,0.333,0.333,0.333,1,0.333,0.333,0.333,1","1,0.333,0.333,0.333,1,0.333,0.333,0.333,1","1",""
"","html-keyboard-response","155","112092","0.0-155.0","3L4D84MIL0ETRXOTIVL9DP3OOEXHJT","A39SK1E6IMQBD5","3JUDR1D0D6D4CARU3YX9Y3DK5DJ2QK","","null","<img src=""img/flower2.png"" style=""width:200px; border:14px solid green;"">","null","","","","","","","","",""
"","image-keyboard-response","156","112429","0.0-156.0","3L4D84MIL0ETRXOTIVL9DP3OOEXHJT","A39SK1E6IMQBD5","3JUDR1D0D6D4CARU3YX9Y3DK5DJ2QK","","333.7000000476837","img/flower2.png","74","336.5","1","1","1","1","1,0.333,0.333,0.333,1,0.333,0.333,0.333,1","1,0.333,0.333,0.333,1,0.333,0.333,0.333,1","1",""
"","html-keyboard-response","157","112732","0.0-157.0","3L4D84MIL0ETRXOTIVL9DP3OOEXHJT","A39SK1E6IMQBD5","3JUDR1D0D6D4CARU3YX9Y3DK5DJ2QK","","null","<img src=""img/flower2.png"" style=""width:200px; border:14px solid green;"">","null","","","","","","","","",""
"","image-keyboard-response","158","112958","0.0-158.0","3L4D84MIL0ETRXOTIVL9DP3OOEXHJT","A39SK1E6IMQBD5","3JUDR1D0D6D4CARU3YX9Y3DK5DJ2QK","","222.89999997615814","img/flower4.png","74","225.0999999642372","1","0","3","1","1,0.333,0.333,0.333,1,0.333,0.333,0.333,1","1,0.333,0.333,0.333,1,0.333,0.333,0.333,1","1",""
"","html-keyboard-response","159","113263","0.0-159.0","3L4D84MIL0ETRXOTIVL9DP3OOEXHJT","A39SK1E6IMQBD5","3JUDR1D0D6D4CARU3YX9Y3DK5DJ2QK","","null","<img src=""img/flower4.png"" style=""width:200px;border:14px solid red;"">","null","","","","","","","","",""
"","image-keyboard-response","160","113590","0.0-160.0","3L4D84MIL0ETRXOTIVL9DP3OOEXHJT","A39SK1E6IMQBD5","3JUDR1D0D6D4CARU3YX9Y3DK5DJ2QK","","324","img/flower4.png","75","326.19999998807907","2","0","3","1","1,0.333,0.333,0.333,1,0.333,0.333,0.333,1","1,0.333,0.333,0.333,1,0.333,0.333,0.333,1","1",""
"","html-keyboard-response","161","113907","0.0-161.0","3L4D84MIL0ETRXOTIVL9DP3OOEXHJT","A39SK1E6IMQBD5","3JUDR1D0D6D4CARU3YX9Y3DK5DJ2QK","","null","<img src=""img/flower4.png"" style=""width:200px;border:14px solid red;"">","null","","","","","","","","",""
"","image-keyboard-response","162","114550","0.0-162.0","3L4D84MIL0ETRXOTIVL9DP3OOEXHJT","A39SK1E6IMQBD5","3JUDR1D0D6D4CARU3YX9Y3DK5DJ2QK","","639.8000000119209","img/flower4.png","76","641.8999999761581","3","1","3","1","1,0.333,0.333,0.333,1,0.333,0.333,0.333,1","1,0.333,0.333,0.333,1,0.333,0.333,0.333,1","1",""
"","html-keyboard-response","163","114868","0.0-163.0","3L4D84MIL0ETRXOTIVL9DP3OOEXHJT","A39SK1E6IMQBD5","3JUDR1D0D6D4CARU3YX9Y3DK5DJ2QK","","null","<img src=""img/flower4.png"" style=""width:200px; border:14px solid green;"">","null","","","","","","","","",""
"","image-keyboard-response","164","116452","0.0-164.0","3L4D84MIL0ETRXOTIVL9DP3OOEXHJT","A39SK1E6IMQBD5","3JUDR1D0D6D4CARU3YX9Y3DK5DJ2QK","","1581.6000000238419","img/flower2.png","74","1583.5999999642372","1","1","1","1","1,0.333,0.333,0.333,1,0.333,0.333,0.333,1","1,0.333,0.333,0.333,1,0.333,0.333,0.333,1","1",""
"","html-keyboard-response","165","116767","0.0-165.0","3L4D84MIL0ETRXOTIVL9DP3OOEXHJT","A39SK1E6IMQBD5","3JUDR1D0D6D4CARU3YX9Y3DK5DJ2QK","","null","<img src=""img/flower2.png"" style=""width:200px; border:14px solid green;"">","null","","","","","","","","",""
"","image-keyboard-response","166","117190","0.0-166.0","3L4D84MIL0ETRXOTIVL9DP3OOEXHJT","A39SK1E6IMQBD5","3JUDR1D0D6D4CARU3YX9Y3DK5DJ2QK","","421.39999997615814","img/flower2.png","74","422.5999999642372","1","1","1","1","1,0.333,0.333,0.333,1,0.333,0.333,0.333,1","1,0.333,0.333,0.333,1,0.333,0.333,0.333,1","1",""
"","html-keyboard-response","167","117495","0.0-167.0","3L4D84MIL0ETRXOTIVL9DP3OOEXHJT","A39SK1E6IMQBD5","3JUDR1D0D6D4CARU3YX9Y3DK5DJ2QK","","null","<img src=""img/flower2.png"" style=""width:200px; border:14px solid green;"">","null","","","","","","","","",""
"","image-keyboard-response","168","118364","0.0-168.0","3L4D84MIL0ETRXOTIVL9DP3OOEXHJT","A39SK1E6IMQBD5","3JUDR1D0D6D4CARU3YX9Y3DK5DJ2QK","","867.5","img/flower4.png","75","869.6000000238419","2","0","3","1","1,0.333,0.333,0.333,1,0.333,0.333,0.333,1","1,0.333,0.333,0.333,1,0.333,0.333,0.333,1","1",""
"","html-keyboard-response","169","118671","0.0-169.0","3L4D84MIL0ETRXOTIVL9DP3OOEXHJT","A39SK1E6IMQBD5","3JUDR1D0D6D4CARU3YX9Y3DK5DJ2QK","","null","<img src=""img/flower4.png"" style=""width:200px;border:14px solid red;"">","null","","","","","","","","",""
"","image-keyboard-response","170","119245","0.0-170.0","3L4D84MIL0ETRXOTIVL9DP3OOEXHJT","A39SK1E6IMQBD5","3JUDR1D0D6D4CARU3YX9Y3DK5DJ2QK","","571.8999999761581","img/flower2.png","74","573.1000000238419","1","1","1","1","1,0.333,0.333,0.333,1,0.333,0.333,0.333,1","1,0.333,0.333,0.333,1,0.333,0.333,0.333,1","1",""
"","html-keyboard-response","171","119556","0.0-171.0","3L4D84MIL0ETRXOTIVL9DP3OOEXHJT","A39SK1E6IMQBD5","3JUDR1D0D6D4CARU3YX9Y3DK5DJ2QK","","null","<img src=""img/flower2.png"" style=""width:200px; border:14px solid green;"">","null","","","","","","","","",""
"","image-keyboard-response","172","120231","0.0-172.0","3L4D84MIL0ETRXOTIVL9DP3OOEXHJT","A39SK1E6IMQBD5","3JUDR1D0D6D4CARU3YX9Y3DK5DJ2QK","","673.5","img/flower6.png","75","674.6999999880791","2","1","2","1","1,0.333,0.333,0.333,1,0.333,0.333,0.333,1","1,0.333,0.333,0.333,1,0.333,0.333,0.333,1","1",""
"","html-keyboard-response","173","120542","0.0-173.0","3L4D84MIL0ETRXOTIVL9DP3OOEXHJT","A39SK1E6IMQBD5","3JUDR1D0D6D4CARU3YX9Y3DK5DJ2QK","","null","<img src=""img/flower6.png"" style=""width:200px; border:14px solid green;"">","null","","","","","","","","",""
"","image-keyboard-response","174","121078","0.0-174.0","3L4D84MIL0ETRXOTIVL9DP3OOEXHJT","A39SK1E6IMQBD5","3JUDR1D0D6D4CARU3YX9Y3DK5DJ2QK","","532.8999999761581","img/flower2.png","74","534.9000000357628","1","1","1","1","1,0.333,0.333,0.333,1,0.333,0.333,0.333,1","1,0.333,0.333,0.333,1,0.333,0.333,0.333,1","1",""
"","html-keyboard-response","175","121391","0.0-175.0","3L4D84MIL0ETRXOTIVL9DP3OOEXHJT","A39SK1E6IMQBD5","3JUDR1D0D6D4CARU3YX9Y3DK5DJ2QK","","null","<img src=""img/flower2.png"" style=""width:200px; border:14px solid green;"">","null","","","","","","","","",""
"","image-keyboard-response","176","122174","0.0-176.0","3L4D84MIL0ETRXOTIVL9DP3OOEXHJT","A39SK1E6IMQBD5","3JUDR1D0D6D4CARU3YX9Y3DK5DJ2QK","","781.1000000238419","img/flower4.png","75","782.8000000119209","2","1","3","1","1,0.333,0.333,0.333,1,0.333,0.333,0.333,1","1,0.333,0.333,0.333,1,0.333,0.333,0.333,1","1",""
"","html-keyboard-response","177","122491","0.0-177.0","3L4D84MIL0ETRXOTIVL9DP3OOEXHJT","A39SK1E6IMQBD5","3JUDR1D0D6D4CARU3YX9Y3DK5DJ2QK","","null","<img src=""img/flower4.png"" style=""width:200px; border:14px solid green;"">","null","","","","","","","","",""
"","image-keyboard-response","178","123301","0.0-178.0","3L4D84MIL0ETRXOTIVL9DP3OOEXHJT","A39SK1E6IMQBD5","3JUDR1D0D6D4CARU3YX9Y3DK5DJ2QK","","806.8999999761581","img/flower2.png","74","809.1000000238419","1","1","1","1","1,0.333,0.333,0.333,1,0.333,0.333,0.333,1","1,0.333,0.333,0.333,1,0.333,0.333,0.333,1","1",""
"","html-keyboard-response","179","123610","0.0-179.0","3L4D84MIL0ETRXOTIVL9DP3OOEXHJT","A39SK1E6IMQBD5","3JUDR1D0D6D4CARU3YX9Y3DK5DJ2QK","","null","<img src=""img/flower2.png"" style=""width:200px; border:14px solid green;"">","null","","","","","","","","",""
"","image-keyboard-response","180","123844","0.0-180.0","3L4D84MIL0ETRXOTIVL9DP3OOEXHJT","A39SK1E6IMQBD5","3JUDR1D0D6D4CARU3YX9Y3DK5DJ2QK","","233","img/flower2.png","74","234.5","1","1","1","1","1,0.333,0.333,0.333,1,0.333,0.333,0.333,1","1,0.333,0.333,0.333,1,0.333,0.333,0.333,1","1",""
"","html-keyboard-response","181","124149","0.0-181.0","3L4D84MIL0ETRXOTIVL9DP3OOEXHJT","A39SK1E6IMQBD5","3JUDR1D0D6D4CARU3YX9Y3DK5DJ2QK","","null","<img src=""img/flower2.png"" style=""width:200px; border:14px solid green;"">","null","","","","","","","","",""
"","html-keyboard-response","182","127456","0.0-182.0","3L4D84MIL0ETRXOTIVL9DP3OOEXHJT","A39SK1E6IMQBD5","3JUDR1D0D6D4CARU3YX9Y3DK5DJ2QK","","","","","","","","","","","","",""
"","image-keyboard-response","183","129462","0.0-183.0","3L4D84MIL0ETRXOTIVL9DP3OOEXHJT","A39SK1E6IMQBD5","3JUDR1D0D6D4CARU3YX9Y3DK5DJ2QK","","2002.5999999642372","img/flower5.png","75","2005.5","2","0","2","2","1,0,0,1,1,0,1,0,1","0,0,1,1,0,1,0,1,1","2",""
"","html-keyboard-response","184","129767","0.0-184.0","3L4D84MIL0ETRXOTIVL9DP3OOEXHJT","A39SK1E6IMQBD5","3JUDR1D0D6D4CARU3YX9Y3DK5DJ2QK","","null","<img src=""img/flower5.png"" style=""width:200px;border:14px solid red;"">","null","","","","","","","","",""
"","image-keyboard-response","185","130077","0.0-185.0","3L4D84MIL0ETRXOTIVL9DP3OOEXHJT","A39SK1E6IMQBD5","3JUDR1D0D6D4CARU3YX9Y3DK5DJ2QK","","307.19999998807907","img/flower5.png","74","309.30000001192093","1","1","2","2","1,0,0,1,1,0,1,0,1","0,0,1,1,0,1,0,1,1","2",""
"","html-keyboard-response","186","130387","0.0-186.0","3L4D84MIL0ETRXOTIVL9DP3OOEXHJT","A39SK1E6IMQBD5","3JUDR1D0D6D4CARU3YX9Y3DK5DJ2QK","","null","<img src=""img/flower5.png"" style=""width:200px; border:14px solid green;"">","null","","","","","","","","",""
"","image-keyboard-response","187","131142","0.0-187.0","3L4D84MIL0ETRXOTIVL9DP3OOEXHJT","A39SK1E6IMQBD5","3JUDR1D0D6D4CARU3YX9Y3DK5DJ2QK","","753","img/flower3.png","75","755.1999999880791","2","0","1","2","1,0,0,1,1,0,1,0,1","0,0,1,1,0,1,0,1,1","2",""
"","html-keyboard-response","188","131453","0.0-188.0","3L4D84MIL0ETRXOTIVL9DP3OOEXHJT","A39SK1E6IMQBD5","3JUDR1D0D6D4CARU3YX9Y3DK5DJ2QK","","null","<img src=""img/flower3.png"" style=""width:200px;border:14px solid red;"">","null","","","","","","","","",""
"","image-keyboard-response","189","131741","0.0-189.0","3L4D84MIL0ETRXOTIVL9DP3OOEXHJT","A39SK1E6IMQBD5","3JUDR1D0D6D4CARU3YX9Y3DK5DJ2QK","","285","img/flower1.png","76","287.7000000476837","3","1","3","2","1,0,0,1,1,0,1,0,1","0,0,1,1,0,1,0,1,1","2",""
"","html-keyboard-response","190","132047","0.0-190.0","3L4D84MIL0ETRXOTIVL9DP3OOEXHJT","A39SK1E6IMQBD5","3JUDR1D0D6D4CARU3YX9Y3DK5DJ2QK","","null","<img src=""img/flower1.png"" style=""width:200px; border:14px solid green;"">","null","","","","","","","","",""
"","image-keyboard-response","191","132390","0.0-191.0","3L4D84MIL0ETRXOTIVL9DP3OOEXHJT","A39SK1E6IMQBD5","3JUDR1D0D6D4CARU3YX9Y3DK5DJ2QK","","340.39999997615814","img/flower1.png","76","342.19999998807907","3","1","3","2","1,0,0,1,1,0,1,0,1","0,0,1,1,0,1,0,1,1","2",""
"","html-keyboard-response","192","132706","0.0-192.0","3L4D84MIL0ETRXOTIVL9DP3OOEXHJT","A39SK1E6IMQBD5","3JUDR1D0D6D4CARU3YX9Y3DK5DJ2QK","","null","<img src=""img/flower1.png"" style=""width:200px; border:14px solid green;"">","null","","","","","","","","",""
"","image-keyboard-response","193","133532","0.0-193.0","3L4D84MIL0ETRXOTIVL9DP3OOEXHJT","A39SK1E6IMQBD5","3JUDR1D0D6D4CARU3YX9Y3DK5DJ2QK","","823.5","img/flower5.png","74","825.3999999761581","1","1","2","2","1,0,0,1,1,0,1,0,1","0,0,1,1,0,1,0,1,1","2",""
"","html-keyboard-response","194","133839","0.0-194.0","3L4D84MIL0ETRXOTIVL9DP3OOEXHJT","A39SK1E6IMQBD5","3JUDR1D0D6D4CARU3YX9Y3DK5DJ2QK","","null","<img src=""img/flower5.png"" style=""width:200px; border:14px solid green;"">","null","","","","","","","","",""
"","image-keyboard-response","195","134166","0.0-195.0","3L4D84MIL0ETRXOTIVL9DP3OOEXHJT","A39SK1E6IMQBD5","3JUDR1D0D6D4CARU3YX9Y3DK5DJ2QK","","324.80000001192093","img/flower5.png","74","326.2000000476837","1","1","2","2","1,0,0,1,1,0,1,0,1","0,0,1,1,0,1,0,1,1","2",""
"","html-keyboard-response","196","134468","0.0-196.0","3L4D84MIL0ETRXOTIVL9DP3OOEXHJT","A39SK1E6IMQBD5","3JUDR1D0D6D4CARU3YX9Y3DK5DJ2QK","","null","<img src=""img/flower5.png"" style=""width:200px; border:14px solid green;"">","null","","","","","","","","",""
"","image-keyboard-response","197","135045","0.0-197.0","3L4D84MIL0ETRXOTIVL9DP3OOEXHJT","A39SK1E6IMQBD5","3JUDR1D0D6D4CARU3YX9Y3DK5DJ2QK","","575.5","img/flower3.png","75","576.8999999761581","2","0","1","2","1,0,0,1,1,0,1,0,1","0,0,1,1,0,1,0,1,1","2",""
"","html-keyboard-response","198","135360","0.0-198.0","3L4D84MIL0ETRXOTIVL9DP3OOEXHJT","A39SK1E6IMQBD5","3JUDR1D0D6D4CARU3YX9Y3DK5DJ2QK","","null","<img src=""img/flower3.png"" style=""width:200px;border:14px solid red;"">","null","","","","","","","","",""
"","image-keyboard-response","199","136022","0.0-199.0","3L4D84MIL0ETRXOTIVL9DP3OOEXHJT","A39SK1E6IMQBD5","3JUDR1D0D6D4CARU3YX9Y3DK5DJ2QK","","658.5999999642372","img/flower1.png","76","661.1999999880791","3","1","3","2","1,0,0,1,1,0,1,0,1","0,0,1,1,0,1,0,1,1","2",""
"","html-keyboard-response","200","136326","0.0-200.0","3L4D84MIL0ETRXOTIVL9DP3OOEXHJT","A39SK1E6IMQBD5","3JUDR1D0D6D4CARU3YX9Y3DK5DJ2QK","","null","<img src=""img/flower1.png"" style=""width:200px; border:14px solid green;"">","null","","","","","","","","",""
"","image-keyboard-response","201","137040","0.0-201.0","3L4D84MIL0ETRXOTIVL9DP3OOEXHJT","A39SK1E6IMQBD5","3JUDR1D0D6D4CARU3YX9Y3DK5DJ2QK","","712.5","img/flower5.png","74","714.2999999523163","1","1","2","2","1,0,0,1,1,0,1,0,1","0,0,1,1,0,1,0,1,1","2",""
"","html-keyboard-response","202","137360","0.0-202.0","3L4D84MIL0ETRXOTIVL9DP3OOEXHJT","A39SK1E6IMQBD5","3JUDR1D0D6D4CARU3YX9Y3DK5DJ2QK","","null","<img src=""img/flower5.png"" style=""width:200px; border:14px solid green;"">","null","","","","","","","","",""
"","image-keyboard-response","203","137700","0.0-203.0","3L4D84MIL0ETRXOTIVL9DP3OOEXHJT","A39SK1E6IMQBD5","3JUDR1D0D6D4CARU3YX9Y3DK5DJ2QK","","337.60000002384186","img/flower5.png","74","339.2999999523163","1","1","2","2","1,0,0,1,1,0,1,0,1","0,0,1,1,0,1,0,1,1","2",""
"","html-keyboard-response","204","138007","0.0-204.0","3L4D84MIL0ETRXOTIVL9DP3OOEXHJT","A39SK1E6IMQBD5","3JUDR1D0D6D4CARU3YX9Y3DK5DJ2QK","","null","<img src=""img/flower5.png"" style=""width:200px; border:14px solid green;"">","null","","","","","","","","",""
"","image-keyboard-response","205","138301","0.0-205.0","3L4D84MIL0ETRXOTIVL9DP3OOEXHJT","A39SK1E6IMQBD5","3JUDR1D0D6D4CARU3YX9Y3DK5DJ2QK","","291","img/flower5.png","74","293.19999998807907","1","1","2","2","1,0,0,1,1,0,1,0,1","0,0,1,1,0,1,0,1,1","2",""
"","html-keyboard-response","206","138604","0.0-206.0","3L4D84MIL0ETRXOTIVL9DP3OOEXHJT","A39SK1E6IMQBD5","3JUDR1D0D6D4CARU3YX9Y3DK5DJ2QK","","null","<img src=""img/flower5.png"" style=""width:200px; border:14px solid green;"">","null","","","","","","","","",""
"","image-keyboard-response","207","139286","0.0-207.0","3L4D84MIL0ETRXOTIVL9DP3OOEXHJT","A39SK1E6IMQBD5","3JUDR1D0D6D4CARU3YX9Y3DK5DJ2QK","","679.3000000119209","img/flower3.png","75","682.2000000476837","2","0","1","2","1,0,0,1,1,0,1,0,1","0,0,1,1,0,1,0,1,1","2",""
"","html-keyboard-response","208","139594","0.0-208.0","3L4D84MIL0ETRXOTIVL9DP3OOEXHJT","A39SK1E6IMQBD5","3JUDR1D0D6D4CARU3YX9Y3DK5DJ2QK","","null","<img src=""img/flower3.png"" style=""width:200px;border:14px solid red;"">","null","","","","","","","","",""
"","image-keyboard-response","209","140286","0.0-209.0","3L4D84MIL0ETRXOTIVL9DP3OOEXHJT","A39SK1E6IMQBD5","3JUDR1D0D6D4CARU3YX9Y3DK5DJ2QK","","687.1999999880791","img/flower1.png","76","691.4000000357628","3","1","3","2","1,0,0,1,1,0,1,0,1","0,0,1,1,0,1,0,1,1","2",""
"","html-keyboard-response","210","140597","0.0-210.0","3L4D84MIL0ETRXOTIVL9DP3OOEXHJT","A39SK1E6IMQBD5","3JUDR1D0D6D4CARU3YX9Y3DK5DJ2QK","","null","<img src=""img/flower1.png"" style=""width:200px; border:14px solid green;"">","null","","","","","","","","",""
"","image-keyboard-response","211","140878","0.0-211.0","3L4D84MIL0ETRXOTIVL9DP3OOEXHJT","A39SK1E6IMQBD5","3JUDR1D0D6D4CARU3YX9Y3DK5DJ2QK","","277.69999998807907","img/flower1.png","76","280.2999999523163","3","1","3","2","1,0,0,1,1,0,1,0,1","0,0,1,1,0,1,0,1,1","2",""
"","html-keyboard-response","212","141184","0.0-212.0","3L4D84MIL0ETRXOTIVL9DP3OOEXHJT","A39SK1E6IMQBD5","3JUDR1D0D6D4CARU3YX9Y3DK5DJ2QK","","null","<img src=""img/flower1.png"" style=""width:200px; border:14px solid green;"">","null","","","","","","","","",""
"","image-keyboard-response","213","141431","0.0-213.0","3L4D84MIL0ETRXOTIVL9DP3OOEXHJT","A39SK1E6IMQBD5","3JUDR1D0D6D4CARU3YX9Y3DK5DJ2QK","","242.89999997615814","img/flower5.png","76","246.30000001192093","3","1","2","2","1,0,0,1,1,0,1,0,1","0,0,1,1,0,1,0,1,1","2",""
"","html-keyboard-response","214","141746","0.0-214.0","3L4D84MIL0ETRXOTIVL9DP3OOEXHJT","A39SK1E6IMQBD5","3JUDR1D0D6D4CARU3YX9Y3DK5DJ2QK","","null","<img src=""img/flower5.png"" style=""width:200px; border:14px solid green;"">","null","","","","","","","","",""
"","image-keyboard-response","215","142493","0.0-215.0","3L4D84MIL0ETRXOTIVL9DP3OOEXHJT","A39SK1E6IMQBD5","3JUDR1D0D6D4CARU3YX9Y3DK5DJ2QK","","743.8999999761581","img/flower1.png","76","746.1999999880791","3","1","3","2","1,0,0,1,1,0,1,0,1","0,0,1,1,0,1,0,1,1","2",""
"","html-keyboard-response","216","142806","0.0-216.0","3L4D84MIL0ETRXOTIVL9DP3OOEXHJT","A39SK1E6IMQBD5","3JUDR1D0D6D4CARU3YX9Y3DK5DJ2QK","","null","<img src=""img/flower1.png"" style=""width:200px; border:14px solid green;"">","null","","","","","","","","",""
"","image-keyboard-response","217","143103","0.0-217.0","3L4D84MIL0ETRXOTIVL9DP3OOEXHJT","A39SK1E6IMQBD5","3JUDR1D0D6D4CARU3YX9Y3DK5DJ2QK","","294.69999998807907","img/flower1.png","76","296.0999999642372","3","1","3","2","1,0,0,1,1,0,1,0,1","0,0,1,1,0,1,0,1,1","2",""
"","html-keyboard-response","218","143412","0.0-218.0","3L4D84MIL0ETRXOTIVL9DP3OOEXHJT","A39SK1E6IMQBD5","3JUDR1D0D6D4CARU3YX9Y3DK5DJ2QK","","null","<img src=""img/flower1.png"" style=""width:200px; border:14px solid green;"">","null","","","","","","","","",""
"","image-keyboard-response","219","143700","0.0-219.0","3L4D84MIL0ETRXOTIVL9DP3OOEXHJT","A39SK1E6IMQBD5","3JUDR1D0D6D4CARU3YX9Y3DK5DJ2QK","","286.0999999642372","img/flower1.png","76","287.69999998807907","3","1","3","2","1,0,0,1,1,0,1,0,1","0,0,1,1,0,1,0,1,1","2",""
"","html-keyboard-response","220","144006","0.0-220.0","3L4D84MIL0ETRXOTIVL9DP3OOEXHJT","A39SK1E6IMQBD5","3JUDR1D0D6D4CARU3YX9Y3DK5DJ2QK","","null","<img src=""img/flower1.png"" style=""width:200px; border:14px solid green;"">","null","","","","","","","","",""
"","image-keyboard-response","221","144220","0.0-221.0","3L4D84MIL0ETRXOTIVL9DP3OOEXHJT","A39SK1E6IMQBD5","3JUDR1D0D6D4CARU3YX9Y3DK5DJ2QK","","211.60000002384186","img/flower3.png","76","213.5","3","1","1","2","1,0,0,1,1,0,1,0,1","0,0,1,1,0,1,0,1,1","2",""
"","html-keyboard-response","222","144534","0.0-222.0","3L4D84MIL0ETRXOTIVL9DP3OOEXHJT","A39SK1E6IMQBD5","3JUDR1D0D6D4CARU3YX9Y3DK5DJ2QK","","null","<img src=""img/flower3.png"" style=""width:200px; border:14px solid green;"">","null","","","","","","","","",""
"","image-keyboard-response","223","145268","0.0-223.0","3L4D84MIL0ETRXOTIVL9DP3OOEXHJT","A39SK1E6IMQBD5","3JUDR1D0D6D4CARU3YX9Y3DK5DJ2QK","","730.6000000238419","img/flower1.png","76","734","3","1","3","2","1,0,0,1,1,0,1,0,1","0,0,1,1,0,1,0,1,1","2",""
"","html-keyboard-response","224","145575","0.0-224.0","3L4D84MIL0ETRXOTIVL9DP3OOEXHJT","A39SK1E6IMQBD5","3JUDR1D0D6D4CARU3YX9Y3DK5DJ2QK","","null","<img src=""img/flower1.png"" style=""width:200px; border:14px solid green;"">","null","","","","","","","","",""
"","image-keyboard-response","225","146175","0.0-225.0","3L4D84MIL0ETRXOTIVL9DP3OOEXHJT","A39SK1E6IMQBD5","3JUDR1D0D6D4CARU3YX9Y3DK5DJ2QK","","597.8999999761581","img/flower3.png","76","599.5","3","1","1","2","1,0,0,1,1,0,1,0,1","0,0,1,1,0,1,0,1,1","2",""
"","html-keyboard-response","226","146488","0.0-226.0","3L4D84MIL0ETRXOTIVL9DP3OOEXHJT","A39SK1E6IMQBD5","3JUDR1D0D6D4CARU3YX9Y3DK5DJ2QK","","null","<img src=""img/flower3.png"" style=""width:200px; border:14px solid green;"">","null","","","","","","","","",""
"","image-keyboard-response","227","147004","0.0-227.0","3L4D84MIL0ETRXOTIVL9DP3OOEXHJT","A39SK1E6IMQBD5","3JUDR1D0D6D4CARU3YX9Y3DK5DJ2QK","","514.1000000238419","img/flower1.png","76","516.0999999642372","3","1","3","2","1,0,0,1,1,0,1,0,1","0,0,1,1,0,1,0,1,1","2",""
"","html-keyboard-response","228","147318","0.0-228.0","3L4D84MIL0ETRXOTIVL9DP3OOEXHJT","A39SK1E6IMQBD5","3JUDR1D0D6D4CARU3YX9Y3DK5DJ2QK","","null","<img src=""img/flower1.png"" style=""width:200px; border:14px solid green;"">","null","","","","","","","","",""
"","image-keyboard-response","229","147614","0.0-229.0","3L4D84MIL0ETRXOTIVL9DP3OOEXHJT","A39SK1E6IMQBD5","3JUDR1D0D6D4CARU3YX9Y3DK5DJ2QK","","293.9000000357628","img/flower5.png","76","296","3","1","2","2","1,0,0,1,1,0,1,0,1","0,0,1,1,0,1,0,1,1","2",""
"","html-keyboard-response","230","147927","0.0-230.0","3L4D84MIL0ETRXOTIVL9DP3OOEXHJT","A39SK1E6IMQBD5","3JUDR1D0D6D4CARU3YX9Y3DK5DJ2QK","","null","<img src=""img/flower5.png"" style=""width:200px; border:14px solid green;"">","null","","","","","","","","",""
"","image-keyboard-response","231","148261","0.0-231.0","3L4D84MIL0ETRXOTIVL9DP3OOEXHJT","A39SK1E6IMQBD5","3JUDR1D0D6D4CARU3YX9Y3DK5DJ2QK","","332.5","img/flower3.png","76","334.5","3","1","1","2","1,0,0,1,1,0,1,0,1","0,0,1,1,0,1,0,1,1","2",""
"","html-keyboard-response","232","148576","0.0-232.0","3L4D84MIL0ETRXOTIVL9DP3OOEXHJT","A39SK1E6IMQBD5","3JUDR1D0D6D4CARU3YX9Y3DK5DJ2QK","","null","<img src=""img/flower3.png"" style=""width:200px; border:14px solid green;"">","null","","","","","","","","",""
"","image-keyboard-response","233","148870","0.0-233.0","3L4D84MIL0ETRXOTIVL9DP3OOEXHJT","A39SK1E6IMQBD5","3JUDR1D0D6D4CARU3YX9Y3DK5DJ2QK","","291.5","img/flower3.png","76","293.60000002384186","3","1","1","2","1,0,0,1,1,0,1,0,1","0,0,1,1,0,1,0,1,1","2",""
"","html-keyboard-response","234","149182","0.0-234.0","3L4D84MIL0ETRXOTIVL9DP3OOEXHJT","A39SK1E6IMQBD5","3JUDR1D0D6D4CARU3YX9Y3DK5DJ2QK","","null","<img src=""img/flower3.png"" style=""width:200px; border:14px solid green;"">","null","","","","","","","","",""
"","image-keyboard-response","235","149477","0.0-235.0","3L4D84MIL0ETRXOTIVL9DP3OOEXHJT","A39SK1E6IMQBD5","3JUDR1D0D6D4CARU3YX9Y3DK5DJ2QK","","292.4000000357628","img/flower3.png","76","294.69999998807907","3","1","1","2","1,0,0,1,1,0,1,0,1","0,0,1,1,0,1,0,1,1","2",""
"","html-keyboard-response","236","149783","0.0-236.0","3L4D84MIL0ETRXOTIVL9DP3OOEXHJT","A39SK1E6IMQBD5","3JUDR1D0D6D4CARU3YX9Y3DK5DJ2QK","","null","<img src=""img/flower3.png"" style=""width:200px; border:14px solid green;"">","null","","","","","","","","",""
"","image-keyboard-response","237","150070","0.0-237.0","3L4D84MIL0ETRXOTIVL9DP3OOEXHJT","A39SK1E6IMQBD5","3JUDR1D0D6D4CARU3YX9Y3DK5DJ2QK","","281","img/flower5.png","76","286.80000001192093","3","1","2","2","1,0,0,1,1,0,1,0,1","0,0,1,1,0,1,0,1,1","2",""
"","html-keyboard-response","238","150382","0.0-238.0","3L4D84MIL0ETRXOTIVL9DP3OOEXHJT","A39SK1E6IMQBD5","3JUDR1D0D6D4CARU3YX9Y3DK5DJ2QK","","null","<img src=""img/flower5.png"" style=""width:200px; border:14px solid green;"">","null","","","","","","","","",""
"","image-keyboard-response","239","150701","0.0-239.0","3L4D84MIL0ETRXOTIVL9DP3OOEXHJT","A39SK1E6IMQBD5","3JUDR1D0D6D4CARU3YX9Y3DK5DJ2QK","","316.69999998807907","img/flower1.png","76","318.80000001192093","3","1","3","2","1,0,0,1,1,0,1,0,1","0,0,1,1,0,1,0,1,1","2",""
"","html-keyboard-response","240","151008","0.0-240.0","3L4D84MIL0ETRXOTIVL9DP3OOEXHJT","A39SK1E6IMQBD5","3JUDR1D0D6D4CARU3YX9Y3DK5DJ2QK","","null","<img src=""img/flower1.png"" style=""width:200px; border:14px solid green;"">","null","","","","","","","","",""
"","image-keyboard-response","241","151270","0.0-241.0","3L4D84MIL0ETRXOTIVL9DP3OOEXHJT","A39SK1E6IMQBD5","3JUDR1D0D6D4CARU3YX9Y3DK5DJ2QK","","259.10000002384186","img/flower1.png","76","261.5","3","1","3","2","1,0,0,1,1,0,1,0,1","0,0,1,1,0,1,0,1,1","2",""
"","html-keyboard-response","242","151583","0.0-242.0","3L4D84MIL0ETRXOTIVL9DP3OOEXHJT","A39SK1E6IMQBD5","3JUDR1D0D6D4CARU3YX9Y3DK5DJ2QK","","null","<img src=""img/flower1.png"" style=""width:200px; border:14px solid green;"">","null","","","","","","","","",""
"","image-keyboard-response","243","151761","0.0-243.0","3L4D84MIL0ETRXOTIVL9DP3OOEXHJT","A39SK1E6IMQBD5","3JUDR1D0D6D4CARU3YX9Y3DK5DJ2QK","","175.29999995231628","img/flower3.png","76","178.5999999642372","3","1","1","2","1,0,0,1,1,0,1,0,1","0,0,1,1,0,1,0,1,1","2",""
"","html-keyboard-response","244","152069","0.0-244.0","3L4D84MIL0ETRXOTIVL9DP3OOEXHJT","A39SK1E6IMQBD5","3JUDR1D0D6D4CARU3YX9Y3DK5DJ2QK","","null","<img src=""img/flower3.png"" style=""width:200px; border:14px solid green;"">","null","","","","","","","","",""
"","image-keyboard-response","245","152269","0.0-245.0","3L4D84MIL0ETRXOTIVL9DP3OOEXHJT","A39SK1E6IMQBD5","3JUDR1D0D6D4CARU3YX9Y3DK5DJ2QK","","197.4000000357628","img/flower5.png","76","199.30000001192093","3","1","2","2","1,0,0,1,1,0,1,0,1","0,0,1,1,0,1,0,1,1","2",""
"","html-keyboard-response","246","152573","0.0-246.0","3L4D84MIL0ETRXOTIVL9DP3OOEXHJT","A39SK1E6IMQBD5","3JUDR1D0D6D4CARU3YX9Y3DK5DJ2QK","","null","<img src=""img/flower5.png"" style=""width:200px; border:14px solid green;"">","null","","","","","","","","",""
"","image-keyboard-response","247","152725","0.0-247.0","3L4D84MIL0ETRXOTIVL9DP3OOEXHJT","A39SK1E6IMQBD5","3JUDR1D0D6D4CARU3YX9Y3DK5DJ2QK","","149.9000000357628","img/flower3.png","76","151.89999997615814","3","1","1","2","1,0,0,1,1,0,1,0,1","0,0,1,1,0,1,0,1,1","2",""
"","html-keyboard-response","248","153029","0.0-248.0","3L4D84MIL0ETRXOTIVL9DP3OOEXHJT","A39SK1E6IMQBD5","3JUDR1D0D6D4CARU3YX9Y3DK5DJ2QK","","null","<img src=""img/flower3.png"" style=""width:200px; border:14px solid green;"">","null","","","","","","","","",""
"","image-keyboard-response","249","153182","0.0-249.0","3L4D84MIL0ETRXOTIVL9DP3OOEXHJT","A39SK1E6IMQBD5","3JUDR1D0D6D4CARU3YX9Y3DK5DJ2QK","","150.30000001192093","img/flower1.png","76","153.30000001192093","3","1","3","2","1,0,0,1,1,0,1,0,1","0,0,1,1,0,1,0,1,1","2",""
"","html-keyboard-response","250","153485","0.0-250.0","3L4D84MIL0ETRXOTIVL9DP3OOEXHJT","A39SK1E6IMQBD5","3JUDR1D0D6D4CARU3YX9Y3DK5DJ2QK","","null","<img src=""img/flower1.png"" style=""width:200px; border:14px solid green;"">","null","","","","","","","","",""
"","image-keyboard-response","251","153613","0.0-251.0","3L4D84MIL0ETRXOTIVL9DP3OOEXHJT","A39SK1E6IMQBD5","3JUDR1D0D6D4CARU3YX9Y3DK5DJ2QK","","125.60000002384186","img/flower5.png","76","127.39999997615814","3","1","2","2","1,0,0,1,1,0,1,0,1","0,0,1,1,0,1,0,1,1","2",""
"","html-keyboard-response","252","153918","0.0-252.0","3L4D84MIL0ETRXOTIVL9DP3OOEXHJT","A39SK1E6IMQBD5","3JUDR1D0D6D4CARU3YX9Y3DK5DJ2QK","","null","<img src=""img/flower5.png"" style=""width:200px; border:14px solid green;"">","null","","","","","","","","",""
"","image-keyboard-response","253","154054","0.0-253.0","3L4D84MIL0ETRXOTIVL9DP3OOEXHJT","A39SK1E6IMQBD5","3JUDR1D0D6D4CARU3YX9Y3DK5DJ2QK","","132.20000004768372","img/flower1.png","76","135.0999999642372","3","1","3","2","1,0,0,1,1,0,1,0,1","0,0,1,1,0,1,0,1,1","2",""
"","html-keyboard-response","254","154366","0.0-254.0","3L4D84MIL0ETRXOTIVL9DP3OOEXHJT","A39SK1E6IMQBD5","3JUDR1D0D6D4CARU3YX9Y3DK5DJ2QK","","null","<img src=""img/flower1.png"" style=""width:200px; border:14px solid green;"">","null","","","","","","","","",""
"","image-keyboard-response","255","154494","0.0-255.0","3L4D84MIL0ETRXOTIVL9DP3OOEXHJT","A39SK1E6IMQBD5","3JUDR1D0D6D4CARU3YX9Y3DK5DJ2QK","","124","img/flower5.png","76","126.89999997615814","3","1","2","2","1,0,0,1,1,0,1,0,1","0,0,1,1,0,1,0,1,1","2",""
"","html-keyboard-response","256","154803","0.0-256.0","3L4D84MIL0ETRXOTIVL9DP3OOEXHJT","A39SK1E6IMQBD5","3JUDR1D0D6D4CARU3YX9Y3DK5DJ2QK","","null","<img src=""img/flower5.png"" style=""width:200px; border:14px solid green;"">","null","","","","","","","","",""
"","image-keyboard-response","257","154878","0.0-257.0","3L4D84MIL0ETRXOTIVL9DP3OOEXHJT","A39SK1E6IMQBD5","3JUDR1D0D6D4CARU3YX9Y3DK5DJ2QK","","71.69999998807907","img/flower3.png","76","75","3","1","1","2","1,0,0,1,1,0,1,0,1","0,0,1,1,0,1,0,1,1","2",""
"","html-keyboard-response","258","155185","0.0-258.0","3L4D84MIL0ETRXOTIVL9DP3OOEXHJT","A39SK1E6IMQBD5","3JUDR1D0D6D4CARU3YX9Y3DK5DJ2QK","","null","<img src=""img/flower3.png"" style=""width:200px; border:14px solid green;"">","null","","","","","","","","",""
"","image-keyboard-response","259","155288","0.0-259.0","3L4D84MIL0ETRXOTIVL9DP3OOEXHJT","A39SK1E6IMQBD5","3JUDR1D0D6D4CARU3YX9Y3DK5DJ2QK","","99.69999998807907","img/flower5.png","76","102.09999996423721","3","1","2","2","1,0,0,1,1,0,1,0,1","0,0,1,1,0,1,0,1,1","2",""
"","html-keyboard-response","260","155596","0.0-260.0","3L4D84MIL0ETRXOTIVL9DP3OOEXHJT","A39SK1E6IMQBD5","3JUDR1D0D6D4CARU3YX9Y3DK5DJ2QK","","null","<img src=""img/flower5.png"" style=""width:200px; border:14px solid green;"">","null","","","","","","","","",""
"","image-keyboard-response","261","155717","0.0-261.0","3L4D84MIL0ETRXOTIVL9DP3OOEXHJT","A39SK1E6IMQBD5","3JUDR1D0D6D4CARU3YX9Y3DK5DJ2QK","","118","img/flower1.png","76","121","3","1","3","2","1,0,0,1,1,0,1,0,1","0,0,1,1,0,1,0,1,1","2",""
"","html-keyboard-response","262","156026","0.0-262.0","3L4D84MIL0ETRXOTIVL9DP3OOEXHJT","A39SK1E6IMQBD5","3JUDR1D0D6D4CARU3YX9Y3DK5DJ2QK","","null","<img src=""img/flower1.png"" style=""width:200px; border:14px solid green;"">","null","","","","","","","","",""
"","image-keyboard-response","263","156132","0.0-263.0","3L4D84MIL0ETRXOTIVL9DP3OOEXHJT","A39SK1E6IMQBD5","3JUDR1D0D6D4CARU3YX9Y3DK5DJ2QK","","104.29999995231628","img/flower3.png","76","106","3","1","1","2","1,0,0,1,1,0,1,0,1","0,0,1,1,0,1,0,1,1","2",""
"","html-keyboard-response","264","156440","0.0-264.0","3L4D84MIL0ETRXOTIVL9DP3OOEXHJT","A39SK1E6IMQBD5","3JUDR1D0D6D4CARU3YX9Y3DK5DJ2QK","","null","<img src=""img/flower3.png"" style=""width:200px; border:14px solid green;"">","null","","","","","","","","",""
"","image-keyboard-response","265","156525","0.0-265.0","3L4D84MIL0ETRXOTIVL9DP3OOEXHJT","A39SK1E6IMQBD5","3JUDR1D0D6D4CARU3YX9Y3DK5DJ2QK","","83.09999996423721","img/flower5.png","76","85.09999996423721","3","1","2","2","1,0,0,1,1,0,1,0,1","0,0,1,1,0,1,0,1,1","2",""
"","html-keyboard-response","266","156837","0.0-266.0","3L4D84MIL0ETRXOTIVL9DP3OOEXHJT","A39SK1E6IMQBD5","3JUDR1D0D6D4CARU3YX9Y3DK5DJ2QK","","null","<img src=""img/flower5.png"" style=""width:200px; border:14px solid green;"">","null","","","","","","","","",""
"","image-keyboard-response","267","156926","0.0-267.0","3L4D84MIL0ETRXOTIVL9DP3OOEXHJT","A39SK1E6IMQBD5","3JUDR1D0D6D4CARU3YX9Y3DK5DJ2QK","","85.60000002384186","img/flower1.png","76","88.10000002384186","3","1","3","2","1,0,0,1,1,0,1,0,1","0,0,1,1,0,1,0,1,1","2",""
"","html-keyboard-response","268","157232","0.0-268.0","3L4D84MIL0ETRXOTIVL9DP3OOEXHJT","A39SK1E6IMQBD5","3JUDR1D0D6D4CARU3YX9Y3DK5DJ2QK","","null","<img src=""img/flower1.png"" style=""width:200px; border:14px solid green;"">","null","","","","","","","","",""
"","image-keyboard-response","269","157325","0.0-269.0","3L4D84MIL0ETRXOTIVL9DP3OOEXHJT","A39SK1E6IMQBD5","3JUDR1D0D6D4CARU3YX9Y3DK5DJ2QK","","91.19999998807907","img/flower5.png","76","93.69999998807907","3","1","2","2","1,0,0,1,1,0,1,0,1","0,0,1,1,0,1,0,1,1","2",""
"","html-keyboard-response","270","157629","0.0-270.0","3L4D84MIL0ETRXOTIVL9DP3OOEXHJT","A39SK1E6IMQBD5","3JUDR1D0D6D4CARU3YX9Y3DK5DJ2QK","","null","<img src=""img/flower5.png"" style=""width:200px; border:14px solid green;"">","null","","","","","","","","",""
"","image-keyboard-response","271","157758","0.0-271.0","3L4D84MIL0ETRXOTIVL9DP3OOEXHJT","A39SK1E6IMQBD5","3JUDR1D0D6D4CARU3YX9Y3DK5DJ2QK","","121.40000003576279","img/flower5.png","76","128.5","3","1","2","2","1,0,0,1,1,0,1,0,1","0,0,1,1,0,1,0,1,1","2",""
"","html-keyboard-response","272","158066","0.0-272.0","3L4D84MIL0ETRXOTIVL9DP3OOEXHJT","A39SK1E6IMQBD5","3JUDR1D0D6D4CARU3YX9Y3DK5DJ2QK","","null","<img src=""img/flower5.png"" style=""width:200px; border:14px solid green;"">","null","","","","","","","","",""
"","image-keyboard-response","273","158109","0.0-273.0","3L4D84MIL0ETRXOTIVL9DP3OOEXHJT","A39SK1E6IMQBD5","3JUDR1D0D6D4CARU3YX9Y3DK5DJ2QK","","40.19999998807907","img/flower1.png","76","43","3","1","3","2","1,0,0,1,1,0,1,0,1","0,0,1,1,0,1,0,1,1","2",""
"","html-keyboard-response","274","158416","0.0-274.0","3L4D84MIL0ETRXOTIVL9DP3OOEXHJT","A39SK1E6IMQBD5","3JUDR1D0D6D4CARU3YX9Y3DK5DJ2QK","","null","<img src=""img/flower1.png"" style=""width:200px; border:14px solid green;"">","null","","","","","","","","",""
"","image-keyboard-response","275","158462","0.0-275.0","3L4D84MIL0ETRXOTIVL9DP3OOEXHJT","A39SK1E6IMQBD5","3JUDR1D0D6D4CARU3YX9Y3DK5DJ2QK","","42.30000001192093","img/flower5.png","76","45.09999996423721","3","1","2","2","1,0,0,1,1,0,1,0,1","0,0,1,1,0,1,0,1,1","2",""
"","html-keyboard-response","276","158770","0.0-276.0","3L4D84MIL0ETRXOTIVL9DP3OOEXHJT","A39SK1E6IMQBD5","3JUDR1D0D6D4CARU3YX9Y3DK5DJ2QK","","null","<img src=""img/flower5.png"" style=""width:200px; border:14px solid green;"">","null","","","","","","","","",""
"","image-keyboard-response","277","158885","0.0-277.0","3L4D84MIL0ETRXOTIVL9DP3OOEXHJT","A39SK1E6IMQBD5","3JUDR1D0D6D4CARU3YX9Y3DK5DJ2QK","","113.5","img/flower3.png","76","114.79999995231628","3","1","1","2","1,0,0,1,1,0,1,0,1","0,0,1,1,0,1,0,1,1","2",""
"","html-keyboard-response","278","159192","0.0-278.0","3L4D84MIL0ETRXOTIVL9DP3OOEXHJT","A39SK1E6IMQBD5","3JUDR1D0D6D4CARU3YX9Y3DK5DJ2QK","","null","<img src=""img/flower3.png"" style=""width:200px; border:14px solid green;"">","null","","","","","","","","",""
"","image-keyboard-response","279","159286","0.0-279.0","3L4D84MIL0ETRXOTIVL9DP3OOEXHJT","A39SK1E6IMQBD5","3JUDR1D0D6D4CARU3YX9Y3DK5DJ2QK","","91.89999997615814","img/flower3.png","76","93.69999998807907","3","1","1","2","1,0,0,1,1,0,1,0,1","0,0,1,1,0,1,0,1,1","2",""
"","html-keyboard-response","280","159591","0.0-280.0","3L4D84MIL0ETRXOTIVL9DP3OOEXHJT","A39SK1E6IMQBD5","3JUDR1D0D6D4CARU3YX9Y3DK5DJ2QK","","null","<img src=""img/flower3.png"" style=""width:200px; border:14px solid green;"">","null","","","","","","","","",""
"","image-keyboard-response","281","159629","0.0-281.0","3L4D84MIL0ETRXOTIVL9DP3OOEXHJT","A39SK1E6IMQBD5","3JUDR1D0D6D4CARU3YX9Y3DK5DJ2QK","","35.30000001192093","img/flower3.png","76","37.69999998807907","3","1","1","2","1,0,0,1,1,0,1,0,1","0,0,1,1,0,1,0,1,1","2",""
"","html-keyboard-response","282","159933","0.0-282.0","3L4D84MIL0ETRXOTIVL9DP3OOEXHJT","A39SK1E6IMQBD5","3JUDR1D0D6D4CARU3YX9Y3DK5DJ2QK","","null","<img src=""img/flower3.png"" style=""width:200px; border:14px solid green;"">","null","","","","","","","","",""
"","image-keyboard-response","283","159950","0.0-283.0","3L4D84MIL0ETRXOTIVL9DP3OOEXHJT","A39SK1E6IMQBD5","3JUDR1D0D6D4CARU3YX9Y3DK5DJ2QK","","14.699999988079071","img/flower1.png","76","19.200000047683716","3","1","3","2","1,0,0,1,1,0,1,0,1","0,0,1,1,0,1,0,1,1","2",""
"","html-keyboard-response","284","160265","0.0-284.0","3L4D84MIL0ETRXOTIVL9DP3OOEXHJT","A39SK1E6IMQBD5","3JUDR1D0D6D4CARU3YX9Y3DK5DJ2QK","","null","<img src=""img/flower1.png"" style=""width:200px; border:14px solid green;"">","null","","","","","","","","",""
"","image-keyboard-response","285","160310","0.0-285.0","3L4D84MIL0ETRXOTIVL9DP3OOEXHJT","A39SK1E6IMQBD5","3JUDR1D0D6D4CARU3YX9Y3DK5DJ2QK","","40.5","img/flower5.png","76","43.39999997615814","3","1","2","2","1,0,0,1,1,0,1,0,1","0,0,1,1,0,1,0,1,1","2",""
"","html-keyboard-response","286","160615","0.0-286.0","3L4D84MIL0ETRXOTIVL9DP3OOEXHJT","A39SK1E6IMQBD5","3JUDR1D0D6D4CARU3YX9Y3DK5DJ2QK","","null","<img src=""img/flower5.png"" style=""width:200px; border:14px solid green;"">","null","","","","","","","","",""
"","image-keyboard-response","287","160950","0.0-287.0","3L4D84MIL0ETRXOTIVL9DP3OOEXHJT","A39SK1E6IMQBD5","3JUDR1D0D6D4CARU3YX9Y3DK5DJ2QK","","332.30000001192093","img/flower1.png","76","335","3","1","3","2","1,0,0,1,1,0,1,0,1","0,0,1,1,0,1,0,1,1","2",""
"","html-keyboard-response","288","161256","0.0-288.0","3L4D84MIL0ETRXOTIVL9DP3OOEXHJT","A39SK1E6IMQBD5","3JUDR1D0D6D4CARU3YX9Y3DK5DJ2QK","","null","<img src=""img/flower1.png"" style=""width:200px; border:14px solid green;"">","null","","","","","","","","",""
"","image-keyboard-response","289","161302","0.0-289.0","3L4D84MIL0ETRXOTIVL9DP3OOEXHJT","A39SK1E6IMQBD5","3JUDR1D0D6D4CARU3YX9Y3DK5DJ2QK","","43.19999998807907","img/flower1.png","76","45.5","3","1","3","2","1,0,0,1,1,0,1,0,1","0,0,1,1,0,1,0,1,1","2",""
"","html-keyboard-response","290","161611","0.0-290.0","3L4D84MIL0ETRXOTIVL9DP3OOEXHJT","A39SK1E6IMQBD5","3JUDR1D0D6D4CARU3YX9Y3DK5DJ2QK","","null","<img src=""img/flower1.png"" style=""width:200px; border:14px solid green;"">","null","","","","","","","","",""
"","image-keyboard-response","291","161653","0.0-291.0","3L4D84MIL0ETRXOTIVL9DP3OOEXHJT","A39SK1E6IMQBD5","3JUDR1D0D6D4CARU3YX9Y3DK5DJ2QK","","40.5","img/flower5.png","76","42.59999996423721","3","1","2","2","1,0,0,1,1,0,1,0,1","0,0,1,1,0,1,0,1,1","2",""
"","html-keyboard-response","292","161961","0.0-292.0","3L4D84MIL0ETRXOTIVL9DP3OOEXHJT","A39SK1E6IMQBD5","3JUDR1D0D6D4CARU3YX9Y3DK5DJ2QK","","null","<img src=""img/flower5.png"" style=""width:200px; border:14px solid green;"">","null","","","","","","","","",""
"","image-keyboard-response","293","161973","0.0-293.0","3L4D84MIL0ETRXOTIVL9DP3OOEXHJT","A39SK1E6IMQBD5","3JUDR1D0D6D4CARU3YX9Y3DK5DJ2QK","","9.099999964237213","img/flower3.png","76","10.799999952316284","3","1","1","2","1,0,0,1,1,0,1,0,1","0,0,1,1,0,1,0,1,1","2",""
"","html-keyboard-response","294","162282","0.0-294.0","3L4D84MIL0ETRXOTIVL9DP3OOEXHJT","A39SK1E6IMQBD5","3JUDR1D0D6D4CARU3YX9Y3DK5DJ2QK","","null","<img src=""img/flower3.png"" style=""width:200px; border:14px solid green;"">","null","","","","","","","","",""
"","image-keyboard-response","295","162318","0.0-295.0","3L4D84MIL0ETRXOTIVL9DP3OOEXHJT","A39SK1E6IMQBD5","3JUDR1D0D6D4CARU3YX9Y3DK5DJ2QK","","33.5","img/flower3.png","76","35.39999997615814","3","1","1","2","1,0,0,1,1,0,1,0,1","0,0,1,1,0,1,0,1,1","2",""
"","html-keyboard-response","296","162624","0.0-296.0","3L4D84MIL0ETRXOTIVL9DP3OOEXHJT","A39SK1E6IMQBD5","3JUDR1D0D6D4CARU3YX9Y3DK5DJ2QK","","null","<img src=""img/flower3.png"" style=""width:200px; border:14px solid green;"">","null","","","","","","","","",""
"","image-keyboard-response","297","162901","0.0-297.0","3L4D84MIL0ETRXOTIVL9DP3OOEXHJT","A39SK1E6IMQBD5","3JUDR1D0D6D4CARU3YX9Y3DK5DJ2QK","","275.5","img/flower1.png","76","277","3","1","3","2","1,0,0,1,1,0,1,0,1","0,0,1,1,0,1,0,1,1","2",""
"","html-keyboard-response","298","163208","0.0-298.0","3L4D84MIL0ETRXOTIVL9DP3OOEXHJT","A39SK1E6IMQBD5","3JUDR1D0D6D4CARU3YX9Y3DK5DJ2QK","","null","<img src=""img/flower1.png"" style=""width:200px; border:14px solid green;"">","null","","","","","","","","",""
"","image-keyboard-response","299","163269","0.0-299.0","3L4D84MIL0ETRXOTIVL9DP3OOEXHJT","A39SK1E6IMQBD5","3JUDR1D0D6D4CARU3YX9Y3DK5DJ2QK","","58.80000001192093","img/flower5.png","76","60.69999998807907","3","1","2","2","1,0,0,1,1,0,1,0,1","0,0,1,1,0,1,0,1,1","2",""
"","html-keyboard-response","300","163579","0.0-300.0","3L4D84MIL0ETRXOTIVL9DP3OOEXHJT","A39SK1E6IMQBD5","3JUDR1D0D6D4CARU3YX9Y3DK5DJ2QK","","null","<img src=""img/flower5.png"" style=""width:200px; border:14px solid green;"">","null","","","","","","","","",""
"","image-keyboard-response","301","163604","0.0-301.0","3L4D84MIL0ETRXOTIVL9DP3OOEXHJT","A39SK1E6IMQBD5","3JUDR1D0D6D4CARU3YX9Y3DK5DJ2QK","","20.900000035762787","img/flower3.png","76","24.700000047683716","3","1","1","2","1,0,0,1,1,0,1,0,1","0,0,1,1,0,1,0,1,1","2",""
"","html-keyboard-response","302","163913","0.0-302.0","3L4D84MIL0ETRXOTIVL9DP3OOEXHJT","A39SK1E6IMQBD5","3JUDR1D0D6D4CARU3YX9Y3DK5DJ2QK","","null","<img src=""img/flower3.png"" style=""width:200px; border:14px solid green;"">","null","","","","","","","","",""
"","image-keyboard-response","303","163950","0.0-303.0","3L4D84MIL0ETRXOTIVL9DP3OOEXHJT","A39SK1E6IMQBD5","3JUDR1D0D6D4CARU3YX9Y3DK5DJ2QK","","33.40000003576279","img/flower3.png","76","36.5","3","1","1","2","1,0,0,1,1,0,1,0,1","0,0,1,1,0,1,0,1,1","2",""
"","html-keyboard-response","304","164267","0.0-304.0","3L4D84MIL0ETRXOTIVL9DP3OOEXHJT","A39SK1E6IMQBD5","3JUDR1D0D6D4CARU3YX9Y3DK5DJ2QK","","null","<img src=""img/flower3.png"" style=""width:200px; border:14px solid green;"">","null","","","","","","","","",""
"","image-keyboard-response","305","164300","0.0-305.0","3L4D84MIL0ETRXOTIVL9DP3OOEXHJT","A39SK1E6IMQBD5","3JUDR1D0D6D4CARU3YX9Y3DK5DJ2QK","","31.69999998807907","img/flower3.png","76","32.700000047683716","3","1","1","2","1,0,0,1,1,0,1,0,1","0,0,1,1,0,1,0,1,1","2",""
"","html-keyboard-response","306","164603","0.0-306.0","3L4D84MIL0ETRXOTIVL9DP3OOEXHJT","A39SK1E6IMQBD5","3JUDR1D0D6D4CARU3YX9Y3DK5DJ2QK","","null","<img src=""img/flower3.png"" style=""width:200px; border:14px solid green;"">","null","","","","","","","","",""
"","image-keyboard-response","307","164612","0.0-307.0","3L4D84MIL0ETRXOTIVL9DP3OOEXHJT","A39SK1E6IMQBD5","3JUDR1D0D6D4CARU3YX9Y3DK5DJ2QK","","8","img/flower5.png","76","9.100000023841858","3","1","2","2","1,0,0,1,1,0,1,0,1","0,0,1,1,0,1,0,1,1","2",""
"","html-keyboard-response","308","164916","0.0-308.0","3L4D84MIL0ETRXOTIVL9DP3OOEXHJT","A39SK1E6IMQBD5","3JUDR1D0D6D4CARU3YX9Y3DK5DJ2QK","","null","<img src=""img/flower5.png"" style=""width:200px; border:14px solid green;"">","null","","","","","","","","",""
"","image-keyboard-response","309","164950","0.0-309.0","3L4D84MIL0ETRXOTIVL9DP3OOEXHJT","A39SK1E6IMQBD5","3JUDR1D0D6D4CARU3YX9Y3DK5DJ2QK","","31.400000035762787","img/flower5.png","76","33.80000001192093","3","1","2","2","1,0,0,1,1,0,1,0,1","0,0,1,1,0,1,0,1,1","2",""
"","html-keyboard-response","310","165255","0.0-310.0","3L4D84MIL0ETRXOTIVL9DP3OOEXHJT","A39SK1E6IMQBD5","3JUDR1D0D6D4CARU3YX9Y3DK5DJ2QK","","null","<img src=""img/flower5.png"" style=""width:200px; border:14px solid green;"">","null","","","","","","","","",""
"","image-keyboard-response","311","165276","0.0-311.0","3L4D84MIL0ETRXOTIVL9DP3OOEXHJT","A39SK1E6IMQBD5","3JUDR1D0D6D4CARU3YX9Y3DK5DJ2QK","","20","img/flower3.png","76","21.30000001192093","3","1","1","2","1,0,0,1,1,0,1,0,1","0,0,1,1,0,1,0,1,1","2",""
"","html-keyboard-response","312","165585","0.0-312.0","3L4D84MIL0ETRXOTIVL9DP3OOEXHJT","A39SK1E6IMQBD5","3JUDR1D0D6D4CARU3YX9Y3DK5DJ2QK","","null","<img src=""img/flower3.png"" style=""width:200px; border:14px solid green;"">","null","","","","","","","","",""
"","image-keyboard-response","313","165612","0.0-313.0","3L4D84MIL0ETRXOTIVL9DP3OOEXHJT","A39SK1E6IMQBD5","3JUDR1D0D6D4CARU3YX9Y3DK5DJ2QK","","26","img/flower5.png","76","27.19999998807907","3","1","2","2","1,0,0,1,1,0,1,0,1","0,0,1,1,0,1,0,1,1","2",""
"","html-keyboard-response","314","165920","0.0-314.0","3L4D84MIL0ETRXOTIVL9DP3OOEXHJT","A39SK1E6IMQBD5","3JUDR1D0D6D4CARU3YX9Y3DK5DJ2QK","","null","<img src=""img/flower5.png"" style=""width:200px; border:14px solid green;"">","null","","","","","","","","",""
"","image-keyboard-response","315","165972","0.0-315.0","3L4D84MIL0ETRXOTIVL9DP3OOEXHJT","A39SK1E6IMQBD5","3JUDR1D0D6D4CARU3YX9Y3DK5DJ2QK","","49.80000001192093","img/flower3.png","76","51.60000002384186","3","1","1","2","1,0,0,1,1,0,1,0,1","0,0,1,1,0,1,0,1,1","2",""
"","html-keyboard-response","316","166277","0.0-316.0","3L4D84MIL0ETRXOTIVL9DP3OOEXHJT","A39SK1E6IMQBD5","3JUDR1D0D6D4CARU3YX9Y3DK5DJ2QK","","null","<img src=""img/flower3.png"" style=""width:200px; border:14px solid green;"">","null","","","","","","","","",""
"","image-keyboard-response","317","166518","0.0-317.0","3L4D84MIL0ETRXOTIVL9DP3OOEXHJT","A39SK1E6IMQBD5","3JUDR1D0D6D4CARU3YX9Y3DK5DJ2QK","","239.30000001192093","img/flower3.png","76","240.89999997615814","3","1","1","2","1,0,0,1,1,0,1,0,1","0,0,1,1,0,1,0,1,1","2",""
"","html-keyboard-response","318","166828","0.0-318.0","3L4D84MIL0ETRXOTIVL9DP3OOEXHJT","A39SK1E6IMQBD5","3JUDR1D0D6D4CARU3YX9Y3DK5DJ2QK","","null","<img src=""img/flower3.png"" style=""width:200px; border:14px solid green;"">","null","","","","","","","","",""
"","image-keyboard-response","319","166870","0.0-319.0","3L4D84MIL0ETRXOTIVL9DP3OOEXHJT","A39SK1E6IMQBD5","3JUDR1D0D6D4CARU3YX9Y3DK5DJ2QK","","39.60000002384186","img/flower1.png","76","41.89999997615814","3","1","3","2","1,0,0,1,1,0,1,0,1","0,0,1,1,0,1,0,1,1","2",""
"","html-keyboard-response","320","167176","0.0-320.0","3L4D84MIL0ETRXOTIVL9DP3OOEXHJT","A39SK1E6IMQBD5","3JUDR1D0D6D4CARU3YX9Y3DK5DJ2QK","","null","<img src=""img/flower1.png"" style=""width:200px; border:14px solid green;"">","null","","","","","","","","",""
"","image-keyboard-response","321","167302","0.0-321.0","3L4D84MIL0ETRXOTIVL9DP3OOEXHJT","A39SK1E6IMQBD5","3JUDR1D0D6D4CARU3YX9Y3DK5DJ2QK","","123.29999995231628","img/flower3.png","76","125.30000001192093","3","1","1","2","1,0,0,1,1,0,1,0,1","0,0,1,1,0,1,0,1,1","2",""
"","html-keyboard-response","322","167620","0.0-322.0","3L4D84MIL0ETRXOTIVL9DP3OOEXHJT","A39SK1E6IMQBD5","3JUDR1D0D6D4CARU3YX9Y3DK5DJ2QK","","null","<img src=""img/flower3.png"" style=""width:200px; border:14px solid green;"">","null","","","","","","","","",""
"","image-keyboard-response","323","167669","0.0-323.0","3L4D84MIL0ETRXOTIVL9DP3OOEXHJT","A39SK1E6IMQBD5","3JUDR1D0D6D4CARU3YX9Y3DK5DJ2QK","","48.19999998807907","img/flower3.png","76","49.39999997615814","3","1","1","2","1,0,0,1,1,0,1,0,1","0,0,1,1,0,1,0,1,1","2",""
"","html-keyboard-response","324","167973","0.0-324.0","3L4D84MIL0ETRXOTIVL9DP3OOEXHJT","A39SK1E6IMQBD5","3JUDR1D0D6D4CARU3YX9Y3DK5DJ2QK","","null","<img src=""img/flower3.png"" style=""width:200px; border:14px solid green;"">","null","","","","","","","","",""
"","image-keyboard-response","325","168000","0.0-325.0","3L4D84MIL0ETRXOTIVL9DP3OOEXHJT","A39SK1E6IMQBD5","3JUDR1D0D6D4CARU3YX9Y3DK5DJ2QK","","24.799999952316284","img/flower1.png","76","27","3","1","3","2","1,0,0,1,1,0,1,0,1","0,0,1,1,0,1,0,1,1","2",""
"","html-keyboard-response","326","168307","0.0-326.0","3L4D84MIL0ETRXOTIVL9DP3OOEXHJT","A39SK1E6IMQBD5","3JUDR1D0D6D4CARU3YX9Y3DK5DJ2QK","","null","<img src=""img/flower1.png"" style=""width:200px; border:14px solid green;"">","null","","","","","","","","",""
"","image-keyboard-response","327","168344","0.0-327.0","3L4D84MIL0ETRXOTIVL9DP3OOEXHJT","A39SK1E6IMQBD5","3JUDR1D0D6D4CARU3YX9Y3DK5DJ2QK","","34.09999996423721","img/flower3.png","76","37","3","1","1","2","1,0,0,1,1,0,1,0,1","0,0,1,1,0,1,0,1,1","2",""
"","html-keyboard-response","328","168653","0.0-328.0","3L4D84MIL0ETRXOTIVL9DP3OOEXHJT","A39SK1E6IMQBD5","3JUDR1D0D6D4CARU3YX9Y3DK5DJ2QK","","null","<img src=""img/flower3.png"" style=""width:200px; border:14px solid green;"">","null","","","","","","","","",""
"","image-keyboard-response","329","168719","0.0-329.0","3L4D84MIL0ETRXOTIVL9DP3OOEXHJT","A39SK1E6IMQBD5","3JUDR1D0D6D4CARU3YX9Y3DK5DJ2QK","","64.30000001192093","img/flower3.png","76","65.69999998807907","3","1","1","2","1,0,0,1,1,0,1,0,1","0,0,1,1,0,1,0,1,1","2",""
"","html-keyboard-response","330","169024","0.0-330.0","3L4D84MIL0ETRXOTIVL9DP3OOEXHJT","A39SK1E6IMQBD5","3JUDR1D0D6D4CARU3YX9Y3DK5DJ2QK","","null","<img src=""img/flower3.png"" style=""width:200px; border:14px solid green;"">","null","","","","","","","","",""
"","image-keyboard-response","331","169054","0.0-331.0","3L4D84MIL0ETRXOTIVL9DP3OOEXHJT","A39SK1E6IMQBD5","3JUDR1D0D6D4CARU3YX9Y3DK5DJ2QK","","27.600000023841858","img/flower3.png","76","29.5","3","1","1","2","1,0,0,1,1,0,1,0,1","0,0,1,1,0,1,0,1,1","2",""
"","html-keyboard-response","332","169362","0.0-332.0","3L4D84MIL0ETRXOTIVL9DP3OOEXHJT","A39SK1E6IMQBD5","3JUDR1D0D6D4CARU3YX9Y3DK5DJ2QK","","null","<img src=""img/flower3.png"" style=""width:200px; border:14px solid green;"">","null","","","","","","","","",""
"","image-keyboard-response","333","169383","0.0-333.0","3L4D84MIL0ETRXOTIVL9DP3OOEXHJT","A39SK1E6IMQBD5","3JUDR1D0D6D4CARU3YX9Y3DK5DJ2QK","","18","img/flower1.png","76","20.30000001192093","3","1","3","2","1,0,0,1,1,0,1,0,1","0,0,1,1,0,1,0,1,1","2",""
"","html-keyboard-response","334","169690","0.0-334.0","3L4D84MIL0ETRXOTIVL9DP3OOEXHJT","A39SK1E6IMQBD5","3JUDR1D0D6D4CARU3YX9Y3DK5DJ2QK","","null","<img src=""img/flower1.png"" style=""width:200px; border:14px solid green;"">","null","","","","","","","","",""
"","image-keyboard-response","335","169725","0.0-335.0","3L4D84MIL0ETRXOTIVL9DP3OOEXHJT","A39SK1E6IMQBD5","3JUDR1D0D6D4CARU3YX9Y3DK5DJ2QK","","34.200000047683716","img/flower1.png","76","35.60000002384186","3","1","3","2","1,0,0,1,1,0,1,0,1","0,0,1,1,0,1,0,1,1","2",""
"","html-keyboard-response","336","170030","0.0-336.0","3L4D84MIL0ETRXOTIVL9DP3OOEXHJT","A39SK1E6IMQBD5","3JUDR1D0D6D4CARU3YX9Y3DK5DJ2QK","","null","<img src=""img/flower1.png"" style=""width:200px; border:14px solid green;"">","null","","","","","","","","",""
"","image-keyboard-response","337","170335","0.0-337.0","3L4D84MIL0ETRXOTIVL9DP3OOEXHJT","A39SK1E6IMQBD5","3JUDR1D0D6D4CARU3YX9Y3DK5DJ2QK","","301.2000000476837","img/flower1.png","76","304","3","1","3","2","1,0,0,1,1,0,1,0,1","0,0,1,1,0,1,0,1,1","2",""
"","html-keyboard-response","338","170638","0.0-338.0","3L4D84MIL0ETRXOTIVL9DP3OOEXHJT","A39SK1E6IMQBD5","3JUDR1D0D6D4CARU3YX9Y3DK5DJ2QK","","null","<img src=""img/flower1.png"" style=""width:200px; border:14px solid green;"">","null","","","","","","","","",""
"","image-keyboard-response","339","170726","0.0-339.0","3L4D84MIL0ETRXOTIVL9DP3OOEXHJT","A39SK1E6IMQBD5","3JUDR1D0D6D4CARU3YX9Y3DK5DJ2QK","","86.89999997615814","img/flower3.png","76","88","3","1","1","2","1,0,0,1,1,0,1,0,1","0,0,1,1,0,1,0,1,1","2",""
"","html-keyboard-response","340","171037","0.0-340.0","3L4D84MIL0ETRXOTIVL9DP3OOEXHJT","A39SK1E6IMQBD5","3JUDR1D0D6D4CARU3YX9Y3DK5DJ2QK","","null","<img src=""img/flower3.png"" style=""width:200px; border:14px solid green;"">","null","","","","","","","","",""
"","image-keyboard-response","341","171126","0.0-341.0","3L4D84MIL0ETRXOTIVL9DP3OOEXHJT","A39SK1E6IMQBD5","3JUDR1D0D6D4CARU3YX9Y3DK5DJ2QK","","85.39999997615814","img/flower5.png","76","87.80000001192093","3","1","2","2","1,0,0,1,1,0,1,0,1","0,0,1,1,0,1,0,1,1","2",""
"","html-keyboard-response","342","171443","0.0-342.0","3L4D84MIL0ETRXOTIVL9DP3OOEXHJT","A39SK1E6IMQBD5","3JUDR1D0D6D4CARU3YX9Y3DK5DJ2QK","","null","<img src=""img/flower5.png"" style=""width:200px; border:14px solid green;"">","null","","","","","","","","",""
"","image-keyboard-response","343","171518","0.0-343.0","3L4D84MIL0ETRXOTIVL9DP3OOEXHJT","A39SK1E6IMQBD5","3JUDR1D0D6D4CARU3YX9Y3DK5DJ2QK","","72.30000001192093","img/flower3.png","76","73.79999995231628","3","1","1","2","1,0,0,1,1,0,1,0,1","0,0,1,1,0,1,0,1,1","2",""
"","html-keyboard-response","344","171827","0.0-344.0","3L4D84MIL0ETRXOTIVL9DP3OOEXHJT","A39SK1E6IMQBD5","3JUDR1D0D6D4CARU3YX9Y3DK5DJ2QK","","null","<img src=""img/flower3.png"" style=""width:200px; border:14px solid green;"">","null","","","","","","","","",""
"","image-keyboard-response","345","171862","0.0-345.0","3L4D84MIL0ETRXOTIVL9DP3OOEXHJT","A39SK1E6IMQBD5","3JUDR1D0D6D4CARU3YX9Y3DK5DJ2QK","","32.700000047683716","img/flower5.png","76","34.39999997615814","3","1","2","2","1,0,0,1,1,0,1,0,1","0,0,1,1,0,1,0,1,1","2",""
"","html-keyboard-response","346","172167","0.0-346.0","3L4D84MIL0ETRXOTIVL9DP3OOEXHJT","A39SK1E6IMQBD5","3JUDR1D0D6D4CARU3YX9Y3DK5DJ2QK","","null","<img src=""img/flower5.png"" style=""width:200px; border:14px solid green;"">","null","","","","","","","","",""
"","image-keyboard-response","347","172215","0.0-347.0","3L4D84MIL0ETRXOTIVL9DP3OOEXHJT","A39SK1E6IMQBD5","3JUDR1D0D6D4CARU3YX9Y3DK5DJ2QK","","46","img/flower5.png","76","48.30000001192093","3","1","2","2","1,0,0,1,1,0,1,0,1","0,0,1,1,0,1,0,1,1","2",""
"","html-keyboard-response","348","172523","0.0-348.0","3L4D84MIL0ETRXOTIVL9DP3OOEXHJT","A39SK1E6IMQBD5","3JUDR1D0D6D4CARU3YX9Y3DK5DJ2QK","","null","<img src=""img/flower5.png"" style=""width:200px; border:14px solid green;"">","null","","","","","","","","",""
"","image-keyboard-response","349","172553","0.0-349.0","3L4D84MIL0ETRXOTIVL9DP3OOEXHJT","A39SK1E6IMQBD5","3JUDR1D0D6D4CARU3YX9Y3DK5DJ2QK","","27.30000001192093","img/flower5.png","76","29.600000023841858","3","1","2","2","1,0,0,1,1,0,1,0,1","0,0,1,1,0,1,0,1,1","2",""
"","html-keyboard-response","350","172865","0.0-350.0","3L4D84MIL0ETRXOTIVL9DP3OOEXHJT","A39SK1E6IMQBD5","3JUDR1D0D6D4CARU3YX9Y3DK5DJ2QK","","null","<img src=""img/flower5.png"" style=""width:200px; border:14px solid green;"">","null","","","","","","","","",""
"","image-keyboard-response","351","173014","0.0-351.0","3L4D84MIL0ETRXOTIVL9DP3OOEXHJT","A39SK1E6IMQBD5","3JUDR1D0D6D4CARU3YX9Y3DK5DJ2QK","","145.69999998807907","img/flower1.png","76","148","3","1","3","2","1,0,0,1,1,0,1,0,1","0,0,1,1,0,1,0,1,1","2",""
"","html-keyboard-response","352","173327","0.0-352.0","3L4D84MIL0ETRXOTIVL9DP3OOEXHJT","A39SK1E6IMQBD5","3JUDR1D0D6D4CARU3YX9Y3DK5DJ2QK","","null","<img src=""img/flower1.png"" style=""width:200px; border:14px solid green;"">","null","","","","","","","","",""
"","image-keyboard-response","353","173413","0.0-353.0","3L4D84MIL0ETRXOTIVL9DP3OOEXHJT","A39SK1E6IMQBD5","3JUDR1D0D6D4CARU3YX9Y3DK5DJ2QK","","84.5","img/flower5.png","76","86","3","1","2","2","1,0,0,1,1,0,1,0,1","0,0,1,1,0,1,0,1,1","2",""
"","html-keyboard-response","354","173717","0.0-354.0","3L4D84MIL0ETRXOTIVL9DP3OOEXHJT","A39SK1E6IMQBD5","3JUDR1D0D6D4CARU3YX9Y3DK5DJ2QK","","null","<img src=""img/flower5.png"" style=""width:200px; border:14px solid green;"">","null","","","","","","","","",""
"","image-keyboard-response","355","173751","0.0-355.0","3L4D84MIL0ETRXOTIVL9DP3OOEXHJT","A39SK1E6IMQBD5","3JUDR1D0D6D4CARU3YX9Y3DK5DJ2QK","","31.80000001192093","img/flower1.png","76","34","3","1","3","2","1,0,0,1,1,0,1,0,1","0,0,1,1,0,1,0,1,1","2",""
"","html-keyboard-response","356","174057","0.0-356.0","3L4D84MIL0ETRXOTIVL9DP3OOEXHJT","A39SK1E6IMQBD5","3JUDR1D0D6D4CARU3YX9Y3DK5DJ2QK","","null","<img src=""img/flower1.png"" style=""width:200px; border:14px solid green;"">","null","","","","","","","","",""
"","image-keyboard-response","357","174158","0.0-357.0","3L4D84MIL0ETRXOTIVL9DP3OOEXHJT","A39SK1E6IMQBD5","3JUDR1D0D6D4CARU3YX9Y3DK5DJ2QK","","98.20000004768372","img/flower5.png","76","100.5","3","1","2","2","1,0,0,1,1,0,1,0,1","0,0,1,1,0,1,0,1,1","2",""
"","html-keyboard-response","358","174468","0.0-358.0","3L4D84MIL0ETRXOTIVL9DP3OOEXHJT","A39SK1E6IMQBD5","3JUDR1D0D6D4CARU3YX9Y3DK5DJ2QK","","null","<img src=""img/flower5.png"" style=""width:200px; border:14px solid green;"">","null","","","","","","","","",""
"","image-keyboard-response","359","174557","0.0-359.0","3L4D84MIL0ETRXOTIVL9DP3OOEXHJT","A39SK1E6IMQBD5","3JUDR1D0D6D4CARU3YX9Y3DK5DJ2QK","","86.80000001192093","img/flower1.png","76","89.20000004768372","3","1","3","2","1,0,0,1,1,0,1,0,1","0,0,1,1,0,1,0,1,1","2",""
"","html-keyboard-response","360","174876","0.0-360.0","3L4D84MIL0ETRXOTIVL9DP3OOEXHJT","A39SK1E6IMQBD5","3JUDR1D0D6D4CARU3YX9Y3DK5DJ2QK","","null","<img src=""img/flower1.png"" style=""width:200px; border:14px solid green;"">","null","","","","","","","","",""
"","image-keyboard-response","361","174894","0.0-361.0","3L4D84MIL0ETRXOTIVL9DP3OOEXHJT","A39SK1E6IMQBD5","3JUDR1D0D6D4CARU3YX9Y3DK5DJ2QK","","15.899999976158142","img/flower1.png","76","18.100000023841858","3","1","3","2","1,0,0,1,1,0,1,0,1","0,0,1,1,0,1,0,1,1","2",""
"","html-keyboard-response","362","175208","0.0-362.0","3L4D84MIL0ETRXOTIVL9DP3OOEXHJT","A39SK1E6IMQBD5","3JUDR1D0D6D4CARU3YX9Y3DK5DJ2QK","","null","<img src=""img/flower1.png"" style=""width:200px; border:14px solid green;"">","null","","","","","","","","",""
"","instructions","363","177828","0.0-363.0","3L4D84MIL0ETRXOTIVL9DP3OOEXHJT","A39SK1E6IMQBD5","3JUDR1D0D6D4CARU3YX9Y3DK5DJ2QK","[{""page_index"":0,""viewing_time"":2618}]","2619.099999964237","","","","","","","","","","",""
