"rt","url","trial_type","trial_index","time_elapsed","internal_node_id","assignmentID","mturkID","hitID","success","view_history","stimulus","key_press","reactionTime","chosenAction","reward","responses"
"22975.20000001788","consent.html","external-html","0","23142","0.0-0.0","3C44YUNSI2B81SMPRC73J0A218ZDPB","A3AU8PZ6HHBCVT","39WSF6KUV27TMEQUH506BZR9N6KEO1","","","","","","","",""
"","","fullscreen","1","26867","0.0-1.0","3C44YUNSI2B81SMPRC73J0A218ZDPB","A3AU8PZ6HHBCVT","39WSF6KUV27TMEQUH506BZR9N6KEO1","true","","","","","","",""
"367586.3000000119","","instructions","2","394466","0.0-2.0","3C44YUNSI2B81SMPRC73J0A218ZDPB","A3AU8PZ6HHBCVT","39WSF6KUV27TMEQUH506BZR9N6KEO1","","[{""page_index"":0,""viewing_time"":5301.5},{""page_index"":1,""viewing_time"":302771.1999999881},{""page_index"":2,""viewing_time"":5424.300000011921},{""page_index"":3,""viewing_time"":7711.9000000059605},{""page_index"":4,""viewing_time"":34884.40000000596},{""page_index"":5,""viewing_time"":7111.799999982119},{""page_index"":6,""viewing_time"":4377.0999999940395}]","","","","","",""
"14051.90000000596","","instructions","3","408524","0.0-3.0","3C44YUNSI2B81SMPRC73J0A218ZDPB","A3AU8PZ6HHBCVT","39WSF6KUV27TMEQUH506BZR9N6KEO1","","[{""page_index"":0,""viewing_time"":14048.800000011921}]","","","","","",""
"1165.5","","image-keyboard-response","4","409696","0.0-4.0","3C44YUNSI2B81SMPRC73J0A218ZDPB","A3AU8PZ6HHBCVT","39WSF6KUV27TMEQUH506BZR9N6KEO1","","","img/flower6.png","76","1171","76","1",""
"null","","html-keyboard-response","5","410005","0.0-5.0","3C44YUNSI2B81SMPRC73J0A218ZDPB","A3AU8PZ6HHBCVT","39WSF6KUV27TMEQUH506BZR9N6KEO1","","","<img src=""img/flower6.png"" style=""width:200px; border:14px solid green;"">","null","","","",""
"2024.0999999940395","","image-keyboard-response","6","412041","0.0-6.0","3C44YUNSI2B81SMPRC73J0A218ZDPB","A3AU8PZ6HHBCVT","39WSF6KUV27TMEQUH506BZR9N6KEO1","","","img/flower6.png","76","2033.300000011921","76","1",""
"null","","html-keyboard-response","7","412351","0.0-7.0","3C44YUNSI2B81SMPRC73J0A218ZDPB","A3AU8PZ6HHBCVT","39WSF6KUV27TMEQUH506BZR9N6KEO1","","","<img src=""img/flower6.png"" style=""width:200px; border:14px solid green;"">","null","","","",""
"1633.7999999821186","","image-keyboard-response","8","413996","0.0-8.0","3C44YUNSI2B81SMPRC73J0A218ZDPB","A3AU8PZ6HHBCVT","39WSF6KUV27TMEQUH506BZR9N6KEO1","","","img/flower5.png","75","1639.7000000178814","75","0",""
"null","","html-keyboard-response","9","414301","0.0-9.0","3C44YUNSI2B81SMPRC73J0A218ZDPB","A3AU8PZ6HHBCVT","39WSF6KUV27TMEQUH506BZR9N6KEO1","","","<img src=""img/flower5.png"" style=""width:200px;border:14px solid red;"">","null","","","",""
"1369.3999999761581","","image-keyboard-response","10","415681","0.0-10.0","3C44YUNSI2B81SMPRC73J0A218ZDPB","A3AU8PZ6HHBCVT","39WSF6KUV27TMEQUH506BZR9N6KEO1","","","img/flower5.png","74","1376.800000011921","74","0",""
"null","","html-keyboard-response","11","415986","0.0-11.0","3C44YUNSI2B81SMPRC73J0A218ZDPB","A3AU8PZ6HHBCVT","39WSF6KUV27TMEQUH506BZR9N6KEO1","","","<img src=""img/flower5.png"" style=""width:200px;border:14px solid red;"">","null","","","",""
"1953.199999988079","","image-keyboard-response","12","417942","0.0-12.0","3C44YUNSI2B81SMPRC73J0A218ZDPB","A3AU8PZ6HHBCVT","39WSF6KUV27TMEQUH506BZR9N6KEO1","","","img/flower4.png","74","1956","74","1",""
"null","","html-keyboard-response","13","418250","0.0-13.0","3C44YUNSI2B81SMPRC73J0A218ZDPB","A3AU8PZ6HHBCVT","39WSF6KUV27TMEQUH506BZR9N6KEO1","","","<img src=""img/flower4.png"" style=""width:200px; border:14px solid green;"">","null","","","",""
"1836.4000000059605","","image-keyboard-response","14","420093","0.0-14.0","3C44YUNSI2B81SMPRC73J0A218ZDPB","A3AU8PZ6HHBCVT","39WSF6KUV27TMEQUH506BZR9N6KEO1","","","img/flower4.png","74","1841.0999999940395","74","1",""
"null","","html-keyboard-response","15","420401","0.0-15.0","3C44YUNSI2B81SMPRC73J0A218ZDPB","A3AU8PZ6HHBCVT","39WSF6KUV27TMEQUH506BZR9N6KEO1","","","<img src=""img/flower4.png"" style=""width:200px; border:14px solid green;"">","null","","","",""
"769.4000000059605","","image-keyboard-response","16","421179","0.0-16.0","3C44YUNSI2B81SMPRC73J0A218ZDPB","A3AU8PZ6HHBCVT","39WSF6KUV27TMEQUH506BZR9N6KEO1","","","img/flower4.png","74","776.6999999880791","74","0",""
"null","","html-keyboard-response","17","421489","0.0-17.0","3C44YUNSI2B81SMPRC73J0A218ZDPB","A3AU8PZ6HHBCVT","39WSF6KUV27TMEQUH506BZR9N6KEO1","","","<img src=""img/flower4.png"" style=""width:200px;border:14px solid red;"">","null","","","",""
"944","","image-keyboard-response","18","422443","0.0-18.0","3C44YUNSI2B81SMPRC73J0A218ZDPB","A3AU8PZ6HHBCVT","39WSF6KUV27TMEQUH506BZR9N6KEO1","","","img/flower4.png","75","951.9000000059605","75","0",""
"null","","html-keyboard-response","19","422749","0.0-19.0","3C44YUNSI2B81SMPRC73J0A218ZDPB","A3AU8PZ6HHBCVT","39WSF6KUV27TMEQUH506BZR9N6KEO1","","","<img src=""img/flower4.png"" style=""width:200px;border:14px solid red;"">","null","","","",""
"229.39999997615814","","image-keyboard-response","20","422983","0.0-20.0","3C44YUNSI2B81SMPRC73J0A218ZDPB","A3AU8PZ6HHBCVT","39WSF6KUV27TMEQUH506BZR9N6KEO1","","","img/flower4.png","76","232.90000000596046","76","0",""
"null","","html-keyboard-response","21","423288","0.0-21.0","3C44YUNSI2B81SMPRC73J0A218ZDPB","A3AU8PZ6HHBCVT","39WSF6KUV27TMEQUH506BZR9N6KEO1","","","<img src=""img/flower4.png"" style=""width:200px;border:14px solid red;"">","null","","","",""
"200.69999998807907","","image-keyboard-response","22","423499","0.0-22.0","3C44YUNSI2B81SMPRC73J0A218ZDPB","A3AU8PZ6HHBCVT","39WSF6KUV27TMEQUH506BZR9N6KEO1","","","img/flower4.png","74","209.2999999821186","74","1",""
"null","","html-keyboard-response","23","423806","0.0-23.0","3C44YUNSI2B81SMPRC73J0A218ZDPB","A3AU8PZ6HHBCVT","39WSF6KUV27TMEQUH506BZR9N6KEO1","","","<img src=""img/flower4.png"" style=""width:200px; border:14px solid green;"">","null","","","",""
"815.7999999821186","","image-keyboard-response","24","424629","0.0-24.0","3C44YUNSI2B81SMPRC73J0A218ZDPB","A3AU8PZ6HHBCVT","39WSF6KUV27TMEQUH506BZR9N6KEO1","","","img/flower4.png","74","822.1999999880791","74","1",""
"null","","html-keyboard-response","25","424935","0.0-25.0","3C44YUNSI2B81SMPRC73J0A218ZDPB","A3AU8PZ6HHBCVT","39WSF6KUV27TMEQUH506BZR9N6KEO1","","","<img src=""img/flower4.png"" style=""width:200px; border:14px solid green;"">","null","","","",""
"771.5999999940395","","image-keyboard-response","26","425713","0.0-26.0","3C44YUNSI2B81SMPRC73J0A218ZDPB","A3AU8PZ6HHBCVT","39WSF6KUV27TMEQUH506BZR9N6KEO1","","","img/flower6.png","76","775.8000000119209","76","1",""
"null","","html-keyboard-response","27","426018","0.0-27.0","3C44YUNSI2B81SMPRC73J0A218ZDPB","A3AU8PZ6HHBCVT","39WSF6KUV27TMEQUH506BZR9N6KEO1","","","<img src=""img/flower6.png"" style=""width:200px; border:14px solid green;"">","null","","","",""
"529.9000000059605","","image-keyboard-response","28","426557","0.0-28.0","3C44YUNSI2B81SMPRC73J0A218ZDPB","A3AU8PZ6HHBCVT","39WSF6KUV27TMEQUH506BZR9N6KEO1","","","img/flower6.png","76","537.3000000119209","76","1",""
"null","","html-keyboard-response","29","426867","0.0-29.0","3C44YUNSI2B81SMPRC73J0A218ZDPB","A3AU8PZ6HHBCVT","39WSF6KUV27TMEQUH506BZR9N6KEO1","","","<img src=""img/flower6.png"" style=""width:200px; border:14px solid green;"">","null","","","",""
"810.1999999880791","","image-keyboard-response","30","427685","0.0-30.0","3C44YUNSI2B81SMPRC73J0A218ZDPB","A3AU8PZ6HHBCVT","39WSF6KUV27TMEQUH506BZR9N6KEO1","","","img/flower5.png","76","815.3000000119209","76","0",""
"null","","html-keyboard-response","31","427990","0.0-31.0","3C44YUNSI2B81SMPRC73J0A218ZDPB","A3AU8PZ6HHBCVT","39WSF6KUV27TMEQUH506BZR9N6KEO1","","","<img src=""img/flower5.png"" style=""width:200px;border:14px solid red;"">","null","","","",""
"427.7999999821186","","image-keyboard-response","32","428425","0.0-32.0","3C44YUNSI2B81SMPRC73J0A218ZDPB","A3AU8PZ6HHBCVT","39WSF6KUV27TMEQUH506BZR9N6KEO1","","","img/flower5.png","75","433.19999998807907","75","1",""
"null","","html-keyboard-response","33","428729","0.0-33.0","3C44YUNSI2B81SMPRC73J0A218ZDPB","A3AU8PZ6HHBCVT","39WSF6KUV27TMEQUH506BZR9N6KEO1","","","<img src=""img/flower5.png"" style=""width:200px; border:14px solid green;"">","null","","","",""
"1291.0999999940395","","image-keyboard-response","34","430028","0.0-34.0","3C44YUNSI2B81SMPRC73J0A218ZDPB","A3AU8PZ6HHBCVT","39WSF6KUV27TMEQUH506BZR9N6KEO1","","","img/flower4.png","74","1296.699999988079","74","1",""
"null","","html-keyboard-response","35","430333","0.0-35.0","3C44YUNSI2B81SMPRC73J0A218ZDPB","A3AU8PZ6HHBCVT","39WSF6KUV27TMEQUH506BZR9N6KEO1","","","<img src=""img/flower4.png"" style=""width:200px; border:14px solid green;"">","null","","","",""
"717.5","","image-keyboard-response","36","431058","0.0-36.0","3C44YUNSI2B81SMPRC73J0A218ZDPB","A3AU8PZ6HHBCVT","39WSF6KUV27TMEQUH506BZR9N6KEO1","","","img/flower5.png","75","723.5","75","1",""
"null","","html-keyboard-response","37","431368","0.0-37.0","3C44YUNSI2B81SMPRC73J0A218ZDPB","A3AU8PZ6HHBCVT","39WSF6KUV27TMEQUH506BZR9N6KEO1","","","<img src=""img/flower5.png"" style=""width:200px; border:14px solid green;"">","null","","","",""
"911.5999999940395","","image-keyboard-response","38","432288","0.0-38.0","3C44YUNSI2B81SMPRC73J0A218ZDPB","A3AU8PZ6HHBCVT","39WSF6KUV27TMEQUH506BZR9N6KEO1","","","img/flower5.png","75","918.8000000119209","75","1",""
"null","","html-keyboard-response","39","432595","0.0-39.0","3C44YUNSI2B81SMPRC73J0A218ZDPB","A3AU8PZ6HHBCVT","39WSF6KUV27TMEQUH506BZR9N6KEO1","","","<img src=""img/flower5.png"" style=""width:200px; border:14px solid green;"">","null","","","",""
"1398.9000000059605","","image-keyboard-response","40","434000","0.0-40.0","3C44YUNSI2B81SMPRC73J0A218ZDPB","A3AU8PZ6HHBCVT","39WSF6KUV27TMEQUH506BZR9N6KEO1","","","img/flower5.png","75","1404.2000000178814","75","1",""
"null","","html-keyboard-response","41","434305","0.0-41.0","3C44YUNSI2B81SMPRC73J0A218ZDPB","A3AU8PZ6HHBCVT","39WSF6KUV27TMEQUH506BZR9N6KEO1","","","<img src=""img/flower5.png"" style=""width:200px; border:14px solid green;"">","null","","","",""
"371.69999998807907","","image-keyboard-response","42","434684","0.0-42.0","3C44YUNSI2B81SMPRC73J0A218ZDPB","A3AU8PZ6HHBCVT","39WSF6KUV27TMEQUH506BZR9N6KEO1","","","img/flower5.png","75","376","75","1",""
"null","","html-keyboard-response","43","434989","0.0-43.0","3C44YUNSI2B81SMPRC73J0A218ZDPB","A3AU8PZ6HHBCVT","39WSF6KUV27TMEQUH506BZR9N6KEO1","","","<img src=""img/flower5.png"" style=""width:200px; border:14px solid green;"">","null","","","",""
"572.8000000119209","","image-keyboard-response","44","435569","0.0-44.0","3C44YUNSI2B81SMPRC73J0A218ZDPB","A3AU8PZ6HHBCVT","39WSF6KUV27TMEQUH506BZR9N6KEO1","","","img/flower6.png","76","578.7999999821186","76","1",""
"null","","html-keyboard-response","45","435876","0.0-45.0","3C44YUNSI2B81SMPRC73J0A218ZDPB","A3AU8PZ6HHBCVT","39WSF6KUV27TMEQUH506BZR9N6KEO1","","","<img src=""img/flower6.png"" style=""width:200px; border:14px solid green;"">","null","","","",""
"989","","image-keyboard-response","46","436869","0.0-46.0","3C44YUNSI2B81SMPRC73J0A218ZDPB","A3AU8PZ6HHBCVT","39WSF6KUV27TMEQUH506BZR9N6KEO1","","","img/flower6.png","76","992","76","1",""
"null","","html-keyboard-response","47","437173","0.0-47.0","3C44YUNSI2B81SMPRC73J0A218ZDPB","A3AU8PZ6HHBCVT","39WSF6KUV27TMEQUH506BZR9N6KEO1","","","<img src=""img/flower6.png"" style=""width:200px; border:14px solid green;"">","null","","","",""
"1038.0999999940395","","image-keyboard-response","48","438218","0.0-48.0","3C44YUNSI2B81SMPRC73J0A218ZDPB","A3AU8PZ6HHBCVT","39WSF6KUV27TMEQUH506BZR9N6KEO1","","","img/flower5.png","75","1043.3999999761581","75","1",""
"null","","html-keyboard-response","49","438526","0.0-49.0","3C44YUNSI2B81SMPRC73J0A218ZDPB","A3AU8PZ6HHBCVT","39WSF6KUV27TMEQUH506BZR9N6KEO1","","","<img src=""img/flower5.png"" style=""width:200px; border:14px solid green;"">","null","","","",""
"690.5999999940395","","image-keyboard-response","50","439226","0.0-50.0","3C44YUNSI2B81SMPRC73J0A218ZDPB","A3AU8PZ6HHBCVT","39WSF6KUV27TMEQUH506BZR9N6KEO1","","","img/flower6.png","76","698.1999999880791","76","1",""
"null","","html-keyboard-response","51","439534","0.0-51.0","3C44YUNSI2B81SMPRC73J0A218ZDPB","A3AU8PZ6HHBCVT","39WSF6KUV27TMEQUH506BZR9N6KEO1","","","<img src=""img/flower6.png"" style=""width:200px; border:14px solid green;"">","null","","","",""
"490","","image-keyboard-response","52","440030","0.0-52.0","3C44YUNSI2B81SMPRC73J0A218ZDPB","A3AU8PZ6HHBCVT","39WSF6KUV27TMEQUH506BZR9N6KEO1","","","img/flower5.png","75","493.80000001192093","75","1",""
"null","","html-keyboard-response","53","440334","0.0-53.0","3C44YUNSI2B81SMPRC73J0A218ZDPB","A3AU8PZ6HHBCVT","39WSF6KUV27TMEQUH506BZR9N6KEO1","","","<img src=""img/flower5.png"" style=""width:200px; border:14px solid green;"">","null","","","",""
"413.69999998807907","","image-keyboard-response","54","440755","0.0-54.0","3C44YUNSI2B81SMPRC73J0A218ZDPB","A3AU8PZ6HHBCVT","39WSF6KUV27TMEQUH506BZR9N6KEO1","","","img/flower6.png","76","419.59999999403954","76","1",""
"null","","html-keyboard-response","55","441062","0.0-55.0","3C44YUNSI2B81SMPRC73J0A218ZDPB","A3AU8PZ6HHBCVT","39WSF6KUV27TMEQUH506BZR9N6KEO1","","","<img src=""img/flower6.png"" style=""width:200px; border:14px solid green;"">","null","","","",""
"571.0999999940395","","image-keyboard-response","56","441638","0.0-56.0","3C44YUNSI2B81SMPRC73J0A218ZDPB","A3AU8PZ6HHBCVT","39WSF6KUV27TMEQUH506BZR9N6KEO1","","","img/flower4.png","74","574.0999999940395","74","1",""
"null","","html-keyboard-response","57","441943","0.0-57.0","3C44YUNSI2B81SMPRC73J0A218ZDPB","A3AU8PZ6HHBCVT","39WSF6KUV27TMEQUH506BZR9N6KEO1","","","<img src=""img/flower4.png"" style=""width:200px; border:14px solid green;"">","null","","","",""
"1110.4000000059605","","image-keyboard-response","58","443060","0.0-58.0","3C44YUNSI2B81SMPRC73J0A218ZDPB","A3AU8PZ6HHBCVT","39WSF6KUV27TMEQUH506BZR9N6KEO1","","","img/flower4.png","74","1117.300000011921","74","1",""
"null","","html-keyboard-response","59","443369","0.0-59.0","3C44YUNSI2B81SMPRC73J0A218ZDPB","A3AU8PZ6HHBCVT","39WSF6KUV27TMEQUH506BZR9N6KEO1","","","<img src=""img/flower4.png"" style=""width:200px; border:14px solid green;"">","null","","","",""
"760.0999999940395","","image-keyboard-response","60","444138","0.0-60.0","3C44YUNSI2B81SMPRC73J0A218ZDPB","A3AU8PZ6HHBCVT","39WSF6KUV27TMEQUH506BZR9N6KEO1","","","img/flower6.png","76","766.4000000059605","76","1",""
"null","","html-keyboard-response","61","444445","0.0-61.0","3C44YUNSI2B81SMPRC73J0A218ZDPB","A3AU8PZ6HHBCVT","39WSF6KUV27TMEQUH506BZR9N6KEO1","","","<img src=""img/flower6.png"" style=""width:200px; border:14px solid green;"">","null","","","",""
"871.3000000119209","","image-keyboard-response","62","445327","0.0-62.0","3C44YUNSI2B81SMPRC73J0A218ZDPB","A3AU8PZ6HHBCVT","39WSF6KUV27TMEQUH506BZR9N6KEO1","","","img/flower6.png","76","880.2000000178814","76","1",""
"null","","html-keyboard-response","63","445633","0.0-63.0","3C44YUNSI2B81SMPRC73J0A218ZDPB","A3AU8PZ6HHBCVT","39WSF6KUV27TMEQUH506BZR9N6KEO1","","","<img src=""img/flower6.png"" style=""width:200px; border:14px solid green;"">","null","","","",""
"23442.80000001192","","instructions","64","469081","0.0-64.0","3C44YUNSI2B81SMPRC73J0A218ZDPB","A3AU8PZ6HHBCVT","39WSF6KUV27TMEQUH506BZR9N6KEO1","","[{""page_index"":0,""viewing_time"":3638.300000011921},{""page_index"":1,""viewing_time"":19802.19999998808}]","","","","","",""
"860.9000000059605","","image-keyboard-response","65","469947","0.0-65.0","3C44YUNSI2B81SMPRC73J0A218ZDPB","A3AU8PZ6HHBCVT","39WSF6KUV27TMEQUH506BZR9N6KEO1","","","img/flower5.png","75","864.3999999761581","75","1",""
"null","","html-keyboard-response","66","470253","0.0-66.0","3C44YUNSI2B81SMPRC73J0A218ZDPB","A3AU8PZ6HHBCVT","39WSF6KUV27TMEQUH506BZR9N6KEO1","","","<img src=""img/flower5.png"" style=""width:200px; border:14px solid green;"">","null","","","",""
"434.5","","image-keyboard-response","67","470695","0.0-67.0","3C44YUNSI2B81SMPRC73J0A218ZDPB","A3AU8PZ6HHBCVT","39WSF6KUV27TMEQUH506BZR9N6KEO1","","","img/flower5.png","75","440.09999999403954","75","1",""
"null","","html-keyboard-response","68","471000","0.0-68.0","3C44YUNSI2B81SMPRC73J0A218ZDPB","A3AU8PZ6HHBCVT","39WSF6KUV27TMEQUH506BZR9N6KEO1","","","<img src=""img/flower5.png"" style=""width:200px; border:14px solid green;"">","null","","","",""
"622.8999999761581","","image-keyboard-response","69","471632","0.0-69.0","3C44YUNSI2B81SMPRC73J0A218ZDPB","A3AU8PZ6HHBCVT","39WSF6KUV27TMEQUH506BZR9N6KEO1","","","img/flower6.png","76","628.0999999940395","76","1",""
"null","","html-keyboard-response","70","471936","0.0-70.0","3C44YUNSI2B81SMPRC73J0A218ZDPB","A3AU8PZ6HHBCVT","39WSF6KUV27TMEQUH506BZR9N6KEO1","","","<img src=""img/flower6.png"" style=""width:200px; border:14px solid green;"">","null","","","",""
"565.1999999880791","","image-keyboard-response","71","472506","0.0-71.0","3C44YUNSI2B81SMPRC73J0A218ZDPB","A3AU8PZ6HHBCVT","39WSF6KUV27TMEQUH506BZR9N6KEO1","","","img/flower4.png","74","569","74","1",""
"null","","html-keyboard-response","72","472813","0.0-72.0","3C44YUNSI2B81SMPRC73J0A218ZDPB","A3AU8PZ6HHBCVT","39WSF6KUV27TMEQUH506BZR9N6KEO1","","","<img src=""img/flower4.png"" style=""width:200px; border:14px solid green;"">","null","","","",""
"607.8999999761581","","image-keyboard-response","73","473430","0.0-73.0","3C44YUNSI2B81SMPRC73J0A218ZDPB","A3AU8PZ6HHBCVT","39WSF6KUV27TMEQUH506BZR9N6KEO1","","","img/flower6.png","76","615.5999999940395","76","0",""
"null","","html-keyboard-response","74","473738","0.0-74.0","3C44YUNSI2B81SMPRC73J0A218ZDPB","A3AU8PZ6HHBCVT","39WSF6KUV27TMEQUH506BZR9N6KEO1","","","<img src=""img/flower6.png"" style=""width:200px;border:14px solid red;"">","null","","","",""
"704.6999999880791","","image-keyboard-response","75","474453","0.0-75.0","3C44YUNSI2B81SMPRC73J0A218ZDPB","A3AU8PZ6HHBCVT","39WSF6KUV27TMEQUH506BZR9N6KEO1","","","img/flower5.png","75","713.4000000059605","75","1",""
"null","","html-keyboard-response","76","474758","0.0-76.0","3C44YUNSI2B81SMPRC73J0A218ZDPB","A3AU8PZ6HHBCVT","39WSF6KUV27TMEQUH506BZR9N6KEO1","","","<img src=""img/flower5.png"" style=""width:200px; border:14px solid green;"">","null","","","",""
"614.4000000059605","","image-keyboard-response","77","475380","0.0-77.0","3C44YUNSI2B81SMPRC73J0A218ZDPB","A3AU8PZ6HHBCVT","39WSF6KUV27TMEQUH506BZR9N6KEO1","","","img/flower4.png","74","620.0999999940395","74","0",""
"null","","html-keyboard-response","78","475686","0.0-78.0","3C44YUNSI2B81SMPRC73J0A218ZDPB","A3AU8PZ6HHBCVT","39WSF6KUV27TMEQUH506BZR9N6KEO1","","","<img src=""img/flower4.png"" style=""width:200px;border:14px solid red;"">","null","","","",""
"858.8000000119209","","image-keyboard-response","79","476549","0.0-79.0","3C44YUNSI2B81SMPRC73J0A218ZDPB","A3AU8PZ6HHBCVT","39WSF6KUV27TMEQUH506BZR9N6KEO1","","","img/flower5.png","76","862.3999999761581","76","1",""
"null","","html-keyboard-response","80","476858","0.0-80.0","3C44YUNSI2B81SMPRC73J0A218ZDPB","A3AU8PZ6HHBCVT","39WSF6KUV27TMEQUH506BZR9N6KEO1","","","<img src=""img/flower5.png"" style=""width:200px; border:14px solid green;"">","null","","","",""
"1348.9000000059605","","image-keyboard-response","81","478215","0.0-81.0","3C44YUNSI2B81SMPRC73J0A218ZDPB","A3AU8PZ6HHBCVT","39WSF6KUV27TMEQUH506BZR9N6KEO1","","","img/flower4.png","74","1355.9000000059605","74","1",""
"null","","html-keyboard-response","82","478521","0.0-82.0","3C44YUNSI2B81SMPRC73J0A218ZDPB","A3AU8PZ6HHBCVT","39WSF6KUV27TMEQUH506BZR9N6KEO1","","","<img src=""img/flower4.png"" style=""width:200px; border:14px solid green;"">","null","","","",""
"961.4000000059605","","image-keyboard-response","83","479489","0.0-83.0","3C44YUNSI2B81SMPRC73J0A218ZDPB","A3AU8PZ6HHBCVT","39WSF6KUV27TMEQUH506BZR9N6KEO1","","","img/flower5.png","75","966.4000000059605","75","1",""
"null","","html-keyboard-response","84","479796","0.0-84.0","3C44YUNSI2B81SMPRC73J0A218ZDPB","A3AU8PZ6HHBCVT","39WSF6KUV27TMEQUH506BZR9N6KEO1","","","<img src=""img/flower5.png"" style=""width:200px; border:14px solid green;"">","null","","","",""
"625.6000000238419","","image-keyboard-response","85","480426","0.0-85.0","3C44YUNSI2B81SMPRC73J0A218ZDPB","A3AU8PZ6HHBCVT","39WSF6KUV27TMEQUH506BZR9N6KEO1","","","img/flower6.png","76","628.0999999940395","76","1",""
"null","","html-keyboard-response","86","480729","0.0-86.0","3C44YUNSI2B81SMPRC73J0A218ZDPB","A3AU8PZ6HHBCVT","39WSF6KUV27TMEQUH506BZR9N6KEO1","","","<img src=""img/flower6.png"" style=""width:200px; border:14px solid green;"">","null","","","",""
"571.7000000178814","","image-keyboard-response","87","481308","0.0-87.0","3C44YUNSI2B81SMPRC73J0A218ZDPB","A3AU8PZ6HHBCVT","39WSF6KUV27TMEQUH506BZR9N6KEO1","","","img/flower4.png","74","577.1999999880791","74","1",""
"null","","html-keyboard-response","88","481613","0.0-88.0","3C44YUNSI2B81SMPRC73J0A218ZDPB","A3AU8PZ6HHBCVT","39WSF6KUV27TMEQUH506BZR9N6KEO1","","","<img src=""img/flower4.png"" style=""width:200px; border:14px solid green;"">","null","","","",""
"696.7000000178814","","image-keyboard-response","89","482318","0.0-89.0","3C44YUNSI2B81SMPRC73J0A218ZDPB","A3AU8PZ6HHBCVT","39WSF6KUV27TMEQUH506BZR9N6KEO1","","","img/flower6.png","76","703.1000000238419","76","0",""
"null","","html-keyboard-response","90","482626","0.0-90.0","3C44YUNSI2B81SMPRC73J0A218ZDPB","A3AU8PZ6HHBCVT","39WSF6KUV27TMEQUH506BZR9N6KEO1","","","<img src=""img/flower6.png"" style=""width:200px;border:14px solid red;"">","null","","","",""
"382.59999999403954","","image-keyboard-response","91","483017","0.0-91.0","3C44YUNSI2B81SMPRC73J0A218ZDPB","A3AU8PZ6HHBCVT","39WSF6KUV27TMEQUH506BZR9N6KEO1","","","img/flower6.png","76","389.19999998807907","76","0",""
"null","","html-keyboard-response","92","483325","0.0-92.0","3C44YUNSI2B81SMPRC73J0A218ZDPB","A3AU8PZ6HHBCVT","39WSF6KUV27TMEQUH506BZR9N6KEO1","","","<img src=""img/flower6.png"" style=""width:200px;border:14px solid red;"">","null","","","",""
"773.8999999761581","","image-keyboard-response","93","484104","0.0-93.0","3C44YUNSI2B81SMPRC73J0A218ZDPB","A3AU8PZ6HHBCVT","39WSF6KUV27TMEQUH506BZR9N6KEO1","","","img/flower5.png","75","777","75","0",""
"null","","html-keyboard-response","94","484411","0.0-94.0","3C44YUNSI2B81SMPRC73J0A218ZDPB","A3AU8PZ6HHBCVT","39WSF6KUV27TMEQUH506BZR9N6KEO1","","","<img src=""img/flower5.png"" style=""width:200px;border:14px solid red;"">","null","","","",""
"492.19999998807907","","image-keyboard-response","95","484913","0.0-95.0","3C44YUNSI2B81SMPRC73J0A218ZDPB","A3AU8PZ6HHBCVT","39WSF6KUV27TMEQUH506BZR9N6KEO1","","","img/flower5.png","75","499.90000000596046","75","0",""
"null","","html-keyboard-response","96","485221","0.0-96.0","3C44YUNSI2B81SMPRC73J0A218ZDPB","A3AU8PZ6HHBCVT","39WSF6KUV27TMEQUH506BZR9N6KEO1","","","<img src=""img/flower5.png"" style=""width:200px;border:14px solid red;"">","null","","","",""
"677.5999999940395","","image-keyboard-response","97","485904","0.0-97.0","3C44YUNSI2B81SMPRC73J0A218ZDPB","A3AU8PZ6HHBCVT","39WSF6KUV27TMEQUH506BZR9N6KEO1","","","img/flower6.png","76","680.5999999940395","76","1",""
"null","","html-keyboard-response","98","486211","0.0-98.0","3C44YUNSI2B81SMPRC73J0A218ZDPB","A3AU8PZ6HHBCVT","39WSF6KUV27TMEQUH506BZR9N6KEO1","","","<img src=""img/flower6.png"" style=""width:200px; border:14px solid green;"">","null","","","",""
"373","","image-keyboard-response","99","486592","0.0-99.0","3C44YUNSI2B81SMPRC73J0A218ZDPB","A3AU8PZ6HHBCVT","39WSF6KUV27TMEQUH506BZR9N6KEO1","","","img/flower6.png","76","379.19999998807907","76","1",""
"null","","html-keyboard-response","100","486901","0.0-100.0","3C44YUNSI2B81SMPRC73J0A218ZDPB","A3AU8PZ6HHBCVT","39WSF6KUV27TMEQUH506BZR9N6KEO1","","","<img src=""img/flower6.png"" style=""width:200px; border:14px solid green;"">","null","","","",""
"567.8000000119209","","image-keyboard-response","101","487473","0.0-101.0","3C44YUNSI2B81SMPRC73J0A218ZDPB","A3AU8PZ6HHBCVT","39WSF6KUV27TMEQUH506BZR9N6KEO1","","","img/flower6.png","76","572.3000000119209","76","1",""
"null","","html-keyboard-response","102","487778","0.0-102.0","3C44YUNSI2B81SMPRC73J0A218ZDPB","A3AU8PZ6HHBCVT","39WSF6KUV27TMEQUH506BZR9N6KEO1","","","<img src=""img/flower6.png"" style=""width:200px; border:14px solid green;"">","null","","","",""
"580.3000000119209","","image-keyboard-response","103","488366","0.0-103.0","3C44YUNSI2B81SMPRC73J0A218ZDPB","A3AU8PZ6HHBCVT","39WSF6KUV27TMEQUH506BZR9N6KEO1","","","img/flower4.png","74","586.3000000119209","74","0",""
"null","","html-keyboard-response","104","488674","0.0-104.0","3C44YUNSI2B81SMPRC73J0A218ZDPB","A3AU8PZ6HHBCVT","39WSF6KUV27TMEQUH506BZR9N6KEO1","","","<img src=""img/flower4.png"" style=""width:200px;border:14px solid red;"">","null","","","",""
"720.4000000059605","","image-keyboard-response","105","489406","0.0-105.0","3C44YUNSI2B81SMPRC73J0A218ZDPB","A3AU8PZ6HHBCVT","39WSF6KUV27TMEQUH506BZR9N6KEO1","","","img/flower5.png","75","725.6999999880791","75","0",""
"null","","html-keyboard-response","106","489713","0.0-106.0","3C44YUNSI2B81SMPRC73J0A218ZDPB","A3AU8PZ6HHBCVT","39WSF6KUV27TMEQUH506BZR9N6KEO1","","","<img src=""img/flower5.png"" style=""width:200px;border:14px solid red;"">","null","","","",""
"620.5999999940395","","image-keyboard-response","107","490340","0.0-107.0","3C44YUNSI2B81SMPRC73J0A218ZDPB","A3AU8PZ6HHBCVT","39WSF6KUV27TMEQUH506BZR9N6KEO1","","","img/flower6.png","76","625.1999999880791","76","1",""
"null","","html-keyboard-response","108","490646","0.0-108.0","3C44YUNSI2B81SMPRC73J0A218ZDPB","A3AU8PZ6HHBCVT","39WSF6KUV27TMEQUH506BZR9N6KEO1","","","<img src=""img/flower6.png"" style=""width:200px; border:14px solid green;"">","null","","","",""
"649.4000000059605","","image-keyboard-response","109","491303","0.0-109.0","3C44YUNSI2B81SMPRC73J0A218ZDPB","A3AU8PZ6HHBCVT","39WSF6KUV27TMEQUH506BZR9N6KEO1","","","img/flower5.png","75","654.9000000059605","75","1",""
"null","","html-keyboard-response","110","491607","0.0-110.0","3C44YUNSI2B81SMPRC73J0A218ZDPB","A3AU8PZ6HHBCVT","39WSF6KUV27TMEQUH506BZR9N6KEO1","","","<img src=""img/flower5.png"" style=""width:200px; border:14px solid green;"">","null","","","",""
"693.4000000059605","","image-keyboard-response","111","492310","0.0-111.0","3C44YUNSI2B81SMPRC73J0A218ZDPB","A3AU8PZ6HHBCVT","39WSF6KUV27TMEQUH506BZR9N6KEO1","","","img/flower4.png","74","701.8000000119209","74","0",""
"null","","html-keyboard-response","112","492619","0.0-112.0","3C44YUNSI2B81SMPRC73J0A218ZDPB","A3AU8PZ6HHBCVT","39WSF6KUV27TMEQUH506BZR9N6KEO1","","","<img src=""img/flower4.png"" style=""width:200px;border:14px solid red;"">","null","","","",""
"467.19999998807907","","image-keyboard-response","113","493096","0.0-113.0","3C44YUNSI2B81SMPRC73J0A218ZDPB","A3AU8PZ6HHBCVT","39WSF6KUV27TMEQUH506BZR9N6KEO1","","","img/flower4.png","74","474.59999999403954","74","1",""
"null","","html-keyboard-response","114","493401","0.0-114.0","3C44YUNSI2B81SMPRC73J0A218ZDPB","A3AU8PZ6HHBCVT","39WSF6KUV27TMEQUH506BZR9N6KEO1","","","<img src=""img/flower4.png"" style=""width:200px; border:14px solid green;"">","null","","","",""
"694.9000000059605","","image-keyboard-response","115","494103","0.0-115.0","3C44YUNSI2B81SMPRC73J0A218ZDPB","A3AU8PZ6HHBCVT","39WSF6KUV27TMEQUH506BZR9N6KEO1","","","img/flower4.png","74","700","74","1",""
"null","","html-keyboard-response","116","494412","0.0-116.0","3C44YUNSI2B81SMPRC73J0A218ZDPB","A3AU8PZ6HHBCVT","39WSF6KUV27TMEQUH506BZR9N6KEO1","","","<img src=""img/flower4.png"" style=""width:200px; border:14px solid green;"">","null","","","",""
"476.69999998807907","","image-keyboard-response","117","494895","0.0-117.0","3C44YUNSI2B81SMPRC73J0A218ZDPB","A3AU8PZ6HHBCVT","39WSF6KUV27TMEQUH506BZR9N6KEO1","","","img/flower5.png","75","481.40000000596046","75","1",""
"null","","html-keyboard-response","118","495200","0.0-118.0","3C44YUNSI2B81SMPRC73J0A218ZDPB","A3AU8PZ6HHBCVT","39WSF6KUV27TMEQUH506BZR9N6KEO1","","","<img src=""img/flower5.png"" style=""width:200px; border:14px solid green;"">","null","","","",""
"638.7000000178814","","image-keyboard-response","119","495846","0.0-119.0","3C44YUNSI2B81SMPRC73J0A218ZDPB","A3AU8PZ6HHBCVT","39WSF6KUV27TMEQUH506BZR9N6KEO1","","","img/flower4.png","74","644.5","74","1",""
"null","","html-keyboard-response","120","496152","0.0-120.0","3C44YUNSI2B81SMPRC73J0A218ZDPB","A3AU8PZ6HHBCVT","39WSF6KUV27TMEQUH506BZR9N6KEO1","","","<img src=""img/flower4.png"" style=""width:200px; border:14px solid green;"">","null","","","",""
"378.90000000596046","","image-keyboard-response","121","496539","0.0-121.0","3C44YUNSI2B81SMPRC73J0A218ZDPB","A3AU8PZ6HHBCVT","39WSF6KUV27TMEQUH506BZR9N6KEO1","","","img/flower4.png","74","385.7000000178814","74","1",""
"null","","html-keyboard-response","122","496847","0.0-122.0","3C44YUNSI2B81SMPRC73J0A218ZDPB","A3AU8PZ6HHBCVT","39WSF6KUV27TMEQUH506BZR9N6KEO1","","","<img src=""img/flower4.png"" style=""width:200px; border:14px solid green;"">","null","","","",""
"648.6000000238419","","image-keyboard-response","123","497504","0.0-123.0","3C44YUNSI2B81SMPRC73J0A218ZDPB","A3AU8PZ6HHBCVT","39WSF6KUV27TMEQUH506BZR9N6KEO1","","","img/flower6.png","76","655.5","76","1",""
"null","","html-keyboard-response","124","497812","0.0-124.0","3C44YUNSI2B81SMPRC73J0A218ZDPB","A3AU8PZ6HHBCVT","39WSF6KUV27TMEQUH506BZR9N6KEO1","","","<img src=""img/flower6.png"" style=""width:200px; border:14px solid green;"">","null","","","",""
"2772.9000000059605","","instructions","125","500588","0.0-125.0","3C44YUNSI2B81SMPRC73J0A218ZDPB","A3AU8PZ6HHBCVT","39WSF6KUV27TMEQUH506BZR9N6KEO1","","[{""page_index"":0,""viewing_time"":2771.800000011921}]","","","","","",""
"921.5","","image-keyboard-response","126","501514","0.0-126.0","3C44YUNSI2B81SMPRC73J0A218ZDPB","A3AU8PZ6HHBCVT","39WSF6KUV27TMEQUH506BZR9N6KEO1","","","img/flower5.png","75","925.4000000059605","75","0",""
"null","","html-keyboard-response","127","501820","0.0-127.0","3C44YUNSI2B81SMPRC73J0A218ZDPB","A3AU8PZ6HHBCVT","39WSF6KUV27TMEQUH506BZR9N6KEO1","","","<img src=""img/flower5.png"" style=""width:200px;border:14px solid red;"">","null","","","",""
"650.8000000119209","","image-keyboard-response","128","502478","0.0-128.0","3C44YUNSI2B81SMPRC73J0A218ZDPB","A3AU8PZ6HHBCVT","39WSF6KUV27TMEQUH506BZR9N6KEO1","","","img/flower4.png","74","656.7000000178814","74","0",""
"null","","html-keyboard-response","129","502788","0.0-129.0","3C44YUNSI2B81SMPRC73J0A218ZDPB","A3AU8PZ6HHBCVT","39WSF6KUV27TMEQUH506BZR9N6KEO1","","","<img src=""img/flower4.png"" style=""width:200px;border:14px solid red;"">","null","","","",""
"1499.9000000059605","","image-keyboard-response","130","504295","0.0-130.0","3C44YUNSI2B81SMPRC73J0A218ZDPB","A3AU8PZ6HHBCVT","39WSF6KUV27TMEQUH506BZR9N6KEO1","","","img/flower8.png","74","1505.2999999821186","74","1",""
"null","","html-keyboard-response","131","504601","0.0-131.0","3C44YUNSI2B81SMPRC73J0A218ZDPB","A3AU8PZ6HHBCVT","39WSF6KUV27TMEQUH506BZR9N6KEO1","","","<img src=""img/flower8.png"" style=""width:200px; border:14px solid green;"">","null","","","",""
"687.6999999880791","","image-keyboard-response","132","505297","0.0-132.0","3C44YUNSI2B81SMPRC73J0A218ZDPB","A3AU8PZ6HHBCVT","39WSF6KUV27TMEQUH506BZR9N6KEO1","","","img/flower5.png","75","693.0999999940395","75","0",""
"null","","html-keyboard-response","133","505604","0.0-133.0","3C44YUNSI2B81SMPRC73J0A218ZDPB","A3AU8PZ6HHBCVT","39WSF6KUV27TMEQUH506BZR9N6KEO1","","","<img src=""img/flower5.png"" style=""width:200px;border:14px solid red;"">","null","","","",""
"653.5","","image-keyboard-response","134","506266","0.0-134.0","3C44YUNSI2B81SMPRC73J0A218ZDPB","A3AU8PZ6HHBCVT","39WSF6KUV27TMEQUH506BZR9N6KEO1","","","img/flower4.png","74","661.0999999940395","74","0",""
"null","","html-keyboard-response","135","506574","0.0-135.0","3C44YUNSI2B81SMPRC73J0A218ZDPB","A3AU8PZ6HHBCVT","39WSF6KUV27TMEQUH506BZR9N6KEO1","","","<img src=""img/flower4.png"" style=""width:200px;border:14px solid red;"">","null","","","",""
"475.90000000596046","","image-keyboard-response","136","507059","0.0-136.0","3C44YUNSI2B81SMPRC73J0A218ZDPB","A3AU8PZ6HHBCVT","39WSF6KUV27TMEQUH506BZR9N6KEO1","","","img/flower4.png","76","482.10000002384186","76","1",""
"null","","html-keyboard-response","137","507366","0.0-137.0","3C44YUNSI2B81SMPRC73J0A218ZDPB","A3AU8PZ6HHBCVT","39WSF6KUV27TMEQUH506BZR9N6KEO1","","","<img src=""img/flower4.png"" style=""width:200px; border:14px solid green;"">","null","","","",""
"1040.7999999821186","","image-keyboard-response","138","508412","0.0-138.0","3C44YUNSI2B81SMPRC73J0A218ZDPB","A3AU8PZ6HHBCVT","39WSF6KUV27TMEQUH506BZR9N6KEO1","","","img/flower8.png","75","1044.8999999761581","75","0",""
"null","","html-keyboard-response","139","508718","0.0-139.0","3C44YUNSI2B81SMPRC73J0A218ZDPB","A3AU8PZ6HHBCVT","39WSF6KUV27TMEQUH506BZR9N6KEO1","","","<img src=""img/flower8.png"" style=""width:200px;border:14px solid red;"">","null","","","",""
"182.80000001192093","","image-keyboard-response","140","508904","0.0-140.0","3C44YUNSI2B81SMPRC73J0A218ZDPB","A3AU8PZ6HHBCVT","39WSF6KUV27TMEQUH506BZR9N6KEO1","","","img/flower8.png","74","186.39999997615814","74","1",""
"null","","html-keyboard-response","141","509209","0.0-141.0","3C44YUNSI2B81SMPRC73J0A218ZDPB","A3AU8PZ6HHBCVT","39WSF6KUV27TMEQUH506BZR9N6KEO1","","","<img src=""img/flower8.png"" style=""width:200px; border:14px solid green;"">","null","","","",""
"910.3000000119209","","image-keyboard-response","142","510129","0.0-142.0","3C44YUNSI2B81SMPRC73J0A218ZDPB","A3AU8PZ6HHBCVT","39WSF6KUV27TMEQUH506BZR9N6KEO1","","","img/flower8.png","74","918.3000000119209","74","0",""
"null","","html-keyboard-response","143","510435","0.0-143.0","3C44YUNSI2B81SMPRC73J0A218ZDPB","A3AU8PZ6HHBCVT","39WSF6KUV27TMEQUH506BZR9N6KEO1","","","<img src=""img/flower8.png"" style=""width:200px;border:14px solid red;"">","null","","","",""
"195.30000001192093","","image-keyboard-response","144","510640","0.0-144.0","3C44YUNSI2B81SMPRC73J0A218ZDPB","A3AU8PZ6HHBCVT","39WSF6KUV27TMEQUH506BZR9N6KEO1","","","img/flower4.png","76","203.2000000178814","76","1",""
"null","","html-keyboard-response","145","510950","0.0-145.0","3C44YUNSI2B81SMPRC73J0A218ZDPB","A3AU8PZ6HHBCVT","39WSF6KUV27TMEQUH506BZR9N6KEO1","","","<img src=""img/flower4.png"" style=""width:200px; border:14px solid green;"">","null","","","",""
"1141.5999999940395","","image-keyboard-response","146","512096","0.0-146.0","3C44YUNSI2B81SMPRC73J0A218ZDPB","A3AU8PZ6HHBCVT","39WSF6KUV27TMEQUH506BZR9N6KEO1","","","img/flower5.png","75","1144.9000000059605","75","0",""
"null","","html-keyboard-response","147","512401","0.0-147.0","3C44YUNSI2B81SMPRC73J0A218ZDPB","A3AU8PZ6HHBCVT","39WSF6KUV27TMEQUH506BZR9N6KEO1","","","<img src=""img/flower5.png"" style=""width:200px;border:14px solid red;"">","null","","","",""
"649.9000000059605","","image-keyboard-response","148","513058","0.0-148.0","3C44YUNSI2B81SMPRC73J0A218ZDPB","A3AU8PZ6HHBCVT","39WSF6KUV27TMEQUH506BZR9N6KEO1","","","img/flower5.png","75","654.2999999821186","75","0",""
"null","","html-keyboard-response","149","513364","0.0-149.0","3C44YUNSI2B81SMPRC73J0A218ZDPB","A3AU8PZ6HHBCVT","39WSF6KUV27TMEQUH506BZR9N6KEO1","","","<img src=""img/flower5.png"" style=""width:200px;border:14px solid red;"">","null","","","",""
"509.09999999403954","","image-keyboard-response","150","513881","0.0-150.0","3C44YUNSI2B81SMPRC73J0A218ZDPB","A3AU8PZ6HHBCVT","39WSF6KUV27TMEQUH506BZR9N6KEO1","","","img/flower5.png","76","515.3000000119209","76","1",""
"null","","html-keyboard-response","151","514187","0.0-151.0","3C44YUNSI2B81SMPRC73J0A218ZDPB","A3AU8PZ6HHBCVT","39WSF6KUV27TMEQUH506BZR9N6KEO1","","","<img src=""img/flower5.png"" style=""width:200px; border:14px solid green;"">","null","","","",""
"597.5999999940395","","image-keyboard-response","152","514797","0.0-152.0","3C44YUNSI2B81SMPRC73J0A218ZDPB","A3AU8PZ6HHBCVT","39WSF6KUV27TMEQUH506BZR9N6KEO1","","","img/flower8.png","74","605.3999999761581","74","1",""
"null","","html-keyboard-response","153","515102","0.0-153.0","3C44YUNSI2B81SMPRC73J0A218ZDPB","A3AU8PZ6HHBCVT","39WSF6KUV27TMEQUH506BZR9N6KEO1","","","<img src=""img/flower8.png"" style=""width:200px; border:14px solid green;"">","null","","","",""
"577.9000000059605","","image-keyboard-response","154","515685","0.0-154.0","3C44YUNSI2B81SMPRC73J0A218ZDPB","A3AU8PZ6HHBCVT","39WSF6KUV27TMEQUH506BZR9N6KEO1","","","img/flower8.png","74","580.5999999940395","74","1",""
"null","","html-keyboard-response","155","515989","0.0-155.0","3C44YUNSI2B81SMPRC73J0A218ZDPB","A3AU8PZ6HHBCVT","39WSF6KUV27TMEQUH506BZR9N6KEO1","","","<img src=""img/flower8.png"" style=""width:200px; border:14px solid green;"">","null","","","",""
"683.5","","image-keyboard-response","156","516681","0.0-156.0","3C44YUNSI2B81SMPRC73J0A218ZDPB","A3AU8PZ6HHBCVT","39WSF6KUV27TMEQUH506BZR9N6KEO1","","","img/flower5.png","75","690.5","75","0",""
"null","","html-keyboard-response","157","516989","0.0-157.0","3C44YUNSI2B81SMPRC73J0A218ZDPB","A3AU8PZ6HHBCVT","39WSF6KUV27TMEQUH506BZR9N6KEO1","","","<img src=""img/flower5.png"" style=""width:200px;border:14px solid red;"">","null","","","",""
"64.90000000596046","","image-keyboard-response","158","517062","0.0-158.0","3C44YUNSI2B81SMPRC73J0A218ZDPB","A3AU8PZ6HHBCVT","39WSF6KUV27TMEQUH506BZR9N6KEO1","","","img/flower8.png","76","70.2999999821186","76","0",""
"null","","html-keyboard-response","159","517369","0.0-159.0","3C44YUNSI2B81SMPRC73J0A218ZDPB","A3AU8PZ6HHBCVT","39WSF6KUV27TMEQUH506BZR9N6KEO1","","","<img src=""img/flower8.png"" style=""width:200px;border:14px solid red;"">","null","","","",""
"420.60000002384186","","image-keyboard-response","160","517795","0.0-160.0","3C44YUNSI2B81SMPRC73J0A218ZDPB","A3AU8PZ6HHBCVT","39WSF6KUV27TMEQUH506BZR9N6KEO1","","","img/flower4.png","74","424.10000002384186","74","0",""
"null","","html-keyboard-response","161","518100","0.0-161.0","3C44YUNSI2B81SMPRC73J0A218ZDPB","A3AU8PZ6HHBCVT","39WSF6KUV27TMEQUH506BZR9N6KEO1","","","<img src=""img/flower4.png"" style=""width:200px;border:14px solid red;"">","null","","","",""
"946.1999999880791","","image-keyboard-response","162","519054","0.0-162.0","3C44YUNSI2B81SMPRC73J0A218ZDPB","A3AU8PZ6HHBCVT","39WSF6KUV27TMEQUH506BZR9N6KEO1","","","img/flower5.png","75","952.2999999821186","75","0",""
"null","","html-keyboard-response","163","519362","0.0-163.0","3C44YUNSI2B81SMPRC73J0A218ZDPB","A3AU8PZ6HHBCVT","39WSF6KUV27TMEQUH506BZR9N6KEO1","","","<img src=""img/flower5.png"" style=""width:200px;border:14px solid red;"">","null","","","",""
"548","","image-keyboard-response","164","519918","0.0-164.0","3C44YUNSI2B81SMPRC73J0A218ZDPB","A3AU8PZ6HHBCVT","39WSF6KUV27TMEQUH506BZR9N6KEO1","","","img/flower5.png","76","553.6000000238419","76","1",""
"null","","html-keyboard-response","165","520223","0.0-165.0","3C44YUNSI2B81SMPRC73J0A218ZDPB","A3AU8PZ6HHBCVT","39WSF6KUV27TMEQUH506BZR9N6KEO1","","","<img src=""img/flower5.png"" style=""width:200px; border:14px solid green;"">","null","","","",""
"746.0999999940395","","image-keyboard-response","166","520977","0.0-166.0","3C44YUNSI2B81SMPRC73J0A218ZDPB","A3AU8PZ6HHBCVT","39WSF6KUV27TMEQUH506BZR9N6KEO1","","","img/flower5.png","76","752.0999999940395","76","1",""
"null","","html-keyboard-response","167","521286","0.0-167.0","3C44YUNSI2B81SMPRC73J0A218ZDPB","A3AU8PZ6HHBCVT","39WSF6KUV27TMEQUH506BZR9N6KEO1","","","<img src=""img/flower5.png"" style=""width:200px; border:14px solid green;"">","null","","","",""
"972.7999999821186","","image-keyboard-response","168","522266","0.0-168.0","3C44YUNSI2B81SMPRC73J0A218ZDPB","A3AU8PZ6HHBCVT","39WSF6KUV27TMEQUH506BZR9N6KEO1","","","img/flower4.png","74","979","74","0",""
"null","","html-keyboard-response","169","522574","0.0-169.0","3C44YUNSI2B81SMPRC73J0A218ZDPB","A3AU8PZ6HHBCVT","39WSF6KUV27TMEQUH506BZR9N6KEO1","","","<img src=""img/flower4.png"" style=""width:200px;border:14px solid red;"">","null","","","",""
"974.4000000059605","","image-keyboard-response","170","523557","0.0-170.0","3C44YUNSI2B81SMPRC73J0A218ZDPB","A3AU8PZ6HHBCVT","39WSF6KUV27TMEQUH506BZR9N6KEO1","","","img/flower8.png","75","980.2999999821186","75","1",""
"null","","html-keyboard-response","171","523864","0.0-171.0","3C44YUNSI2B81SMPRC73J0A218ZDPB","A3AU8PZ6HHBCVT","39WSF6KUV27TMEQUH506BZR9N6KEO1","","","<img src=""img/flower8.png"" style=""width:200px; border:14px solid green;"">","null","","","",""
"659.0999999940395","","image-keyboard-response","172","524529","0.0-172.0","3C44YUNSI2B81SMPRC73J0A218ZDPB","A3AU8PZ6HHBCVT","39WSF6KUV27TMEQUH506BZR9N6KEO1","","","img/flower8.png","75","664.8000000119209","75","1",""
"null","","html-keyboard-response","173","524834","0.0-173.0","3C44YUNSI2B81SMPRC73J0A218ZDPB","A3AU8PZ6HHBCVT","39WSF6KUV27TMEQUH506BZR9N6KEO1","","","<img src=""img/flower8.png"" style=""width:200px; border:14px solid green;"">","null","","","",""
"740.4000000059605","","image-keyboard-response","174","525583","0.0-174.0","3C44YUNSI2B81SMPRC73J0A218ZDPB","A3AU8PZ6HHBCVT","39WSF6KUV27TMEQUH506BZR9N6KEO1","","","img/flower5.png","76","746.3000000119209","76","1",""
"null","","html-keyboard-response","175","525891","0.0-175.0","3C44YUNSI2B81SMPRC73J0A218ZDPB","A3AU8PZ6HHBCVT","39WSF6KUV27TMEQUH506BZR9N6KEO1","","","<img src=""img/flower5.png"" style=""width:200px; border:14px solid green;"">","null","","","",""
"1141.199999988079","","image-keyboard-response","176","527039","0.0-176.0","3C44YUNSI2B81SMPRC73J0A218ZDPB","A3AU8PZ6HHBCVT","39WSF6KUV27TMEQUH506BZR9N6KEO1","","","img/flower4.png","74","1146.8999999761581","74","0",""
"null","","html-keyboard-response","177","527347","0.0-177.0","3C44YUNSI2B81SMPRC73J0A218ZDPB","A3AU8PZ6HHBCVT","39WSF6KUV27TMEQUH506BZR9N6KEO1","","","<img src=""img/flower4.png"" style=""width:200px;border:14px solid red;"">","null","","","",""
"391","","image-keyboard-response","178","527744","0.0-178.0","3C44YUNSI2B81SMPRC73J0A218ZDPB","A3AU8PZ6HHBCVT","39WSF6KUV27TMEQUH506BZR9N6KEO1","","","img/flower4.png","75","395.90000000596046","75","1",""
"null","","html-keyboard-response","179","528052","0.0-179.0","3C44YUNSI2B81SMPRC73J0A218ZDPB","A3AU8PZ6HHBCVT","39WSF6KUV27TMEQUH506BZR9N6KEO1","","","<img src=""img/flower4.png"" style=""width:200px; border:14px solid green;"">","null","","","",""
"928.4000000059605","","image-keyboard-response","180","528989","0.0-180.0","3C44YUNSI2B81SMPRC73J0A218ZDPB","A3AU8PZ6HHBCVT","39WSF6KUV27TMEQUH506BZR9N6KEO1","","","img/flower5.png","75","935.2000000178814","75","0",""
"null","","html-keyboard-response","181","529294","0.0-181.0","3C44YUNSI2B81SMPRC73J0A218ZDPB","A3AU8PZ6HHBCVT","39WSF6KUV27TMEQUH506BZR9N6KEO1","","","<img src=""img/flower5.png"" style=""width:200px;border:14px solid red;"">","null","","","",""
"1092.300000011921","","image-keyboard-response","182","530394","0.0-182.0","3C44YUNSI2B81SMPRC73J0A218ZDPB","A3AU8PZ6HHBCVT","39WSF6KUV27TMEQUH506BZR9N6KEO1","","","img/flower4.png","75","1098.5","75","0",""
"null","","html-keyboard-response","183","530700","0.0-183.0","3C44YUNSI2B81SMPRC73J0A218ZDPB","A3AU8PZ6HHBCVT","39WSF6KUV27TMEQUH506BZR9N6KEO1","","","<img src=""img/flower4.png"" style=""width:200px;border:14px solid red;"">","null","","","",""
"378.19999998807907","","image-keyboard-response","184","531083","0.0-184.0","3C44YUNSI2B81SMPRC73J0A218ZDPB","A3AU8PZ6HHBCVT","39WSF6KUV27TMEQUH506BZR9N6KEO1","","","img/flower4.png","76","381.7999999821186","76","0",""
"null","","html-keyboard-response","185","531388","0.0-185.0","3C44YUNSI2B81SMPRC73J0A218ZDPB","A3AU8PZ6HHBCVT","39WSF6KUV27TMEQUH506BZR9N6KEO1","","","<img src=""img/flower4.png"" style=""width:200px;border:14px solid red;"">","null","","","",""
"51.599999994039536","","image-keyboard-response","186","531448","0.0-186.0","3C44YUNSI2B81SMPRC73J0A218ZDPB","A3AU8PZ6HHBCVT","39WSF6KUV27TMEQUH506BZR9N6KEO1","","","img/flower5.png","74","58.79999998211861","74","1",""
"null","","html-keyboard-response","187","531755","0.0-187.0","3C44YUNSI2B81SMPRC73J0A218ZDPB","A3AU8PZ6HHBCVT","39WSF6KUV27TMEQUH506BZR9N6KEO1","","","<img src=""img/flower5.png"" style=""width:200px; border:14px solid green;"">","null","","","",""
"617.3000000119209","","image-keyboard-response","188","532377","0.0-188.0","3C44YUNSI2B81SMPRC73J0A218ZDPB","A3AU8PZ6HHBCVT","39WSF6KUV27TMEQUH506BZR9N6KEO1","","","img/flower8.png","75","620.4000000059605","75","1",""
"null","","html-keyboard-response","189","532683","0.0-189.0","3C44YUNSI2B81SMPRC73J0A218ZDPB","A3AU8PZ6HHBCVT","39WSF6KUV27TMEQUH506BZR9N6KEO1","","","<img src=""img/flower8.png"" style=""width:200px; border:14px solid green;"">","null","","","",""
"441.19999998807907","","image-keyboard-response","190","533134","0.0-190.0","3C44YUNSI2B81SMPRC73J0A218ZDPB","A3AU8PZ6HHBCVT","39WSF6KUV27TMEQUH506BZR9N6KEO1","","","img/flower5.png","74","450.59999999403954","74","1",""
"null","","html-keyboard-response","191","533439","0.0-191.0","3C44YUNSI2B81SMPRC73J0A218ZDPB","A3AU8PZ6HHBCVT","39WSF6KUV27TMEQUH506BZR9N6KEO1","","","<img src=""img/flower5.png"" style=""width:200px; border:14px solid green;"">","null","","","",""
"374.40000000596046","","image-keyboard-response","192","533822","0.0-192.0","3C44YUNSI2B81SMPRC73J0A218ZDPB","A3AU8PZ6HHBCVT","39WSF6KUV27TMEQUH506BZR9N6KEO1","","","img/flower8.png","76","380.5","76","0",""
"null","","html-keyboard-response","193","534132","0.0-193.0","3C44YUNSI2B81SMPRC73J0A218ZDPB","A3AU8PZ6HHBCVT","39WSF6KUV27TMEQUH506BZR9N6KEO1","","","<img src=""img/flower8.png"" style=""width:200px;border:14px solid red;"">","null","","","",""
"151.09999999403954","","image-keyboard-response","194","534291","0.0-194.0","3C44YUNSI2B81SMPRC73J0A218ZDPB","A3AU8PZ6HHBCVT","39WSF6KUV27TMEQUH506BZR9N6KEO1","","","img/flower8.png","74","157.09999999403954","74","1",""
"null","","html-keyboard-response","195","534598","0.0-195.0","3C44YUNSI2B81SMPRC73J0A218ZDPB","A3AU8PZ6HHBCVT","39WSF6KUV27TMEQUH506BZR9N6KEO1","","","<img src=""img/flower8.png"" style=""width:200px; border:14px solid green;"">","null","","","",""
"359.09999999403954","","image-keyboard-response","196","534967","0.0-196.0","3C44YUNSI2B81SMPRC73J0A218ZDPB","A3AU8PZ6HHBCVT","39WSF6KUV27TMEQUH506BZR9N6KEO1","","","img/flower8.png","74","365.5","74","1",""
"null","","html-keyboard-response","197","535274","0.0-197.0","3C44YUNSI2B81SMPRC73J0A218ZDPB","A3AU8PZ6HHBCVT","39WSF6KUV27TMEQUH506BZR9N6KEO1","","","<img src=""img/flower8.png"" style=""width:200px; border:14px solid green;"">","null","","","",""
"10.099999994039536","","image-keyboard-response","198","535293","0.0-198.0","3C44YUNSI2B81SMPRC73J0A218ZDPB","A3AU8PZ6HHBCVT","39WSF6KUV27TMEQUH506BZR9N6KEO1","","","img/flower8.png","75","16.299999982118607","75","0",""
"null","","html-keyboard-response","199","535599","0.0-199.0","3C44YUNSI2B81SMPRC73J0A218ZDPB","A3AU8PZ6HHBCVT","39WSF6KUV27TMEQUH506BZR9N6KEO1","","","<img src=""img/flower8.png"" style=""width:200px;border:14px solid red;"">","null","","","",""
"130.40000000596046","","image-keyboard-response","200","535737","0.0-200.0","3C44YUNSI2B81SMPRC73J0A218ZDPB","A3AU8PZ6HHBCVT","39WSF6KUV27TMEQUH506BZR9N6KEO1","","","img/flower8.png","74","136.59999999403954","74","1",""
"null","","html-keyboard-response","201","536045","0.0-201.0","3C44YUNSI2B81SMPRC73J0A218ZDPB","A3AU8PZ6HHBCVT","39WSF6KUV27TMEQUH506BZR9N6KEO1","","","<img src=""img/flower8.png"" style=""width:200px; border:14px solid green;"">","null","","","",""
"128.5","","image-keyboard-response","202","536180","0.0-202.0","3C44YUNSI2B81SMPRC73J0A218ZDPB","A3AU8PZ6HHBCVT","39WSF6KUV27TMEQUH506BZR9N6KEO1","","","img/flower4.png","74","133.5","74","0",""
"null","","html-keyboard-response","203","536489","0.0-203.0","3C44YUNSI2B81SMPRC73J0A218ZDPB","A3AU8PZ6HHBCVT","39WSF6KUV27TMEQUH506BZR9N6KEO1","","","<img src=""img/flower4.png"" style=""width:200px;border:14px solid red;"">","null","","","",""
"590.5999999940395","","image-keyboard-response","204","537089","0.0-204.0","3C44YUNSI2B81SMPRC73J0A218ZDPB","A3AU8PZ6HHBCVT","39WSF6KUV27TMEQUH506BZR9N6KEO1","","","img/flower4.png","76","597.0999999940395","76","1",""
"null","","html-keyboard-response","205","537394","0.0-205.0","3C44YUNSI2B81SMPRC73J0A218ZDPB","A3AU8PZ6HHBCVT","39WSF6KUV27TMEQUH506BZR9N6KEO1","","","<img src=""img/flower4.png"" style=""width:200px; border:14px solid green;"">","null","","","",""
"1030.4000000059605","","image-keyboard-response","206","538434","0.0-206.0","3C44YUNSI2B81SMPRC73J0A218ZDPB","A3AU8PZ6HHBCVT","39WSF6KUV27TMEQUH506BZR9N6KEO1","","","img/flower5.png","74","1036.1000000238419","74","1",""
"null","","html-keyboard-response","207","538739","0.0-207.0","3C44YUNSI2B81SMPRC73J0A218ZDPB","A3AU8PZ6HHBCVT","39WSF6KUV27TMEQUH506BZR9N6KEO1","","","<img src=""img/flower5.png"" style=""width:200px; border:14px solid green;"">","null","","","",""
"1291.0999999940395","","image-keyboard-response","208","540039","0.0-208.0","3C44YUNSI2B81SMPRC73J0A218ZDPB","A3AU8PZ6HHBCVT","39WSF6KUV27TMEQUH506BZR9N6KEO1","","","img/flower4.png","76","1298.199999988079","76","0",""
"null","","html-keyboard-response","209","540347","0.0-209.0","3C44YUNSI2B81SMPRC73J0A218ZDPB","A3AU8PZ6HHBCVT","39WSF6KUV27TMEQUH506BZR9N6KEO1","","","<img src=""img/flower4.png"" style=""width:200px;border:14px solid red;"">","null","","","",""
"169.5","","image-keyboard-response","210","540529","0.0-210.0","3C44YUNSI2B81SMPRC73J0A218ZDPB","A3AU8PZ6HHBCVT","39WSF6KUV27TMEQUH506BZR9N6KEO1","","","img/flower4.png","75","180","75","1",""
"null","","html-keyboard-response","211","540836","0.0-211.0","3C44YUNSI2B81SMPRC73J0A218ZDPB","A3AU8PZ6HHBCVT","39WSF6KUV27TMEQUH506BZR9N6KEO1","","","<img src=""img/flower4.png"" style=""width:200px; border:14px solid green;"">","null","","","",""
"472.5","","image-keyboard-response","212","541316","0.0-212.0","3C44YUNSI2B81SMPRC73J0A218ZDPB","A3AU8PZ6HHBCVT","39WSF6KUV27TMEQUH506BZR9N6KEO1","","","img/flower4.png","75","477.40000000596046","75","1",""
"null","","html-keyboard-response","213","541621","0.0-213.0","3C44YUNSI2B81SMPRC73J0A218ZDPB","A3AU8PZ6HHBCVT","39WSF6KUV27TMEQUH506BZR9N6KEO1","","","<img src=""img/flower4.png"" style=""width:200px; border:14px solid green;"">","null","","","",""
"1018.0999999940395","","image-keyboard-response","214","542647","0.0-214.0","3C44YUNSI2B81SMPRC73J0A218ZDPB","A3AU8PZ6HHBCVT","39WSF6KUV27TMEQUH506BZR9N6KEO1","","","img/flower8.png","76","1023.3999999761581","76","0",""
"null","","html-keyboard-response","215","542955","0.0-215.0","3C44YUNSI2B81SMPRC73J0A218ZDPB","A3AU8PZ6HHBCVT","39WSF6KUV27TMEQUH506BZR9N6KEO1","","","<img src=""img/flower8.png"" style=""width:200px;border:14px solid red;"">","null","","","",""
"135.59999999403954","","image-keyboard-response","216","543105","0.0-216.0","3C44YUNSI2B81SMPRC73J0A218ZDPB","A3AU8PZ6HHBCVT","39WSF6KUV27TMEQUH506BZR9N6KEO1","","","img/flower5.png","75","147.80000001192093","75","0",""
"null","","html-keyboard-response","217","543411","0.0-217.0","3C44YUNSI2B81SMPRC73J0A218ZDPB","A3AU8PZ6HHBCVT","39WSF6KUV27TMEQUH506BZR9N6KEO1","","","<img src=""img/flower5.png"" style=""width:200px;border:14px solid red;"">","null","","","",""
"661.1000000238419","","image-keyboard-response","218","544082","0.0-218.0","3C44YUNSI2B81SMPRC73J0A218ZDPB","A3AU8PZ6HHBCVT","39WSF6KUV27TMEQUH506BZR9N6KEO1","","","img/flower5.png","74","669.7999999821186","74","0",""
"null","","html-keyboard-response","219","544388","0.0-219.0","3C44YUNSI2B81SMPRC73J0A218ZDPB","A3AU8PZ6HHBCVT","39WSF6KUV27TMEQUH506BZR9N6KEO1","","","<img src=""img/flower5.png"" style=""width:200px;border:14px solid red;"">","null","","","",""
"115.09999999403954","","image-keyboard-response","220","544515","0.0-220.0","3C44YUNSI2B81SMPRC73J0A218ZDPB","A3AU8PZ6HHBCVT","39WSF6KUV27TMEQUH506BZR9N6KEO1","","","img/flower8.png","75","123.59999999403954","75","1",""
"null","","html-keyboard-response","221","544821","0.0-221.0","3C44YUNSI2B81SMPRC73J0A218ZDPB","A3AU8PZ6HHBCVT","39WSF6KUV27TMEQUH506BZR9N6KEO1","","","<img src=""img/flower8.png"" style=""width:200px; border:14px solid green;"">","null","","","",""
"28.5","","image-keyboard-response","222","544856","0.0-222.0","3C44YUNSI2B81SMPRC73J0A218ZDPB","A3AU8PZ6HHBCVT","39WSF6KUV27TMEQUH506BZR9N6KEO1","","","img/flower4.png","76","32.79999998211861","76","0",""
"null","","html-keyboard-response","223","545163","0.0-223.0","3C44YUNSI2B81SMPRC73J0A218ZDPB","A3AU8PZ6HHBCVT","39WSF6KUV27TMEQUH506BZR9N6KEO1","","","<img src=""img/flower4.png"" style=""width:200px;border:14px solid red;"">","null","","","",""
"273.09999999403954","","image-keyboard-response","224","545443","0.0-224.0","3C44YUNSI2B81SMPRC73J0A218ZDPB","A3AU8PZ6HHBCVT","39WSF6KUV27TMEQUH506BZR9N6KEO1","","","img/flower4.png","75","279.09999999403954","75","1",""
"null","","html-keyboard-response","225","545754","0.0-225.0","3C44YUNSI2B81SMPRC73J0A218ZDPB","A3AU8PZ6HHBCVT","39WSF6KUV27TMEQUH506BZR9N6KEO1","","","<img src=""img/flower4.png"" style=""width:200px; border:14px solid green;"">","null","","","",""
"0.29999998211860657","","image-keyboard-response","226","545761","0.0-226.0","3C44YUNSI2B81SMPRC73J0A218ZDPB","A3AU8PZ6HHBCVT","39WSF6KUV27TMEQUH506BZR9N6KEO1","","","img/flower4.png","74","5.199999988079071","74","0",""
"null","","html-keyboard-response","227","546067","0.0-227.0","3C44YUNSI2B81SMPRC73J0A218ZDPB","A3AU8PZ6HHBCVT","39WSF6KUV27TMEQUH506BZR9N6KEO1","","","<img src=""img/flower4.png"" style=""width:200px;border:14px solid red;"">","null","","","",""
"218.10000002384186","","image-keyboard-response","228","546295","0.0-228.0","3C44YUNSI2B81SMPRC73J0A218ZDPB","A3AU8PZ6HHBCVT","39WSF6KUV27TMEQUH506BZR9N6KEO1","","","img/flower5.png","76","223.90000000596046","76","1",""
"null","","html-keyboard-response","229","546601","0.0-229.0","3C44YUNSI2B81SMPRC73J0A218ZDPB","A3AU8PZ6HHBCVT","39WSF6KUV27TMEQUH506BZR9N6KEO1","","","<img src=""img/flower5.png"" style=""width:200px; border:14px solid green;"">","null","","","",""
"35","","image-keyboard-response","230","546645","0.0-230.0","3C44YUNSI2B81SMPRC73J0A218ZDPB","A3AU8PZ6HHBCVT","39WSF6KUV27TMEQUH506BZR9N6KEO1","","","img/flower5.png","75","42","75","0",""
"null","","html-keyboard-response","231","546953","0.0-231.0","3C44YUNSI2B81SMPRC73J0A218ZDPB","A3AU8PZ6HHBCVT","39WSF6KUV27TMEQUH506BZR9N6KEO1","","","<img src=""img/flower5.png"" style=""width:200px;border:14px solid red;"">","null","","","",""
"130.90000000596046","","image-keyboard-response","232","547091","0.0-232.0","3C44YUNSI2B81SMPRC73J0A218ZDPB","A3AU8PZ6HHBCVT","39WSF6KUV27TMEQUH506BZR9N6KEO1","","","img/flower5.png","75","136","75","0",""
"null","","html-keyboard-response","233","547399","0.0-233.0","3C44YUNSI2B81SMPRC73J0A218ZDPB","A3AU8PZ6HHBCVT","39WSF6KUV27TMEQUH506BZR9N6KEO1","","","<img src=""img/flower5.png"" style=""width:200px;border:14px solid red;"">","null","","","",""
"7.700000017881393","","image-keyboard-response","234","547412","0.0-234.0","3C44YUNSI2B81SMPRC73J0A218ZDPB","A3AU8PZ6HHBCVT","39WSF6KUV27TMEQUH506BZR9N6KEO1","","","img/flower8.png","74","10.900000005960464","74","1",""
"null","","html-keyboard-response","235","547717","0.0-235.0","3C44YUNSI2B81SMPRC73J0A218ZDPB","A3AU8PZ6HHBCVT","39WSF6KUV27TMEQUH506BZR9N6KEO1","","","<img src=""img/flower8.png"" style=""width:200px; border:14px solid green;"">","null","","","",""
"594.0999999940395","","image-keyboard-response","236","548321","0.0-236.0","3C44YUNSI2B81SMPRC73J0A218ZDPB","A3AU8PZ6HHBCVT","39WSF6KUV27TMEQUH506BZR9N6KEO1","","","img/flower8.png","74","602.8000000119209","74","1",""
"null","","html-keyboard-response","237","548632","0.0-237.0","3C44YUNSI2B81SMPRC73J0A218ZDPB","A3AU8PZ6HHBCVT","39WSF6KUV27TMEQUH506BZR9N6KEO1","","","<img src=""img/flower8.png"" style=""width:200px; border:14px solid green;"">","null","","","",""
"804.3999999761581","","image-keyboard-response","238","549444","0.0-238.0","3C44YUNSI2B81SMPRC73J0A218ZDPB","A3AU8PZ6HHBCVT","39WSF6KUV27TMEQUH506BZR9N6KEO1","","","img/flower5.png","76","809.1999999880791","76","0",""
"null","","html-keyboard-response","239","549749","0.0-239.0","3C44YUNSI2B81SMPRC73J0A218ZDPB","A3AU8PZ6HHBCVT","39WSF6KUV27TMEQUH506BZR9N6KEO1","","","<img src=""img/flower5.png"" style=""width:200px;border:14px solid red;"">","null","","","",""
"883.5","","image-keyboard-response","240","550640","0.0-240.0","3C44YUNSI2B81SMPRC73J0A218ZDPB","A3AU8PZ6HHBCVT","39WSF6KUV27TMEQUH506BZR9N6KEO1","","","img/flower4.png","76","888.8000000119209","76","1",""
"null","","html-keyboard-response","241","550945","0.0-241.0","3C44YUNSI2B81SMPRC73J0A218ZDPB","A3AU8PZ6HHBCVT","39WSF6KUV27TMEQUH506BZR9N6KEO1","","","<img src=""img/flower4.png"" style=""width:200px; border:14px solid green;"">","null","","","",""
"960.1000000238419","","image-keyboard-response","242","551913","0.0-242.0","3C44YUNSI2B81SMPRC73J0A218ZDPB","A3AU8PZ6HHBCVT","39WSF6KUV27TMEQUH506BZR9N6KEO1","","","img/flower8.png","74","964.6999999880791","74","0",""
"null","","html-keyboard-response","243","552219","0.0-243.0","3C44YUNSI2B81SMPRC73J0A218ZDPB","A3AU8PZ6HHBCVT","39WSF6KUV27TMEQUH506BZR9N6KEO1","","","<img src=""img/flower8.png"" style=""width:200px;border:14px solid red;"">","null","","","",""
"841.6999999880791","","image-keyboard-response","244","553069","0.0-244.0","3C44YUNSI2B81SMPRC73J0A218ZDPB","A3AU8PZ6HHBCVT","39WSF6KUV27TMEQUH506BZR9N6KEO1","","","img/flower5.png","75","847.6999999880791","75","0",""
"null","","html-keyboard-response","245","553375","0.0-245.0","3C44YUNSI2B81SMPRC73J0A218ZDPB","A3AU8PZ6HHBCVT","39WSF6KUV27TMEQUH506BZR9N6KEO1","","","<img src=""img/flower5.png"" style=""width:200px;border:14px solid red;"">","null","","","",""
"669.2999999821186","","image-keyboard-response","246","554052","0.0-246.0","3C44YUNSI2B81SMPRC73J0A218ZDPB","A3AU8PZ6HHBCVT","39WSF6KUV27TMEQUH506BZR9N6KEO1","","","img/flower8.png","74","676","74","0",""
"null","","html-keyboard-response","247","554360","0.0-247.0","3C44YUNSI2B81SMPRC73J0A218ZDPB","A3AU8PZ6HHBCVT","39WSF6KUV27TMEQUH506BZR9N6KEO1","","","<img src=""img/flower8.png"" style=""width:200px;border:14px solid red;"">","null","","","",""
"1568.699999988079","","image-keyboard-response","248","555938","0.0-248.0","3C44YUNSI2B81SMPRC73J0A218ZDPB","A3AU8PZ6HHBCVT","39WSF6KUV27TMEQUH506BZR9N6KEO1","","","img/flower5.png","75","1575","75","0",""
"null","","html-keyboard-response","249","556244","0.0-249.0","3C44YUNSI2B81SMPRC73J0A218ZDPB","A3AU8PZ6HHBCVT","39WSF6KUV27TMEQUH506BZR9N6KEO1","","","<img src=""img/flower5.png"" style=""width:200px;border:14px solid red;"">","null","","","",""
"1287.4000000059605","","image-keyboard-response","250","557539","0.0-250.0","3C44YUNSI2B81SMPRC73J0A218ZDPB","A3AU8PZ6HHBCVT","39WSF6KUV27TMEQUH506BZR9N6KEO1","","","img/flower4.png","76","1294.300000011921","76","1",""
"null","","html-keyboard-response","251","557847","0.0-251.0","3C44YUNSI2B81SMPRC73J0A218ZDPB","A3AU8PZ6HHBCVT","39WSF6KUV27TMEQUH506BZR9N6KEO1","","","<img src=""img/flower4.png"" style=""width:200px; border:14px solid green;"">","null","","","",""
"817.1999999880791","","image-keyboard-response","252","558673","0.0-252.0","3C44YUNSI2B81SMPRC73J0A218ZDPB","A3AU8PZ6HHBCVT","39WSF6KUV27TMEQUH506BZR9N6KEO1","","","img/flower5.png","74","824.3999999761581","74","0",""
"null","","html-keyboard-response","253","558983","0.0-253.0","3C44YUNSI2B81SMPRC73J0A218ZDPB","A3AU8PZ6HHBCVT","39WSF6KUV27TMEQUH506BZR9N6KEO1","","","<img src=""img/flower5.png"" style=""width:200px;border:14px solid red;"">","null","","","",""
"356.7000000178814","","image-keyboard-response","254","559343","0.0-254.0","3C44YUNSI2B81SMPRC73J0A218ZDPB","A3AU8PZ6HHBCVT","39WSF6KUV27TMEQUH506BZR9N6KEO1","","","img/flower8.png","75","359.40000000596046","75","0",""
"null","","html-keyboard-response","255","559648","0.0-255.0","3C44YUNSI2B81SMPRC73J0A218ZDPB","A3AU8PZ6HHBCVT","39WSF6KUV27TMEQUH506BZR9N6KEO1","","","<img src=""img/flower8.png"" style=""width:200px;border:14px solid red;"">","null","","","",""
"104.09999999403954","","image-keyboard-response","256","559758","0.0-256.0","3C44YUNSI2B81SMPRC73J0A218ZDPB","A3AU8PZ6HHBCVT","39WSF6KUV27TMEQUH506BZR9N6KEO1","","","img/flower5.png","76","108.30000001192093","76","1",""
"null","","html-keyboard-response","257","560064","0.0-257.0","3C44YUNSI2B81SMPRC73J0A218ZDPB","A3AU8PZ6HHBCVT","39WSF6KUV27TMEQUH506BZR9N6KEO1","","","<img src=""img/flower5.png"" style=""width:200px; border:14px solid green;"">","null","","","",""
"130.59999999403954","","image-keyboard-response","258","560201","0.0-258.0","3C44YUNSI2B81SMPRC73J0A218ZDPB","A3AU8PZ6HHBCVT","39WSF6KUV27TMEQUH506BZR9N6KEO1","","","img/flower4.png","74","134.90000000596046","74","0",""
"null","","html-keyboard-response","259","560508","0.0-259.0","3C44YUNSI2B81SMPRC73J0A218ZDPB","A3AU8PZ6HHBCVT","39WSF6KUV27TMEQUH506BZR9N6KEO1","","","<img src=""img/flower4.png"" style=""width:200px;border:14px solid red;"">","null","","","",""
"307.40000000596046","","image-keyboard-response","260","560823","0.0-260.0","3C44YUNSI2B81SMPRC73J0A218ZDPB","A3AU8PZ6HHBCVT","39WSF6KUV27TMEQUH506BZR9N6KEO1","","","img/flower4.png","75","313.7999999821186","75","0",""
"null","","html-keyboard-response","261","561132","0.0-261.0","3C44YUNSI2B81SMPRC73J0A218ZDPB","A3AU8PZ6HHBCVT","39WSF6KUV27TMEQUH506BZR9N6KEO1","","","<img src=""img/flower4.png"" style=""width:200px;border:14px solid red;"">","null","","","",""
"151.90000000596046","","image-keyboard-response","262","561290","0.0-262.0","3C44YUNSI2B81SMPRC73J0A218ZDPB","A3AU8PZ6HHBCVT","39WSF6KUV27TMEQUH506BZR9N6KEO1","","","img/flower8.png","74","157.69999998807907","74","0",""
"null","","html-keyboard-response","263","561594","0.0-263.0","3C44YUNSI2B81SMPRC73J0A218ZDPB","A3AU8PZ6HHBCVT","39WSF6KUV27TMEQUH506BZR9N6KEO1","","","<img src=""img/flower8.png"" style=""width:200px;border:14px solid red;"">","null","","","",""
"167.59999999403954","","image-keyboard-response","264","561766","0.0-264.0","3C44YUNSI2B81SMPRC73J0A218ZDPB","A3AU8PZ6HHBCVT","39WSF6KUV27TMEQUH506BZR9N6KEO1","","","img/flower5.png","74","171.59999999403954","74","0",""
"null","","html-keyboard-response","265","562073","0.0-265.0","3C44YUNSI2B81SMPRC73J0A218ZDPB","A3AU8PZ6HHBCVT","39WSF6KUV27TMEQUH506BZR9N6KEO1","","","<img src=""img/flower5.png"" style=""width:200px;border:14px solid red;"">","null","","","",""
"46.30000001192093","","image-keyboard-response","266","562129","0.0-266.0","3C44YUNSI2B81SMPRC73J0A218ZDPB","A3AU8PZ6HHBCVT","39WSF6KUV27TMEQUH506BZR9N6KEO1","","","img/flower8.png","75","53.80000001192093","75","1",""
"null","","html-keyboard-response","267","562433","0.0-267.0","3C44YUNSI2B81SMPRC73J0A218ZDPB","A3AU8PZ6HHBCVT","39WSF6KUV27TMEQUH506BZR9N6KEO1","","","<img src=""img/flower8.png"" style=""width:200px; border:14px solid green;"">","null","","","",""
"241.5","","image-keyboard-response","268","562678","0.0-268.0","3C44YUNSI2B81SMPRC73J0A218ZDPB","A3AU8PZ6HHBCVT","39WSF6KUV27TMEQUH506BZR9N6KEO1","","","img/flower8.png","76","245.69999998807907","76","0",""
"null","","html-keyboard-response","269","562984","0.0-269.0","3C44YUNSI2B81SMPRC73J0A218ZDPB","A3AU8PZ6HHBCVT","39WSF6KUV27TMEQUH506BZR9N6KEO1","","","<img src=""img/flower8.png"" style=""width:200px;border:14px solid red;"">","null","","","",""
"117","","image-keyboard-response","270","563106","0.0-270.0","3C44YUNSI2B81SMPRC73J0A218ZDPB","A3AU8PZ6HHBCVT","39WSF6KUV27TMEQUH506BZR9N6KEO1","","","img/flower5.png","75","121.5","75","0",""
"null","","html-keyboard-response","271","563415","0.0-271.0","3C44YUNSI2B81SMPRC73J0A218ZDPB","A3AU8PZ6HHBCVT","39WSF6KUV27TMEQUH506BZR9N6KEO1","","","<img src=""img/flower5.png"" style=""width:200px;border:14px solid red;"">","null","","","",""
"69.80000001192093","","image-keyboard-response","272","563488","0.0-272.0","3C44YUNSI2B81SMPRC73J0A218ZDPB","A3AU8PZ6HHBCVT","39WSF6KUV27TMEQUH506BZR9N6KEO1","","","img/flower4.png","74","73.59999999403954","74","0",""
"null","","html-keyboard-response","273","563798","0.0-273.0","3C44YUNSI2B81SMPRC73J0A218ZDPB","A3AU8PZ6HHBCVT","39WSF6KUV27TMEQUH506BZR9N6KEO1","","","<img src=""img/flower4.png"" style=""width:200px;border:14px solid red;"">","null","","","",""
"28.099999994039536","","image-keyboard-response","274","563831","0.0-274.0","3C44YUNSI2B81SMPRC73J0A218ZDPB","A3AU8PZ6HHBCVT","39WSF6KUV27TMEQUH506BZR9N6KEO1","","","img/flower8.png","74","31.799999982118607","74","1",""
"null","","html-keyboard-response","275","564137","0.0-275.0","3C44YUNSI2B81SMPRC73J0A218ZDPB","A3AU8PZ6HHBCVT","39WSF6KUV27TMEQUH506BZR9N6KEO1","","","<img src=""img/flower8.png"" style=""width:200px; border:14px solid green;"">","null","","","",""
"138.69999998807907","","image-keyboard-response","276","564281","0.0-276.0","3C44YUNSI2B81SMPRC73J0A218ZDPB","A3AU8PZ6HHBCVT","39WSF6KUV27TMEQUH506BZR9N6KEO1","","","img/flower8.png","75","143.69999998807907","75","0",""
"null","","html-keyboard-response","277","564590","0.0-277.0","3C44YUNSI2B81SMPRC73J0A218ZDPB","A3AU8PZ6HHBCVT","39WSF6KUV27TMEQUH506BZR9N6KEO1","","","<img src=""img/flower8.png"" style=""width:200px;border:14px solid red;"">","null","","","",""
"0.4000000059604645","","image-keyboard-response","278","564597","0.0-278.0","3C44YUNSI2B81SMPRC73J0A218ZDPB","A3AU8PZ6HHBCVT","39WSF6KUV27TMEQUH506BZR9N6KEO1","","","img/flower8.png","74","5.0999999940395355","74","1",""
"null","","html-keyboard-response","279","564901","0.0-279.0","3C44YUNSI2B81SMPRC73J0A218ZDPB","A3AU8PZ6HHBCVT","39WSF6KUV27TMEQUH506BZR9N6KEO1","","","<img src=""img/flower8.png"" style=""width:200px; border:14px solid green;"">","null","","","",""
"24.700000017881393","","image-keyboard-response","280","564931","0.0-280.0","3C44YUNSI2B81SMPRC73J0A218ZDPB","A3AU8PZ6HHBCVT","39WSF6KUV27TMEQUH506BZR9N6KEO1","","","img/flower8.png","74","28.399999976158142","74","0",""
"null","","html-keyboard-response","281","565235","0.0-281.0","3C44YUNSI2B81SMPRC73J0A218ZDPB","A3AU8PZ6HHBCVT","39WSF6KUV27TMEQUH506BZR9N6KEO1","","","<img src=""img/flower8.png"" style=""width:200px;border:14px solid red;"">","null","","","",""
"51.10000002384186","","image-keyboard-response","282","565291","0.0-282.0","3C44YUNSI2B81SMPRC73J0A218ZDPB","A3AU8PZ6HHBCVT","39WSF6KUV27TMEQUH506BZR9N6KEO1","","","img/flower4.png","75","54.80000001192093","75","0",""
"null","","html-keyboard-response","283","565596","0.0-283.0","3C44YUNSI2B81SMPRC73J0A218ZDPB","A3AU8PZ6HHBCVT","39WSF6KUV27TMEQUH506BZR9N6KEO1","","","<img src=""img/flower4.png"" style=""width:200px;border:14px solid red;"">","null","","","",""
"0.4000000059604645","","image-keyboard-response","284","565601","0.0-284.0","3C44YUNSI2B81SMPRC73J0A218ZDPB","A3AU8PZ6HHBCVT","39WSF6KUV27TMEQUH506BZR9N6KEO1","","","img/flower4.png","74","4.299999982118607","74","0",""
"null","","html-keyboard-response","285","565907","0.0-285.0","3C44YUNSI2B81SMPRC73J0A218ZDPB","A3AU8PZ6HHBCVT","39WSF6KUV27TMEQUH506BZR9N6KEO1","","","<img src=""img/flower4.png"" style=""width:200px;border:14px solid red;"">","null","","","",""
"54.39999997615814","","image-keyboard-response","286","565969","0.0-286.0","3C44YUNSI2B81SMPRC73J0A218ZDPB","A3AU8PZ6HHBCVT","39WSF6KUV27TMEQUH506BZR9N6KEO1","","","img/flower4.png","76","61.20000001788139","76","1",""
"null","","html-keyboard-response","287","566277","0.0-287.0","3C44YUNSI2B81SMPRC73J0A218ZDPB","A3AU8PZ6HHBCVT","39WSF6KUV27TMEQUH506BZR9N6KEO1","","","<img src=""img/flower4.png"" style=""width:200px; border:14px solid green;"">","null","","","",""
"6.5","","image-keyboard-response","288","566291","0.0-288.0","3C44YUNSI2B81SMPRC73J0A218ZDPB","A3AU8PZ6HHBCVT","39WSF6KUV27TMEQUH506BZR9N6KEO1","","","img/flower4.png","74","12.300000011920929","74","0",""
"null","","html-keyboard-response","289","566597","0.0-289.0","3C44YUNSI2B81SMPRC73J0A218ZDPB","A3AU8PZ6HHBCVT","39WSF6KUV27TMEQUH506BZR9N6KEO1","","","<img src=""img/flower4.png"" style=""width:200px;border:14px solid red;"">","null","","","",""
"20.80000001192093","","image-keyboard-response","290","566625","0.0-290.0","3C44YUNSI2B81SMPRC73J0A218ZDPB","A3AU8PZ6HHBCVT","39WSF6KUV27TMEQUH506BZR9N6KEO1","","","img/flower4.png","74","25.599999994039536","74","0",""
"null","","html-keyboard-response","291","566930","0.0-291.0","3C44YUNSI2B81SMPRC73J0A218ZDPB","A3AU8PZ6HHBCVT","39WSF6KUV27TMEQUH506BZR9N6KEO1","","","<img src=""img/flower4.png"" style=""width:200px;border:14px solid red;"">","null","","","",""
"105.5","","image-keyboard-response","292","567044","0.0-292.0","3C44YUNSI2B81SMPRC73J0A218ZDPB","A3AU8PZ6HHBCVT","39WSF6KUV27TMEQUH506BZR9N6KEO1","","","img/flower5.png","74","113.5","74","1",""
"null","","html-keyboard-response","293","567349","0.0-293.0","3C44YUNSI2B81SMPRC73J0A218ZDPB","A3AU8PZ6HHBCVT","39WSF6KUV27TMEQUH506BZR9N6KEO1","","","<img src=""img/flower5.png"" style=""width:200px; border:14px solid green;"">","null","","","",""
"109.80000001192093","","image-keyboard-response","294","567464","0.0-294.0","3C44YUNSI2B81SMPRC73J0A218ZDPB","A3AU8PZ6HHBCVT","39WSF6KUV27TMEQUH506BZR9N6KEO1","","","img/flower5.png","74","113.2999999821186","74","1",""
"null","","html-keyboard-response","295","567770","0.0-295.0","3C44YUNSI2B81SMPRC73J0A218ZDPB","A3AU8PZ6HHBCVT","39WSF6KUV27TMEQUH506BZR9N6KEO1","","","<img src=""img/flower5.png"" style=""width:200px; border:14px solid green;"">","null","","","",""
"7.5","","image-keyboard-response","296","567784","0.0-296.0","3C44YUNSI2B81SMPRC73J0A218ZDPB","A3AU8PZ6HHBCVT","39WSF6KUV27TMEQUH506BZR9N6KEO1","","","img/flower5.png","74","11.900000005960464","74","1",""
"null","","html-keyboard-response","297","568088","0.0-297.0","3C44YUNSI2B81SMPRC73J0A218ZDPB","A3AU8PZ6HHBCVT","39WSF6KUV27TMEQUH506BZR9N6KEO1","","","<img src=""img/flower5.png"" style=""width:200px; border:14px solid green;"">","null","","","",""
"1112.9000000059605","","image-keyboard-response","298","569210","0.0-298.0","3C44YUNSI2B81SMPRC73J0A218ZDPB","A3AU8PZ6HHBCVT","39WSF6KUV27TMEQUH506BZR9N6KEO1","","","img/flower4.png","76","1120","76","1",""
"null","","html-keyboard-response","299","569520","0.0-299.0","3C44YUNSI2B81SMPRC73J0A218ZDPB","A3AU8PZ6HHBCVT","39WSF6KUV27TMEQUH506BZR9N6KEO1","","","<img src=""img/flower4.png"" style=""width:200px; border:14px solid green;"">","null","","","",""
"338.2999999821186","","image-keyboard-response","300","569863","0.0-300.0","3C44YUNSI2B81SMPRC73J0A218ZDPB","A3AU8PZ6HHBCVT","39WSF6KUV27TMEQUH506BZR9N6KEO1","","","img/flower4.png","76","341.2999999821186","76","1",""
"null","","html-keyboard-response","301","570167","0.0-301.0","3C44YUNSI2B81SMPRC73J0A218ZDPB","A3AU8PZ6HHBCVT","39WSF6KUV27TMEQUH506BZR9N6KEO1","","","<img src=""img/flower4.png"" style=""width:200px; border:14px solid green;"">","null","","","",""
"914.7000000178814","","image-keyboard-response","302","571088","0.0-302.0","3C44YUNSI2B81SMPRC73J0A218ZDPB","A3AU8PZ6HHBCVT","39WSF6KUV27TMEQUH506BZR9N6KEO1","","","img/flower5.png","74","919.4000000059605","74","1",""
"null","","html-keyboard-response","303","571395","0.0-303.0","3C44YUNSI2B81SMPRC73J0A218ZDPB","A3AU8PZ6HHBCVT","39WSF6KUV27TMEQUH506BZR9N6KEO1","","","<img src=""img/flower5.png"" style=""width:200px; border:14px solid green;"">","null","","","",""
"836.2999999821186","","image-keyboard-response","304","572240","0.0-304.0","3C44YUNSI2B81SMPRC73J0A218ZDPB","A3AU8PZ6HHBCVT","39WSF6KUV27TMEQUH506BZR9N6KEO1","","","img/flower8.png","75","841.3000000119209","75","1",""
"null","","html-keyboard-response","305","572544","0.0-305.0","3C44YUNSI2B81SMPRC73J0A218ZDPB","A3AU8PZ6HHBCVT","39WSF6KUV27TMEQUH506BZR9N6KEO1","","","<img src=""img/flower8.png"" style=""width:200px; border:14px solid green;"">","null","","","",""
"","","html-keyboard-response","306","579114","0.0-306.0","3C44YUNSI2B81SMPRC73J0A218ZDPB","A3AU8PZ6HHBCVT","39WSF6KUV27TMEQUH506BZR9N6KEO1","","","","","","","",""
"763.3999999761581","","image-keyboard-response","307","579885","0.0-307.0","3C44YUNSI2B81SMPRC73J0A218ZDPB","A3AU8PZ6HHBCVT","39WSF6KUV27TMEQUH506BZR9N6KEO1","","","img/flower6.png","76","768.3000000119209","76","1",""
"null","","html-keyboard-response","308","580196","0.0-308.0","3C44YUNSI2B81SMPRC73J0A218ZDPB","A3AU8PZ6HHBCVT","39WSF6KUV27TMEQUH506BZR9N6KEO1","","","<img src=""img/flower6.png"" style=""width:200px; border:14px solid green;"">","null","","","",""
"521.3999999761581","","image-keyboard-response","309","580724","0.0-309.0","3C44YUNSI2B81SMPRC73J0A218ZDPB","A3AU8PZ6HHBCVT","39WSF6KUV27TMEQUH506BZR9N6KEO1","","","img/flower6.png","76","526.5","76","1",""
"null","","html-keyboard-response","310","581034","0.0-310.0","3C44YUNSI2B81SMPRC73J0A218ZDPB","A3AU8PZ6HHBCVT","39WSF6KUV27TMEQUH506BZR9N6KEO1","","","<img src=""img/flower6.png"" style=""width:200px; border:14px solid green;"">","null","","","",""
"1045.2999999821186","","image-keyboard-response","311","582089","0.0-311.0","3C44YUNSI2B81SMPRC73J0A218ZDPB","A3AU8PZ6HHBCVT","39WSF6KUV27TMEQUH506BZR9N6KEO1","","","img/flower9.png","74","1051.699999988079","74","0",""
"null","","html-keyboard-response","312","582394","0.0-312.0","3C44YUNSI2B81SMPRC73J0A218ZDPB","A3AU8PZ6HHBCVT","39WSF6KUV27TMEQUH506BZR9N6KEO1","","","<img src=""img/flower9.png"" style=""width:200px;border:14px solid red;"">","null","","","",""
"624.9000000059605","","image-keyboard-response","313","583025","0.0-313.0","3C44YUNSI2B81SMPRC73J0A218ZDPB","A3AU8PZ6HHBCVT","39WSF6KUV27TMEQUH506BZR9N6KEO1","","","img/flower9.png","75","629.5","75","1",""
"null","","html-keyboard-response","314","583330","0.0-314.0","3C44YUNSI2B81SMPRC73J0A218ZDPB","A3AU8PZ6HHBCVT","39WSF6KUV27TMEQUH506BZR9N6KEO1","","","<img src=""img/flower9.png"" style=""width:200px; border:14px solid green;"">","null","","","",""
"1297","","image-keyboard-response","315","584636","0.0-315.0","3C44YUNSI2B81SMPRC73J0A218ZDPB","A3AU8PZ6HHBCVT","39WSF6KUV27TMEQUH506BZR9N6KEO1","","","img/flower9.png","75","1303.9000000059605","75","1",""
"null","","html-keyboard-response","316","584942","0.0-316.0","3C44YUNSI2B81SMPRC73J0A218ZDPB","A3AU8PZ6HHBCVT","39WSF6KUV27TMEQUH506BZR9N6KEO1","","","<img src=""img/flower9.png"" style=""width:200px; border:14px solid green;"">","null","","","",""
"567.4000000059605","","image-keyboard-response","317","585515","0.0-317.0","3C44YUNSI2B81SMPRC73J0A218ZDPB","A3AU8PZ6HHBCVT","39WSF6KUV27TMEQUH506BZR9N6KEO1","","","img/flower6.png","76","572.1000000238419","76","1",""
"null","","html-keyboard-response","318","585822","0.0-318.0","3C44YUNSI2B81SMPRC73J0A218ZDPB","A3AU8PZ6HHBCVT","39WSF6KUV27TMEQUH506BZR9N6KEO1","","","<img src=""img/flower6.png"" style=""width:200px; border:14px solid green;"">","null","","","",""
"642.5999999940395","","image-keyboard-response","319","586475","0.0-319.0","3C44YUNSI2B81SMPRC73J0A218ZDPB","A3AU8PZ6HHBCVT","39WSF6KUV27TMEQUH506BZR9N6KEO1","","","img/flower9.png","75","649.9000000059605","75","1",""
"null","","html-keyboard-response","320","586779","0.0-320.0","3C44YUNSI2B81SMPRC73J0A218ZDPB","A3AU8PZ6HHBCVT","39WSF6KUV27TMEQUH506BZR9N6KEO1","","","<img src=""img/flower9.png"" style=""width:200px; border:14px solid green;"">","null","","","",""
"516.6999999880791","","image-keyboard-response","321","587305","0.0-321.0","3C44YUNSI2B81SMPRC73J0A218ZDPB","A3AU8PZ6HHBCVT","39WSF6KUV27TMEQUH506BZR9N6KEO1","","","img/flower6.png","76","523.3000000119209","76","0",""
"null","","html-keyboard-response","322","587612","0.0-322.0","3C44YUNSI2B81SMPRC73J0A218ZDPB","A3AU8PZ6HHBCVT","39WSF6KUV27TMEQUH506BZR9N6KEO1","","","<img src=""img/flower6.png"" style=""width:200px;border:14px solid red;"">","null","","","",""
"752.5999999940395","","image-keyboard-response","323","588375","0.0-323.0","3C44YUNSI2B81SMPRC73J0A218ZDPB","A3AU8PZ6HHBCVT","39WSF6KUV27TMEQUH506BZR9N6KEO1","","","img/flower9.png","75","761.3000000119209","75","1",""
"null","","html-keyboard-response","324","588681","0.0-324.0","3C44YUNSI2B81SMPRC73J0A218ZDPB","A3AU8PZ6HHBCVT","39WSF6KUV27TMEQUH506BZR9N6KEO1","","","<img src=""img/flower9.png"" style=""width:200px; border:14px solid green;"">","null","","","",""
"990.8000000119209","","image-keyboard-response","325","589677","0.0-325.0","3C44YUNSI2B81SMPRC73J0A218ZDPB","A3AU8PZ6HHBCVT","39WSF6KUV27TMEQUH506BZR9N6KEO1","","","img/flower1.png","74","993.4000000059605","74","0",""
"null","","html-keyboard-response","326","589983","0.0-326.0","3C44YUNSI2B81SMPRC73J0A218ZDPB","A3AU8PZ6HHBCVT","39WSF6KUV27TMEQUH506BZR9N6KEO1","","","<img src=""img/flower1.png"" style=""width:200px;border:14px solid red;"">","null","","","",""
"821.0999999940395","","image-keyboard-response","327","590810","0.0-327.0","3C44YUNSI2B81SMPRC73J0A218ZDPB","A3AU8PZ6HHBCVT","39WSF6KUV27TMEQUH506BZR9N6KEO1","","","img/flower9.png","75","825.1999999880791","75","1",""
"null","","html-keyboard-response","328","591117","0.0-328.0","3C44YUNSI2B81SMPRC73J0A218ZDPB","A3AU8PZ6HHBCVT","39WSF6KUV27TMEQUH506BZR9N6KEO1","","","<img src=""img/flower9.png"" style=""width:200px; border:14px solid green;"">","null","","","",""
"590.5","","image-keyboard-response","329","591711","0.0-329.0","3C44YUNSI2B81SMPRC73J0A218ZDPB","A3AU8PZ6HHBCVT","39WSF6KUV27TMEQUH506BZR9N6KEO1","","","img/flower9.png","75","594","75","0",""
"null","","html-keyboard-response","330","592017","0.0-330.0","3C44YUNSI2B81SMPRC73J0A218ZDPB","A3AU8PZ6HHBCVT","39WSF6KUV27TMEQUH506BZR9N6KEO1","","","<img src=""img/flower9.png"" style=""width:200px;border:14px solid red;"">","null","","","",""
"1127.5","","image-keyboard-response","331","593150","0.0-331.0","3C44YUNSI2B81SMPRC73J0A218ZDPB","A3AU8PZ6HHBCVT","39WSF6KUV27TMEQUH506BZR9N6KEO1","","","img/flower9.png","76","1130.5999999940395","76","1",""
"null","","html-keyboard-response","332","593455","0.0-332.0","3C44YUNSI2B81SMPRC73J0A218ZDPB","A3AU8PZ6HHBCVT","39WSF6KUV27TMEQUH506BZR9N6KEO1","","","<img src=""img/flower9.png"" style=""width:200px; border:14px solid green;"">","null","","","",""
"1169","","image-keyboard-response","333","594634","0.0-333.0","3C44YUNSI2B81SMPRC73J0A218ZDPB","A3AU8PZ6HHBCVT","39WSF6KUV27TMEQUH506BZR9N6KEO1","","","img/flower1.png","76","1177.5","76","0",""
"null","","html-keyboard-response","334","594940","0.0-334.0","3C44YUNSI2B81SMPRC73J0A218ZDPB","A3AU8PZ6HHBCVT","39WSF6KUV27TMEQUH506BZR9N6KEO1","","","<img src=""img/flower1.png"" style=""width:200px;border:14px solid red;"">","null","","","",""
"163.19999998807907","","image-keyboard-response","335","595106","0.0-335.0","3C44YUNSI2B81SMPRC73J0A218ZDPB","A3AU8PZ6HHBCVT","39WSF6KUV27TMEQUH506BZR9N6KEO1","","","img/flower6.png","75","165.7999999821186","75","1",""
"null","","html-keyboard-response","336","595411","0.0-336.0","3C44YUNSI2B81SMPRC73J0A218ZDPB","A3AU8PZ6HHBCVT","39WSF6KUV27TMEQUH506BZR9N6KEO1","","","<img src=""img/flower6.png"" style=""width:200px; border:14px solid green;"">","null","","","",""
"2041.5999999940395","","image-keyboard-response","337","597461","0.0-337.0","3C44YUNSI2B81SMPRC73J0A218ZDPB","A3AU8PZ6HHBCVT","39WSF6KUV27TMEQUH506BZR9N6KEO1","","","img/flower1.png","76","2047.4000000059605","76","0",""
"null","","html-keyboard-response","338","597766","0.0-338.0","3C44YUNSI2B81SMPRC73J0A218ZDPB","A3AU8PZ6HHBCVT","39WSF6KUV27TMEQUH506BZR9N6KEO1","","","<img src=""img/flower1.png"" style=""width:200px;border:14px solid red;"">","null","","","",""
"90","","image-keyboard-response","339","597864","0.0-339.0","3C44YUNSI2B81SMPRC73J0A218ZDPB","A3AU8PZ6HHBCVT","39WSF6KUV27TMEQUH506BZR9N6KEO1","","","img/flower6.png","75","95.30000001192093","75","0",""
"null","","html-keyboard-response","340","598169","0.0-340.0","3C44YUNSI2B81SMPRC73J0A218ZDPB","A3AU8PZ6HHBCVT","39WSF6KUV27TMEQUH506BZR9N6KEO1","","","<img src=""img/flower6.png"" style=""width:200px;border:14px solid red;"">","null","","","",""
"811.9000000059605","","image-keyboard-response","341","598990","0.0-341.0","3C44YUNSI2B81SMPRC73J0A218ZDPB","A3AU8PZ6HHBCVT","39WSF6KUV27TMEQUH506BZR9N6KEO1","","","img/flower1.png","74","818.4000000059605","74","0",""
"null","","html-keyboard-response","342","599297","0.0-342.0","3C44YUNSI2B81SMPRC73J0A218ZDPB","A3AU8PZ6HHBCVT","39WSF6KUV27TMEQUH506BZR9N6KEO1","","","<img src=""img/flower1.png"" style=""width:200px;border:14px solid red;"">","null","","","",""
"524.5999999940395","","image-keyboard-response","343","599826","0.0-343.0","3C44YUNSI2B81SMPRC73J0A218ZDPB","A3AU8PZ6HHBCVT","39WSF6KUV27TMEQUH506BZR9N6KEO1","","","img/flower1.png","75","528.0999999940395","75","0",""
"null","","html-keyboard-response","344","600134","0.0-344.0","3C44YUNSI2B81SMPRC73J0A218ZDPB","A3AU8PZ6HHBCVT","39WSF6KUV27TMEQUH506BZR9N6KEO1","","","<img src=""img/flower1.png"" style=""width:200px;border:14px solid red;"">","null","","","",""
"138.19999998807907","","image-keyboard-response","345","600279","0.0-345.0","3C44YUNSI2B81SMPRC73J0A218ZDPB","A3AU8PZ6HHBCVT","39WSF6KUV27TMEQUH506BZR9N6KEO1","","","img/flower6.png","76","142.10000002384186","76","1",""
"null","","html-keyboard-response","346","600585","0.0-346.0","3C44YUNSI2B81SMPRC73J0A218ZDPB","A3AU8PZ6HHBCVT","39WSF6KUV27TMEQUH506BZR9N6KEO1","","","<img src=""img/flower6.png"" style=""width:200px; border:14px solid green;"">","null","","","",""
"704.9000000059605","","image-keyboard-response","347","601296","0.0-347.0","3C44YUNSI2B81SMPRC73J0A218ZDPB","A3AU8PZ6HHBCVT","39WSF6KUV27TMEQUH506BZR9N6KEO1","","","img/flower1.png","76","709.1000000238419","76","1",""
"null","","html-keyboard-response","348","601599","0.0-348.0","3C44YUNSI2B81SMPRC73J0A218ZDPB","A3AU8PZ6HHBCVT","39WSF6KUV27TMEQUH506BZR9N6KEO1","","","<img src=""img/flower1.png"" style=""width:200px; border:14px solid green;"">","null","","","",""
"1357.199999988079","","image-keyboard-response","349","602963","0.0-349.0","3C44YUNSI2B81SMPRC73J0A218ZDPB","A3AU8PZ6HHBCVT","39WSF6KUV27TMEQUH506BZR9N6KEO1","","","img/flower9.png","74","1362.9000000059605","74","0",""
"null","","html-keyboard-response","350","603271","0.0-350.0","3C44YUNSI2B81SMPRC73J0A218ZDPB","A3AU8PZ6HHBCVT","39WSF6KUV27TMEQUH506BZR9N6KEO1","","","<img src=""img/flower9.png"" style=""width:200px;border:14px solid red;"">","null","","","",""
"915.8000000119209","","image-keyboard-response","351","604196","0.0-351.0","3C44YUNSI2B81SMPRC73J0A218ZDPB","A3AU8PZ6HHBCVT","39WSF6KUV27TMEQUH506BZR9N6KEO1","","","img/flower1.png","76","924.0999999940395","76","1",""
"null","","html-keyboard-response","352","604506","0.0-352.0","3C44YUNSI2B81SMPRC73J0A218ZDPB","A3AU8PZ6HHBCVT","39WSF6KUV27TMEQUH506BZR9N6KEO1","","","<img src=""img/flower1.png"" style=""width:200px; border:14px solid green;"">","null","","","",""
"734.5","","image-keyboard-response","353","605246","0.0-353.0","3C44YUNSI2B81SMPRC73J0A218ZDPB","A3AU8PZ6HHBCVT","39WSF6KUV27TMEQUH506BZR9N6KEO1","","","img/flower6.png","76","739.2999999821186","76","0",""
"null","","html-keyboard-response","354","605553","0.0-354.0","3C44YUNSI2B81SMPRC73J0A218ZDPB","A3AU8PZ6HHBCVT","39WSF6KUV27TMEQUH506BZR9N6KEO1","","","<img src=""img/flower6.png"" style=""width:200px;border:14px solid red;"">","null","","","",""
"506.5","","image-keyboard-response","355","606068","0.0-355.0","3C44YUNSI2B81SMPRC73J0A218ZDPB","A3AU8PZ6HHBCVT","39WSF6KUV27TMEQUH506BZR9N6KEO1","","","img/flower9.png","75","512.5999999940395","75","1",""
"null","","html-keyboard-response","356","606373","0.0-356.0","3C44YUNSI2B81SMPRC73J0A218ZDPB","A3AU8PZ6HHBCVT","39WSF6KUV27TMEQUH506BZR9N6KEO1","","","<img src=""img/flower9.png"" style=""width:200px; border:14px solid green;"">","null","","","",""
"451.90000000596046","","image-keyboard-response","357","606834","0.0-357.0","3C44YUNSI2B81SMPRC73J0A218ZDPB","A3AU8PZ6HHBCVT","39WSF6KUV27TMEQUH506BZR9N6KEO1","","","img/flower9.png","75","458.90000000596046","75","1",""
"null","","html-keyboard-response","358","607143","0.0-358.0","3C44YUNSI2B81SMPRC73J0A218ZDPB","A3AU8PZ6HHBCVT","39WSF6KUV27TMEQUH506BZR9N6KEO1","","","<img src=""img/flower9.png"" style=""width:200px; border:14px solid green;"">","null","","","",""
"655","","image-keyboard-response","359","607808","0.0-359.0","3C44YUNSI2B81SMPRC73J0A218ZDPB","A3AU8PZ6HHBCVT","39WSF6KUV27TMEQUH506BZR9N6KEO1","","","img/flower6.png","76","661.7000000178814","76","0",""
"null","","html-keyboard-response","360","608115","0.0-360.0","3C44YUNSI2B81SMPRC73J0A218ZDPB","A3AU8PZ6HHBCVT","39WSF6KUV27TMEQUH506BZR9N6KEO1","","","<img src=""img/flower6.png"" style=""width:200px;border:14px solid red;"">","null","","","",""
"510","","image-keyboard-response","361","608633","0.0-361.0","3C44YUNSI2B81SMPRC73J0A218ZDPB","A3AU8PZ6HHBCVT","39WSF6KUV27TMEQUH506BZR9N6KEO1","","","img/flower9.png","75","517.5999999940395","75","1",""
"null","","html-keyboard-response","362","608940","0.0-362.0","3C44YUNSI2B81SMPRC73J0A218ZDPB","A3AU8PZ6HHBCVT","39WSF6KUV27TMEQUH506BZR9N6KEO1","","","<img src=""img/flower9.png"" style=""width:200px; border:14px solid green;"">","null","","","",""
"586.5999999940395","","image-keyboard-response","363","609535","0.0-363.0","3C44YUNSI2B81SMPRC73J0A218ZDPB","A3AU8PZ6HHBCVT","39WSF6KUV27TMEQUH506BZR9N6KEO1","","","img/flower1.png","75","594.1999999880791","75","1",""
"null","","html-keyboard-response","364","609842","0.0-364.0","3C44YUNSI2B81SMPRC73J0A218ZDPB","A3AU8PZ6HHBCVT","39WSF6KUV27TMEQUH506BZR9N6KEO1","","","<img src=""img/flower1.png"" style=""width:200px; border:14px solid green;"">","null","","","",""
"998.0999999940395","","image-keyboard-response","365","610847","0.0-365.0","3C44YUNSI2B81SMPRC73J0A218ZDPB","A3AU8PZ6HHBCVT","39WSF6KUV27TMEQUH506BZR9N6KEO1","","","img/flower1.png","75","1003.6999999880791","75","0",""
"null","","html-keyboard-response","366","611155","0.0-366.0","3C44YUNSI2B81SMPRC73J0A218ZDPB","A3AU8PZ6HHBCVT","39WSF6KUV27TMEQUH506BZR9N6KEO1","","","<img src=""img/flower1.png"" style=""width:200px;border:14px solid red;"">","null","","","",""
"457.80000001192093","","image-keyboard-response","367","611619","0.0-367.0","3C44YUNSI2B81SMPRC73J0A218ZDPB","A3AU8PZ6HHBCVT","39WSF6KUV27TMEQUH506BZR9N6KEO1","","","img/flower9.png","76","462.5","76","0",""
"null","","html-keyboard-response","368","611924","0.0-368.0","3C44YUNSI2B81SMPRC73J0A218ZDPB","A3AU8PZ6HHBCVT","39WSF6KUV27TMEQUH506BZR9N6KEO1","","","<img src=""img/flower9.png"" style=""width:200px;border:14px solid red;"">","null","","","",""
"134.5","","image-keyboard-response","369","612066","0.0-369.0","3C44YUNSI2B81SMPRC73J0A218ZDPB","A3AU8PZ6HHBCVT","39WSF6KUV27TMEQUH506BZR9N6KEO1","","","img/flower9.png","74","140.5","74","0",""
"null","","html-keyboard-response","370","612372","0.0-370.0","3C44YUNSI2B81SMPRC73J0A218ZDPB","A3AU8PZ6HHBCVT","39WSF6KUV27TMEQUH506BZR9N6KEO1","","","<img src=""img/flower9.png"" style=""width:200px;border:14px solid red;"">","null","","","",""
"572.5999999940395","","image-keyboard-response","371","612963","0.0-371.0","3C44YUNSI2B81SMPRC73J0A218ZDPB","A3AU8PZ6HHBCVT","39WSF6KUV27TMEQUH506BZR9N6KEO1","","","img/flower1.png","75","580.6000000238419","75","0",""
"null","","html-keyboard-response","372","613270","0.0-372.0","3C44YUNSI2B81SMPRC73J0A218ZDPB","A3AU8PZ6HHBCVT","39WSF6KUV27TMEQUH506BZR9N6KEO1","","","<img src=""img/flower1.png"" style=""width:200px;border:14px solid red;"">","null","","","",""
"746.2000000178814","","image-keyboard-response","373","614024","0.0-373.0","3C44YUNSI2B81SMPRC73J0A218ZDPB","A3AU8PZ6HHBCVT","39WSF6KUV27TMEQUH506BZR9N6KEO1","","","img/flower6.png","76","752.6999999880791","76","0",""
"null","","html-keyboard-response","374","614330","0.0-374.0","3C44YUNSI2B81SMPRC73J0A218ZDPB","A3AU8PZ6HHBCVT","39WSF6KUV27TMEQUH506BZR9N6KEO1","","","<img src=""img/flower6.png"" style=""width:200px;border:14px solid red;"">","null","","","",""
"970.5","","image-keyboard-response","375","615306","0.0-375.0","3C44YUNSI2B81SMPRC73J0A218ZDPB","A3AU8PZ6HHBCVT","39WSF6KUV27TMEQUH506BZR9N6KEO1","","","img/flower1.png","75","974.5","75","0",""
"null","","html-keyboard-response","376","615618","0.0-376.0","3C44YUNSI2B81SMPRC73J0A218ZDPB","A3AU8PZ6HHBCVT","39WSF6KUV27TMEQUH506BZR9N6KEO1","","","<img src=""img/flower1.png"" style=""width:200px;border:14px solid red;"">","null","","","",""
"125.40000000596046","","image-keyboard-response","377","615751","0.0-377.0","3C44YUNSI2B81SMPRC73J0A218ZDPB","A3AU8PZ6HHBCVT","39WSF6KUV27TMEQUH506BZR9N6KEO1","","","img/flower1.png","76","130.5","76","0",""
"null","","html-keyboard-response","378","616058","0.0-378.0","3C44YUNSI2B81SMPRC73J0A218ZDPB","A3AU8PZ6HHBCVT","39WSF6KUV27TMEQUH506BZR9N6KEO1","","","<img src=""img/flower1.png"" style=""width:200px;border:14px solid red;"">","null","","","",""
"889.1999999880791","","image-keyboard-response","379","616955","0.0-379.0","3C44YUNSI2B81SMPRC73J0A218ZDPB","A3AU8PZ6HHBCVT","39WSF6KUV27TMEQUH506BZR9N6KEO1","","","img/flower6.png","76","896","76","1",""
"null","","html-keyboard-response","380","617263","0.0-380.0","3C44YUNSI2B81SMPRC73J0A218ZDPB","A3AU8PZ6HHBCVT","39WSF6KUV27TMEQUH506BZR9N6KEO1","","","<img src=""img/flower6.png"" style=""width:200px; border:14px solid green;"">","null","","","",""
"419.2999999821186","","image-keyboard-response","381","617688","0.0-381.0","3C44YUNSI2B81SMPRC73J0A218ZDPB","A3AU8PZ6HHBCVT","39WSF6KUV27TMEQUH506BZR9N6KEO1","","","img/flower6.png","76","423.2000000178814","76","0",""
"null","","html-keyboard-response","382","617992","0.0-382.0","3C44YUNSI2B81SMPRC73J0A218ZDPB","A3AU8PZ6HHBCVT","39WSF6KUV27TMEQUH506BZR9N6KEO1","","","<img src=""img/flower6.png"" style=""width:200px;border:14px solid red;"">","null","","","",""
"832.8000000119209","","image-keyboard-response","383","618832","0.0-383.0","3C44YUNSI2B81SMPRC73J0A218ZDPB","A3AU8PZ6HHBCVT","39WSF6KUV27TMEQUH506BZR9N6KEO1","","","img/flower9.png","74","836.7999999821186","74","0",""
"null","","html-keyboard-response","384","619140","0.0-384.0","3C44YUNSI2B81SMPRC73J0A218ZDPB","A3AU8PZ6HHBCVT","39WSF6KUV27TMEQUH506BZR9N6KEO1","","","<img src=""img/flower9.png"" style=""width:200px;border:14px solid red;"">","null","","","",""
"250.69999998807907","","image-keyboard-response","385","619400","0.0-385.0","3C44YUNSI2B81SMPRC73J0A218ZDPB","A3AU8PZ6HHBCVT","39WSF6KUV27TMEQUH506BZR9N6KEO1","","","img/flower9.png","74","258.89999997615814","74","0",""
"null","","html-keyboard-response","386","619707","0.0-386.0","3C44YUNSI2B81SMPRC73J0A218ZDPB","A3AU8PZ6HHBCVT","39WSF6KUV27TMEQUH506BZR9N6KEO1","","","<img src=""img/flower9.png"" style=""width:200px;border:14px solid red;"">","null","","","",""
"97.5","","image-keyboard-response","387","619810","0.0-387.0","3C44YUNSI2B81SMPRC73J0A218ZDPB","A3AU8PZ6HHBCVT","39WSF6KUV27TMEQUH506BZR9N6KEO1","","","img/flower9.png","75","101.80000001192093","75","0",""
"null","","html-keyboard-response","388","620117","0.0-388.0","3C44YUNSI2B81SMPRC73J0A218ZDPB","A3AU8PZ6HHBCVT","39WSF6KUV27TMEQUH506BZR9N6KEO1","","","<img src=""img/flower9.png"" style=""width:200px;border:14px solid red;"">","null","","","",""
"19.5","","image-keyboard-response","389","620144","0.0-389.0","3C44YUNSI2B81SMPRC73J0A218ZDPB","A3AU8PZ6HHBCVT","39WSF6KUV27TMEQUH506BZR9N6KEO1","","","img/flower1.png","76","24.5","76","0",""
"null","","html-keyboard-response","390","620448","0.0-390.0","3C44YUNSI2B81SMPRC73J0A218ZDPB","A3AU8PZ6HHBCVT","39WSF6KUV27TMEQUH506BZR9N6KEO1","","","<img src=""img/flower1.png"" style=""width:200px;border:14px solid red;"">","null","","","",""
"484.19999998807907","","image-keyboard-response","391","620943","0.0-391.0","3C44YUNSI2B81SMPRC73J0A218ZDPB","A3AU8PZ6HHBCVT","39WSF6KUV27TMEQUH506BZR9N6KEO1","","","img/flower6.png","76","491.80000001192093","76","0",""
"null","","html-keyboard-response","392","621249","0.0-392.0","3C44YUNSI2B81SMPRC73J0A218ZDPB","A3AU8PZ6HHBCVT","39WSF6KUV27TMEQUH506BZR9N6KEO1","","","<img src=""img/flower6.png"" style=""width:200px;border:14px solid red;"">","null","","","",""
"21.599999994039536","","image-keyboard-response","393","621277","0.0-393.0","3C44YUNSI2B81SMPRC73J0A218ZDPB","A3AU8PZ6HHBCVT","39WSF6KUV27TMEQUH506BZR9N6KEO1","","","img/flower6.png","74","26.599999994039536","74","1",""
"null","","html-keyboard-response","394","621582","0.0-394.0","3C44YUNSI2B81SMPRC73J0A218ZDPB","A3AU8PZ6HHBCVT","39WSF6KUV27TMEQUH506BZR9N6KEO1","","","<img src=""img/flower6.png"" style=""width:200px; border:14px solid green;"">","null","","","",""
"142.40000000596046","","image-keyboard-response","395","621732","0.0-395.0","3C44YUNSI2B81SMPRC73J0A218ZDPB","A3AU8PZ6HHBCVT","39WSF6KUV27TMEQUH506BZR9N6KEO1","","","img/flower6.png","74","148","74","1",""
"null","","html-keyboard-response","396","622040","0.0-396.0","3C44YUNSI2B81SMPRC73J0A218ZDPB","A3AU8PZ6HHBCVT","39WSF6KUV27TMEQUH506BZR9N6KEO1","","","<img src=""img/flower6.png"" style=""width:200px; border:14px solid green;"">","null","","","",""
"207.40000000596046","","image-keyboard-response","397","622256","0.0-397.0","3C44YUNSI2B81SMPRC73J0A218ZDPB","A3AU8PZ6HHBCVT","39WSF6KUV27TMEQUH506BZR9N6KEO1","","","img/flower9.png","75","215.09999999403954","75","1",""
"null","","html-keyboard-response","398","622565","0.0-398.0","3C44YUNSI2B81SMPRC73J0A218ZDPB","A3AU8PZ6HHBCVT","39WSF6KUV27TMEQUH506BZR9N6KEO1","","","<img src=""img/flower9.png"" style=""width:200px; border:14px solid green;"">","null","","","",""
"25","","image-keyboard-response","399","622598","0.0-399.0","3C44YUNSI2B81SMPRC73J0A218ZDPB","A3AU8PZ6HHBCVT","39WSF6KUV27TMEQUH506BZR9N6KEO1","","","img/flower9.png","75","31.099999994039536","75","1",""
"null","","html-keyboard-response","400","622904","0.0-400.0","3C44YUNSI2B81SMPRC73J0A218ZDPB","A3AU8PZ6HHBCVT","39WSF6KUV27TMEQUH506BZR9N6KEO1","","","<img src=""img/flower9.png"" style=""width:200px; border:14px solid green;"">","null","","","",""
"0.4000000059604645","","image-keyboard-response","401","622910","0.0-401.0","3C44YUNSI2B81SMPRC73J0A218ZDPB","A3AU8PZ6HHBCVT","39WSF6KUV27TMEQUH506BZR9N6KEO1","","","img/flower1.png","75","3.0999999940395355","75","1",""
"null","","html-keyboard-response","402","623215","0.0-402.0","3C44YUNSI2B81SMPRC73J0A218ZDPB","A3AU8PZ6HHBCVT","39WSF6KUV27TMEQUH506BZR9N6KEO1","","","<img src=""img/flower1.png"" style=""width:200px; border:14px solid green;"">","null","","","",""
"10.300000011920929","","image-keyboard-response","403","623234","0.0-403.0","3C44YUNSI2B81SMPRC73J0A218ZDPB","A3AU8PZ6HHBCVT","39WSF6KUV27TMEQUH506BZR9N6KEO1","","","img/flower6.png","74","17.400000005960464","74","1",""
"null","","html-keyboard-response","404","623539","0.0-404.0","3C44YUNSI2B81SMPRC73J0A218ZDPB","A3AU8PZ6HHBCVT","39WSF6KUV27TMEQUH506BZR9N6KEO1","","","<img src=""img/flower6.png"" style=""width:200px; border:14px solid green;"">","null","","","",""
"8.899999976158142","","image-keyboard-response","405","623552","0.0-405.0","3C44YUNSI2B81SMPRC73J0A218ZDPB","A3AU8PZ6HHBCVT","39WSF6KUV27TMEQUH506BZR9N6KEO1","","","img/flower6.png","74","11.699999988079071","74","0",""
"null","","html-keyboard-response","406","623856","0.0-406.0","3C44YUNSI2B81SMPRC73J0A218ZDPB","A3AU8PZ6HHBCVT","39WSF6KUV27TMEQUH506BZR9N6KEO1","","","<img src=""img/flower6.png"" style=""width:200px;border:14px solid red;"">","null","","","",""
"129.90000000596046","","image-keyboard-response","407","623991","0.0-407.0","3C44YUNSI2B81SMPRC73J0A218ZDPB","A3AU8PZ6HHBCVT","39WSF6KUV27TMEQUH506BZR9N6KEO1","","","img/flower9.png","75","134.5","75","1",""
"null","","html-keyboard-response","408","624298","0.0-408.0","3C44YUNSI2B81SMPRC73J0A218ZDPB","A3AU8PZ6HHBCVT","39WSF6KUV27TMEQUH506BZR9N6KEO1","","","<img src=""img/flower9.png"" style=""width:200px; border:14px solid green;"">","null","","","",""
"46.20000001788139","","image-keyboard-response","409","624351","0.0-409.0","3C44YUNSI2B81SMPRC73J0A218ZDPB","A3AU8PZ6HHBCVT","39WSF6KUV27TMEQUH506BZR9N6KEO1","","","img/flower6.png","75","51.599999994039536","75","0",""
"null","","html-keyboard-response","410","624662","0.0-410.0","3C44YUNSI2B81SMPRC73J0A218ZDPB","A3AU8PZ6HHBCVT","39WSF6KUV27TMEQUH506BZR9N6KEO1","","","<img src=""img/flower6.png"" style=""width:200px;border:14px solid red;"">","null","","","",""
"186.30000001192093","","image-keyboard-response","411","624852","0.0-411.0","3C44YUNSI2B81SMPRC73J0A218ZDPB","A3AU8PZ6HHBCVT","39WSF6KUV27TMEQUH506BZR9N6KEO1","","","img/flower6.png","75","189.30000001192093","75","0",""
"null","","html-keyboard-response","412","625160","0.0-412.0","3C44YUNSI2B81SMPRC73J0A218ZDPB","A3AU8PZ6HHBCVT","39WSF6KUV27TMEQUH506BZR9N6KEO1","","","<img src=""img/flower6.png"" style=""width:200px;border:14px solid red;"">","null","","","",""
"55.39999997615814","","image-keyboard-response","413","625221","0.0-413.0","3C44YUNSI2B81SMPRC73J0A218ZDPB","A3AU8PZ6HHBCVT","39WSF6KUV27TMEQUH506BZR9N6KEO1","","","img/flower1.png","75","59.30000001192093","75","0",""
"null","","html-keyboard-response","414","625529","0.0-414.0","3C44YUNSI2B81SMPRC73J0A218ZDPB","A3AU8PZ6HHBCVT","39WSF6KUV27TMEQUH506BZR9N6KEO1","","","<img src=""img/flower1.png"" style=""width:200px;border:14px solid red;"">","null","","","",""
"28.200000017881393","","image-keyboard-response","415","625563","0.0-415.0","3C44YUNSI2B81SMPRC73J0A218ZDPB","A3AU8PZ6HHBCVT","39WSF6KUV27TMEQUH506BZR9N6KEO1","","","img/flower1.png","76","32.599999994039536","76","1",""
"null","","html-keyboard-response","416","625870","0.0-416.0","3C44YUNSI2B81SMPRC73J0A218ZDPB","A3AU8PZ6HHBCVT","39WSF6KUV27TMEQUH506BZR9N6KEO1","","","<img src=""img/flower1.png"" style=""width:200px; border:14px solid green;"">","null","","","",""
"107.2000000178814","","image-keyboard-response","417","625985","0.0-417.0","3C44YUNSI2B81SMPRC73J0A218ZDPB","A3AU8PZ6HHBCVT","39WSF6KUV27TMEQUH506BZR9N6KEO1","","","img/flower9.png","76","112.69999998807907","76","0",""
"null","","html-keyboard-response","418","626290","0.0-418.0","3C44YUNSI2B81SMPRC73J0A218ZDPB","A3AU8PZ6HHBCVT","39WSF6KUV27TMEQUH506BZR9N6KEO1","","","<img src=""img/flower9.png"" style=""width:200px;border:14px solid red;"">","null","","","",""
"0.699999988079071","","image-keyboard-response","419","626296","0.0-419.0","3C44YUNSI2B81SMPRC73J0A218ZDPB","A3AU8PZ6HHBCVT","39WSF6KUV27TMEQUH506BZR9N6KEO1","","","img/flower1.png","76","5","76","0",""
"null","","html-keyboard-response","420","626601","0.0-420.0","3C44YUNSI2B81SMPRC73J0A218ZDPB","A3AU8PZ6HHBCVT","39WSF6KUV27TMEQUH506BZR9N6KEO1","","","<img src=""img/flower1.png"" style=""width:200px;border:14px solid red;"">","null","","","",""
"38.5","","image-keyboard-response","421","626645","0.0-421.0","3C44YUNSI2B81SMPRC73J0A218ZDPB","A3AU8PZ6HHBCVT","39WSF6KUV27TMEQUH506BZR9N6KEO1","","","img/flower1.png","76","42.900000005960464","76","0",""
"null","","html-keyboard-response","422","626950","0.0-422.0","3C44YUNSI2B81SMPRC73J0A218ZDPB","A3AU8PZ6HHBCVT","39WSF6KUV27TMEQUH506BZR9N6KEO1","","","<img src=""img/flower1.png"" style=""width:200px;border:14px solid red;"">","null","","","",""
"70.30000001192093","","image-keyboard-response","423","627025","0.0-423.0","3C44YUNSI2B81SMPRC73J0A218ZDPB","A3AU8PZ6HHBCVT","39WSF6KUV27TMEQUH506BZR9N6KEO1","","","img/flower9.png","75","75.90000000596046","75","0",""
"null","","html-keyboard-response","424","627332","0.0-424.0","3C44YUNSI2B81SMPRC73J0A218ZDPB","A3AU8PZ6HHBCVT","39WSF6KUV27TMEQUH506BZR9N6KEO1","","","<img src=""img/flower9.png"" style=""width:200px;border:14px solid red;"">","null","","","",""
"68.80000001192093","","image-keyboard-response","425","627409","0.0-425.0","3C44YUNSI2B81SMPRC73J0A218ZDPB","A3AU8PZ6HHBCVT","39WSF6KUV27TMEQUH506BZR9N6KEO1","","","img/flower1.png","76","73.30000001192093","76","1",""
"null","","html-keyboard-response","426","627716","0.0-426.0","3C44YUNSI2B81SMPRC73J0A218ZDPB","A3AU8PZ6HHBCVT","39WSF6KUV27TMEQUH506BZR9N6KEO1","","","<img src=""img/flower1.png"" style=""width:200px; border:14px solid green;"">","null","","","",""
"66.80000001192093","","image-keyboard-response","427","627792","0.0-427.0","3C44YUNSI2B81SMPRC73J0A218ZDPB","A3AU8PZ6HHBCVT","39WSF6KUV27TMEQUH506BZR9N6KEO1","","","img/flower6.png","75","75.2000000178814","75","0",""
"null","","html-keyboard-response","428","628099","0.0-428.0","3C44YUNSI2B81SMPRC73J0A218ZDPB","A3AU8PZ6HHBCVT","39WSF6KUV27TMEQUH506BZR9N6KEO1","","","<img src=""img/flower6.png"" style=""width:200px;border:14px solid red;"">","null","","","",""
