"rt","url","trial_type","trial_index","time_elapsed","internal_node_id","assignmentID","mturkID","hitID","success","view_history","stimulus","key_press","reactionTime","a","r","s","reward_cond","responses"
"1742","consent.html","external-html","0","1821","0.0-0.0","37WLF8U1WQC85SAU4XUHHDEBRVH6KP","A3AY0315YWWNXY","3A3KKYU7P33Z3BR9PPFZ5194ZCQMWU","","","","","","","","","",""
"","","fullscreen","1","4291","0.0-1.0","37WLF8U1WQC85SAU4XUHHDEBRVH6KP","A3AY0315YWWNXY","3A3KKYU7P33Z3BR9PPFZ5194ZCQMWU","true","","","","","","","","",""
"54765.39999997616","","instructions","2","59057","0.0-2.0","37WLF8U1WQC85SAU4XUHHDEBRVH6KP","A3AY0315YWWNXY","3A3KKYU7P33Z3BR9PPFZ5194ZCQMWU","","[{""page_index"":0,""viewing_time"":5197.699999988079},{""page_index"":1,""viewing_time"":5980.599999964237},{""page_index"":2,""viewing_time"":9044.200000047684},{""page_index"":3,""viewing_time"":4725.699999988079},{""page_index"":4,""viewing_time"":8253},{""page_index"":5,""viewing_time"":18053.5},{""page_index"":6,""viewing_time"":3510.199999988079}]","","","","","","","",""
"16288.399999976158","","instructions","3","75346","0.0-3.0","37WLF8U1WQC85SAU4XUHHDEBRVH6KP","A3AY0315YWWNXY","3A3KKYU7P33Z3BR9PPFZ5194ZCQMWU","","[{""page_index"":0,""viewing_time"":16288.300000011921}]","","","","","","","",""
"768.5","","image-keyboard-response","4","76116","0.0-4.0","37WLF8U1WQC85SAU4XUHHDEBRVH6KP","A3AY0315YWWNXY","3A3KKYU7P33Z3BR9PPFZ5194ZCQMWU","","","img/flower4.png","74","769.3000000119209","1","1","1","",""
"null","","html-keyboard-response","5","76417","0.0-5.0","37WLF8U1WQC85SAU4XUHHDEBRVH6KP","A3AY0315YWWNXY","3A3KKYU7P33Z3BR9PPFZ5194ZCQMWU","","","<img src=""img/flower4.png"" style=""width:200px; border:14px solid green;"">","null","","","","","",""
"1197.5999999642372","","image-keyboard-response","6","77615","0.0-6.0","37WLF8U1WQC85SAU4XUHHDEBRVH6KP","A3AY0315YWWNXY","3A3KKYU7P33Z3BR9PPFZ5194ZCQMWU","","","img/flower6.png","76","1198.1000000238419","3","1","3","",""
"null","","html-keyboard-response","7","77917","0.0-7.0","37WLF8U1WQC85SAU4XUHHDEBRVH6KP","A3AY0315YWWNXY","3A3KKYU7P33Z3BR9PPFZ5194ZCQMWU","","","<img src=""img/flower6.png"" style=""width:200px; border:14px solid green;"">","null","","","","","",""
"673.6000000238419","","image-keyboard-response","8","78591","0.0-8.0","37WLF8U1WQC85SAU4XUHHDEBRVH6KP","A3AY0315YWWNXY","3A3KKYU7P33Z3BR9PPFZ5194ZCQMWU","","","img/flower4.png","74","674.0999999642372","1","0","1","",""
"null","","html-keyboard-response","9","78894","0.0-9.0","37WLF8U1WQC85SAU4XUHHDEBRVH6KP","A3AY0315YWWNXY","3A3KKYU7P33Z3BR9PPFZ5194ZCQMWU","","","<img src=""img/flower4.png"" style=""width:200px;border:14px solid red;"">","null","","","","","",""
"1227.8999999761581","","image-keyboard-response","10","80123","0.0-10.0","37WLF8U1WQC85SAU4XUHHDEBRVH6KP","A3AY0315YWWNXY","3A3KKYU7P33Z3BR9PPFZ5194ZCQMWU","","","img/flower5.png","75","1228.6000000238419","2","1","2","",""
"null","","html-keyboard-response","11","80430","0.0-11.0","37WLF8U1WQC85SAU4XUHHDEBRVH6KP","A3AY0315YWWNXY","3A3KKYU7P33Z3BR9PPFZ5194ZCQMWU","","","<img src=""img/flower5.png"" style=""width:200px; border:14px solid green;"">","null","","","","","",""
"834.0999999642372","","image-keyboard-response","12","81265","0.0-12.0","37WLF8U1WQC85SAU4XUHHDEBRVH6KP","A3AY0315YWWNXY","3A3KKYU7P33Z3BR9PPFZ5194ZCQMWU","","","img/flower5.png","75","834.8999999761581","2","1","2","",""
"null","","html-keyboard-response","13","81578","0.0-13.0","37WLF8U1WQC85SAU4XUHHDEBRVH6KP","A3AY0315YWWNXY","3A3KKYU7P33Z3BR9PPFZ5194ZCQMWU","","","<img src=""img/flower5.png"" style=""width:200px; border:14px solid green;"">","null","","","","","",""
"646.3000000119209","","image-keyboard-response","14","82225","0.0-14.0","37WLF8U1WQC85SAU4XUHHDEBRVH6KP","A3AY0315YWWNXY","3A3KKYU7P33Z3BR9PPFZ5194ZCQMWU","","","img/flower5.png","75","646.8999999761581","2","0","2","",""
"null","","html-keyboard-response","15","82540","0.0-15.0","37WLF8U1WQC85SAU4XUHHDEBRVH6KP","A3AY0315YWWNXY","3A3KKYU7P33Z3BR9PPFZ5194ZCQMWU","","","<img src=""img/flower5.png"" style=""width:200px;border:14px solid red;"">","null","","","","","",""
"878.3999999761581","","image-keyboard-response","16","83419","0.0-16.0","37WLF8U1WQC85SAU4XUHHDEBRVH6KP","A3AY0315YWWNXY","3A3KKYU7P33Z3BR9PPFZ5194ZCQMWU","","","img/flower6.png","76","879","3","1","3","",""
"null","","html-keyboard-response","17","83734","0.0-17.0","37WLF8U1WQC85SAU4XUHHDEBRVH6KP","A3AY0315YWWNXY","3A3KKYU7P33Z3BR9PPFZ5194ZCQMWU","","","<img src=""img/flower6.png"" style=""width:200px; border:14px solid green;"">","null","","","","","",""
"403.7999999523163","","image-keyboard-response","18","84139","0.0-18.0","37WLF8U1WQC85SAU4XUHHDEBRVH6KP","A3AY0315YWWNXY","3A3KKYU7P33Z3BR9PPFZ5194ZCQMWU","","","img/flower4.png","74","404.4000000357628","1","1","1","",""
"null","","html-keyboard-response","19","84448","0.0-19.0","37WLF8U1WQC85SAU4XUHHDEBRVH6KP","A3AY0315YWWNXY","3A3KKYU7P33Z3BR9PPFZ5194ZCQMWU","","","<img src=""img/flower4.png"" style=""width:200px; border:14px solid green;"">","null","","","","","",""
"910.4000000357628","","image-keyboard-response","20","85359","0.0-20.0","37WLF8U1WQC85SAU4XUHHDEBRVH6KP","A3AY0315YWWNXY","3A3KKYU7P33Z3BR9PPFZ5194ZCQMWU","","","img/flower5.png","75","911.1000000238419","2","1","2","",""
"null","","html-keyboard-response","21","85674","0.0-21.0","37WLF8U1WQC85SAU4XUHHDEBRVH6KP","A3AY0315YWWNXY","3A3KKYU7P33Z3BR9PPFZ5194ZCQMWU","","","<img src=""img/flower5.png"" style=""width:200px; border:14px solid green;"">","null","","","","","",""
"632.6999999880791","","image-keyboard-response","22","86307","0.0-22.0","37WLF8U1WQC85SAU4XUHHDEBRVH6KP","A3AY0315YWWNXY","3A3KKYU7P33Z3BR9PPFZ5194ZCQMWU","","","img/flower4.png","74","633.3000000119209","1","1","1","",""
"null","","html-keyboard-response","23","86620","0.0-23.0","37WLF8U1WQC85SAU4XUHHDEBRVH6KP","A3AY0315YWWNXY","3A3KKYU7P33Z3BR9PPFZ5194ZCQMWU","","","<img src=""img/flower4.png"" style=""width:200px; border:14px solid green;"">","null","","","","","",""
"432.2999999523163","","image-keyboard-response","24","87053","0.0-24.0","37WLF8U1WQC85SAU4XUHHDEBRVH6KP","A3AY0315YWWNXY","3A3KKYU7P33Z3BR9PPFZ5194ZCQMWU","","","img/flower4.png","74","433","1","1","1","",""
"null","","html-keyboard-response","25","87365","0.0-25.0","37WLF8U1WQC85SAU4XUHHDEBRVH6KP","A3AY0315YWWNXY","3A3KKYU7P33Z3BR9PPFZ5194ZCQMWU","","","<img src=""img/flower4.png"" style=""width:200px; border:14px solid green;"">","null","","","","","",""
"519.6000000238419","","image-keyboard-response","26","87885","0.0-26.0","37WLF8U1WQC85SAU4XUHHDEBRVH6KP","A3AY0315YWWNXY","3A3KKYU7P33Z3BR9PPFZ5194ZCQMWU","","","img/flower5.png","75","520.1999999880791","2","1","2","",""
"null","","html-keyboard-response","27","88187","0.0-27.0","37WLF8U1WQC85SAU4XUHHDEBRVH6KP","A3AY0315YWWNXY","3A3KKYU7P33Z3BR9PPFZ5194ZCQMWU","","","<img src=""img/flower5.png"" style=""width:200px; border:14px solid green;"">","null","","","","","",""
"659.3999999761581","","image-keyboard-response","28","88847","0.0-28.0","37WLF8U1WQC85SAU4XUHHDEBRVH6KP","A3AY0315YWWNXY","3A3KKYU7P33Z3BR9PPFZ5194ZCQMWU","","","img/flower4.png","74","660","1","1","1","",""
"null","","html-keyboard-response","29","89149","0.0-29.0","37WLF8U1WQC85SAU4XUHHDEBRVH6KP","A3AY0315YWWNXY","3A3KKYU7P33Z3BR9PPFZ5194ZCQMWU","","","<img src=""img/flower4.png"" style=""width:200px; border:14px solid green;"">","null","","","","","",""
"497.5999999642372","","image-keyboard-response","30","89647","0.0-30.0","37WLF8U1WQC85SAU4XUHHDEBRVH6KP","A3AY0315YWWNXY","3A3KKYU7P33Z3BR9PPFZ5194ZCQMWU","","","img/flower6.png","76","498.30000001192093","3","1","3","",""
"null","","html-keyboard-response","31","89955","0.0-31.0","37WLF8U1WQC85SAU4XUHHDEBRVH6KP","A3AY0315YWWNXY","3A3KKYU7P33Z3BR9PPFZ5194ZCQMWU","","","<img src=""img/flower6.png"" style=""width:200px; border:14px solid green;"">","null","","","","","",""
"895","","image-keyboard-response","32","90851","0.0-32.0","37WLF8U1WQC85SAU4XUHHDEBRVH6KP","A3AY0315YWWNXY","3A3KKYU7P33Z3BR9PPFZ5194ZCQMWU","","","img/flower5.png","75","895.6000000238419","2","1","2","",""
"null","","html-keyboard-response","33","91165","0.0-33.0","37WLF8U1WQC85SAU4XUHHDEBRVH6KP","A3AY0315YWWNXY","3A3KKYU7P33Z3BR9PPFZ5194ZCQMWU","","","<img src=""img/flower5.png"" style=""width:200px; border:14px solid green;"">","null","","","","","",""
"514.8999999761581","","image-keyboard-response","34","91681","0.0-34.0","37WLF8U1WQC85SAU4XUHHDEBRVH6KP","A3AY0315YWWNXY","3A3KKYU7P33Z3BR9PPFZ5194ZCQMWU","","","img/flower4.png","74","515.5","1","1","1","",""
"null","","html-keyboard-response","35","91988","0.0-35.0","37WLF8U1WQC85SAU4XUHHDEBRVH6KP","A3AY0315YWWNXY","3A3KKYU7P33Z3BR9PPFZ5194ZCQMWU","","","<img src=""img/flower4.png"" style=""width:200px; border:14px solid green;"">","null","","","","","",""
"780.5999999642372","","image-keyboard-response","36","92769","0.0-36.0","37WLF8U1WQC85SAU4XUHHDEBRVH6KP","A3AY0315YWWNXY","3A3KKYU7P33Z3BR9PPFZ5194ZCQMWU","","","img/flower6.png","76","781.1999999880791","3","1","3","",""
"null","","html-keyboard-response","37","93074","0.0-37.0","37WLF8U1WQC85SAU4XUHHDEBRVH6KP","A3AY0315YWWNXY","3A3KKYU7P33Z3BR9PPFZ5194ZCQMWU","","","<img src=""img/flower6.png"" style=""width:200px; border:14px solid green;"">","null","","","","","",""
"440.7999999523163","","image-keyboard-response","38","93515","0.0-38.0","37WLF8U1WQC85SAU4XUHHDEBRVH6KP","A3AY0315YWWNXY","3A3KKYU7P33Z3BR9PPFZ5194ZCQMWU","","","img/flower6.png","76","441.30000001192093","3","1","3","",""
"null","","html-keyboard-response","39","93818","0.0-39.0","37WLF8U1WQC85SAU4XUHHDEBRVH6KP","A3AY0315YWWNXY","3A3KKYU7P33Z3BR9PPFZ5194ZCQMWU","","","<img src=""img/flower6.png"" style=""width:200px; border:14px solid green;"">","null","","","","","",""
"502.19999998807907","","image-keyboard-response","40","94321","0.0-40.0","37WLF8U1WQC85SAU4XUHHDEBRVH6KP","A3AY0315YWWNXY","3A3KKYU7P33Z3BR9PPFZ5194ZCQMWU","","","img/flower4.png","74","502.80000001192093","1","1","1","",""
"null","","html-keyboard-response","41","94625","0.0-41.0","37WLF8U1WQC85SAU4XUHHDEBRVH6KP","A3AY0315YWWNXY","3A3KKYU7P33Z3BR9PPFZ5194ZCQMWU","","","<img src=""img/flower4.png"" style=""width:200px; border:14px solid green;"">","null","","","","","",""
"621.3999999761581","","image-keyboard-response","42","95247","0.0-42.0","37WLF8U1WQC85SAU4XUHHDEBRVH6KP","A3AY0315YWWNXY","3A3KKYU7P33Z3BR9PPFZ5194ZCQMWU","","","img/flower6.png","76","622.1000000238419","3","1","3","",""
"null","","html-keyboard-response","43","95556","0.0-43.0","37WLF8U1WQC85SAU4XUHHDEBRVH6KP","A3AY0315YWWNXY","3A3KKYU7P33Z3BR9PPFZ5194ZCQMWU","","","<img src=""img/flower6.png"" style=""width:200px; border:14px solid green;"">","null","","","","","",""
"556.7000000476837","","image-keyboard-response","44","96113","0.0-44.0","37WLF8U1WQC85SAU4XUHHDEBRVH6KP","A3AY0315YWWNXY","3A3KKYU7P33Z3BR9PPFZ5194ZCQMWU","","","img/flower5.png","75","557.3999999761581","2","0","2","",""
"null","","html-keyboard-response","45","96424","0.0-45.0","37WLF8U1WQC85SAU4XUHHDEBRVH6KP","A3AY0315YWWNXY","3A3KKYU7P33Z3BR9PPFZ5194ZCQMWU","","","<img src=""img/flower5.png"" style=""width:200px;border:14px solid red;"">","null","","","","","",""
"422","","image-keyboard-response","46","96847","0.0-46.0","37WLF8U1WQC85SAU4XUHHDEBRVH6KP","A3AY0315YWWNXY","3A3KKYU7P33Z3BR9PPFZ5194ZCQMWU","","","img/flower5.png","75","422.60000002384186","2","1","2","",""
"null","","html-keyboard-response","47","97154","0.0-47.0","37WLF8U1WQC85SAU4XUHHDEBRVH6KP","A3AY0315YWWNXY","3A3KKYU7P33Z3BR9PPFZ5194ZCQMWU","","","<img src=""img/flower5.png"" style=""width:200px; border:14px solid green;"">","null","","","","","",""
"678.6999999880791","","image-keyboard-response","48","97833","0.0-48.0","37WLF8U1WQC85SAU4XUHHDEBRVH6KP","A3AY0315YWWNXY","3A3KKYU7P33Z3BR9PPFZ5194ZCQMWU","","","img/flower6.png","76","679.3000000119209","3","1","3","",""
"null","","html-keyboard-response","49","98146","0.0-49.0","37WLF8U1WQC85SAU4XUHHDEBRVH6KP","A3AY0315YWWNXY","3A3KKYU7P33Z3BR9PPFZ5194ZCQMWU","","","<img src=""img/flower6.png"" style=""width:200px; border:14px solid green;"">","null","","","","","",""
"569.8000000119209","","image-keyboard-response","50","98717","0.0-50.0","37WLF8U1WQC85SAU4XUHHDEBRVH6KP","A3AY0315YWWNXY","3A3KKYU7P33Z3BR9PPFZ5194ZCQMWU","","","img/flower4.png","74","570.3999999761581","1","1","1","",""
"null","","html-keyboard-response","51","99031","0.0-51.0","37WLF8U1WQC85SAU4XUHHDEBRVH6KP","A3AY0315YWWNXY","3A3KKYU7P33Z3BR9PPFZ5194ZCQMWU","","","<img src=""img/flower4.png"" style=""width:200px; border:14px solid green;"">","null","","","","","",""
"563.6999999880791","","image-keyboard-response","52","99595","0.0-52.0","37WLF8U1WQC85SAU4XUHHDEBRVH6KP","A3AY0315YWWNXY","3A3KKYU7P33Z3BR9PPFZ5194ZCQMWU","","","img/flower5.png","75","564.4000000357628","2","1","2","",""
"null","","html-keyboard-response","53","99899","0.0-53.0","37WLF8U1WQC85SAU4XUHHDEBRVH6KP","A3AY0315YWWNXY","3A3KKYU7P33Z3BR9PPFZ5194ZCQMWU","","","<img src=""img/flower5.png"" style=""width:200px; border:14px solid green;"">","null","","","","","",""
"367","","image-keyboard-response","54","100267","0.0-54.0","37WLF8U1WQC85SAU4XUHHDEBRVH6KP","A3AY0315YWWNXY","3A3KKYU7P33Z3BR9PPFZ5194ZCQMWU","","","img/flower6.png","76","367.60000002384186","3","1","3","",""
"null","","html-keyboard-response","55","100582","0.0-55.0","37WLF8U1WQC85SAU4XUHHDEBRVH6KP","A3AY0315YWWNXY","3A3KKYU7P33Z3BR9PPFZ5194ZCQMWU","","","<img src=""img/flower6.png"" style=""width:200px; border:14px solid green;"">","null","","","","","",""
"780.5","","image-keyboard-response","56","101363","0.0-56.0","37WLF8U1WQC85SAU4XUHHDEBRVH6KP","A3AY0315YWWNXY","3A3KKYU7P33Z3BR9PPFZ5194ZCQMWU","","","img/flower5.png","75","781","2","1","2","",""
"null","","html-keyboard-response","57","101668","0.0-57.0","37WLF8U1WQC85SAU4XUHHDEBRVH6KP","A3AY0315YWWNXY","3A3KKYU7P33Z3BR9PPFZ5194ZCQMWU","","","<img src=""img/flower5.png"" style=""width:200px; border:14px solid green;"">","null","","","","","",""
"502.2999999523163","","image-keyboard-response","58","102171","0.0-58.0","37WLF8U1WQC85SAU4XUHHDEBRVH6KP","A3AY0315YWWNXY","3A3KKYU7P33Z3BR9PPFZ5194ZCQMWU","","","img/flower6.png","76","503","3","1","3","",""
"null","","html-keyboard-response","59","102475","0.0-59.0","37WLF8U1WQC85SAU4XUHHDEBRVH6KP","A3AY0315YWWNXY","3A3KKYU7P33Z3BR9PPFZ5194ZCQMWU","","","<img src=""img/flower6.png"" style=""width:200px; border:14px solid green;"">","null","","","","","",""
"321.80000001192093","","image-keyboard-response","60","102797","0.0-60.0","37WLF8U1WQC85SAU4XUHHDEBRVH6KP","A3AY0315YWWNXY","3A3KKYU7P33Z3BR9PPFZ5194ZCQMWU","","","img/flower6.png","76","322.4000000357628","3","0","3","",""
"null","","html-keyboard-response","61","103111","0.0-61.0","37WLF8U1WQC85SAU4XUHHDEBRVH6KP","A3AY0315YWWNXY","3A3KKYU7P33Z3BR9PPFZ5194ZCQMWU","","","<img src=""img/flower6.png"" style=""width:200px;border:14px solid red;"">","null","","","","","",""
"601.5999999642372","","image-keyboard-response","62","103713","0.0-62.0","37WLF8U1WQC85SAU4XUHHDEBRVH6KP","A3AY0315YWWNXY","3A3KKYU7P33Z3BR9PPFZ5194ZCQMWU","","","img/flower4.png","74","602.1000000238419","1","1","1","",""
"null","","html-keyboard-response","63","104026","0.0-63.0","37WLF8U1WQC85SAU4XUHHDEBRVH6KP","A3AY0315YWWNXY","3A3KKYU7P33Z3BR9PPFZ5194ZCQMWU","","","<img src=""img/flower4.png"" style=""width:200px; border:14px solid green;"">","null","","","","","",""
"14513.300000011921","","instructions","64","118540","0.0-64.0","37WLF8U1WQC85SAU4XUHHDEBRVH6KP","A3AY0315YWWNXY","3A3KKYU7P33Z3BR9PPFZ5194ZCQMWU","","[{""page_index"":0,""viewing_time"":4237.800000011921},{""page_index"":1,""viewing_time"":10275.299999952316}]","","","","","","","",""
"800.4000000357628","","image-keyboard-response","65","119341","0.0-65.0","37WLF8U1WQC85SAU4XUHHDEBRVH6KP","A3AY0315YWWNXY","3A3KKYU7P33Z3BR9PPFZ5194ZCQMWU","","","img/flower6.png","76","801.1000000238419","3","1","3","",""
"null","","html-keyboard-response","66","119648","0.0-66.0","37WLF8U1WQC85SAU4XUHHDEBRVH6KP","A3AY0315YWWNXY","3A3KKYU7P33Z3BR9PPFZ5194ZCQMWU","","","<img src=""img/flower6.png"" style=""width:200px; border:14px solid green;"">","null","","","","","",""
"1042.3999999761581","","image-keyboard-response","67","120691","0.0-67.0","37WLF8U1WQC85SAU4XUHHDEBRVH6KP","A3AY0315YWWNXY","3A3KKYU7P33Z3BR9PPFZ5194ZCQMWU","","","img/flower4.png","74","1042.8999999761581","1","1","1","",""
"null","","html-keyboard-response","68","120997","0.0-68.0","37WLF8U1WQC85SAU4XUHHDEBRVH6KP","A3AY0315YWWNXY","3A3KKYU7P33Z3BR9PPFZ5194ZCQMWU","","","<img src=""img/flower4.png"" style=""width:200px; border:14px solid green;"">","null","","","","","",""
"1060.7999999523163","","image-keyboard-response","69","122059","0.0-69.0","37WLF8U1WQC85SAU4XUHHDEBRVH6KP","A3AY0315YWWNXY","3A3KKYU7P33Z3BR9PPFZ5194ZCQMWU","","","img/flower5.png","75","1061.300000011921","2","0","2","",""
"null","","html-keyboard-response","70","122363","0.0-70.0","37WLF8U1WQC85SAU4XUHHDEBRVH6KP","A3AY0315YWWNXY","3A3KKYU7P33Z3BR9PPFZ5194ZCQMWU","","","<img src=""img/flower5.png"" style=""width:200px;border:14px solid red;"">","null","","","","","",""
"2577.599999964237","","image-keyboard-response","71","124941","0.0-71.0","37WLF8U1WQC85SAU4XUHHDEBRVH6KP","A3AY0315YWWNXY","3A3KKYU7P33Z3BR9PPFZ5194ZCQMWU","","","img/flower5.png","74","2578.100000023842","1","0","2","",""
"null","","html-keyboard-response","72","125248","0.0-72.0","37WLF8U1WQC85SAU4XUHHDEBRVH6KP","A3AY0315YWWNXY","3A3KKYU7P33Z3BR9PPFZ5194ZCQMWU","","","<img src=""img/flower5.png"" style=""width:200px;border:14px solid red;"">","null","","","","","",""
"626.0999999642372","","image-keyboard-response","73","125875","0.0-73.0","37WLF8U1WQC85SAU4XUHHDEBRVH6KP","A3AY0315YWWNXY","3A3KKYU7P33Z3BR9PPFZ5194ZCQMWU","","","img/flower4.png","74","626.6999999880791","1","1","1","",""
"null","","html-keyboard-response","74","126179","0.0-74.0","37WLF8U1WQC85SAU4XUHHDEBRVH6KP","A3AY0315YWWNXY","3A3KKYU7P33Z3BR9PPFZ5194ZCQMWU","","","<img src=""img/flower4.png"" style=""width:200px; border:14px solid green;"">","null","","","","","",""
"459.39999997615814","","image-keyboard-response","75","126639","0.0-75.0","37WLF8U1WQC85SAU4XUHHDEBRVH6KP","A3AY0315YWWNXY","3A3KKYU7P33Z3BR9PPFZ5194ZCQMWU","","","img/flower4.png","74","460","1","0","1","",""
"null","","html-keyboard-response","76","126955","0.0-76.0","37WLF8U1WQC85SAU4XUHHDEBRVH6KP","A3AY0315YWWNXY","3A3KKYU7P33Z3BR9PPFZ5194ZCQMWU","","","<img src=""img/flower4.png"" style=""width:200px;border:14px solid red;"">","null","","","","","",""
"835.6999999880791","","image-keyboard-response","77","127791","0.0-77.0","37WLF8U1WQC85SAU4XUHHDEBRVH6KP","A3AY0315YWWNXY","3A3KKYU7P33Z3BR9PPFZ5194ZCQMWU","","","img/flower6.png","76","836.3000000119209","3","1","3","",""
"null","","html-keyboard-response","78","128103","0.0-78.0","37WLF8U1WQC85SAU4XUHHDEBRVH6KP","A3AY0315YWWNXY","3A3KKYU7P33Z3BR9PPFZ5194ZCQMWU","","","<img src=""img/flower6.png"" style=""width:200px; border:14px solid green;"">","null","","","","","",""
"799.6999999880791","","image-keyboard-response","79","128903","0.0-79.0","37WLF8U1WQC85SAU4XUHHDEBRVH6KP","A3AY0315YWWNXY","3A3KKYU7P33Z3BR9PPFZ5194ZCQMWU","","","img/flower4.png","74","800.4000000357628","1","1","1","",""
"null","","html-keyboard-response","80","129220","0.0-80.0","37WLF8U1WQC85SAU4XUHHDEBRVH6KP","A3AY0315YWWNXY","3A3KKYU7P33Z3BR9PPFZ5194ZCQMWU","","","<img src=""img/flower4.png"" style=""width:200px; border:14px solid green;"">","null","","","","","",""
"416.80000001192093","","image-keyboard-response","81","129637","0.0-81.0","37WLF8U1WQC85SAU4XUHHDEBRVH6KP","A3AY0315YWWNXY","3A3KKYU7P33Z3BR9PPFZ5194ZCQMWU","","","img/flower4.png","74","417.4000000357628","1","1","1","",""
"null","","html-keyboard-response","82","129949","0.0-82.0","37WLF8U1WQC85SAU4XUHHDEBRVH6KP","A3AY0315YWWNXY","3A3KKYU7P33Z3BR9PPFZ5194ZCQMWU","","","<img src=""img/flower4.png"" style=""width:200px; border:14px solid green;"">","null","","","","","",""
"917.6000000238419","","image-keyboard-response","83","130867","0.0-83.0","37WLF8U1WQC85SAU4XUHHDEBRVH6KP","A3AY0315YWWNXY","3A3KKYU7P33Z3BR9PPFZ5194ZCQMWU","","","img/flower6.png","76","918.3000000119209","3","1","3","",""
"null","","html-keyboard-response","84","131174","0.0-84.0","37WLF8U1WQC85SAU4XUHHDEBRVH6KP","A3AY0315YWWNXY","3A3KKYU7P33Z3BR9PPFZ5194ZCQMWU","","","<img src=""img/flower6.png"" style=""width:200px; border:14px solid green;"">","null","","","","","",""
"1244","","image-keyboard-response","85","132419","0.0-85.0","37WLF8U1WQC85SAU4XUHHDEBRVH6KP","A3AY0315YWWNXY","3A3KKYU7P33Z3BR9PPFZ5194ZCQMWU","","","img/flower4.png","74","1244.6000000238419","1","1","1","",""
"null","","html-keyboard-response","86","132726","0.0-86.0","37WLF8U1WQC85SAU4XUHHDEBRVH6KP","A3AY0315YWWNXY","3A3KKYU7P33Z3BR9PPFZ5194ZCQMWU","","","<img src=""img/flower4.png"" style=""width:200px; border:14px solid green;"">","null","","","","","",""
"452.80000001192093","","image-keyboard-response","87","133179","0.0-87.0","37WLF8U1WQC85SAU4XUHHDEBRVH6KP","A3AY0315YWWNXY","3A3KKYU7P33Z3BR9PPFZ5194ZCQMWU","","","img/flower4.png","74","453.4000000357628","1","1","1","",""
"null","","html-keyboard-response","88","133486","0.0-88.0","37WLF8U1WQC85SAU4XUHHDEBRVH6KP","A3AY0315YWWNXY","3A3KKYU7P33Z3BR9PPFZ5194ZCQMWU","","","<img src=""img/flower4.png"" style=""width:200px; border:14px solid green;"">","null","","","","","",""
"920.5999999642372","","image-keyboard-response","89","134407","0.0-89.0","37WLF8U1WQC85SAU4XUHHDEBRVH6KP","A3AY0315YWWNXY","3A3KKYU7P33Z3BR9PPFZ5194ZCQMWU","","","img/flower6.png","76","921.2000000476837","3","1","3","",""
"null","","html-keyboard-response","90","134711","0.0-90.0","37WLF8U1WQC85SAU4XUHHDEBRVH6KP","A3AY0315YWWNXY","3A3KKYU7P33Z3BR9PPFZ5194ZCQMWU","","","<img src=""img/flower6.png"" style=""width:200px; border:14px solid green;"">","null","","","","","",""
"468.9000000357628","","image-keyboard-response","91","135181","0.0-91.0","37WLF8U1WQC85SAU4XUHHDEBRVH6KP","A3AY0315YWWNXY","3A3KKYU7P33Z3BR9PPFZ5194ZCQMWU","","","img/flower6.png","76","469.60000002384186","3","1","3","",""
"null","","html-keyboard-response","92","135487","0.0-92.0","37WLF8U1WQC85SAU4XUHHDEBRVH6KP","A3AY0315YWWNXY","3A3KKYU7P33Z3BR9PPFZ5194ZCQMWU","","","<img src=""img/flower6.png"" style=""width:200px; border:14px solid green;"">","null","","","","","",""
"371.2999999523163","","image-keyboard-response","93","135859","0.0-93.0","37WLF8U1WQC85SAU4XUHHDEBRVH6KP","A3AY0315YWWNXY","3A3KKYU7P33Z3BR9PPFZ5194ZCQMWU","","","img/flower6.png","76","371.9000000357628","3","0","3","",""
"null","","html-keyboard-response","94","136170","0.0-94.0","37WLF8U1WQC85SAU4XUHHDEBRVH6KP","A3AY0315YWWNXY","3A3KKYU7P33Z3BR9PPFZ5194ZCQMWU","","","<img src=""img/flower6.png"" style=""width:200px;border:14px solid red;"">","null","","","","","",""
"918.7999999523163","","image-keyboard-response","95","137089","0.0-95.0","37WLF8U1WQC85SAU4XUHHDEBRVH6KP","A3AY0315YWWNXY","3A3KKYU7P33Z3BR9PPFZ5194ZCQMWU","","","img/flower4.png","74","919.4000000357628","1","1","1","",""
"null","","html-keyboard-response","96","137395","0.0-96.0","37WLF8U1WQC85SAU4XUHHDEBRVH6KP","A3AY0315YWWNXY","3A3KKYU7P33Z3BR9PPFZ5194ZCQMWU","","","<img src=""img/flower4.png"" style=""width:200px; border:14px solid green;"">","null","","","","","",""
"557.1999999880791","","image-keyboard-response","97","137953","0.0-97.0","37WLF8U1WQC85SAU4XUHHDEBRVH6KP","A3AY0315YWWNXY","3A3KKYU7P33Z3BR9PPFZ5194ZCQMWU","","","img/flower6.png","76","557.8000000119209","3","1","3","",""
"null","","html-keyboard-response","98","138264","0.0-98.0","37WLF8U1WQC85SAU4XUHHDEBRVH6KP","A3AY0315YWWNXY","3A3KKYU7P33Z3BR9PPFZ5194ZCQMWU","","","<img src=""img/flower6.png"" style=""width:200px; border:14px solid green;"">","null","","","","","",""
"646.3999999761581","","image-keyboard-response","99","138911","0.0-99.0","37WLF8U1WQC85SAU4XUHHDEBRVH6KP","A3AY0315YWWNXY","3A3KKYU7P33Z3BR9PPFZ5194ZCQMWU","","","img/flower5.png","76","647","3","0","2","",""
"null","","html-keyboard-response","100","139226","0.0-100.0","37WLF8U1WQC85SAU4XUHHDEBRVH6KP","A3AY0315YWWNXY","3A3KKYU7P33Z3BR9PPFZ5194ZCQMWU","","","<img src=""img/flower5.png"" style=""width:200px;border:14px solid red;"">","null","","","","","",""
"628.8000000119209","","image-keyboard-response","101","139855","0.0-101.0","37WLF8U1WQC85SAU4XUHHDEBRVH6KP","A3AY0315YWWNXY","3A3KKYU7P33Z3BR9PPFZ5194ZCQMWU","","","img/flower5.png","75","629.5","2","1","2","",""
"null","","html-keyboard-response","102","140156","0.0-102.0","37WLF8U1WQC85SAU4XUHHDEBRVH6KP","A3AY0315YWWNXY","3A3KKYU7P33Z3BR9PPFZ5194ZCQMWU","","","<img src=""img/flower5.png"" style=""width:200px; border:14px solid green;"">","null","","","","","",""
"859.7999999523163","","image-keyboard-response","103","141017","0.0-103.0","37WLF8U1WQC85SAU4XUHHDEBRVH6KP","A3AY0315YWWNXY","3A3KKYU7P33Z3BR9PPFZ5194ZCQMWU","","","img/flower5.png","76","860.3000000119209","3","1","2","",""
"null","","html-keyboard-response","104","141320","0.0-104.0","37WLF8U1WQC85SAU4XUHHDEBRVH6KP","A3AY0315YWWNXY","3A3KKYU7P33Z3BR9PPFZ5194ZCQMWU","","","<img src=""img/flower5.png"" style=""width:200px; border:14px solid green;"">","null","","","","","",""
"642.1000000238419","","image-keyboard-response","105","141963","0.0-105.0","37WLF8U1WQC85SAU4XUHHDEBRVH6KP","A3AY0315YWWNXY","3A3KKYU7P33Z3BR9PPFZ5194ZCQMWU","","","img/flower5.png","75","642.8999999761581","2","1","2","",""
"null","","html-keyboard-response","106","142266","0.0-106.0","37WLF8U1WQC85SAU4XUHHDEBRVH6KP","A3AY0315YWWNXY","3A3KKYU7P33Z3BR9PPFZ5194ZCQMWU","","","<img src=""img/flower5.png"" style=""width:200px; border:14px solid green;"">","null","","","","","",""
"499.80000001192093","","image-keyboard-response","107","142767","0.0-107.0","37WLF8U1WQC85SAU4XUHHDEBRVH6KP","A3AY0315YWWNXY","3A3KKYU7P33Z3BR9PPFZ5194ZCQMWU","","","img/flower5.png","76","500.60000002384186","3","1","2","",""
"null","","html-keyboard-response","108","143073","0.0-108.0","37WLF8U1WQC85SAU4XUHHDEBRVH6KP","A3AY0315YWWNXY","3A3KKYU7P33Z3BR9PPFZ5194ZCQMWU","","","<img src=""img/flower5.png"" style=""width:200px; border:14px solid green;"">","null","","","","","",""
"393.2999999523163","","image-keyboard-response","109","143467","0.0-109.0","37WLF8U1WQC85SAU4XUHHDEBRVH6KP","A3AY0315YWWNXY","3A3KKYU7P33Z3BR9PPFZ5194ZCQMWU","","","img/flower5.png","75","394","2","1","2","",""
"null","","html-keyboard-response","110","143771","0.0-110.0","37WLF8U1WQC85SAU4XUHHDEBRVH6KP","A3AY0315YWWNXY","3A3KKYU7P33Z3BR9PPFZ5194ZCQMWU","","","<img src=""img/flower5.png"" style=""width:200px; border:14px solid green;"">","null","","","","","",""
"593.2999999523163","","image-keyboard-response","111","144365","0.0-111.0","37WLF8U1WQC85SAU4XUHHDEBRVH6KP","A3AY0315YWWNXY","3A3KKYU7P33Z3BR9PPFZ5194ZCQMWU","","","img/flower4.png","74","593.8000000119209","1","0","1","",""
"null","","html-keyboard-response","112","144671","0.0-112.0","37WLF8U1WQC85SAU4XUHHDEBRVH6KP","A3AY0315YWWNXY","3A3KKYU7P33Z3BR9PPFZ5194ZCQMWU","","","<img src=""img/flower4.png"" style=""width:200px;border:14px solid red;"">","null","","","","","",""
"933.6000000238419","","image-keyboard-response","113","145605","0.0-113.0","37WLF8U1WQC85SAU4XUHHDEBRVH6KP","A3AY0315YWWNXY","3A3KKYU7P33Z3BR9PPFZ5194ZCQMWU","","","img/flower6.png","76","934.1999999880791","3","1","3","",""
"null","","html-keyboard-response","114","145912","0.0-114.0","37WLF8U1WQC85SAU4XUHHDEBRVH6KP","A3AY0315YWWNXY","3A3KKYU7P33Z3BR9PPFZ5194ZCQMWU","","","<img src=""img/flower6.png"" style=""width:200px; border:14px solid green;"">","null","","","","","",""
"466.5","","image-keyboard-response","115","146379","0.0-115.0","37WLF8U1WQC85SAU4XUHHDEBRVH6KP","A3AY0315YWWNXY","3A3KKYU7P33Z3BR9PPFZ5194ZCQMWU","","","img/flower6.png","76","466.89999997615814","3","1","3","",""
"null","","html-keyboard-response","116","146688","0.0-116.0","37WLF8U1WQC85SAU4XUHHDEBRVH6KP","A3AY0315YWWNXY","3A3KKYU7P33Z3BR9PPFZ5194ZCQMWU","","","<img src=""img/flower6.png"" style=""width:200px; border:14px solid green;"">","null","","","","","",""
"490.7999999523163","","image-keyboard-response","117","147179","0.0-117.0","37WLF8U1WQC85SAU4XUHHDEBRVH6KP","A3AY0315YWWNXY","3A3KKYU7P33Z3BR9PPFZ5194ZCQMWU","","","img/flower4.png","74","491.30000001192093","1","1","1","",""
"null","","html-keyboard-response","118","147494","0.0-118.0","37WLF8U1WQC85SAU4XUHHDEBRVH6KP","A3AY0315YWWNXY","3A3KKYU7P33Z3BR9PPFZ5194ZCQMWU","","","<img src=""img/flower4.png"" style=""width:200px; border:14px solid green;"">","null","","","","","",""
"616","","image-keyboard-response","119","148111","0.0-119.0","37WLF8U1WQC85SAU4XUHHDEBRVH6KP","A3AY0315YWWNXY","3A3KKYU7P33Z3BR9PPFZ5194ZCQMWU","","","img/flower6.png","76","616.7000000476837","3","0","3","",""
"null","","html-keyboard-response","120","148425","0.0-120.0","37WLF8U1WQC85SAU4XUHHDEBRVH6KP","A3AY0315YWWNXY","3A3KKYU7P33Z3BR9PPFZ5194ZCQMWU","","","<img src=""img/flower6.png"" style=""width:200px;border:14px solid red;"">","null","","","","","",""
"691.2999999523163","","image-keyboard-response","121","149117","0.0-121.0","37WLF8U1WQC85SAU4XUHHDEBRVH6KP","A3AY0315YWWNXY","3A3KKYU7P33Z3BR9PPFZ5194ZCQMWU","","","img/flower5.png","75","691.9000000357628","2","1","2","",""
"null","","html-keyboard-response","122","149418","0.0-122.0","37WLF8U1WQC85SAU4XUHHDEBRVH6KP","A3AY0315YWWNXY","3A3KKYU7P33Z3BR9PPFZ5194ZCQMWU","","","<img src=""img/flower5.png"" style=""width:200px; border:14px solid green;"">","null","","","","","",""
"504.5","","image-keyboard-response","123","149923","0.0-123.0","37WLF8U1WQC85SAU4XUHHDEBRVH6KP","A3AY0315YWWNXY","3A3KKYU7P33Z3BR9PPFZ5194ZCQMWU","","","img/flower5.png","76","505.19999998807907","3","1","2","",""
"null","","html-keyboard-response","124","150225","0.0-124.0","37WLF8U1WQC85SAU4XUHHDEBRVH6KP","A3AY0315YWWNXY","3A3KKYU7P33Z3BR9PPFZ5194ZCQMWU","","","<img src=""img/flower5.png"" style=""width:200px; border:14px solid green;"">","null","","","","","",""
"4329.099999964237","","instructions","125","154554","0.0-125.0","37WLF8U1WQC85SAU4XUHHDEBRVH6KP","A3AY0315YWWNXY","3A3KKYU7P33Z3BR9PPFZ5194ZCQMWU","","[{""page_index"":0,""viewing_time"":4328.899999976158}]","","","","","","","",""
"723.8999999761581","","image-keyboard-response","126","155279","0.0-126.0","37WLF8U1WQC85SAU4XUHHDEBRVH6KP","A3AY0315YWWNXY","3A3KKYU7P33Z3BR9PPFZ5194ZCQMWU","","","img/flower6.png","76","724.8000000119209","3","1","2","1,1,0,0,1,1,1,0,1",""
"null","","html-keyboard-response","127","155581","0.0-127.0","37WLF8U1WQC85SAU4XUHHDEBRVH6KP","A3AY0315YWWNXY","3A3KKYU7P33Z3BR9PPFZ5194ZCQMWU","","","<img src=""img/flower6.png"" style=""width:200px; border:14px solid green;"">","null","","","","","",""
"371.5","","image-keyboard-response","128","155953","0.0-128.0","37WLF8U1WQC85SAU4XUHHDEBRVH6KP","A3AY0315YWWNXY","3A3KKYU7P33Z3BR9PPFZ5194ZCQMWU","","","img/flower6.png","76","372.19999998807907","3","1","2","1,1,0,0,1,1,1,0,1",""
"null","","html-keyboard-response","129","156259","0.0-129.0","37WLF8U1WQC85SAU4XUHHDEBRVH6KP","A3AY0315YWWNXY","3A3KKYU7P33Z3BR9PPFZ5194ZCQMWU","","","<img src=""img/flower6.png"" style=""width:200px; border:14px solid green;"">","null","","","","","",""
"373.0999999642372","","image-keyboard-response","130","156633","0.0-130.0","37WLF8U1WQC85SAU4XUHHDEBRVH6KP","A3AY0315YWWNXY","3A3KKYU7P33Z3BR9PPFZ5194ZCQMWU","","","img/flower6.png","76","373.60000002384186","3","1","2","1,1,0,0,1,1,1,0,1",""
"null","","html-keyboard-response","131","156942","0.0-131.0","37WLF8U1WQC85SAU4XUHHDEBRVH6KP","A3AY0315YWWNXY","3A3KKYU7P33Z3BR9PPFZ5194ZCQMWU","","","<img src=""img/flower6.png"" style=""width:200px; border:14px solid green;"">","null","","","","","",""
"1638.3999999761581","","image-keyboard-response","132","158581","0.0-132.0","37WLF8U1WQC85SAU4XUHHDEBRVH6KP","A3AY0315YWWNXY","3A3KKYU7P33Z3BR9PPFZ5194ZCQMWU","","","img/flower3.png","74","1638.8999999761581","1","1","3","1,1,0,0,1,1,1,0,1",""
"null","","html-keyboard-response","133","158888","0.0-133.0","37WLF8U1WQC85SAU4XUHHDEBRVH6KP","A3AY0315YWWNXY","3A3KKYU7P33Z3BR9PPFZ5194ZCQMWU","","","<img src=""img/flower3.png"" style=""width:200px; border:14px solid green;"">","null","","","","","",""
"748.3999999761581","","image-keyboard-response","134","159637","0.0-134.0","37WLF8U1WQC85SAU4XUHHDEBRVH6KP","A3AY0315YWWNXY","3A3KKYU7P33Z3BR9PPFZ5194ZCQMWU","","","img/flower6.png","76","749.1000000238419","3","1","2","1,1,0,0,1,1,1,0,1",""
"null","","html-keyboard-response","135","159951","0.0-135.0","37WLF8U1WQC85SAU4XUHHDEBRVH6KP","A3AY0315YWWNXY","3A3KKYU7P33Z3BR9PPFZ5194ZCQMWU","","","<img src=""img/flower6.png"" style=""width:200px; border:14px solid green;"">","null","","","","","",""
"846.9000000357628","","image-keyboard-response","136","160799","0.0-136.0","37WLF8U1WQC85SAU4XUHHDEBRVH6KP","A3AY0315YWWNXY","3A3KKYU7P33Z3BR9PPFZ5194ZCQMWU","","","img/flower2.png","75","847.6000000238419","2","1","1","1,1,0,0,1,1,1,0,1",""
"null","","html-keyboard-response","137","161115","0.0-137.0","37WLF8U1WQC85SAU4XUHHDEBRVH6KP","A3AY0315YWWNXY","3A3KKYU7P33Z3BR9PPFZ5194ZCQMWU","","","<img src=""img/flower2.png"" style=""width:200px; border:14px solid green;"">","null","","","","","",""
"933.3000000119209","","image-keyboard-response","138","162049","0.0-138.0","37WLF8U1WQC85SAU4XUHHDEBRVH6KP","A3AY0315YWWNXY","3A3KKYU7P33Z3BR9PPFZ5194ZCQMWU","","","img/flower3.png","74","933.9000000357628","1","1","3","1,1,0,0,1,1,1,0,1",""
"null","","html-keyboard-response","139","162356","0.0-139.0","37WLF8U1WQC85SAU4XUHHDEBRVH6KP","A3AY0315YWWNXY","3A3KKYU7P33Z3BR9PPFZ5194ZCQMWU","","","<img src=""img/flower3.png"" style=""width:200px; border:14px solid green;"">","null","","","","","",""
"348.19999998807907","","image-keyboard-response","140","162705","0.0-140.0","37WLF8U1WQC85SAU4XUHHDEBRVH6KP","A3AY0315YWWNXY","3A3KKYU7P33Z3BR9PPFZ5194ZCQMWU","","","img/flower3.png","74","348.69999998807907","1","1","3","1,1,0,0,1,1,1,0,1",""
"null","","html-keyboard-response","141","163008","0.0-141.0","37WLF8U1WQC85SAU4XUHHDEBRVH6KP","A3AY0315YWWNXY","3A3KKYU7P33Z3BR9PPFZ5194ZCQMWU","","","<img src=""img/flower3.png"" style=""width:200px; border:14px solid green;"">","null","","","","","",""
"452.69999998807907","","image-keyboard-response","142","163461","0.0-142.0","37WLF8U1WQC85SAU4XUHHDEBRVH6KP","A3AY0315YWWNXY","3A3KKYU7P33Z3BR9PPFZ5194ZCQMWU","","","img/flower2.png","75","453.30000001192093","2","1","1","1,1,0,0,1,1,1,0,1",""
"null","","html-keyboard-response","143","163768","0.0-143.0","37WLF8U1WQC85SAU4XUHHDEBRVH6KP","A3AY0315YWWNXY","3A3KKYU7P33Z3BR9PPFZ5194ZCQMWU","","","<img src=""img/flower2.png"" style=""width:200px; border:14px solid green;"">","null","","","","","",""
"730.5999999642372","","image-keyboard-response","144","164499","0.0-144.0","37WLF8U1WQC85SAU4XUHHDEBRVH6KP","A3AY0315YWWNXY","3A3KKYU7P33Z3BR9PPFZ5194ZCQMWU","","","img/flower6.png","76","731.1999999880791","3","1","2","1,1,0,0,1,1,1,0,1",""
"null","","html-keyboard-response","145","164807","0.0-145.0","37WLF8U1WQC85SAU4XUHHDEBRVH6KP","A3AY0315YWWNXY","3A3KKYU7P33Z3BR9PPFZ5194ZCQMWU","","","<img src=""img/flower6.png"" style=""width:200px; border:14px solid green;"">","null","","","","","",""
"391.19999998807907","","image-keyboard-response","146","165199","0.0-146.0","37WLF8U1WQC85SAU4XUHHDEBRVH6KP","A3AY0315YWWNXY","3A3KKYU7P33Z3BR9PPFZ5194ZCQMWU","","","img/flower6.png","76","391.9000000357628","3","1","2","1,1,0,0,1,1,1,0,1",""
"null","","html-keyboard-response","147","165505","0.0-147.0","37WLF8U1WQC85SAU4XUHHDEBRVH6KP","A3AY0315YWWNXY","3A3KKYU7P33Z3BR9PPFZ5194ZCQMWU","","","<img src=""img/flower6.png"" style=""width:200px; border:14px solid green;"">","null","","","","","",""
"349","","image-keyboard-response","148","165855","0.0-148.0","37WLF8U1WQC85SAU4XUHHDEBRVH6KP","A3AY0315YWWNXY","3A3KKYU7P33Z3BR9PPFZ5194ZCQMWU","","","img/flower6.png","76","349.60000002384186","3","1","2","1,1,0,0,1,1,1,0,1",""
"null","","html-keyboard-response","149","166157","0.0-149.0","37WLF8U1WQC85SAU4XUHHDEBRVH6KP","A3AY0315YWWNXY","3A3KKYU7P33Z3BR9PPFZ5194ZCQMWU","","","<img src=""img/flower6.png"" style=""width:200px; border:14px solid green;"">","null","","","","","",""
"895.5","","image-keyboard-response","150","167053","0.0-150.0","37WLF8U1WQC85SAU4XUHHDEBRVH6KP","A3AY0315YWWNXY","3A3KKYU7P33Z3BR9PPFZ5194ZCQMWU","","","img/flower2.png","74","896.1000000238419","1","1","1","1,1,0,0,1,1,1,0,1",""
"null","","html-keyboard-response","151","167367","0.0-151.0","37WLF8U1WQC85SAU4XUHHDEBRVH6KP","A3AY0315YWWNXY","3A3KKYU7P33Z3BR9PPFZ5194ZCQMWU","","","<img src=""img/flower2.png"" style=""width:200px; border:14px solid green;"">","null","","","","","",""
"465.39999997615814","","image-keyboard-response","152","167833","0.0-152.0","37WLF8U1WQC85SAU4XUHHDEBRVH6KP","A3AY0315YWWNXY","3A3KKYU7P33Z3BR9PPFZ5194ZCQMWU","","","img/flower3.png","75","466.10000002384186","2","0","3","1,1,0,0,1,1,1,0,1",""
"null","","html-keyboard-response","153","168142","0.0-153.0","37WLF8U1WQC85SAU4XUHHDEBRVH6KP","A3AY0315YWWNXY","3A3KKYU7P33Z3BR9PPFZ5194ZCQMWU","","","<img src=""img/flower3.png"" style=""width:200px;border:14px solid red;"">","null","","","","","",""
"569.7999999523163","","image-keyboard-response","154","168713","0.0-154.0","37WLF8U1WQC85SAU4XUHHDEBRVH6KP","A3AY0315YWWNXY","3A3KKYU7P33Z3BR9PPFZ5194ZCQMWU","","","img/flower6.png","76","570.4000000357628","3","1","2","1,1,0,0,1,1,1,0,1",""
"null","","html-keyboard-response","155","169027","0.0-155.0","37WLF8U1WQC85SAU4XUHHDEBRVH6KP","A3AY0315YWWNXY","3A3KKYU7P33Z3BR9PPFZ5194ZCQMWU","","","<img src=""img/flower6.png"" style=""width:200px; border:14px solid green;"">","null","","","","","",""
"1513.699999988079","","image-keyboard-response","156","170541","0.0-156.0","37WLF8U1WQC85SAU4XUHHDEBRVH6KP","A3AY0315YWWNXY","3A3KKYU7P33Z3BR9PPFZ5194ZCQMWU","","","img/flower3.png","75","1514.199999988079","2","0","3","1,1,0,0,1,1,1,0,1",""
"null","","html-keyboard-response","157","170842","0.0-157.0","37WLF8U1WQC85SAU4XUHHDEBRVH6KP","A3AY0315YWWNXY","3A3KKYU7P33Z3BR9PPFZ5194ZCQMWU","","","<img src=""img/flower3.png"" style=""width:200px;border:14px solid red;"">","null","","","","","",""
"670.8000000119209","","image-keyboard-response","158","171513","0.0-158.0","37WLF8U1WQC85SAU4XUHHDEBRVH6KP","A3AY0315YWWNXY","3A3KKYU7P33Z3BR9PPFZ5194ZCQMWU","","","img/flower2.png","74","671.3000000119209","1","1","1","1,1,0,0,1,1,1,0,1",""
"null","","html-keyboard-response","159","171819","0.0-159.0","37WLF8U1WQC85SAU4XUHHDEBRVH6KP","A3AY0315YWWNXY","3A3KKYU7P33Z3BR9PPFZ5194ZCQMWU","","","<img src=""img/flower2.png"" style=""width:200px; border:14px solid green;"">","null","","","","","",""
"531.0999999642372","","image-keyboard-response","160","172351","0.0-160.0","37WLF8U1WQC85SAU4XUHHDEBRVH6KP","A3AY0315YWWNXY","3A3KKYU7P33Z3BR9PPFZ5194ZCQMWU","","","img/flower3.png","75","531.8000000119209","2","0","3","1,1,0,0,1,1,1,0,1",""
"null","","html-keyboard-response","161","172657","0.0-161.0","37WLF8U1WQC85SAU4XUHHDEBRVH6KP","A3AY0315YWWNXY","3A3KKYU7P33Z3BR9PPFZ5194ZCQMWU","","","<img src=""img/flower3.png"" style=""width:200px;border:14px solid red;"">","null","","","","","",""
"1271.2999999523163","","image-keyboard-response","162","173929","0.0-162.0","37WLF8U1WQC85SAU4XUHHDEBRVH6KP","A3AY0315YWWNXY","3A3KKYU7P33Z3BR9PPFZ5194ZCQMWU","","","img/flower3.png","76","1271.9000000357628","3","1","3","1,1,0,0,1,1,1,0,1",""
"null","","html-keyboard-response","163","174239","0.0-163.0","37WLF8U1WQC85SAU4XUHHDEBRVH6KP","A3AY0315YWWNXY","3A3KKYU7P33Z3BR9PPFZ5194ZCQMWU","","","<img src=""img/flower3.png"" style=""width:200px; border:14px solid green;"">","null","","","","","",""
"492.80000001192093","","image-keyboard-response","164","174733","0.0-164.0","37WLF8U1WQC85SAU4XUHHDEBRVH6KP","A3AY0315YWWNXY","3A3KKYU7P33Z3BR9PPFZ5194ZCQMWU","","","img/flower6.png","76","493.60000002384186","3","1","2","1,1,0,0,1,1,1,0,1",""
"null","","html-keyboard-response","165","175046","0.0-165.0","37WLF8U1WQC85SAU4XUHHDEBRVH6KP","A3AY0315YWWNXY","3A3KKYU7P33Z3BR9PPFZ5194ZCQMWU","","","<img src=""img/flower6.png"" style=""width:200px; border:14px solid green;"">","null","","","","","",""
"338.39999997615814","","image-keyboard-response","166","175385","0.0-166.0","37WLF8U1WQC85SAU4XUHHDEBRVH6KP","A3AY0315YWWNXY","3A3KKYU7P33Z3BR9PPFZ5194ZCQMWU","","","img/flower6.png","76","338.89999997615814","3","1","2","1,1,0,0,1,1,1,0,1",""
"null","","html-keyboard-response","167","175697","0.0-167.0","37WLF8U1WQC85SAU4XUHHDEBRVH6KP","A3AY0315YWWNXY","3A3KKYU7P33Z3BR9PPFZ5194ZCQMWU","","","<img src=""img/flower6.png"" style=""width:200px; border:14px solid green;"">","null","","","","","",""
"570.6999999880791","","image-keyboard-response","168","176269","0.0-168.0","37WLF8U1WQC85SAU4XUHHDEBRVH6KP","A3AY0315YWWNXY","3A3KKYU7P33Z3BR9PPFZ5194ZCQMWU","","","img/flower2.png","74","571.3000000119209","1","1","1","1,1,0,0,1,1,1,0,1",""
"null","","html-keyboard-response","169","176582","0.0-169.0","37WLF8U1WQC85SAU4XUHHDEBRVH6KP","A3AY0315YWWNXY","3A3KKYU7P33Z3BR9PPFZ5194ZCQMWU","","","<img src=""img/flower2.png"" style=""width:200px; border:14px solid green;"">","null","","","","","",""
"664.5","","image-keyboard-response","170","177247","0.0-170.0","37WLF8U1WQC85SAU4XUHHDEBRVH6KP","A3AY0315YWWNXY","3A3KKYU7P33Z3BR9PPFZ5194ZCQMWU","","","img/flower6.png","76","665.2000000476837","3","1","2","1,1,0,0,1,1,1,0,1",""
"null","","html-keyboard-response","171","177559","0.0-171.0","37WLF8U1WQC85SAU4XUHHDEBRVH6KP","A3AY0315YWWNXY","3A3KKYU7P33Z3BR9PPFZ5194ZCQMWU","","","<img src=""img/flower6.png"" style=""width:200px; border:14px solid green;"">","null","","","","","",""
"585.1999999880791","","image-keyboard-response","172","178145","0.0-172.0","37WLF8U1WQC85SAU4XUHHDEBRVH6KP","A3AY0315YWWNXY","3A3KKYU7P33Z3BR9PPFZ5194ZCQMWU","","","img/flower2.png","74","585.8000000119209","1","1","1","1,1,0,0,1,1,1,0,1",""
"null","","html-keyboard-response","173","178459","0.0-173.0","37WLF8U1WQC85SAU4XUHHDEBRVH6KP","A3AY0315YWWNXY","3A3KKYU7P33Z3BR9PPFZ5194ZCQMWU","","","<img src=""img/flower2.png"" style=""width:200px; border:14px solid green;"">","null","","","","","",""
"359.39999997615814","","image-keyboard-response","174","178819","0.0-174.0","37WLF8U1WQC85SAU4XUHHDEBRVH6KP","A3AY0315YWWNXY","3A3KKYU7P33Z3BR9PPFZ5194ZCQMWU","","","img/flower2.png","74","359.89999997615814","1","1","1","1,1,0,0,1,1,1,0,1",""
"null","","html-keyboard-response","175","179126","0.0-175.0","37WLF8U1WQC85SAU4XUHHDEBRVH6KP","A3AY0315YWWNXY","3A3KKYU7P33Z3BR9PPFZ5194ZCQMWU","","","<img src=""img/flower2.png"" style=""width:200px; border:14px solid green;"">","null","","","","","",""
"500.2999999523163","","image-keyboard-response","176","179627","0.0-176.0","37WLF8U1WQC85SAU4XUHHDEBRVH6KP","A3AY0315YWWNXY","3A3KKYU7P33Z3BR9PPFZ5194ZCQMWU","","","img/flower6.png","76","500.80000001192093","3","1","2","1,1,0,0,1,1,1,0,1",""
"null","","html-keyboard-response","177","179933","0.0-177.0","37WLF8U1WQC85SAU4XUHHDEBRVH6KP","A3AY0315YWWNXY","3A3KKYU7P33Z3BR9PPFZ5194ZCQMWU","","","<img src=""img/flower6.png"" style=""width:200px; border:14px solid green;"">","null","","","","","",""
"499.5999999642372","","image-keyboard-response","178","180433","0.0-178.0","37WLF8U1WQC85SAU4XUHHDEBRVH6KP","A3AY0315YWWNXY","3A3KKYU7P33Z3BR9PPFZ5194ZCQMWU","","","img/flower2.png","74","500.30000001192093","1","1","1","1,1,0,0,1,1,1,0,1",""
"null","","html-keyboard-response","179","180740","0.0-179.0","37WLF8U1WQC85SAU4XUHHDEBRVH6KP","A3AY0315YWWNXY","3A3KKYU7P33Z3BR9PPFZ5194ZCQMWU","","","<img src=""img/flower2.png"" style=""width:200px; border:14px solid green;"">","null","","","","","",""
"344.89999997615814","","image-keyboard-response","180","181085","0.0-180.0","37WLF8U1WQC85SAU4XUHHDEBRVH6KP","A3AY0315YWWNXY","3A3KKYU7P33Z3BR9PPFZ5194ZCQMWU","","","img/flower2.png","74","345.5","1","1","1","1,1,0,0,1,1,1,0,1",""
"null","","html-keyboard-response","181","181391","0.0-181.0","37WLF8U1WQC85SAU4XUHHDEBRVH6KP","A3AY0315YWWNXY","3A3KKYU7P33Z3BR9PPFZ5194ZCQMWU","","","<img src=""img/flower2.png"" style=""width:200px; border:14px solid green;"">","null","","","","","",""
"591.5","","image-keyboard-response","182","181984","0.0-182.0","37WLF8U1WQC85SAU4XUHHDEBRVH6KP","A3AY0315YWWNXY","3A3KKYU7P33Z3BR9PPFZ5194ZCQMWU","","","img/flower6.png","76","592.1999999880791","3","1","2","1,1,0,0,1,1,1,0,1",""
"null","","html-keyboard-response","183","182291","0.0-183.0","37WLF8U1WQC85SAU4XUHHDEBRVH6KP","A3AY0315YWWNXY","3A3KKYU7P33Z3BR9PPFZ5194ZCQMWU","","","<img src=""img/flower6.png"" style=""width:200px; border:14px solid green;"">","null","","","","","",""
"707.5999999642372","","image-keyboard-response","184","182999","0.0-184.0","37WLF8U1WQC85SAU4XUHHDEBRVH6KP","A3AY0315YWWNXY","3A3KKYU7P33Z3BR9PPFZ5194ZCQMWU","","","img/flower3.png","75","708.2000000476837","2","0","3","1,1,0,0,1,1,1,0,1",""
"null","","html-keyboard-response","185","183315","0.0-185.0","37WLF8U1WQC85SAU4XUHHDEBRVH6KP","A3AY0315YWWNXY","3A3KKYU7P33Z3BR9PPFZ5194ZCQMWU","","","<img src=""img/flower3.png"" style=""width:200px;border:14px solid red;"">","null","","","","","",""
"787.6999999880791","","image-keyboard-response","186","184103","0.0-186.0","37WLF8U1WQC85SAU4XUHHDEBRVH6KP","A3AY0315YWWNXY","3A3KKYU7P33Z3BR9PPFZ5194ZCQMWU","","","img/flower2.png","74","788.4000000357628","1","1","1","1,1,0,0,1,1,1,0,1",""
"null","","html-keyboard-response","187","184416","0.0-187.0","37WLF8U1WQC85SAU4XUHHDEBRVH6KP","A3AY0315YWWNXY","3A3KKYU7P33Z3BR9PPFZ5194ZCQMWU","","","<img src=""img/flower2.png"" style=""width:200px; border:14px solid green;"">","null","","","","","",""
"378.2999999523163","","image-keyboard-response","188","184795","0.0-188.0","37WLF8U1WQC85SAU4XUHHDEBRVH6KP","A3AY0315YWWNXY","3A3KKYU7P33Z3BR9PPFZ5194ZCQMWU","","","img/flower2.png","74","379","1","1","1","1,1,0,0,1,1,1,0,1",""
"null","","html-keyboard-response","189","185099","0.0-189.0","37WLF8U1WQC85SAU4XUHHDEBRVH6KP","A3AY0315YWWNXY","3A3KKYU7P33Z3BR9PPFZ5194ZCQMWU","","","<img src=""img/flower2.png"" style=""width:200px; border:14px solid green;"">","null","","","","","",""
"327.69999998807907","","image-keyboard-response","190","185427","0.0-190.0","37WLF8U1WQC85SAU4XUHHDEBRVH6KP","A3AY0315YWWNXY","3A3KKYU7P33Z3BR9PPFZ5194ZCQMWU","","","img/flower2.png","74","328.30000001192093","1","1","1","1,1,0,0,1,1,1,0,1",""
"null","","html-keyboard-response","191","185735","0.0-191.0","37WLF8U1WQC85SAU4XUHHDEBRVH6KP","A3AY0315YWWNXY","3A3KKYU7P33Z3BR9PPFZ5194ZCQMWU","","","<img src=""img/flower2.png"" style=""width:200px; border:14px solid green;"">","null","","","","","",""
"293.5999999642372","","image-keyboard-response","192","186029","0.0-192.0","37WLF8U1WQC85SAU4XUHHDEBRVH6KP","A3AY0315YWWNXY","3A3KKYU7P33Z3BR9PPFZ5194ZCQMWU","","","img/flower2.png","74","294.19999998807907","1","1","1","1,1,0,0,1,1,1,0,1",""
"null","","html-keyboard-response","193","186340","0.0-193.0","37WLF8U1WQC85SAU4XUHHDEBRVH6KP","A3AY0315YWWNXY","3A3KKYU7P33Z3BR9PPFZ5194ZCQMWU","","","<img src=""img/flower2.png"" style=""width:200px; border:14px solid green;"">","null","","","","","",""
"534.8000000119209","","image-keyboard-response","194","186876","0.0-194.0","37WLF8U1WQC85SAU4XUHHDEBRVH6KP","A3AY0315YWWNXY","3A3KKYU7P33Z3BR9PPFZ5194ZCQMWU","","","img/flower3.png","75","535.3999999761581","2","0","3","1,1,0,0,1,1,1,0,1",""
"null","","html-keyboard-response","195","187178","0.0-195.0","37WLF8U1WQC85SAU4XUHHDEBRVH6KP","A3AY0315YWWNXY","3A3KKYU7P33Z3BR9PPFZ5194ZCQMWU","","","<img src=""img/flower3.png"" style=""width:200px;border:14px solid red;"">","null","","","","","",""
"460.89999997615814","","image-keyboard-response","196","187639","0.0-196.0","37WLF8U1WQC85SAU4XUHHDEBRVH6KP","A3AY0315YWWNXY","3A3KKYU7P33Z3BR9PPFZ5194ZCQMWU","","","img/flower6.png","76","461.5","3","1","2","1,1,0,0,1,1,1,0,1",""
"null","","html-keyboard-response","197","187953","0.0-197.0","37WLF8U1WQC85SAU4XUHHDEBRVH6KP","A3AY0315YWWNXY","3A3KKYU7P33Z3BR9PPFZ5194ZCQMWU","","","<img src=""img/flower6.png"" style=""width:200px; border:14px solid green;"">","null","","","","","",""
"917.2999999523163","","image-keyboard-response","198","188871","0.0-198.0","37WLF8U1WQC85SAU4XUHHDEBRVH6KP","A3AY0315YWWNXY","3A3KKYU7P33Z3BR9PPFZ5194ZCQMWU","","","img/flower2.png","74","917.9000000357628","1","1","1","1,1,0,0,1,1,1,0,1",""
"null","","html-keyboard-response","199","189179","0.0-199.0","37WLF8U1WQC85SAU4XUHHDEBRVH6KP","A3AY0315YWWNXY","3A3KKYU7P33Z3BR9PPFZ5194ZCQMWU","","","<img src=""img/flower2.png"" style=""width:200px; border:14px solid green;"">","null","","","","","",""
"511.80000001192093","","image-keyboard-response","200","189692","0.0-200.0","37WLF8U1WQC85SAU4XUHHDEBRVH6KP","A3AY0315YWWNXY","3A3KKYU7P33Z3BR9PPFZ5194ZCQMWU","","","img/flower3.png","75","512.3000000119209","2","0","3","1,1,0,0,1,1,1,0,1",""
"null","","html-keyboard-response","201","190001","0.0-201.0","37WLF8U1WQC85SAU4XUHHDEBRVH6KP","A3AY0315YWWNXY","3A3KKYU7P33Z3BR9PPFZ5194ZCQMWU","","","<img src=""img/flower3.png"" style=""width:200px;border:14px solid red;"">","null","","","","","",""
"671.5","","image-keyboard-response","202","190673","0.0-202.0","37WLF8U1WQC85SAU4XUHHDEBRVH6KP","A3AY0315YWWNXY","3A3KKYU7P33Z3BR9PPFZ5194ZCQMWU","","","img/flower3.png","76","672.3000000119209","3","1","3","1,1,0,0,1,1,1,0,1",""
"null","","html-keyboard-response","203","190979","0.0-203.0","37WLF8U1WQC85SAU4XUHHDEBRVH6KP","A3AY0315YWWNXY","3A3KKYU7P33Z3BR9PPFZ5194ZCQMWU","","","<img src=""img/flower3.png"" style=""width:200px; border:14px solid green;"">","null","","","","","",""
"744.1999999880791","","image-keyboard-response","204","191723","0.0-204.0","37WLF8U1WQC85SAU4XUHHDEBRVH6KP","A3AY0315YWWNXY","3A3KKYU7P33Z3BR9PPFZ5194ZCQMWU","","","img/flower2.png","74","744.8000000119209","1","1","1","1,1,0,0,1,1,1,0,1",""
"null","","html-keyboard-response","205","192033","0.0-205.0","37WLF8U1WQC85SAU4XUHHDEBRVH6KP","A3AY0315YWWNXY","3A3KKYU7P33Z3BR9PPFZ5194ZCQMWU","","","<img src=""img/flower2.png"" style=""width:200px; border:14px solid green;"">","null","","","","","",""
"587.3999999761581","","image-keyboard-response","206","192622","0.0-206.0","37WLF8U1WQC85SAU4XUHHDEBRVH6KP","A3AY0315YWWNXY","3A3KKYU7P33Z3BR9PPFZ5194ZCQMWU","","","img/flower2.png","74","588","1","1","1","1,1,0,0,1,1,1,0,1",""
"null","","html-keyboard-response","207","192933","0.0-207.0","37WLF8U1WQC85SAU4XUHHDEBRVH6KP","A3AY0315YWWNXY","3A3KKYU7P33Z3BR9PPFZ5194ZCQMWU","","","<img src=""img/flower2.png"" style=""width:200px; border:14px solid green;"">","null","","","","","",""
"507.60000002384186","","image-keyboard-response","208","193442","0.0-208.0","37WLF8U1WQC85SAU4XUHHDEBRVH6KP","A3AY0315YWWNXY","3A3KKYU7P33Z3BR9PPFZ5194ZCQMWU","","","img/flower6.png","76","508.10000002384186","3","1","2","1,1,0,0,1,1,1,0,1",""
"null","","html-keyboard-response","209","193756","0.0-209.0","37WLF8U1WQC85SAU4XUHHDEBRVH6KP","A3AY0315YWWNXY","3A3KKYU7P33Z3BR9PPFZ5194ZCQMWU","","","<img src=""img/flower6.png"" style=""width:200px; border:14px solid green;"">","null","","","","","",""
"555.3000000119209","","image-keyboard-response","210","194312","0.0-210.0","37WLF8U1WQC85SAU4XUHHDEBRVH6KP","A3AY0315YWWNXY","3A3KKYU7P33Z3BR9PPFZ5194ZCQMWU","","","img/flower2.png","74","555.8999999761581","1","1","1","1,1,0,0,1,1,1,0,1",""
"null","","html-keyboard-response","211","194624","0.0-211.0","37WLF8U1WQC85SAU4XUHHDEBRVH6KP","A3AY0315YWWNXY","3A3KKYU7P33Z3BR9PPFZ5194ZCQMWU","","","<img src=""img/flower2.png"" style=""width:200px; border:14px solid green;"">","null","","","","","",""
"464.39999997615814","","image-keyboard-response","212","195089","0.0-212.0","37WLF8U1WQC85SAU4XUHHDEBRVH6KP","A3AY0315YWWNXY","3A3KKYU7P33Z3BR9PPFZ5194ZCQMWU","","","img/flower3.png","76","465","3","1","3","1,1,0,0,1,1,1,0,1",""
"null","","html-keyboard-response","213","195400","0.0-213.0","37WLF8U1WQC85SAU4XUHHDEBRVH6KP","A3AY0315YWWNXY","3A3KKYU7P33Z3BR9PPFZ5194ZCQMWU","","","<img src=""img/flower3.png"" style=""width:200px; border:14px solid green;"">","null","","","","","",""
"484.7999999523163","","image-keyboard-response","214","195885","0.0-214.0","37WLF8U1WQC85SAU4XUHHDEBRVH6KP","A3AY0315YWWNXY","3A3KKYU7P33Z3BR9PPFZ5194ZCQMWU","","","img/flower6.png","76","485.39999997615814","3","1","2","1,1,0,0,1,1,1,0,1",""
"null","","html-keyboard-response","215","196191","0.0-215.0","37WLF8U1WQC85SAU4XUHHDEBRVH6KP","A3AY0315YWWNXY","3A3KKYU7P33Z3BR9PPFZ5194ZCQMWU","","","<img src=""img/flower6.png"" style=""width:200px; border:14px solid green;"">","null","","","","","",""
"391.69999998807907","","image-keyboard-response","216","196583","0.0-216.0","37WLF8U1WQC85SAU4XUHHDEBRVH6KP","A3AY0315YWWNXY","3A3KKYU7P33Z3BR9PPFZ5194ZCQMWU","","","img/flower6.png","76","392.30000001192093","3","1","2","1,1,0,0,1,1,1,0,1",""
"null","","html-keyboard-response","217","196888","0.0-217.0","37WLF8U1WQC85SAU4XUHHDEBRVH6KP","A3AY0315YWWNXY","3A3KKYU7P33Z3BR9PPFZ5194ZCQMWU","","","<img src=""img/flower6.png"" style=""width:200px; border:14px solid green;"">","null","","","","","",""
"473.10000002384186","","image-keyboard-response","218","197361","0.0-218.0","37WLF8U1WQC85SAU4XUHHDEBRVH6KP","A3AY0315YWWNXY","3A3KKYU7P33Z3BR9PPFZ5194ZCQMWU","","","img/flower3.png","76","473.60000002384186","3","1","3","1,1,0,0,1,1,1,0,1",""
"null","","html-keyboard-response","219","197665","0.0-219.0","37WLF8U1WQC85SAU4XUHHDEBRVH6KP","A3AY0315YWWNXY","3A3KKYU7P33Z3BR9PPFZ5194ZCQMWU","","","<img src=""img/flower3.png"" style=""width:200px; border:14px solid green;"">","null","","","","","",""
"420","","image-keyboard-response","220","198085","0.0-220.0","37WLF8U1WQC85SAU4XUHHDEBRVH6KP","A3AY0315YWWNXY","3A3KKYU7P33Z3BR9PPFZ5194ZCQMWU","","","img/flower2.png","74","420.5","1","1","1","1,1,0,0,1,1,1,0,1",""
"null","","html-keyboard-response","221","198394","0.0-221.0","37WLF8U1WQC85SAU4XUHHDEBRVH6KP","A3AY0315YWWNXY","3A3KKYU7P33Z3BR9PPFZ5194ZCQMWU","","","<img src=""img/flower2.png"" style=""width:200px; border:14px solid green;"">","null","","","","","",""
"512.7999999523163","","image-keyboard-response","222","198907","0.0-222.0","37WLF8U1WQC85SAU4XUHHDEBRVH6KP","A3AY0315YWWNXY","3A3KKYU7P33Z3BR9PPFZ5194ZCQMWU","","","img/flower3.png","76","513.4000000357628","3","1","3","1,1,0,0,1,1,1,0,1",""
"null","","html-keyboard-response","223","199216","0.0-223.0","37WLF8U1WQC85SAU4XUHHDEBRVH6KP","A3AY0315YWWNXY","3A3KKYU7P33Z3BR9PPFZ5194ZCQMWU","","","<img src=""img/flower3.png"" style=""width:200px; border:14px solid green;"">","null","","","","","",""
"710.5999999642372","","image-keyboard-response","224","199927","0.0-224.0","37WLF8U1WQC85SAU4XUHHDEBRVH6KP","A3AY0315YWWNXY","3A3KKYU7P33Z3BR9PPFZ5194ZCQMWU","","","img/flower2.png","74","711.2000000476837","1","1","1","1,1,0,0,1,1,1,0,1",""
"null","","html-keyboard-response","225","200240","0.0-225.0","37WLF8U1WQC85SAU4XUHHDEBRVH6KP","A3AY0315YWWNXY","3A3KKYU7P33Z3BR9PPFZ5194ZCQMWU","","","<img src=""img/flower2.png"" style=""width:200px; border:14px solid green;"">","null","","","","","",""
"422.69999998807907","","image-keyboard-response","226","200663","0.0-226.0","37WLF8U1WQC85SAU4XUHHDEBRVH6KP","A3AY0315YWWNXY","3A3KKYU7P33Z3BR9PPFZ5194ZCQMWU","","","img/flower2.png","74","423.30000001192093","1","1","1","1,1,0,0,1,1,1,0,1",""
"null","","html-keyboard-response","227","200969","0.0-227.0","37WLF8U1WQC85SAU4XUHHDEBRVH6KP","A3AY0315YWWNXY","3A3KKYU7P33Z3BR9PPFZ5194ZCQMWU","","","<img src=""img/flower2.png"" style=""width:200px; border:14px solid green;"">","null","","","","","",""
"555.5999999642372","","image-keyboard-response","228","201525","0.0-228.0","37WLF8U1WQC85SAU4XUHHDEBRVH6KP","A3AY0315YWWNXY","3A3KKYU7P33Z3BR9PPFZ5194ZCQMWU","","","img/flower3.png","76","556.2000000476837","3","1","3","1,1,0,0,1,1,1,0,1",""
"null","","html-keyboard-response","229","201838","0.0-229.0","37WLF8U1WQC85SAU4XUHHDEBRVH6KP","A3AY0315YWWNXY","3A3KKYU7P33Z3BR9PPFZ5194ZCQMWU","","","<img src=""img/flower3.png"" style=""width:200px; border:14px solid green;"">","null","","","","","",""
"408.80000001192093","","image-keyboard-response","230","202247","0.0-230.0","37WLF8U1WQC85SAU4XUHHDEBRVH6KP","A3AY0315YWWNXY","3A3KKYU7P33Z3BR9PPFZ5194ZCQMWU","","","img/flower2.png","76","409.4000000357628","3","0","1","1,1,0,0,1,1,1,0,1",""
"null","","html-keyboard-response","231","202552","0.0-231.0","37WLF8U1WQC85SAU4XUHHDEBRVH6KP","A3AY0315YWWNXY","3A3KKYU7P33Z3BR9PPFZ5194ZCQMWU","","","<img src=""img/flower2.png"" style=""width:200px;border:14px solid red;"">","null","","","","","",""
"1005.4000000357628","","image-keyboard-response","232","203558","0.0-232.0","37WLF8U1WQC85SAU4XUHHDEBRVH6KP","A3AY0315YWWNXY","3A3KKYU7P33Z3BR9PPFZ5194ZCQMWU","","","img/flower3.png","76","1005.8999999761581","3","1","3","1,1,0,0,1,1,1,0,1",""
"null","","html-keyboard-response","233","203870","0.0-233.0","37WLF8U1WQC85SAU4XUHHDEBRVH6KP","A3AY0315YWWNXY","3A3KKYU7P33Z3BR9PPFZ5194ZCQMWU","","","<img src=""img/flower3.png"" style=""width:200px; border:14px solid green;"">","null","","","","","",""
"486.4000000357628","","image-keyboard-response","234","204357","0.0-234.0","37WLF8U1WQC85SAU4XUHHDEBRVH6KP","A3AY0315YWWNXY","3A3KKYU7P33Z3BR9PPFZ5194ZCQMWU","","","img/flower3.png","76","487.2000000476837","3","1","3","1,1,0,0,1,1,1,0,1",""
"null","","html-keyboard-response","235","204661","0.0-235.0","37WLF8U1WQC85SAU4XUHHDEBRVH6KP","A3AY0315YWWNXY","3A3KKYU7P33Z3BR9PPFZ5194ZCQMWU","","","<img src=""img/flower3.png"" style=""width:200px; border:14px solid green;"">","null","","","","","",""
"505.2999999523163","","image-keyboard-response","236","205167","0.0-236.0","37WLF8U1WQC85SAU4XUHHDEBRVH6KP","A3AY0315YWWNXY","3A3KKYU7P33Z3BR9PPFZ5194ZCQMWU","","","img/flower2.png","74","505.89999997615814","1","1","1","1,1,0,0,1,1,1,0,1",""
"null","","html-keyboard-response","237","205484","0.0-237.0","37WLF8U1WQC85SAU4XUHHDEBRVH6KP","A3AY0315YWWNXY","3A3KKYU7P33Z3BR9PPFZ5194ZCQMWU","","","<img src=""img/flower2.png"" style=""width:200px; border:14px solid green;"">","null","","","","","",""
"557.3000000119209","","image-keyboard-response","238","206042","0.0-238.0","37WLF8U1WQC85SAU4XUHHDEBRVH6KP","A3AY0315YWWNXY","3A3KKYU7P33Z3BR9PPFZ5194ZCQMWU","","","img/flower3.png","76","557.8000000119209","3","1","3","1,1,0,0,1,1,1,0,1",""
"null","","html-keyboard-response","239","206352","0.0-239.0","37WLF8U1WQC85SAU4XUHHDEBRVH6KP","A3AY0315YWWNXY","3A3KKYU7P33Z3BR9PPFZ5194ZCQMWU","","","<img src=""img/flower3.png"" style=""width:200px; border:14px solid green;"">","null","","","","","",""
"546.3000000119209","","image-keyboard-response","240","206899","0.0-240.0","37WLF8U1WQC85SAU4XUHHDEBRVH6KP","A3AY0315YWWNXY","3A3KKYU7P33Z3BR9PPFZ5194ZCQMWU","","","img/flower6.png","76","547.1000000238419","3","1","2","1,1,0,0,1,1,1,0,1",""
"null","","html-keyboard-response","241","207206","0.0-241.0","37WLF8U1WQC85SAU4XUHHDEBRVH6KP","A3AY0315YWWNXY","3A3KKYU7P33Z3BR9PPFZ5194ZCQMWU","","","<img src=""img/flower6.png"" style=""width:200px; border:14px solid green;"">","null","","","","","",""
"457.30000001192093","","image-keyboard-response","242","207664","0.0-242.0","37WLF8U1WQC85SAU4XUHHDEBRVH6KP","A3AY0315YWWNXY","3A3KKYU7P33Z3BR9PPFZ5194ZCQMWU","","","img/flower6.png","76","458","3","1","2","1,1,0,0,1,1,1,0,1",""
"null","","html-keyboard-response","243","207966","0.0-243.0","37WLF8U1WQC85SAU4XUHHDEBRVH6KP","A3AY0315YWWNXY","3A3KKYU7P33Z3BR9PPFZ5194ZCQMWU","","","<img src=""img/flower6.png"" style=""width:200px; border:14px solid green;"">","null","","","","","",""
"911","","image-keyboard-response","244","208877","0.0-244.0","37WLF8U1WQC85SAU4XUHHDEBRVH6KP","A3AY0315YWWNXY","3A3KKYU7P33Z3BR9PPFZ5194ZCQMWU","","","img/flower3.png","76","911.7000000476837","3","1","3","1,1,0,0,1,1,1,0,1",""
"null","","html-keyboard-response","245","209191","0.0-245.0","37WLF8U1WQC85SAU4XUHHDEBRVH6KP","A3AY0315YWWNXY","3A3KKYU7P33Z3BR9PPFZ5194ZCQMWU","","","<img src=""img/flower3.png"" style=""width:200px; border:14px solid green;"">","null","","","","","",""
"415.60000002384186","","image-keyboard-response","246","209607","0.0-246.0","37WLF8U1WQC85SAU4XUHHDEBRVH6KP","A3AY0315YWWNXY","3A3KKYU7P33Z3BR9PPFZ5194ZCQMWU","","","img/flower3.png","76","416.19999998807907","3","1","3","1,1,0,0,1,1,1,0,1",""
"null","","html-keyboard-response","247","209917","0.0-247.0","37WLF8U1WQC85SAU4XUHHDEBRVH6KP","A3AY0315YWWNXY","3A3KKYU7P33Z3BR9PPFZ5194ZCQMWU","","","<img src=""img/flower3.png"" style=""width:200px; border:14px solid green;"">","null","","","","","",""
"425.69999998807907","","image-keyboard-response","248","210343","0.0-248.0","37WLF8U1WQC85SAU4XUHHDEBRVH6KP","A3AY0315YWWNXY","3A3KKYU7P33Z3BR9PPFZ5194ZCQMWU","","","img/flower2.png","74","426.30000001192093","1","1","1","1,1,0,0,1,1,1,0,1",""
"null","","html-keyboard-response","249","210649","0.0-249.0","37WLF8U1WQC85SAU4XUHHDEBRVH6KP","A3AY0315YWWNXY","3A3KKYU7P33Z3BR9PPFZ5194ZCQMWU","","","<img src=""img/flower2.png"" style=""width:200px; border:14px solid green;"">","null","","","","","",""
"827.2999999523163","","image-keyboard-response","250","211477","0.0-250.0","37WLF8U1WQC85SAU4XUHHDEBRVH6KP","A3AY0315YWWNXY","3A3KKYU7P33Z3BR9PPFZ5194ZCQMWU","","","img/flower3.png","76","827.9000000357628","3","1","3","1,1,0,0,1,1,1,0,1",""
"null","","html-keyboard-response","251","211782","0.0-251.0","37WLF8U1WQC85SAU4XUHHDEBRVH6KP","A3AY0315YWWNXY","3A3KKYU7P33Z3BR9PPFZ5194ZCQMWU","","","<img src=""img/flower3.png"" style=""width:200px; border:14px solid green;"">","null","","","","","",""
"366.69999998807907","","image-keyboard-response","252","212149","0.0-252.0","37WLF8U1WQC85SAU4XUHHDEBRVH6KP","A3AY0315YWWNXY","3A3KKYU7P33Z3BR9PPFZ5194ZCQMWU","","","img/flower3.png","76","367.4000000357628","3","1","3","1,1,0,0,1,1,1,0,1",""
"null","","html-keyboard-response","253","212465","0.0-253.0","37WLF8U1WQC85SAU4XUHHDEBRVH6KP","A3AY0315YWWNXY","3A3KKYU7P33Z3BR9PPFZ5194ZCQMWU","","","<img src=""img/flower3.png"" style=""width:200px; border:14px solid green;"">","null","","","","","",""
"588.0999999642372","","image-keyboard-response","254","213053","0.0-254.0","37WLF8U1WQC85SAU4XUHHDEBRVH6KP","A3AY0315YWWNXY","3A3KKYU7P33Z3BR9PPFZ5194ZCQMWU","","","img/flower2.png","74","588.8000000119209","1","1","1","1,1,0,0,1,1,1,0,1",""
"null","","html-keyboard-response","255","213364","0.0-255.0","37WLF8U1WQC85SAU4XUHHDEBRVH6KP","A3AY0315YWWNXY","3A3KKYU7P33Z3BR9PPFZ5194ZCQMWU","","","<img src=""img/flower2.png"" style=""width:200px; border:14px solid green;"">","null","","","","","",""
"440.60000002384186","","image-keyboard-response","256","213806","0.0-256.0","37WLF8U1WQC85SAU4XUHHDEBRVH6KP","A3AY0315YWWNXY","3A3KKYU7P33Z3BR9PPFZ5194ZCQMWU","","","img/flower3.png","76","441.19999998807907","3","1","3","1,1,0,0,1,1,1,0,1",""
"null","","html-keyboard-response","257","214109","0.0-257.0","37WLF8U1WQC85SAU4XUHHDEBRVH6KP","A3AY0315YWWNXY","3A3KKYU7P33Z3BR9PPFZ5194ZCQMWU","","","<img src=""img/flower3.png"" style=""width:200px; border:14px solid green;"">","null","","","","","",""
"425.7999999523163","","image-keyboard-response","258","214535","0.0-258.0","37WLF8U1WQC85SAU4XUHHDEBRVH6KP","A3AY0315YWWNXY","3A3KKYU7P33Z3BR9PPFZ5194ZCQMWU","","","img/flower3.png","76","426.4000000357628","3","1","3","1,1,0,0,1,1,1,0,1",""
"null","","html-keyboard-response","259","214838","0.0-259.0","37WLF8U1WQC85SAU4XUHHDEBRVH6KP","A3AY0315YWWNXY","3A3KKYU7P33Z3BR9PPFZ5194ZCQMWU","","","<img src=""img/flower3.png"" style=""width:200px; border:14px solid green;"">","null","","","","","",""
"566.5999999642372","","image-keyboard-response","260","215405","0.0-260.0","37WLF8U1WQC85SAU4XUHHDEBRVH6KP","A3AY0315YWWNXY","3A3KKYU7P33Z3BR9PPFZ5194ZCQMWU","","","img/flower6.png","76","567.1000000238419","3","1","2","1,1,0,0,1,1,1,0,1",""
"null","","html-keyboard-response","261","215707","0.0-261.0","37WLF8U1WQC85SAU4XUHHDEBRVH6KP","A3AY0315YWWNXY","3A3KKYU7P33Z3BR9PPFZ5194ZCQMWU","","","<img src=""img/flower6.png"" style=""width:200px; border:14px solid green;"">","null","","","","","",""
"729.8999999761581","","image-keyboard-response","262","216437","0.0-262.0","37WLF8U1WQC85SAU4XUHHDEBRVH6KP","A3AY0315YWWNXY","3A3KKYU7P33Z3BR9PPFZ5194ZCQMWU","","","img/flower2.png","74","730.5","1","1","1","1,1,0,0,1,1,1,0,1",""
"null","","html-keyboard-response","263","216746","0.0-263.0","37WLF8U1WQC85SAU4XUHHDEBRVH6KP","A3AY0315YWWNXY","3A3KKYU7P33Z3BR9PPFZ5194ZCQMWU","","","<img src=""img/flower2.png"" style=""width:200px; border:14px solid green;"">","null","","","","","",""
"446.39999997615814","","image-keyboard-response","264","217193","0.0-264.0","37WLF8U1WQC85SAU4XUHHDEBRVH6KP","A3AY0315YWWNXY","3A3KKYU7P33Z3BR9PPFZ5194ZCQMWU","","","img/flower3.png","76","447","3","1","3","1,1,0,0,1,1,1,0,1",""
"null","","html-keyboard-response","265","217506","0.0-265.0","37WLF8U1WQC85SAU4XUHHDEBRVH6KP","A3AY0315YWWNXY","3A3KKYU7P33Z3BR9PPFZ5194ZCQMWU","","","<img src=""img/flower3.png"" style=""width:200px; border:14px solid green;"">","null","","","","","",""
"594.3999999761581","","image-keyboard-response","266","218101","0.0-266.0","37WLF8U1WQC85SAU4XUHHDEBRVH6KP","A3AY0315YWWNXY","3A3KKYU7P33Z3BR9PPFZ5194ZCQMWU","","","img/flower6.png","76","594.9000000357628","3","1","2","1,1,0,0,1,1,1,0,1",""
"null","","html-keyboard-response","267","218406","0.0-267.0","37WLF8U1WQC85SAU4XUHHDEBRVH6KP","A3AY0315YWWNXY","3A3KKYU7P33Z3BR9PPFZ5194ZCQMWU","","","<img src=""img/flower6.png"" style=""width:200px; border:14px solid green;"">","null","","","","","",""
"320.5999999642372","","image-keyboard-response","268","218727","0.0-268.0","37WLF8U1WQC85SAU4XUHHDEBRVH6KP","A3AY0315YWWNXY","3A3KKYU7P33Z3BR9PPFZ5194ZCQMWU","","","img/flower6.png","76","321.2000000476837","3","1","2","1,1,0,0,1,1,1,0,1",""
"null","","html-keyboard-response","269","219042","0.0-269.0","37WLF8U1WQC85SAU4XUHHDEBRVH6KP","A3AY0315YWWNXY","3A3KKYU7P33Z3BR9PPFZ5194ZCQMWU","","","<img src=""img/flower6.png"" style=""width:200px; border:14px solid green;"">","null","","","","","",""
"587.8999999761581","","image-keyboard-response","270","219632","0.0-270.0","37WLF8U1WQC85SAU4XUHHDEBRVH6KP","A3AY0315YWWNXY","3A3KKYU7P33Z3BR9PPFZ5194ZCQMWU","","","img/flower2.png","74","588.5","1","1","1","1,1,0,0,1,1,1,0,1",""
"null","","html-keyboard-response","271","219942","0.0-271.0","37WLF8U1WQC85SAU4XUHHDEBRVH6KP","A3AY0315YWWNXY","3A3KKYU7P33Z3BR9PPFZ5194ZCQMWU","","","<img src=""img/flower2.png"" style=""width:200px; border:14px solid green;"">","null","","","","","",""
"496.5999999642372","","image-keyboard-response","272","220439","0.0-272.0","37WLF8U1WQC85SAU4XUHHDEBRVH6KP","A3AY0315YWWNXY","3A3KKYU7P33Z3BR9PPFZ5194ZCQMWU","","","img/flower6.png","76","497.30000001192093","3","1","2","1,1,0,0,1,1,1,0,1",""
"null","","html-keyboard-response","273","220749","0.0-273.0","37WLF8U1WQC85SAU4XUHHDEBRVH6KP","A3AY0315YWWNXY","3A3KKYU7P33Z3BR9PPFZ5194ZCQMWU","","","<img src=""img/flower6.png"" style=""width:200px; border:14px solid green;"">","null","","","","","",""
"413.69999998807907","","image-keyboard-response","274","221163","0.0-274.0","37WLF8U1WQC85SAU4XUHHDEBRVH6KP","A3AY0315YWWNXY","3A3KKYU7P33Z3BR9PPFZ5194ZCQMWU","","","img/flower6.png","76","414.4000000357628","3","1","2","1,1,0,0,1,1,1,0,1",""
"null","","html-keyboard-response","275","221478","0.0-275.0","37WLF8U1WQC85SAU4XUHHDEBRVH6KP","A3AY0315YWWNXY","3A3KKYU7P33Z3BR9PPFZ5194ZCQMWU","","","<img src=""img/flower6.png"" style=""width:200px; border:14px solid green;"">","null","","","","","",""
"911","","image-keyboard-response","276","222390","0.0-276.0","37WLF8U1WQC85SAU4XUHHDEBRVH6KP","A3AY0315YWWNXY","3A3KKYU7P33Z3BR9PPFZ5194ZCQMWU","","","img/flower3.png","76","911.5999999642372","3","1","3","1,1,0,0,1,1,1,0,1",""
"null","","html-keyboard-response","277","222703","0.0-277.0","37WLF8U1WQC85SAU4XUHHDEBRVH6KP","A3AY0315YWWNXY","3A3KKYU7P33Z3BR9PPFZ5194ZCQMWU","","","<img src=""img/flower3.png"" style=""width:200px; border:14px solid green;"">","null","","","","","",""
"333.39999997615814","","image-keyboard-response","278","223038","0.0-278.0","37WLF8U1WQC85SAU4XUHHDEBRVH6KP","A3AY0315YWWNXY","3A3KKYU7P33Z3BR9PPFZ5194ZCQMWU","","","img/flower3.png","76","334.0999999642372","3","1","3","1,1,0,0,1,1,1,0,1",""
"null","","html-keyboard-response","279","223339","0.0-279.0","37WLF8U1WQC85SAU4XUHHDEBRVH6KP","A3AY0315YWWNXY","3A3KKYU7P33Z3BR9PPFZ5194ZCQMWU","","","<img src=""img/flower3.png"" style=""width:200px; border:14px solid green;"">","null","","","","","",""
"301.39999997615814","","image-keyboard-response","280","223641","0.0-280.0","37WLF8U1WQC85SAU4XUHHDEBRVH6KP","A3AY0315YWWNXY","3A3KKYU7P33Z3BR9PPFZ5194ZCQMWU","","","img/flower3.png","76","301.9000000357628","3","1","3","1,1,0,0,1,1,1,0,1",""
"null","","html-keyboard-response","281","223944","0.0-281.0","37WLF8U1WQC85SAU4XUHHDEBRVH6KP","A3AY0315YWWNXY","3A3KKYU7P33Z3BR9PPFZ5194ZCQMWU","","","<img src=""img/flower3.png"" style=""width:200px; border:14px solid green;"">","null","","","","","",""
"360.30000001192093","","image-keyboard-response","282","224305","0.0-282.0","37WLF8U1WQC85SAU4XUHHDEBRVH6KP","A3AY0315YWWNXY","3A3KKYU7P33Z3BR9PPFZ5194ZCQMWU","","","img/flower3.png","76","361","3","1","3","1,1,0,0,1,1,1,0,1",""
"null","","html-keyboard-response","283","224611","0.0-283.0","37WLF8U1WQC85SAU4XUHHDEBRVH6KP","A3AY0315YWWNXY","3A3KKYU7P33Z3BR9PPFZ5194ZCQMWU","","","<img src=""img/flower3.png"" style=""width:200px; border:14px solid green;"">","null","","","","","",""
"643.2999999523163","","image-keyboard-response","284","225255","0.0-284.0","37WLF8U1WQC85SAU4XUHHDEBRVH6KP","A3AY0315YWWNXY","3A3KKYU7P33Z3BR9PPFZ5194ZCQMWU","","","img/flower6.png","76","643.9000000357628","3","1","2","1,1,0,0,1,1,1,0,1",""
"null","","html-keyboard-response","285","225558","0.0-285.0","37WLF8U1WQC85SAU4XUHHDEBRVH6KP","A3AY0315YWWNXY","3A3KKYU7P33Z3BR9PPFZ5194ZCQMWU","","","<img src=""img/flower6.png"" style=""width:200px; border:14px solid green;"">","null","","","","","",""
"572.8999999761581","","image-keyboard-response","286","226131","0.0-286.0","37WLF8U1WQC85SAU4XUHHDEBRVH6KP","A3AY0315YWWNXY","3A3KKYU7P33Z3BR9PPFZ5194ZCQMWU","","","img/flower3.png","76","573.5","3","1","3","1,1,0,0,1,1,1,0,1",""
"null","","html-keyboard-response","287","226442","0.0-287.0","37WLF8U1WQC85SAU4XUHHDEBRVH6KP","A3AY0315YWWNXY","3A3KKYU7P33Z3BR9PPFZ5194ZCQMWU","","","<img src=""img/flower3.png"" style=""width:200px; border:14px solid green;"">","null","","","","","",""
"1040.5999999642372","","image-keyboard-response","288","227483","0.0-288.0","37WLF8U1WQC85SAU4XUHHDEBRVH6KP","A3AY0315YWWNXY","3A3KKYU7P33Z3BR9PPFZ5194ZCQMWU","","","img/flower6.png","76","1041.300000011921","3","1","2","1,1,0,0,1,1,1,0,1",""
"null","","html-keyboard-response","289","227792","0.0-289.0","37WLF8U1WQC85SAU4XUHHDEBRVH6KP","A3AY0315YWWNXY","3A3KKYU7P33Z3BR9PPFZ5194ZCQMWU","","","<img src=""img/flower6.png"" style=""width:200px; border:14px solid green;"">","null","","","","","",""
"475","","image-keyboard-response","290","228267","0.0-290.0","37WLF8U1WQC85SAU4XUHHDEBRVH6KP","A3AY0315YWWNXY","3A3KKYU7P33Z3BR9PPFZ5194ZCQMWU","","","img/flower2.png","74","475.60000002384186","1","1","1","1,1,0,0,1,1,1,0,1",""
"null","","html-keyboard-response","291","228583","0.0-291.0","37WLF8U1WQC85SAU4XUHHDEBRVH6KP","A3AY0315YWWNXY","3A3KKYU7P33Z3BR9PPFZ5194ZCQMWU","","","<img src=""img/flower2.png"" style=""width:200px; border:14px solid green;"">","null","","","","","",""
"527.6999999880791","","image-keyboard-response","292","229111","0.0-292.0","37WLF8U1WQC85SAU4XUHHDEBRVH6KP","A3AY0315YWWNXY","3A3KKYU7P33Z3BR9PPFZ5194ZCQMWU","","","img/flower6.png","76","528.4000000357628","3","1","2","1,1,0,0,1,1,1,0,1",""
"null","","html-keyboard-response","293","229421","0.0-293.0","37WLF8U1WQC85SAU4XUHHDEBRVH6KP","A3AY0315YWWNXY","3A3KKYU7P33Z3BR9PPFZ5194ZCQMWU","","","<img src=""img/flower6.png"" style=""width:200px; border:14px solid green;"">","null","","","","","",""
"388.19999998807907","","image-keyboard-response","294","229809","0.0-294.0","37WLF8U1WQC85SAU4XUHHDEBRVH6KP","A3AY0315YWWNXY","3A3KKYU7P33Z3BR9PPFZ5194ZCQMWU","","","img/flower2.png","76","388.7000000476837","3","0","1","1,1,0,0,1,1,1,0,1",""
"null","","html-keyboard-response","295","230119","0.0-295.0","37WLF8U1WQC85SAU4XUHHDEBRVH6KP","A3AY0315YWWNXY","3A3KKYU7P33Z3BR9PPFZ5194ZCQMWU","","","<img src=""img/flower2.png"" style=""width:200px;border:14px solid red;"">","null","","","","","",""
"510.10000002384186","","image-keyboard-response","296","230630","0.0-296.0","37WLF8U1WQC85SAU4XUHHDEBRVH6KP","A3AY0315YWWNXY","3A3KKYU7P33Z3BR9PPFZ5194ZCQMWU","","","img/flower2.png","74","510.69999998807907","1","1","1","1,1,0,0,1,1,1,0,1",""
"null","","html-keyboard-response","297","230941","0.0-297.0","37WLF8U1WQC85SAU4XUHHDEBRVH6KP","A3AY0315YWWNXY","3A3KKYU7P33Z3BR9PPFZ5194ZCQMWU","","","<img src=""img/flower2.png"" style=""width:200px; border:14px solid green;"">","null","","","","","",""
"542","","image-keyboard-response","298","231484","0.0-298.0","37WLF8U1WQC85SAU4XUHHDEBRVH6KP","A3AY0315YWWNXY","3A3KKYU7P33Z3BR9PPFZ5194ZCQMWU","","","img/flower6.png","76","542.6999999880791","3","1","2","1,1,0,0,1,1,1,0,1",""
"null","","html-keyboard-response","299","231794","0.0-299.0","37WLF8U1WQC85SAU4XUHHDEBRVH6KP","A3AY0315YWWNXY","3A3KKYU7P33Z3BR9PPFZ5194ZCQMWU","","","<img src=""img/flower6.png"" style=""width:200px; border:14px solid green;"">","null","","","","","",""
"596.5999999642372","","image-keyboard-response","300","232391","0.0-300.0","37WLF8U1WQC85SAU4XUHHDEBRVH6KP","A3AY0315YWWNXY","3A3KKYU7P33Z3BR9PPFZ5194ZCQMWU","","","img/flower6.png","76","597.2000000476837","3","1","2","1,1,0,0,1,1,1,0,1",""
"null","","html-keyboard-response","301","232694","0.0-301.0","37WLF8U1WQC85SAU4XUHHDEBRVH6KP","A3AY0315YWWNXY","3A3KKYU7P33Z3BR9PPFZ5194ZCQMWU","","","<img src=""img/flower6.png"" style=""width:200px; border:14px solid green;"">","null","","","","","",""
"370.7999999523163","","image-keyboard-response","302","233065","0.0-302.0","37WLF8U1WQC85SAU4XUHHDEBRVH6KP","A3AY0315YWWNXY","3A3KKYU7P33Z3BR9PPFZ5194ZCQMWU","","","img/flower6.png","76","371.4000000357628","3","1","2","1,1,0,0,1,1,1,0,1",""
"null","","html-keyboard-response","303","233377","0.0-303.0","37WLF8U1WQC85SAU4XUHHDEBRVH6KP","A3AY0315YWWNXY","3A3KKYU7P33Z3BR9PPFZ5194ZCQMWU","","","<img src=""img/flower6.png"" style=""width:200px; border:14px solid green;"">","null","","","","","",""
"526.1999999880791","","image-keyboard-response","304","233903","0.0-304.0","37WLF8U1WQC85SAU4XUHHDEBRVH6KP","A3AY0315YWWNXY","3A3KKYU7P33Z3BR9PPFZ5194ZCQMWU","","","img/flower2.png","74","526.9000000357628","1","1","1","1,1,0,0,1,1,1,0,1",""
"null","","html-keyboard-response","305","234214","0.0-305.0","37WLF8U1WQC85SAU4XUHHDEBRVH6KP","A3AY0315YWWNXY","3A3KKYU7P33Z3BR9PPFZ5194ZCQMWU","","","<img src=""img/flower2.png"" style=""width:200px; border:14px solid green;"">","null","","","","","",""
"","","html-keyboard-response","306","236405","0.0-306.0","37WLF8U1WQC85SAU4XUHHDEBRVH6KP","A3AY0315YWWNXY","3A3KKYU7P33Z3BR9PPFZ5194ZCQMWU","","","","","","","","","",""
"1935.5","","image-keyboard-response","307","238341","0.0-307.0","37WLF8U1WQC85SAU4XUHHDEBRVH6KP","A3AY0315YWWNXY","3A3KKYU7P33Z3BR9PPFZ5194ZCQMWU","","","img/flower5.png","75","1936.199999988079","2","1","2","1,0.5,0.5,0.5,1,0.5,0.5,0.5,1",""
"null","","html-keyboard-response","308","238651","0.0-308.0","37WLF8U1WQC85SAU4XUHHDEBRVH6KP","A3AY0315YWWNXY","3A3KKYU7P33Z3BR9PPFZ5194ZCQMWU","","","<img src=""img/flower5.png"" style=""width:200px; border:14px solid green;"">","null","","","","","",""
"611.5","","image-keyboard-response","309","239263","0.0-309.0","37WLF8U1WQC85SAU4XUHHDEBRVH6KP","A3AY0315YWWNXY","3A3KKYU7P33Z3BR9PPFZ5194ZCQMWU","","","img/flower4.png","74","612.1999999880791","1","1","1","1,0.5,0.5,0.5,1,0.5,0.5,0.5,1",""
"null","","html-keyboard-response","310","239566","0.0-310.0","37WLF8U1WQC85SAU4XUHHDEBRVH6KP","A3AY0315YWWNXY","3A3KKYU7P33Z3BR9PPFZ5194ZCQMWU","","","<img src=""img/flower4.png"" style=""width:200px; border:14px solid green;"">","null","","","","","",""
"418.39999997615814","","image-keyboard-response","311","239985","0.0-311.0","37WLF8U1WQC85SAU4XUHHDEBRVH6KP","A3AY0315YWWNXY","3A3KKYU7P33Z3BR9PPFZ5194ZCQMWU","","","img/flower4.png","74","419.0999999642372","1","1","1","1,0.5,0.5,0.5,1,0.5,0.5,0.5,1",""
"null","","html-keyboard-response","312","240295","0.0-312.0","37WLF8U1WQC85SAU4XUHHDEBRVH6KP","A3AY0315YWWNXY","3A3KKYU7P33Z3BR9PPFZ5194ZCQMWU","","","<img src=""img/flower4.png"" style=""width:200px; border:14px solid green;"">","null","","","","","",""
"943.1999999880791","","image-keyboard-response","313","241239","0.0-313.0","37WLF8U1WQC85SAU4XUHHDEBRVH6KP","A3AY0315YWWNXY","3A3KKYU7P33Z3BR9PPFZ5194ZCQMWU","","","img/flower1.png","75","943.9000000357628","2","1","3","1,0.5,0.5,0.5,1,0.5,0.5,0.5,1",""
"null","","html-keyboard-response","314","241552","0.0-314.0","37WLF8U1WQC85SAU4XUHHDEBRVH6KP","A3AY0315YWWNXY","3A3KKYU7P33Z3BR9PPFZ5194ZCQMWU","","","<img src=""img/flower1.png"" style=""width:200px; border:14px solid green;"">","null","","","","","",""
"762.5999999642372","","image-keyboard-response","315","242315","0.0-315.0","37WLF8U1WQC85SAU4XUHHDEBRVH6KP","A3AY0315YWWNXY","3A3KKYU7P33Z3BR9PPFZ5194ZCQMWU","","","img/flower5.png","75","763.2000000476837","2","1","2","1,0.5,0.5,0.5,1,0.5,0.5,0.5,1",""
"null","","html-keyboard-response","316","242622","0.0-316.0","37WLF8U1WQC85SAU4XUHHDEBRVH6KP","A3AY0315YWWNXY","3A3KKYU7P33Z3BR9PPFZ5194ZCQMWU","","","<img src=""img/flower5.png"" style=""width:200px; border:14px solid green;"">","null","","","","","",""
"522.1999999880791","","image-keyboard-response","317","243145","0.0-317.0","37WLF8U1WQC85SAU4XUHHDEBRVH6KP","A3AY0315YWWNXY","3A3KKYU7P33Z3BR9PPFZ5194ZCQMWU","","","img/flower1.png","75","522.8000000119209","2","1","3","1,0.5,0.5,0.5,1,0.5,0.5,0.5,1",""
"null","","html-keyboard-response","318","243460","0.0-318.0","37WLF8U1WQC85SAU4XUHHDEBRVH6KP","A3AY0315YWWNXY","3A3KKYU7P33Z3BR9PPFZ5194ZCQMWU","","","<img src=""img/flower1.png"" style=""width:200px; border:14px solid green;"">","null","","","","","",""
"448.60000002384186","","image-keyboard-response","319","243909","0.0-319.0","37WLF8U1WQC85SAU4XUHHDEBRVH6KP","A3AY0315YWWNXY","3A3KKYU7P33Z3BR9PPFZ5194ZCQMWU","","","img/flower5.png","75","449.2000000476837","2","1","2","1,0.5,0.5,0.5,1,0.5,0.5,0.5,1",""
"null","","html-keyboard-response","320","244220","0.0-320.0","37WLF8U1WQC85SAU4XUHHDEBRVH6KP","A3AY0315YWWNXY","3A3KKYU7P33Z3BR9PPFZ5194ZCQMWU","","","<img src=""img/flower5.png"" style=""width:200px; border:14px solid green;"">","null","","","","","",""
"360.39999997615814","","image-keyboard-response","321","244581","0.0-321.0","37WLF8U1WQC85SAU4XUHHDEBRVH6KP","A3AY0315YWWNXY","3A3KKYU7P33Z3BR9PPFZ5194ZCQMWU","","","img/flower1.png","75","361","2","0","3","1,0.5,0.5,0.5,1,0.5,0.5,0.5,1",""
"null","","html-keyboard-response","322","244887","0.0-322.0","37WLF8U1WQC85SAU4XUHHDEBRVH6KP","A3AY0315YWWNXY","3A3KKYU7P33Z3BR9PPFZ5194ZCQMWU","","","<img src=""img/flower1.png"" style=""width:200px;border:14px solid red;"">","null","","","","","",""
"761.2999999523163","","image-keyboard-response","323","245649","0.0-323.0","37WLF8U1WQC85SAU4XUHHDEBRVH6KP","A3AY0315YWWNXY","3A3KKYU7P33Z3BR9PPFZ5194ZCQMWU","","","img/flower5.png","75","761.9000000357628","2","1","2","1,0.5,0.5,0.5,1,0.5,0.5,0.5,1",""
"null","","html-keyboard-response","324","245958","0.0-324.0","37WLF8U1WQC85SAU4XUHHDEBRVH6KP","A3AY0315YWWNXY","3A3KKYU7P33Z3BR9PPFZ5194ZCQMWU","","","<img src=""img/flower5.png"" style=""width:200px; border:14px solid green;"">","null","","","","","",""
"411","","image-keyboard-response","325","246369","0.0-325.0","37WLF8U1WQC85SAU4XUHHDEBRVH6KP","A3AY0315YWWNXY","3A3KKYU7P33Z3BR9PPFZ5194ZCQMWU","","","img/flower5.png","75","411.69999998807907","2","1","2","1,0.5,0.5,0.5,1,0.5,0.5,0.5,1",""
"null","","html-keyboard-response","326","246671","0.0-326.0","37WLF8U1WQC85SAU4XUHHDEBRVH6KP","A3AY0315YWWNXY","3A3KKYU7P33Z3BR9PPFZ5194ZCQMWU","","","<img src=""img/flower5.png"" style=""width:200px; border:14px solid green;"">","null","","","","","",""
"553.1999999880791","","image-keyboard-response","327","247225","0.0-327.0","37WLF8U1WQC85SAU4XUHHDEBRVH6KP","A3AY0315YWWNXY","3A3KKYU7P33Z3BR9PPFZ5194ZCQMWU","","","img/flower4.png","74","553.9000000357628","1","1","1","1,0.5,0.5,0.5,1,0.5,0.5,0.5,1",""
"null","","html-keyboard-response","328","247540","0.0-328.0","37WLF8U1WQC85SAU4XUHHDEBRVH6KP","A3AY0315YWWNXY","3A3KKYU7P33Z3BR9PPFZ5194ZCQMWU","","","<img src=""img/flower4.png"" style=""width:200px; border:14px solid green;"">","null","","","","","",""
"1452.5999999642372","","image-keyboard-response","329","248993","0.0-329.0","37WLF8U1WQC85SAU4XUHHDEBRVH6KP","A3AY0315YWWNXY","3A3KKYU7P33Z3BR9PPFZ5194ZCQMWU","","","img/flower1.png","76","1453.199999988079","3","1","3","1,0.5,0.5,0.5,1,0.5,0.5,0.5,1",""
"null","","html-keyboard-response","330","249308","0.0-330.0","37WLF8U1WQC85SAU4XUHHDEBRVH6KP","A3AY0315YWWNXY","3A3KKYU7P33Z3BR9PPFZ5194ZCQMWU","","","<img src=""img/flower1.png"" style=""width:200px; border:14px solid green;"">","null","","","","","",""
"426","","image-keyboard-response","331","249735","0.0-331.0","37WLF8U1WQC85SAU4XUHHDEBRVH6KP","A3AY0315YWWNXY","3A3KKYU7P33Z3BR9PPFZ5194ZCQMWU","","","img/flower1.png","76","426.80000001192093","3","1","3","1,0.5,0.5,0.5,1,0.5,0.5,0.5,1",""
"null","","html-keyboard-response","332","250037","0.0-332.0","37WLF8U1WQC85SAU4XUHHDEBRVH6KP","A3AY0315YWWNXY","3A3KKYU7P33Z3BR9PPFZ5194ZCQMWU","","","<img src=""img/flower1.png"" style=""width:200px; border:14px solid green;"">","null","","","","","",""
"306.89999997615814","","image-keyboard-response","333","250345","0.0-333.0","37WLF8U1WQC85SAU4XUHHDEBRVH6KP","A3AY0315YWWNXY","3A3KKYU7P33Z3BR9PPFZ5194ZCQMWU","","","img/flower1.png","76","307.5999999642372","3","1","3","1,0.5,0.5,0.5,1,0.5,0.5,0.5,1",""
"null","","html-keyboard-response","334","250658","0.0-334.0","37WLF8U1WQC85SAU4XUHHDEBRVH6KP","A3AY0315YWWNXY","3A3KKYU7P33Z3BR9PPFZ5194ZCQMWU","","","<img src=""img/flower1.png"" style=""width:200px; border:14px solid green;"">","null","","","","","",""
"558.3999999761581","","image-keyboard-response","335","251217","0.0-335.0","37WLF8U1WQC85SAU4XUHHDEBRVH6KP","A3AY0315YWWNXY","3A3KKYU7P33Z3BR9PPFZ5194ZCQMWU","","","img/flower4.png","74","559","1","1","1","1,0.5,0.5,0.5,1,0.5,0.5,0.5,1",""
"null","","html-keyboard-response","336","251527","0.0-336.0","37WLF8U1WQC85SAU4XUHHDEBRVH6KP","A3AY0315YWWNXY","3A3KKYU7P33Z3BR9PPFZ5194ZCQMWU","","","<img src=""img/flower4.png"" style=""width:200px; border:14px solid green;"">","null","","","","","",""
"505.5999999642372","","image-keyboard-response","337","252033","0.0-337.0","37WLF8U1WQC85SAU4XUHHDEBRVH6KP","A3AY0315YWWNXY","3A3KKYU7P33Z3BR9PPFZ5194ZCQMWU","","","img/flower1.png","76","506.30000001192093","3","1","3","1,0.5,0.5,0.5,1,0.5,0.5,0.5,1",""
"null","","html-keyboard-response","338","252349","0.0-338.0","37WLF8U1WQC85SAU4XUHHDEBRVH6KP","A3AY0315YWWNXY","3A3KKYU7P33Z3BR9PPFZ5194ZCQMWU","","","<img src=""img/flower1.png"" style=""width:200px; border:14px solid green;"">","null","","","","","",""
"321.2999999523163","","image-keyboard-response","339","252671","0.0-339.0","37WLF8U1WQC85SAU4XUHHDEBRVH6KP","A3AY0315YWWNXY","3A3KKYU7P33Z3BR9PPFZ5194ZCQMWU","","","img/flower1.png","76","322","3","1","3","1,0.5,0.5,0.5,1,0.5,0.5,0.5,1",""
"null","","html-keyboard-response","340","252985","0.0-340.0","37WLF8U1WQC85SAU4XUHHDEBRVH6KP","A3AY0315YWWNXY","3A3KKYU7P33Z3BR9PPFZ5194ZCQMWU","","","<img src=""img/flower1.png"" style=""width:200px; border:14px solid green;"">","null","","","","","",""
"1045.199999988079","","image-keyboard-response","341","254031","0.0-341.0","37WLF8U1WQC85SAU4XUHHDEBRVH6KP","A3AY0315YWWNXY","3A3KKYU7P33Z3BR9PPFZ5194ZCQMWU","","","img/flower5.png","75","1045.9000000357628","2","1","2","1,0.5,0.5,0.5,1,0.5,0.5,0.5,1",""
"null","","html-keyboard-response","342","254335","0.0-342.0","37WLF8U1WQC85SAU4XUHHDEBRVH6KP","A3AY0315YWWNXY","3A3KKYU7P33Z3BR9PPFZ5194ZCQMWU","","","<img src=""img/flower5.png"" style=""width:200px; border:14px solid green;"">","null","","","","","",""
"335.69999998807907","","image-keyboard-response","343","254671","0.0-343.0","37WLF8U1WQC85SAU4XUHHDEBRVH6KP","A3AY0315YWWNXY","3A3KKYU7P33Z3BR9PPFZ5194ZCQMWU","","","img/flower5.png","75","336.39999997615814","2","1","2","1,0.5,0.5,0.5,1,0.5,0.5,0.5,1",""
"null","","html-keyboard-response","344","254986","0.0-344.0","37WLF8U1WQC85SAU4XUHHDEBRVH6KP","A3AY0315YWWNXY","3A3KKYU7P33Z3BR9PPFZ5194ZCQMWU","","","<img src=""img/flower5.png"" style=""width:200px; border:14px solid green;"">","null","","","","","",""
"512","","image-keyboard-response","345","255499","0.0-345.0","37WLF8U1WQC85SAU4XUHHDEBRVH6KP","A3AY0315YWWNXY","3A3KKYU7P33Z3BR9PPFZ5194ZCQMWU","","","img/flower4.png","74","512.7000000476837","1","1","1","1,0.5,0.5,0.5,1,0.5,0.5,0.5,1",""
"null","","html-keyboard-response","346","255808","0.0-346.0","37WLF8U1WQC85SAU4XUHHDEBRVH6KP","A3AY0315YWWNXY","3A3KKYU7P33Z3BR9PPFZ5194ZCQMWU","","","<img src=""img/flower4.png"" style=""width:200px; border:14px solid green;"">","null","","","","","",""
"525.8999999761581","","image-keyboard-response","347","256335","0.0-347.0","37WLF8U1WQC85SAU4XUHHDEBRVH6KP","A3AY0315YWWNXY","3A3KKYU7P33Z3BR9PPFZ5194ZCQMWU","","","img/flower1.png","76","526.5","3","1","3","1,0.5,0.5,0.5,1,0.5,0.5,0.5,1",""
"null","","html-keyboard-response","348","256646","0.0-348.0","37WLF8U1WQC85SAU4XUHHDEBRVH6KP","A3AY0315YWWNXY","3A3KKYU7P33Z3BR9PPFZ5194ZCQMWU","","","<img src=""img/flower1.png"" style=""width:200px; border:14px solid green;"">","null","","","","","",""
"680.3000000119209","","image-keyboard-response","349","257327","0.0-349.0","37WLF8U1WQC85SAU4XUHHDEBRVH6KP","A3AY0315YWWNXY","3A3KKYU7P33Z3BR9PPFZ5194ZCQMWU","","","img/flower5.png","75","680.8999999761581","2","1","2","1,0.5,0.5,0.5,1,0.5,0.5,0.5,1",""
"null","","html-keyboard-response","350","257639","0.0-350.0","37WLF8U1WQC85SAU4XUHHDEBRVH6KP","A3AY0315YWWNXY","3A3KKYU7P33Z3BR9PPFZ5194ZCQMWU","","","<img src=""img/flower5.png"" style=""width:200px; border:14px solid green;"">","null","","","","","",""
"375.2999999523163","","image-keyboard-response","351","258015","0.0-351.0","37WLF8U1WQC85SAU4XUHHDEBRVH6KP","A3AY0315YWWNXY","3A3KKYU7P33Z3BR9PPFZ5194ZCQMWU","","","img/flower5.png","75","376.0999999642372","2","1","2","1,0.5,0.5,0.5,1,0.5,0.5,0.5,1",""
"null","","html-keyboard-response","352","258322","0.0-352.0","37WLF8U1WQC85SAU4XUHHDEBRVH6KP","A3AY0315YWWNXY","3A3KKYU7P33Z3BR9PPFZ5194ZCQMWU","","","<img src=""img/flower5.png"" style=""width:200px; border:14px solid green;"">","null","","","","","",""
"468.7999999523163","","image-keyboard-response","353","258791","0.0-353.0","37WLF8U1WQC85SAU4XUHHDEBRVH6KP","A3AY0315YWWNXY","3A3KKYU7P33Z3BR9PPFZ5194ZCQMWU","","","img/flower1.png","76","469.4000000357628","3","1","3","1,0.5,0.5,0.5,1,0.5,0.5,0.5,1",""
"null","","html-keyboard-response","354","259097","0.0-354.0","37WLF8U1WQC85SAU4XUHHDEBRVH6KP","A3AY0315YWWNXY","3A3KKYU7P33Z3BR9PPFZ5194ZCQMWU","","","<img src=""img/flower1.png"" style=""width:200px; border:14px solid green;"">","null","","","","","",""
"633.1999999880791","","image-keyboard-response","355","259731","0.0-355.0","37WLF8U1WQC85SAU4XUHHDEBRVH6KP","A3AY0315YWWNXY","3A3KKYU7P33Z3BR9PPFZ5194ZCQMWU","","","img/flower5.png","75","633.7000000476837","2","1","2","1,0.5,0.5,0.5,1,0.5,0.5,0.5,1",""
"null","","html-keyboard-response","356","260044","0.0-356.0","37WLF8U1WQC85SAU4XUHHDEBRVH6KP","A3AY0315YWWNXY","3A3KKYU7P33Z3BR9PPFZ5194ZCQMWU","","","<img src=""img/flower5.png"" style=""width:200px; border:14px solid green;"">","null","","","","","",""
"498.7999999523163","","image-keyboard-response","357","260543","0.0-357.0","37WLF8U1WQC85SAU4XUHHDEBRVH6KP","A3AY0315YWWNXY","3A3KKYU7P33Z3BR9PPFZ5194ZCQMWU","","","img/flower5.png","75","499.5","2","1","2","1,0.5,0.5,0.5,1,0.5,0.5,0.5,1",""
"null","","html-keyboard-response","358","260850","0.0-358.0","37WLF8U1WQC85SAU4XUHHDEBRVH6KP","A3AY0315YWWNXY","3A3KKYU7P33Z3BR9PPFZ5194ZCQMWU","","","<img src=""img/flower5.png"" style=""width:200px; border:14px solid green;"">","null","","","","","",""
"500.0999999642372","","image-keyboard-response","359","261351","0.0-359.0","37WLF8U1WQC85SAU4XUHHDEBRVH6KP","A3AY0315YWWNXY","3A3KKYU7P33Z3BR9PPFZ5194ZCQMWU","","","img/flower4.png","74","500.89999997615814","1","1","1","1,0.5,0.5,0.5,1,0.5,0.5,0.5,1",""
"null","","html-keyboard-response","360","261657","0.0-360.0","37WLF8U1WQC85SAU4XUHHDEBRVH6KP","A3AY0315YWWNXY","3A3KKYU7P33Z3BR9PPFZ5194ZCQMWU","","","<img src=""img/flower4.png"" style=""width:200px; border:14px solid green;"">","null","","","","","",""
"427.39999997615814","","image-keyboard-response","361","262085","0.0-361.0","37WLF8U1WQC85SAU4XUHHDEBRVH6KP","A3AY0315YWWNXY","3A3KKYU7P33Z3BR9PPFZ5194ZCQMWU","","","img/flower4.png","74","428.10000002384186","1","1","1","1,0.5,0.5,0.5,1,0.5,0.5,0.5,1",""
"null","","html-keyboard-response","362","262386","0.0-362.0","37WLF8U1WQC85SAU4XUHHDEBRVH6KP","A3AY0315YWWNXY","3A3KKYU7P33Z3BR9PPFZ5194ZCQMWU","","","<img src=""img/flower4.png"" style=""width:200px; border:14px solid green;"">","null","","","","","",""
"362.10000002384186","","image-keyboard-response","363","262749","0.0-363.0","37WLF8U1WQC85SAU4XUHHDEBRVH6KP","A3AY0315YWWNXY","3A3KKYU7P33Z3BR9PPFZ5194ZCQMWU","","","img/flower4.png","74","362.80000001192093","1","1","1","1,0.5,0.5,0.5,1,0.5,0.5,0.5,1",""
"null","","html-keyboard-response","364","263053","0.0-364.0","37WLF8U1WQC85SAU4XUHHDEBRVH6KP","A3AY0315YWWNXY","3A3KKYU7P33Z3BR9PPFZ5194ZCQMWU","","","<img src=""img/flower4.png"" style=""width:200px; border:14px solid green;"">","null","","","","","",""
"1765","","image-keyboard-response","365","264819","0.0-365.0","37WLF8U1WQC85SAU4XUHHDEBRVH6KP","A3AY0315YWWNXY","3A3KKYU7P33Z3BR9PPFZ5194ZCQMWU","","","img/flower1.png","76","1765.7000000476837","3","1","3","1,0.5,0.5,0.5,1,0.5,0.5,0.5,1",""
"null","","html-keyboard-response","366","265132","0.0-366.0","37WLF8U1WQC85SAU4XUHHDEBRVH6KP","A3AY0315YWWNXY","3A3KKYU7P33Z3BR9PPFZ5194ZCQMWU","","","<img src=""img/flower1.png"" style=""width:200px; border:14px solid green;"">","null","","","","","",""
"642.3999999761581","","image-keyboard-response","367","265775","0.0-367.0","37WLF8U1WQC85SAU4XUHHDEBRVH6KP","A3AY0315YWWNXY","3A3KKYU7P33Z3BR9PPFZ5194ZCQMWU","","","img/flower4.png","74","643","1","1","1","1,0.5,0.5,0.5,1,0.5,0.5,0.5,1",""
"null","","html-keyboard-response","368","266078","0.0-368.0","37WLF8U1WQC85SAU4XUHHDEBRVH6KP","A3AY0315YWWNXY","3A3KKYU7P33Z3BR9PPFZ5194ZCQMWU","","","<img src=""img/flower4.png"" style=""width:200px; border:14px solid green;"">","null","","","","","",""
"678.1000000238419","","image-keyboard-response","369","266757","0.0-369.0","37WLF8U1WQC85SAU4XUHHDEBRVH6KP","A3AY0315YWWNXY","3A3KKYU7P33Z3BR9PPFZ5194ZCQMWU","","","img/flower5.png","75","678.8000000119209","2","1","2","1,0.5,0.5,0.5,1,0.5,0.5,0.5,1",""
"null","","html-keyboard-response","370","267071","0.0-370.0","37WLF8U1WQC85SAU4XUHHDEBRVH6KP","A3AY0315YWWNXY","3A3KKYU7P33Z3BR9PPFZ5194ZCQMWU","","","<img src=""img/flower5.png"" style=""width:200px; border:14px solid green;"">","null","","","","","",""
"365.4000000357628","","image-keyboard-response","371","267437","0.0-371.0","37WLF8U1WQC85SAU4XUHHDEBRVH6KP","A3AY0315YWWNXY","3A3KKYU7P33Z3BR9PPFZ5194ZCQMWU","","","img/flower5.png","75","366.10000002384186","2","1","2","1,0.5,0.5,0.5,1,0.5,0.5,0.5,1",""
"null","","html-keyboard-response","372","267738","0.0-372.0","37WLF8U1WQC85SAU4XUHHDEBRVH6KP","A3AY0315YWWNXY","3A3KKYU7P33Z3BR9PPFZ5194ZCQMWU","","","<img src=""img/flower5.png"" style=""width:200px; border:14px solid green;"">","null","","","","","",""
"390","","image-keyboard-response","373","268129","0.0-373.0","37WLF8U1WQC85SAU4XUHHDEBRVH6KP","A3AY0315YWWNXY","3A3KKYU7P33Z3BR9PPFZ5194ZCQMWU","","","img/flower5.png","75","390.7000000476837","2","1","2","1,0.5,0.5,0.5,1,0.5,0.5,0.5,1",""
"null","","html-keyboard-response","374","268436","0.0-374.0","37WLF8U1WQC85SAU4XUHHDEBRVH6KP","A3AY0315YWWNXY","3A3KKYU7P33Z3BR9PPFZ5194ZCQMWU","","","<img src=""img/flower5.png"" style=""width:200px; border:14px solid green;"">","null","","","","","",""
"1184.3999999761581","","image-keyboard-response","375","269621","0.0-375.0","37WLF8U1WQC85SAU4XUHHDEBRVH6KP","A3AY0315YWWNXY","3A3KKYU7P33Z3BR9PPFZ5194ZCQMWU","","","img/flower1.png","76","1185.1000000238419","3","1","3","1,0.5,0.5,0.5,1,0.5,0.5,0.5,1",""
"null","","html-keyboard-response","376","269926","0.0-376.0","37WLF8U1WQC85SAU4XUHHDEBRVH6KP","A3AY0315YWWNXY","3A3KKYU7P33Z3BR9PPFZ5194ZCQMWU","","","<img src=""img/flower1.png"" style=""width:200px; border:14px solid green;"">","null","","","","","",""
"340.89999997615814","","image-keyboard-response","377","270267","0.0-377.0","37WLF8U1WQC85SAU4XUHHDEBRVH6KP","A3AY0315YWWNXY","3A3KKYU7P33Z3BR9PPFZ5194ZCQMWU","","","img/flower1.png","76","341.5","3","1","3","1,0.5,0.5,0.5,1,0.5,0.5,0.5,1",""
"null","","html-keyboard-response","378","270577","0.0-378.0","37WLF8U1WQC85SAU4XUHHDEBRVH6KP","A3AY0315YWWNXY","3A3KKYU7P33Z3BR9PPFZ5194ZCQMWU","","","<img src=""img/flower1.png"" style=""width:200px; border:14px solid green;"">","null","","","","","",""
"985.3000000119209","","image-keyboard-response","379","271563","0.0-379.0","37WLF8U1WQC85SAU4XUHHDEBRVH6KP","A3AY0315YWWNXY","3A3KKYU7P33Z3BR9PPFZ5194ZCQMWU","","","img/flower5.png","75","985.8999999761581","2","1","2","1,0.5,0.5,0.5,1,0.5,0.5,0.5,1",""
"null","","html-keyboard-response","380","271865","0.0-380.0","37WLF8U1WQC85SAU4XUHHDEBRVH6KP","A3AY0315YWWNXY","3A3KKYU7P33Z3BR9PPFZ5194ZCQMWU","","","<img src=""img/flower5.png"" style=""width:200px; border:14px solid green;"">","null","","","","","",""
"519.6999999880791","","image-keyboard-response","381","272385","0.0-381.0","37WLF8U1WQC85SAU4XUHHDEBRVH6KP","A3AY0315YWWNXY","3A3KKYU7P33Z3BR9PPFZ5194ZCQMWU","","","img/flower4.png","74","520.2000000476837","1","1","1","1,0.5,0.5,0.5,1,0.5,0.5,0.5,1",""
"null","","html-keyboard-response","382","272687","0.0-382.0","37WLF8U1WQC85SAU4XUHHDEBRVH6KP","A3AY0315YWWNXY","3A3KKYU7P33Z3BR9PPFZ5194ZCQMWU","","","<img src=""img/flower4.png"" style=""width:200px; border:14px solid green;"">","null","","","","","",""
"795.5","","image-keyboard-response","383","273483","0.0-383.0","37WLF8U1WQC85SAU4XUHHDEBRVH6KP","A3AY0315YWWNXY","3A3KKYU7P33Z3BR9PPFZ5194ZCQMWU","","","img/flower5.png","75","796.0999999642372","2","1","2","1,0.5,0.5,0.5,1,0.5,0.5,0.5,1",""
"null","","html-keyboard-response","384","273788","0.0-384.0","37WLF8U1WQC85SAU4XUHHDEBRVH6KP","A3AY0315YWWNXY","3A3KKYU7P33Z3BR9PPFZ5194ZCQMWU","","","<img src=""img/flower5.png"" style=""width:200px; border:14px solid green;"">","null","","","","","",""
"491.80000001192093","","image-keyboard-response","385","274281","0.0-385.0","37WLF8U1WQC85SAU4XUHHDEBRVH6KP","A3AY0315YWWNXY","3A3KKYU7P33Z3BR9PPFZ5194ZCQMWU","","","img/flower1.png","76","492.5999999642372","3","1","3","1,0.5,0.5,0.5,1,0.5,0.5,0.5,1",""
"null","","html-keyboard-response","386","274595","0.0-386.0","37WLF8U1WQC85SAU4XUHHDEBRVH6KP","A3AY0315YWWNXY","3A3KKYU7P33Z3BR9PPFZ5194ZCQMWU","","","<img src=""img/flower1.png"" style=""width:200px; border:14px solid green;"">","null","","","","","",""
"379.19999998807907","","image-keyboard-response","387","274975","0.0-387.0","37WLF8U1WQC85SAU4XUHHDEBRVH6KP","A3AY0315YWWNXY","3A3KKYU7P33Z3BR9PPFZ5194ZCQMWU","","","img/flower1.png","76","379.9000000357628","3","1","3","1,0.5,0.5,0.5,1,0.5,0.5,0.5,1",""
"null","","html-keyboard-response","388","275278","0.0-388.0","37WLF8U1WQC85SAU4XUHHDEBRVH6KP","A3AY0315YWWNXY","3A3KKYU7P33Z3BR9PPFZ5194ZCQMWU","","","<img src=""img/flower1.png"" style=""width:200px; border:14px solid green;"">","null","","","","","",""
"444.80000001192093","","image-keyboard-response","389","275723","0.0-389.0","37WLF8U1WQC85SAU4XUHHDEBRVH6KP","A3AY0315YWWNXY","3A3KKYU7P33Z3BR9PPFZ5194ZCQMWU","","","img/flower1.png","76","445.39999997615814","3","1","3","1,0.5,0.5,0.5,1,0.5,0.5,0.5,1",""
"null","","html-keyboard-response","390","276038","0.0-390.0","37WLF8U1WQC85SAU4XUHHDEBRVH6KP","A3AY0315YWWNXY","3A3KKYU7P33Z3BR9PPFZ5194ZCQMWU","","","<img src=""img/flower1.png"" style=""width:200px; border:14px solid green;"">","null","","","","","",""
"370.5999999642372","","image-keyboard-response","391","276409","0.0-391.0","37WLF8U1WQC85SAU4XUHHDEBRVH6KP","A3AY0315YWWNXY","3A3KKYU7P33Z3BR9PPFZ5194ZCQMWU","","","img/flower1.png","76","371.19999998807907","3","1","3","1,0.5,0.5,0.5,1,0.5,0.5,0.5,1",""
"null","","html-keyboard-response","392","276720","0.0-392.0","37WLF8U1WQC85SAU4XUHHDEBRVH6KP","A3AY0315YWWNXY","3A3KKYU7P33Z3BR9PPFZ5194ZCQMWU","","","<img src=""img/flower1.png"" style=""width:200px; border:14px solid green;"">","null","","","","","",""
"368","","image-keyboard-response","393","277089","0.0-393.0","37WLF8U1WQC85SAU4XUHHDEBRVH6KP","A3AY0315YWWNXY","3A3KKYU7P33Z3BR9PPFZ5194ZCQMWU","","","img/flower1.png","76","368.69999998807907","3","1","3","1,0.5,0.5,0.5,1,0.5,0.5,0.5,1",""
"null","","html-keyboard-response","394","277403","0.0-394.0","37WLF8U1WQC85SAU4XUHHDEBRVH6KP","A3AY0315YWWNXY","3A3KKYU7P33Z3BR9PPFZ5194ZCQMWU","","","<img src=""img/flower1.png"" style=""width:200px; border:14px solid green;"">","null","","","","","",""
"703.5","","image-keyboard-response","395","278107","0.0-395.0","37WLF8U1WQC85SAU4XUHHDEBRVH6KP","A3AY0315YWWNXY","3A3KKYU7P33Z3BR9PPFZ5194ZCQMWU","","","img/flower5.png","75","704.2999999523163","2","1","2","1,0.5,0.5,0.5,1,0.5,0.5,0.5,1",""
"null","","html-keyboard-response","396","278411","0.0-396.0","37WLF8U1WQC85SAU4XUHHDEBRVH6KP","A3AY0315YWWNXY","3A3KKYU7P33Z3BR9PPFZ5194ZCQMWU","","","<img src=""img/flower5.png"" style=""width:200px; border:14px solid green;"">","null","","","","","",""
"573","","image-keyboard-response","397","278985","0.0-397.0","37WLF8U1WQC85SAU4XUHHDEBRVH6KP","A3AY0315YWWNXY","3A3KKYU7P33Z3BR9PPFZ5194ZCQMWU","","","img/flower4.png","74","573.6999999880791","1","1","1","1,0.5,0.5,0.5,1,0.5,0.5,0.5,1",""
"null","","html-keyboard-response","398","279296","0.0-398.0","37WLF8U1WQC85SAU4XUHHDEBRVH6KP","A3AY0315YWWNXY","3A3KKYU7P33Z3BR9PPFZ5194ZCQMWU","","","<img src=""img/flower4.png"" style=""width:200px; border:14px solid green;"">","null","","","","","",""
"676.8000000119209","","image-keyboard-response","399","279973","0.0-399.0","37WLF8U1WQC85SAU4XUHHDEBRVH6KP","A3AY0315YWWNXY","3A3KKYU7P33Z3BR9PPFZ5194ZCQMWU","","","img/flower5.png","75","677.5","2","1","2","1,0.5,0.5,0.5,1,0.5,0.5,0.5,1",""
"null","","html-keyboard-response","400","280288","0.0-400.0","37WLF8U1WQC85SAU4XUHHDEBRVH6KP","A3AY0315YWWNXY","3A3KKYU7P33Z3BR9PPFZ5194ZCQMWU","","","<img src=""img/flower5.png"" style=""width:200px; border:14px solid green;"">","null","","","","","",""
"334","","image-keyboard-response","401","280623","0.0-401.0","37WLF8U1WQC85SAU4XUHHDEBRVH6KP","A3AY0315YWWNXY","3A3KKYU7P33Z3BR9PPFZ5194ZCQMWU","","","img/flower5.png","75","334.5999999642372","2","1","2","1,0.5,0.5,0.5,1,0.5,0.5,0.5,1",""
"null","","html-keyboard-response","402","280925","0.0-402.0","37WLF8U1WQC85SAU4XUHHDEBRVH6KP","A3AY0315YWWNXY","3A3KKYU7P33Z3BR9PPFZ5194ZCQMWU","","","<img src=""img/flower5.png"" style=""width:200px; border:14px solid green;"">","null","","","","","",""
"573.7999999523163","","image-keyboard-response","403","281499","0.0-403.0","37WLF8U1WQC85SAU4XUHHDEBRVH6KP","A3AY0315YWWNXY","3A3KKYU7P33Z3BR9PPFZ5194ZCQMWU","","","img/flower4.png","74","574.4000000357628","1","1","1","1,0.5,0.5,0.5,1,0.5,0.5,0.5,1",""
"null","","html-keyboard-response","404","281809","0.0-404.0","37WLF8U1WQC85SAU4XUHHDEBRVH6KP","A3AY0315YWWNXY","3A3KKYU7P33Z3BR9PPFZ5194ZCQMWU","","","<img src=""img/flower4.png"" style=""width:200px; border:14px solid green;"">","null","","","","","",""
