"success","trial_type","trial_index","time_elapsed","internal_node_id","assignmentID","mturkID","hitID","view_history","rt","stimulus","key_press","reactionTime","a","r","s","cond","reward_cond","reward_cond_actual","reward_matrix_idx","responses"
"true","fullscreen","0","2901","0.0-0.0","33FBRBDW6PLDQ8HU5ZAHD8XUVH48C9","A3BWZ6V34W8SXX","382GHPVPHSDM8N0F9141EAH7F0K34Z","","","","","","","","","","","","",""
"","instructions","1","32701","0.0-1.0","33FBRBDW6PLDQ8HU5ZAHD8XUVH48C9","A3BWZ6V34W8SXX","382GHPVPHSDM8N0F9141EAH7F0K34Z","[{""page_index"":0,""viewing_time"":7374},{""page_index"":1,""viewing_time"":3370},{""page_index"":2,""viewing_time"":2616},{""page_index"":3,""viewing_time"":2554},{""page_index"":4,""viewing_time"":2975},{""page_index"":5,""viewing_time"":2091},{""page_index"":6,""viewing_time"":4294},{""page_index"":7,""viewing_time"":4522}]","29797","","","","","","","","","","",""
"","image-keyboard-response","2","33619","0.0-2.0","33FBRBDW6PLDQ8HU5ZAHD8XUVH48C9","A3BWZ6V34W8SXX","382GHPVPHSDM8N0F9141EAH7F0K34Z","","913","img/flower3.png","74","918","1","1","2","2","1,0,0,1,1,0,1,0,1","0,0,1,1,0,1,0,1,1","2",""
"","html-keyboard-response","3","33930","0.0-3.0","33FBRBDW6PLDQ8HU5ZAHD8XUVH48C9","A3BWZ6V34W8SXX","382GHPVPHSDM8N0F9141EAH7F0K34Z","","null","<img src=""img/flower3.png"" style=""width:200px; border:14px solid green;"">","null","","","","","","","","",""
"","image-keyboard-response","4","34507","0.0-4.0","33FBRBDW6PLDQ8HU5ZAHD8XUVH48C9","A3BWZ6V34W8SXX","382GHPVPHSDM8N0F9141EAH7F0K34Z","","575","img/flower1.png","74","575","1","0","3","2","1,0,0,1,1,0,1,0,1","0,0,1,1,0,1,0,1,1","2",""
"","html-keyboard-response","5","34819","0.0-5.0","33FBRBDW6PLDQ8HU5ZAHD8XUVH48C9","A3BWZ6V34W8SXX","382GHPVPHSDM8N0F9141EAH7F0K34Z","","null","<img src=""img/flower1.png"" style=""width:200px;border:14px solid red;"">","null","","","","","","","","",""
"","image-keyboard-response","6","36000","0.0-6.0","33FBRBDW6PLDQ8HU5ZAHD8XUVH48C9","A3BWZ6V34W8SXX","382GHPVPHSDM8N0F9141EAH7F0K34Z","","1178","img/flower4.png","75","1181","2","0","1","2","1,0,0,1,1,0,1,0,1","0,0,1,1,0,1,0,1,1","2",""
"","html-keyboard-response","7","36307","0.0-7.0","33FBRBDW6PLDQ8HU5ZAHD8XUVH48C9","A3BWZ6V34W8SXX","382GHPVPHSDM8N0F9141EAH7F0K34Z","","null","<img src=""img/flower4.png"" style=""width:200px;border:14px solid red;"">","null","","","","","","","","",""
"","image-keyboard-response","8","36852","0.0-8.0","33FBRBDW6PLDQ8HU5ZAHD8XUVH48C9","A3BWZ6V34W8SXX","382GHPVPHSDM8N0F9141EAH7F0K34Z","","542","img/flower3.png","74","544","1","1","2","2","1,0,0,1,1,0,1,0,1","0,0,1,1,0,1,0,1,1","2",""
"","html-keyboard-response","9","37173","0.0-9.0","33FBRBDW6PLDQ8HU5ZAHD8XUVH48C9","A3BWZ6V34W8SXX","382GHPVPHSDM8N0F9141EAH7F0K34Z","","null","<img src=""img/flower3.png"" style=""width:200px; border:14px solid green;"">","null","","","","","","","","",""
"","image-keyboard-response","10","37731","0.0-10.0","33FBRBDW6PLDQ8HU5ZAHD8XUVH48C9","A3BWZ6V34W8SXX","382GHPVPHSDM8N0F9141EAH7F0K34Z","","558","img/flower4.png","74","558","1","0","1","2","1,0,0,1,1,0,1,0,1","0,0,1,1,0,1,0,1,1","2",""
"","html-keyboard-response","11","38033","0.0-11.0","33FBRBDW6PLDQ8HU5ZAHD8XUVH48C9","A3BWZ6V34W8SXX","382GHPVPHSDM8N0F9141EAH7F0K34Z","","null","<img src=""img/flower4.png"" style=""width:200px;border:14px solid red;"">","null","","","","","","","","",""
"","image-keyboard-response","12","38815","0.0-12.0","33FBRBDW6PLDQ8HU5ZAHD8XUVH48C9","A3BWZ6V34W8SXX","382GHPVPHSDM8N0F9141EAH7F0K34Z","","780","img/flower4.png","76","782","3","1","1","2","1,0,0,1,1,0,1,0,1","0,0,1,1,0,1,0,1,1","2",""
"","html-keyboard-response","13","39119","0.0-13.0","33FBRBDW6PLDQ8HU5ZAHD8XUVH48C9","A3BWZ6V34W8SXX","382GHPVPHSDM8N0F9141EAH7F0K34Z","","null","<img src=""img/flower4.png"" style=""width:200px; border:14px solid green;"">","null","","","","","","","","",""
"","image-keyboard-response","14","39667","0.0-14.0","33FBRBDW6PLDQ8HU5ZAHD8XUVH48C9","A3BWZ6V34W8SXX","382GHPVPHSDM8N0F9141EAH7F0K34Z","","546","img/flower4.png","76","548","3","1","1","2","1,0,0,1,1,0,1,0,1","0,0,1,1,0,1,0,1,1","2",""
"","html-keyboard-response","15","39983","0.0-15.0","33FBRBDW6PLDQ8HU5ZAHD8XUVH48C9","A3BWZ6V34W8SXX","382GHPVPHSDM8N0F9141EAH7F0K34Z","","null","<img src=""img/flower4.png"" style=""width:200px; border:14px solid green;"">","null","","","","","","","","",""
"","image-keyboard-response","16","40731","0.0-16.0","33FBRBDW6PLDQ8HU5ZAHD8XUVH48C9","A3BWZ6V34W8SXX","382GHPVPHSDM8N0F9141EAH7F0K34Z","","745","img/flower1.png","75","747","2","1","3","2","1,0,0,1,1,0,1,0,1","0,0,1,1,0,1,0,1,1","2",""
"","html-keyboard-response","17","41041","0.0-17.0","33FBRBDW6PLDQ8HU5ZAHD8XUVH48C9","A3BWZ6V34W8SXX","382GHPVPHSDM8N0F9141EAH7F0K34Z","","null","<img src=""img/flower1.png"" style=""width:200px; border:14px solid green;"">","null","","","","","","","","",""
"","image-keyboard-response","18","41707","0.0-18.0","33FBRBDW6PLDQ8HU5ZAHD8XUVH48C9","A3BWZ6V34W8SXX","382GHPVPHSDM8N0F9141EAH7F0K34Z","","665","img/flower4.png","76","665","3","1","1","2","1,0,0,1,1,0,1,0,1","0,0,1,1,0,1,0,1,1","2",""
"","html-keyboard-response","19","42015","0.0-19.0","33FBRBDW6PLDQ8HU5ZAHD8XUVH48C9","A3BWZ6V34W8SXX","382GHPVPHSDM8N0F9141EAH7F0K34Z","","null","<img src=""img/flower4.png"" style=""width:200px; border:14px solid green;"">","null","","","","","","","","",""
"","image-keyboard-response","20","42644","0.0-20.0","33FBRBDW6PLDQ8HU5ZAHD8XUVH48C9","A3BWZ6V34W8SXX","382GHPVPHSDM8N0F9141EAH7F0K34Z","","627","img/flower1.png","75","629","2","1","3","2","1,0,0,1,1,0,1,0,1","0,0,1,1,0,1,0,1,1","2",""
"","html-keyboard-response","21","42960","0.0-21.0","33FBRBDW6PLDQ8HU5ZAHD8XUVH48C9","A3BWZ6V34W8SXX","382GHPVPHSDM8N0F9141EAH7F0K34Z","","null","<img src=""img/flower1.png"" style=""width:200px; border:14px solid green;"">","null","","","","","","","","",""
"","image-keyboard-response","22","43336","0.0-22.0","33FBRBDW6PLDQ8HU5ZAHD8XUVH48C9","A3BWZ6V34W8SXX","382GHPVPHSDM8N0F9141EAH7F0K34Z","","373","img/flower1.png","75","375","2","1","3","2","1,0,0,1,1,0,1,0,1","0,0,1,1,0,1,0,1,1","2",""
"","html-keyboard-response","23","43646","0.0-23.0","33FBRBDW6PLDQ8HU5ZAHD8XUVH48C9","A3BWZ6V34W8SXX","382GHPVPHSDM8N0F9141EAH7F0K34Z","","null","<img src=""img/flower1.png"" style=""width:200px; border:14px solid green;"">","null","","","","","","","","",""
"","image-keyboard-response","24","44369","0.0-24.0","33FBRBDW6PLDQ8HU5ZAHD8XUVH48C9","A3BWZ6V34W8SXX","382GHPVPHSDM8N0F9141EAH7F0K34Z","","722","img/flower4.png","76","724","3","1","1","2","1,0,0,1,1,0,1,0,1","0,0,1,1,0,1,0,1,1","2",""
"","html-keyboard-response","25","44684","0.0-25.0","33FBRBDW6PLDQ8HU5ZAHD8XUVH48C9","A3BWZ6V34W8SXX","382GHPVPHSDM8N0F9141EAH7F0K34Z","","null","<img src=""img/flower4.png"" style=""width:200px; border:14px solid green;"">","null","","","","","","","","",""
"","image-keyboard-response","26","45315","0.0-26.0","33FBRBDW6PLDQ8HU5ZAHD8XUVH48C9","A3BWZ6V34W8SXX","382GHPVPHSDM8N0F9141EAH7F0K34Z","","630","img/flower1.png","75","631","2","1","3","2","1,0,0,1,1,0,1,0,1","0,0,1,1,0,1,0,1,1","2",""
"","html-keyboard-response","27","45626","0.0-27.0","33FBRBDW6PLDQ8HU5ZAHD8XUVH48C9","A3BWZ6V34W8SXX","382GHPVPHSDM8N0F9141EAH7F0K34Z","","null","<img src=""img/flower1.png"" style=""width:200px; border:14px solid green;"">","null","","","","","","","","",""
"","image-keyboard-response","28","46025","0.0-28.0","33FBRBDW6PLDQ8HU5ZAHD8XUVH48C9","A3BWZ6V34W8SXX","382GHPVPHSDM8N0F9141EAH7F0K34Z","","396","img/flower1.png","75","398","2","1","3","2","1,0,0,1,1,0,1,0,1","0,0,1,1,0,1,0,1,1","2",""
"","html-keyboard-response","29","46327","0.0-29.0","33FBRBDW6PLDQ8HU5ZAHD8XUVH48C9","A3BWZ6V34W8SXX","382GHPVPHSDM8N0F9141EAH7F0K34Z","","null","<img src=""img/flower1.png"" style=""width:200px; border:14px solid green;"">","null","","","","","","","","",""
"","image-keyboard-response","30","47090","0.0-30.0","33FBRBDW6PLDQ8HU5ZAHD8XUVH48C9","A3BWZ6V34W8SXX","382GHPVPHSDM8N0F9141EAH7F0K34Z","","762","img/flower3.png","74","763","1","1","2","2","1,0,0,1,1,0,1,0,1","0,0,1,1,0,1,0,1,1","2",""
"","html-keyboard-response","31","47393","0.0-31.0","33FBRBDW6PLDQ8HU5ZAHD8XUVH48C9","A3BWZ6V34W8SXX","382GHPVPHSDM8N0F9141EAH7F0K34Z","","null","<img src=""img/flower3.png"" style=""width:200px; border:14px solid green;"">","null","","","","","","","","",""
"","image-keyboard-response","32","48211","0.0-32.0","33FBRBDW6PLDQ8HU5ZAHD8XUVH48C9","A3BWZ6V34W8SXX","382GHPVPHSDM8N0F9141EAH7F0K34Z","","818","img/flower1.png","75","819","2","1","3","2","1,0,0,1,1,0,1,0,1","0,0,1,1,0,1,0,1,1","2",""
"","html-keyboard-response","33","48527","0.0-33.0","33FBRBDW6PLDQ8HU5ZAHD8XUVH48C9","A3BWZ6V34W8SXX","382GHPVPHSDM8N0F9141EAH7F0K34Z","","null","<img src=""img/flower1.png"" style=""width:200px; border:14px solid green;"">","null","","","","","","","","",""
"","image-keyboard-response","34","49205","0.0-34.0","33FBRBDW6PLDQ8HU5ZAHD8XUVH48C9","A3BWZ6V34W8SXX","382GHPVPHSDM8N0F9141EAH7F0K34Z","","675","img/flower4.png","76","677","3","1","1","2","1,0,0,1,1,0,1,0,1","0,0,1,1,0,1,0,1,1","2",""
"","html-keyboard-response","35","49517","0.0-35.0","33FBRBDW6PLDQ8HU5ZAHD8XUVH48C9","A3BWZ6V34W8SXX","382GHPVPHSDM8N0F9141EAH7F0K34Z","","null","<img src=""img/flower4.png"" style=""width:200px; border:14px solid green;"">","null","","","","","","","","",""
"","image-keyboard-response","36","50253","0.0-36.0","33FBRBDW6PLDQ8HU5ZAHD8XUVH48C9","A3BWZ6V34W8SXX","382GHPVPHSDM8N0F9141EAH7F0K34Z","","735","img/flower3.png","74","735","1","1","2","2","1,0,0,1,1,0,1,0,1","0,0,1,1,0,1,0,1,1","2",""
"","html-keyboard-response","37","50554","0.0-37.0","33FBRBDW6PLDQ8HU5ZAHD8XUVH48C9","A3BWZ6V34W8SXX","382GHPVPHSDM8N0F9141EAH7F0K34Z","","null","<img src=""img/flower3.png"" style=""width:200px; border:14px solid green;"">","null","","","","","","","","",""
"","image-keyboard-response","38","51541","0.0-38.0","33FBRBDW6PLDQ8HU5ZAHD8XUVH48C9","A3BWZ6V34W8SXX","382GHPVPHSDM8N0F9141EAH7F0K34Z","","986","img/flower4.png","76","988","3","1","1","2","1,0,0,1,1,0,1,0,1","0,0,1,1,0,1,0,1,1","2",""
"","html-keyboard-response","39","51844","0.0-39.0","33FBRBDW6PLDQ8HU5ZAHD8XUVH48C9","A3BWZ6V34W8SXX","382GHPVPHSDM8N0F9141EAH7F0K34Z","","null","<img src=""img/flower4.png"" style=""width:200px; border:14px solid green;"">","null","","","","","","","","",""
"","image-keyboard-response","40","52500","0.0-40.0","33FBRBDW6PLDQ8HU5ZAHD8XUVH48C9","A3BWZ6V34W8SXX","382GHPVPHSDM8N0F9141EAH7F0K34Z","","653","img/flower3.png","75","655","2","0","2","2","1,0,0,1,1,0,1,0,1","0,0,1,1,0,1,0,1,1","2",""
"","html-keyboard-response","41","52802","0.0-41.0","33FBRBDW6PLDQ8HU5ZAHD8XUVH48C9","A3BWZ6V34W8SXX","382GHPVPHSDM8N0F9141EAH7F0K34Z","","null","<img src=""img/flower3.png"" style=""width:200px;border:14px solid red;"">","null","","","","","","","","",""
"","image-keyboard-response","42","53667","0.0-42.0","33FBRBDW6PLDQ8HU5ZAHD8XUVH48C9","A3BWZ6V34W8SXX","382GHPVPHSDM8N0F9141EAH7F0K34Z","","863","img/flower1.png","74","865","1","0","3","2","1,0,0,1,1,0,1,0,1","0,0,1,1,0,1,0,1,1","2",""
"","html-keyboard-response","43","53970","0.0-43.0","33FBRBDW6PLDQ8HU5ZAHD8XUVH48C9","A3BWZ6V34W8SXX","382GHPVPHSDM8N0F9141EAH7F0K34Z","","null","<img src=""img/flower1.png"" style=""width:200px;border:14px solid red;"">","null","","","","","","","","",""
"","image-keyboard-response","44","55142","0.0-44.0","33FBRBDW6PLDQ8HU5ZAHD8XUVH48C9","A3BWZ6V34W8SXX","382GHPVPHSDM8N0F9141EAH7F0K34Z","","1171","img/flower1.png","74","1172","1","0","3","2","1,0,0,1,1,0,1,0,1","0,0,1,1,0,1,0,1,1","2",""
"","html-keyboard-response","45","55455","0.0-45.0","33FBRBDW6PLDQ8HU5ZAHD8XUVH48C9","A3BWZ6V34W8SXX","382GHPVPHSDM8N0F9141EAH7F0K34Z","","null","<img src=""img/flower1.png"" style=""width:200px;border:14px solid red;"">","null","","","","","","","","",""
"","image-keyboard-response","46","57081","0.0-46.0","33FBRBDW6PLDQ8HU5ZAHD8XUVH48C9","A3BWZ6V34W8SXX","382GHPVPHSDM8N0F9141EAH7F0K34Z","","1625","img/flower1.png","75","1625","2","1","3","2","1,0,0,1,1,0,1,0,1","0,0,1,1,0,1,0,1,1","2",""
"","html-keyboard-response","47","57390","0.0-47.0","33FBRBDW6PLDQ8HU5ZAHD8XUVH48C9","A3BWZ6V34W8SXX","382GHPVPHSDM8N0F9141EAH7F0K34Z","","null","<img src=""img/flower1.png"" style=""width:200px; border:14px solid green;"">","null","","","","","","","","",""
"","image-keyboard-response","48","58263","0.0-48.0","33FBRBDW6PLDQ8HU5ZAHD8XUVH48C9","A3BWZ6V34W8SXX","382GHPVPHSDM8N0F9141EAH7F0K34Z","","871","img/flower4.png","76","872","3","1","1","2","1,0,0,1,1,0,1,0,1","0,0,1,1,0,1,0,1,1","2",""
"","html-keyboard-response","49","58571","0.0-49.0","33FBRBDW6PLDQ8HU5ZAHD8XUVH48C9","A3BWZ6V34W8SXX","382GHPVPHSDM8N0F9141EAH7F0K34Z","","null","<img src=""img/flower4.png"" style=""width:200px; border:14px solid green;"">","null","","","","","","","","",""
"","image-keyboard-response","50","59420","0.0-50.0","33FBRBDW6PLDQ8HU5ZAHD8XUVH48C9","A3BWZ6V34W8SXX","382GHPVPHSDM8N0F9141EAH7F0K34Z","","846","img/flower3.png","74","848","1","1","2","2","1,0,0,1,1,0,1,0,1","0,0,1,1,0,1,0,1,1","2",""
"","html-keyboard-response","51","59736","0.0-51.0","33FBRBDW6PLDQ8HU5ZAHD8XUVH48C9","A3BWZ6V34W8SXX","382GHPVPHSDM8N0F9141EAH7F0K34Z","","null","<img src=""img/flower3.png"" style=""width:200px; border:14px solid green;"">","null","","","","","","","","",""
"","image-keyboard-response","52","60701","0.0-52.0","33FBRBDW6PLDQ8HU5ZAHD8XUVH48C9","A3BWZ6V34W8SXX","382GHPVPHSDM8N0F9141EAH7F0K34Z","","963","img/flower1.png","75","964","2","1","3","2","1,0,0,1,1,0,1,0,1","0,0,1,1,0,1,0,1,1","2",""
"","html-keyboard-response","53","61011","0.0-53.0","33FBRBDW6PLDQ8HU5ZAHD8XUVH48C9","A3BWZ6V34W8SXX","382GHPVPHSDM8N0F9141EAH7F0K34Z","","null","<img src=""img/flower1.png"" style=""width:200px; border:14px solid green;"">","null","","","","","","","","",""
"","image-keyboard-response","54","61906","0.0-54.0","33FBRBDW6PLDQ8HU5ZAHD8XUVH48C9","A3BWZ6V34W8SXX","382GHPVPHSDM8N0F9141EAH7F0K34Z","","893","img/flower3.png","74","895","1","1","2","2","1,0,0,1,1,0,1,0,1","0,0,1,1,0,1,0,1,1","2",""
"","html-keyboard-response","55","62211","0.0-55.0","33FBRBDW6PLDQ8HU5ZAHD8XUVH48C9","A3BWZ6V34W8SXX","382GHPVPHSDM8N0F9141EAH7F0K34Z","","null","<img src=""img/flower3.png"" style=""width:200px; border:14px solid green;"">","null","","","","","","","","",""
"","image-keyboard-response","56","63103","0.0-56.0","33FBRBDW6PLDQ8HU5ZAHD8XUVH48C9","A3BWZ6V34W8SXX","382GHPVPHSDM8N0F9141EAH7F0K34Z","","890","img/flower1.png","75","891","2","1","3","2","1,0,0,1,1,0,1,0,1","0,0,1,1,0,1,0,1,1","2",""
"","html-keyboard-response","57","63409","0.0-57.0","33FBRBDW6PLDQ8HU5ZAHD8XUVH48C9","A3BWZ6V34W8SXX","382GHPVPHSDM8N0F9141EAH7F0K34Z","","null","<img src=""img/flower1.png"" style=""width:200px; border:14px solid green;"">","null","","","","","","","","",""
"","image-keyboard-response","58","64131","0.0-58.0","33FBRBDW6PLDQ8HU5ZAHD8XUVH48C9","A3BWZ6V34W8SXX","382GHPVPHSDM8N0F9141EAH7F0K34Z","","719","img/flower3.png","74","720","1","1","2","2","1,0,0,1,1,0,1,0,1","0,0,1,1,0,1,0,1,1","2",""
"","html-keyboard-response","59","64445","0.0-59.0","33FBRBDW6PLDQ8HU5ZAHD8XUVH48C9","A3BWZ6V34W8SXX","382GHPVPHSDM8N0F9141EAH7F0K34Z","","null","<img src=""img/flower3.png"" style=""width:200px; border:14px solid green;"">","null","","","","","","","","",""
"","image-keyboard-response","60","65023","0.0-60.0","33FBRBDW6PLDQ8HU5ZAHD8XUVH48C9","A3BWZ6V34W8SXX","382GHPVPHSDM8N0F9141EAH7F0K34Z","","576","img/flower3.png","74","578","1","1","2","2","1,0,0,1,1,0,1,0,1","0,0,1,1,0,1,0,1,1","2",""
"","html-keyboard-response","61","65340","0.0-61.0","33FBRBDW6PLDQ8HU5ZAHD8XUVH48C9","A3BWZ6V34W8SXX","382GHPVPHSDM8N0F9141EAH7F0K34Z","","null","<img src=""img/flower3.png"" style=""width:200px; border:14px solid green;"">","null","","","","","","","","",""
"","image-keyboard-response","62","66019","0.0-62.0","33FBRBDW6PLDQ8HU5ZAHD8XUVH48C9","A3BWZ6V34W8SXX","382GHPVPHSDM8N0F9141EAH7F0K34Z","","678","img/flower3.png","74","680","1","1","2","2","1,0,0,1,1,0,1,0,1","0,0,1,1,0,1,0,1,1","2",""
"","html-keyboard-response","63","66326","0.0-63.0","33FBRBDW6PLDQ8HU5ZAHD8XUVH48C9","A3BWZ6V34W8SXX","382GHPVPHSDM8N0F9141EAH7F0K34Z","","null","<img src=""img/flower3.png"" style=""width:200px; border:14px solid green;"">","null","","","","","","","","",""
"","image-keyboard-response","64","67013","0.0-64.0","33FBRBDW6PLDQ8HU5ZAHD8XUVH48C9","A3BWZ6V34W8SXX","382GHPVPHSDM8N0F9141EAH7F0K34Z","","685","img/flower3.png","74","686","1","1","2","2","1,0,0,1,1,0,1,0,1","0,0,1,1,0,1,0,1,1","2",""
"","html-keyboard-response","65","67330","0.0-65.0","33FBRBDW6PLDQ8HU5ZAHD8XUVH48C9","A3BWZ6V34W8SXX","382GHPVPHSDM8N0F9141EAH7F0K34Z","","null","<img src=""img/flower3.png"" style=""width:200px; border:14px solid green;"">","null","","","","","","","","",""
"","image-keyboard-response","66","68360","0.0-66.0","33FBRBDW6PLDQ8HU5ZAHD8XUVH48C9","A3BWZ6V34W8SXX","382GHPVPHSDM8N0F9141EAH7F0K34Z","","1029","img/flower1.png","75","1030","2","1","3","2","1,0,0,1,1,0,1,0,1","0,0,1,1,0,1,0,1,1","2",""
"","html-keyboard-response","67","68667","0.0-67.0","33FBRBDW6PLDQ8HU5ZAHD8XUVH48C9","A3BWZ6V34W8SXX","382GHPVPHSDM8N0F9141EAH7F0K34Z","","null","<img src=""img/flower1.png"" style=""width:200px; border:14px solid green;"">","null","","","","","","","","",""
"","image-keyboard-response","68","69257","0.0-68.0","33FBRBDW6PLDQ8HU5ZAHD8XUVH48C9","A3BWZ6V34W8SXX","382GHPVPHSDM8N0F9141EAH7F0K34Z","","587","img/flower3.png","74","588","1","1","2","2","1,0,0,1,1,0,1,0,1","0,0,1,1,0,1,0,1,1","2",""
"","html-keyboard-response","69","69560","0.0-69.0","33FBRBDW6PLDQ8HU5ZAHD8XUVH48C9","A3BWZ6V34W8SXX","382GHPVPHSDM8N0F9141EAH7F0K34Z","","null","<img src=""img/flower3.png"" style=""width:200px; border:14px solid green;"">","null","","","","","","","","",""
"","image-keyboard-response","70","70252","0.0-70.0","33FBRBDW6PLDQ8HU5ZAHD8XUVH48C9","A3BWZ6V34W8SXX","382GHPVPHSDM8N0F9141EAH7F0K34Z","","690","img/flower1.png","75","693","2","1","3","2","1,0,0,1,1,0,1,0,1","0,0,1,1,0,1,0,1,1","2",""
"","html-keyboard-response","71","70564","0.0-71.0","33FBRBDW6PLDQ8HU5ZAHD8XUVH48C9","A3BWZ6V34W8SXX","382GHPVPHSDM8N0F9141EAH7F0K34Z","","null","<img src=""img/flower1.png"" style=""width:200px; border:14px solid green;"">","null","","","","","","","","",""
"","image-keyboard-response","72","71379","0.0-72.0","33FBRBDW6PLDQ8HU5ZAHD8XUVH48C9","A3BWZ6V34W8SXX","382GHPVPHSDM8N0F9141EAH7F0K34Z","","812","img/flower4.png","76","815","3","1","1","2","1,0,0,1,1,0,1,0,1","0,0,1,1,0,1,0,1,1","2",""
"","html-keyboard-response","73","71693","0.0-73.0","33FBRBDW6PLDQ8HU5ZAHD8XUVH48C9","A3BWZ6V34W8SXX","382GHPVPHSDM8N0F9141EAH7F0K34Z","","null","<img src=""img/flower4.png"" style=""width:200px; border:14px solid green;"">","null","","","","","","","","",""
"","image-keyboard-response","74","72142","0.0-74.0","33FBRBDW6PLDQ8HU5ZAHD8XUVH48C9","A3BWZ6V34W8SXX","382GHPVPHSDM8N0F9141EAH7F0K34Z","","447","img/flower4.png","76","449","3","1","1","2","1,0,0,1,1,0,1,0,1","0,0,1,1,0,1,0,1,1","2",""
"","html-keyboard-response","75","72457","0.0-75.0","33FBRBDW6PLDQ8HU5ZAHD8XUVH48C9","A3BWZ6V34W8SXX","382GHPVPHSDM8N0F9141EAH7F0K34Z","","null","<img src=""img/flower4.png"" style=""width:200px; border:14px solid green;"">","null","","","","","","","","",""
"","image-keyboard-response","76","72972","0.0-76.0","33FBRBDW6PLDQ8HU5ZAHD8XUVH48C9","A3BWZ6V34W8SXX","382GHPVPHSDM8N0F9141EAH7F0K34Z","","515","img/flower4.png","76","515","3","1","1","2","1,0,0,1,1,0,1,0,1","0,0,1,1,0,1,0,1,1","2",""
"","html-keyboard-response","77","73286","0.0-77.0","33FBRBDW6PLDQ8HU5ZAHD8XUVH48C9","A3BWZ6V34W8SXX","382GHPVPHSDM8N0F9141EAH7F0K34Z","","null","<img src=""img/flower4.png"" style=""width:200px; border:14px solid green;"">","null","","","","","","","","",""
"","image-keyboard-response","78","74153","0.0-78.0","33FBRBDW6PLDQ8HU5ZAHD8XUVH48C9","A3BWZ6V34W8SXX","382GHPVPHSDM8N0F9141EAH7F0K34Z","","864","img/flower1.png","75","867","2","1","3","2","1,0,0,1,1,0,1,0,1","0,0,1,1,0,1,0,1,1","2",""
"","html-keyboard-response","79","74470","0.0-79.0","33FBRBDW6PLDQ8HU5ZAHD8XUVH48C9","A3BWZ6V34W8SXX","382GHPVPHSDM8N0F9141EAH7F0K34Z","","null","<img src=""img/flower1.png"" style=""width:200px; border:14px solid green;"">","null","","","","","","","","",""
"","image-keyboard-response","80","75183","0.0-80.0","33FBRBDW6PLDQ8HU5ZAHD8XUVH48C9","A3BWZ6V34W8SXX","382GHPVPHSDM8N0F9141EAH7F0K34Z","","711","img/flower3.png","74","713","1","1","2","2","1,0,0,1,1,0,1,0,1","0,0,1,1,0,1,0,1,1","2",""
"","html-keyboard-response","81","75491","0.0-81.0","33FBRBDW6PLDQ8HU5ZAHD8XUVH48C9","A3BWZ6V34W8SXX","382GHPVPHSDM8N0F9141EAH7F0K34Z","","null","<img src=""img/flower3.png"" style=""width:200px; border:14px solid green;"">","null","","","","","","","","",""
"","image-keyboard-response","82","75911","0.0-82.0","33FBRBDW6PLDQ8HU5ZAHD8XUVH48C9","A3BWZ6V34W8SXX","382GHPVPHSDM8N0F9141EAH7F0K34Z","","418","img/flower3.png","74","419","1","1","2","2","1,0,0,1,1,0,1,0,1","0,0,1,1,0,1,0,1,1","2",""
"","html-keyboard-response","83","76225","0.0-83.0","33FBRBDW6PLDQ8HU5ZAHD8XUVH48C9","A3BWZ6V34W8SXX","382GHPVPHSDM8N0F9141EAH7F0K34Z","","null","<img src=""img/flower3.png"" style=""width:200px; border:14px solid green;"">","null","","","","","","","","",""
"","image-keyboard-response","84","76707","0.0-84.0","33FBRBDW6PLDQ8HU5ZAHD8XUVH48C9","A3BWZ6V34W8SXX","382GHPVPHSDM8N0F9141EAH7F0K34Z","","481","img/flower3.png","74","481","1","1","2","2","1,0,0,1,1,0,1,0,1","0,0,1,1,0,1,0,1,1","2",""
"","html-keyboard-response","85","77010","0.0-85.0","33FBRBDW6PLDQ8HU5ZAHD8XUVH48C9","A3BWZ6V34W8SXX","382GHPVPHSDM8N0F9141EAH7F0K34Z","","null","<img src=""img/flower3.png"" style=""width:200px; border:14px solid green;"">","null","","","","","","","","",""
"","image-keyboard-response","86","77757","0.0-86.0","33FBRBDW6PLDQ8HU5ZAHD8XUVH48C9","A3BWZ6V34W8SXX","382GHPVPHSDM8N0F9141EAH7F0K34Z","","746","img/flower4.png","76","746","3","1","1","2","1,0,0,1,1,0,1,0,1","0,0,1,1,0,1,0,1,1","2",""
"","html-keyboard-response","87","78065","0.0-87.0","33FBRBDW6PLDQ8HU5ZAHD8XUVH48C9","A3BWZ6V34W8SXX","382GHPVPHSDM8N0F9141EAH7F0K34Z","","null","<img src=""img/flower4.png"" style=""width:200px; border:14px solid green;"">","null","","","","","","","","",""
"","image-keyboard-response","88","78915","0.0-88.0","33FBRBDW6PLDQ8HU5ZAHD8XUVH48C9","A3BWZ6V34W8SXX","382GHPVPHSDM8N0F9141EAH7F0K34Z","","849","img/flower3.png","75","850","2","0","2","2","1,0,0,1,1,0,1,0,1","0,0,1,1,0,1,0,1,1","2",""
"","html-keyboard-response","89","79230","0.0-89.0","33FBRBDW6PLDQ8HU5ZAHD8XUVH48C9","A3BWZ6V34W8SXX","382GHPVPHSDM8N0F9141EAH7F0K34Z","","null","<img src=""img/flower3.png"" style=""width:200px;border:14px solid red;"">","null","","","","","","","","",""
"","image-keyboard-response","90","80034","0.0-90.0","33FBRBDW6PLDQ8HU5ZAHD8XUVH48C9","A3BWZ6V34W8SXX","382GHPVPHSDM8N0F9141EAH7F0K34Z","","801","img/flower4.png","76","803","3","1","1","2","1,0,0,1,1,0,1,0,1","0,0,1,1,0,1,0,1,1","2",""
"","html-keyboard-response","91","80353","0.0-91.0","33FBRBDW6PLDQ8HU5ZAHD8XUVH48C9","A3BWZ6V34W8SXX","382GHPVPHSDM8N0F9141EAH7F0K34Z","","null","<img src=""img/flower4.png"" style=""width:200px; border:14px solid green;"">","null","","","","","","","","",""
"","image-keyboard-response","92","81145","0.0-92.0","33FBRBDW6PLDQ8HU5ZAHD8XUVH48C9","A3BWZ6V34W8SXX","382GHPVPHSDM8N0F9141EAH7F0K34Z","","790","img/flower3.png","74","791","1","1","2","2","1,0,0,1,1,0,1,0,1","0,0,1,1,0,1,0,1,1","2",""
"","html-keyboard-response","93","81455","0.0-93.0","33FBRBDW6PLDQ8HU5ZAHD8XUVH48C9","A3BWZ6V34W8SXX","382GHPVPHSDM8N0F9141EAH7F0K34Z","","null","<img src=""img/flower3.png"" style=""width:200px; border:14px solid green;"">","null","","","","","","","","",""
"","image-keyboard-response","94","81915","0.0-94.0","33FBRBDW6PLDQ8HU5ZAHD8XUVH48C9","A3BWZ6V34W8SXX","382GHPVPHSDM8N0F9141EAH7F0K34Z","","458","img/flower3.png","74","459","1","1","2","2","1,0,0,1,1,0,1,0,1","0,0,1,1,0,1,0,1,1","2",""
"","html-keyboard-response","95","82223","0.0-95.0","33FBRBDW6PLDQ8HU5ZAHD8XUVH48C9","A3BWZ6V34W8SXX","382GHPVPHSDM8N0F9141EAH7F0K34Z","","null","<img src=""img/flower3.png"" style=""width:200px; border:14px solid green;"">","null","","","","","","","","",""
"","image-keyboard-response","96","83107","0.0-96.0","33FBRBDW6PLDQ8HU5ZAHD8XUVH48C9","A3BWZ6V34W8SXX","382GHPVPHSDM8N0F9141EAH7F0K34Z","","884","img/flower4.png","76","884","3","1","1","2","1,0,0,1,1,0,1,0,1","0,0,1,1,0,1,0,1,1","2",""
"","html-keyboard-response","97","83422","0.0-97.0","33FBRBDW6PLDQ8HU5ZAHD8XUVH48C9","A3BWZ6V34W8SXX","382GHPVPHSDM8N0F9141EAH7F0K34Z","","null","<img src=""img/flower4.png"" style=""width:200px; border:14px solid green;"">","null","","","","","","","","",""
"","image-keyboard-response","98","83905","0.0-98.0","33FBRBDW6PLDQ8HU5ZAHD8XUVH48C9","A3BWZ6V34W8SXX","382GHPVPHSDM8N0F9141EAH7F0K34Z","","481","img/flower4.png","76","483","3","1","1","2","1,0,0,1,1,0,1,0,1","0,0,1,1,0,1,0,1,1","2",""
"","html-keyboard-response","99","84223","0.0-99.0","33FBRBDW6PLDQ8HU5ZAHD8XUVH48C9","A3BWZ6V34W8SXX","382GHPVPHSDM8N0F9141EAH7F0K34Z","","null","<img src=""img/flower4.png"" style=""width:200px; border:14px solid green;"">","null","","","","","","","","",""
"","image-keyboard-response","100","84950","0.0-100.0","33FBRBDW6PLDQ8HU5ZAHD8XUVH48C9","A3BWZ6V34W8SXX","382GHPVPHSDM8N0F9141EAH7F0K34Z","","725","img/flower3.png","74","726","1","1","2","2","1,0,0,1,1,0,1,0,1","0,0,1,1,0,1,0,1,1","2",""
"","html-keyboard-response","101","85259","0.0-101.0","33FBRBDW6PLDQ8HU5ZAHD8XUVH48C9","A3BWZ6V34W8SXX","382GHPVPHSDM8N0F9141EAH7F0K34Z","","null","<img src=""img/flower3.png"" style=""width:200px; border:14px solid green;"">","null","","","","","","","","",""
"","image-keyboard-response","102","85930","0.0-102.0","33FBRBDW6PLDQ8HU5ZAHD8XUVH48C9","A3BWZ6V34W8SXX","382GHPVPHSDM8N0F9141EAH7F0K34Z","","669","img/flower1.png","75","672","2","1","3","2","1,0,0,1,1,0,1,0,1","0,0,1,1,0,1,0,1,1","2",""
"","html-keyboard-response","103","86233","0.0-103.0","33FBRBDW6PLDQ8HU5ZAHD8XUVH48C9","A3BWZ6V34W8SXX","382GHPVPHSDM8N0F9141EAH7F0K34Z","","null","<img src=""img/flower1.png"" style=""width:200px; border:14px solid green;"">","null","","","","","","","","",""
"","image-keyboard-response","104","86971","0.0-104.0","33FBRBDW6PLDQ8HU5ZAHD8XUVH48C9","A3BWZ6V34W8SXX","382GHPVPHSDM8N0F9141EAH7F0K34Z","","736","img/flower4.png","76","736","3","1","1","2","1,0,0,1,1,0,1,0,1","0,0,1,1,0,1,0,1,1","2",""
"","html-keyboard-response","105","87285","0.0-105.0","33FBRBDW6PLDQ8HU5ZAHD8XUVH48C9","A3BWZ6V34W8SXX","382GHPVPHSDM8N0F9141EAH7F0K34Z","","null","<img src=""img/flower4.png"" style=""width:200px; border:14px solid green;"">","null","","","","","","","","",""
"","image-keyboard-response","106","87743","0.0-106.0","33FBRBDW6PLDQ8HU5ZAHD8XUVH48C9","A3BWZ6V34W8SXX","382GHPVPHSDM8N0F9141EAH7F0K34Z","","457","img/flower4.png","76","458","3","1","1","2","1,0,0,1,1,0,1,0,1","0,0,1,1,0,1,0,1,1","2",""
"","html-keyboard-response","107","88051","0.0-107.0","33FBRBDW6PLDQ8HU5ZAHD8XUVH48C9","A3BWZ6V34W8SXX","382GHPVPHSDM8N0F9141EAH7F0K34Z","","null","<img src=""img/flower4.png"" style=""width:200px; border:14px solid green;"">","null","","","","","","","","",""
"","image-keyboard-response","108","88543","0.0-108.0","33FBRBDW6PLDQ8HU5ZAHD8XUVH48C9","A3BWZ6V34W8SXX","382GHPVPHSDM8N0F9141EAH7F0K34Z","","491","img/flower4.png","76","491","3","1","1","2","1,0,0,1,1,0,1,0,1","0,0,1,1,0,1,0,1,1","2",""
"","html-keyboard-response","109","88849","0.0-109.0","33FBRBDW6PLDQ8HU5ZAHD8XUVH48C9","A3BWZ6V34W8SXX","382GHPVPHSDM8N0F9141EAH7F0K34Z","","null","<img src=""img/flower4.png"" style=""width:200px; border:14px solid green;"">","null","","","","","","","","",""
"","image-keyboard-response","110","89332","0.0-110.0","33FBRBDW6PLDQ8HU5ZAHD8XUVH48C9","A3BWZ6V34W8SXX","382GHPVPHSDM8N0F9141EAH7F0K34Z","","482","img/flower4.png","76","484","3","1","1","2","1,0,0,1,1,0,1,0,1","0,0,1,1,0,1,0,1,1","2",""
"","html-keyboard-response","111","89649","0.0-111.0","33FBRBDW6PLDQ8HU5ZAHD8XUVH48C9","A3BWZ6V34W8SXX","382GHPVPHSDM8N0F9141EAH7F0K34Z","","null","<img src=""img/flower4.png"" style=""width:200px; border:14px solid green;"">","null","","","","","","","","",""
"","image-keyboard-response","112","90346","0.0-112.0","33FBRBDW6PLDQ8HU5ZAHD8XUVH48C9","A3BWZ6V34W8SXX","382GHPVPHSDM8N0F9141EAH7F0K34Z","","695","img/flower1.png","74","696","1","0","3","2","1,0,0,1,1,0,1,0,1","0,0,1,1,0,1,0,1,1","2",""
"","html-keyboard-response","113","90656","0.0-113.0","33FBRBDW6PLDQ8HU5ZAHD8XUVH48C9","A3BWZ6V34W8SXX","382GHPVPHSDM8N0F9141EAH7F0K34Z","","null","<img src=""img/flower1.png"" style=""width:200px;border:14px solid red;"">","null","","","","","","","","",""
"","image-keyboard-response","114","91234","0.0-114.0","33FBRBDW6PLDQ8HU5ZAHD8XUVH48C9","A3BWZ6V34W8SXX","382GHPVPHSDM8N0F9141EAH7F0K34Z","","577","img/flower1.png","75","577","2","1","3","2","1,0,0,1,1,0,1,0,1","0,0,1,1,0,1,0,1,1","2",""
"","html-keyboard-response","115","91552","0.0-115.0","33FBRBDW6PLDQ8HU5ZAHD8XUVH48C9","A3BWZ6V34W8SXX","382GHPVPHSDM8N0F9141EAH7F0K34Z","","null","<img src=""img/flower1.png"" style=""width:200px; border:14px solid green;"">","null","","","","","","","","",""
"","image-keyboard-response","116","92195","0.0-116.0","33FBRBDW6PLDQ8HU5ZAHD8XUVH48C9","A3BWZ6V34W8SXX","382GHPVPHSDM8N0F9141EAH7F0K34Z","","642","img/flower3.png","74","643","1","1","2","2","1,0,0,1,1,0,1,0,1","0,0,1,1,0,1,0,1,1","2",""
"","html-keyboard-response","117","92510","0.0-117.0","33FBRBDW6PLDQ8HU5ZAHD8XUVH48C9","A3BWZ6V34W8SXX","382GHPVPHSDM8N0F9141EAH7F0K34Z","","null","<img src=""img/flower3.png"" style=""width:200px; border:14px solid green;"">","null","","","","","","","","",""
"","image-keyboard-response","118","93166","0.0-118.0","33FBRBDW6PLDQ8HU5ZAHD8XUVH48C9","A3BWZ6V34W8SXX","382GHPVPHSDM8N0F9141EAH7F0K34Z","","654","img/flower1.png","75","655","2","1","3","2","1,0,0,1,1,0,1,0,1","0,0,1,1,0,1,0,1,1","2",""
"","html-keyboard-response","119","93473","0.0-119.0","33FBRBDW6PLDQ8HU5ZAHD8XUVH48C9","A3BWZ6V34W8SXX","382GHPVPHSDM8N0F9141EAH7F0K34Z","","null","<img src=""img/flower1.png"" style=""width:200px; border:14px solid green;"">","null","","","","","","","","",""
"","image-keyboard-response","120","93998","0.0-120.0","33FBRBDW6PLDQ8HU5ZAHD8XUVH48C9","A3BWZ6V34W8SXX","382GHPVPHSDM8N0F9141EAH7F0K34Z","","524","img/flower1.png","75","526","2","1","3","2","1,0,0,1,1,0,1,0,1","0,0,1,1,0,1,0,1,1","2",""
"","html-keyboard-response","121","94318","0.0-121.0","33FBRBDW6PLDQ8HU5ZAHD8XUVH48C9","A3BWZ6V34W8SXX","382GHPVPHSDM8N0F9141EAH7F0K34Z","","null","<img src=""img/flower1.png"" style=""width:200px; border:14px solid green;"">","null","","","","","","","","",""
"","image-keyboard-response","122","95064","0.0-122.0","33FBRBDW6PLDQ8HU5ZAHD8XUVH48C9","A3BWZ6V34W8SXX","382GHPVPHSDM8N0F9141EAH7F0K34Z","","745","img/flower4.png","76","746","3","1","1","2","1,0,0,1,1,0,1,0,1","0,0,1,1,0,1,0,1,1","2",""
"","html-keyboard-response","123","95372","0.0-123.0","33FBRBDW6PLDQ8HU5ZAHD8XUVH48C9","A3BWZ6V34W8SXX","382GHPVPHSDM8N0F9141EAH7F0K34Z","","null","<img src=""img/flower4.png"" style=""width:200px; border:14px solid green;"">","null","","","","","","","","",""
"","image-keyboard-response","124","95860","0.0-124.0","33FBRBDW6PLDQ8HU5ZAHD8XUVH48C9","A3BWZ6V34W8SXX","382GHPVPHSDM8N0F9141EAH7F0K34Z","","487","img/flower4.png","76","489","3","1","1","2","1,0,0,1,1,0,1,0,1","0,0,1,1,0,1,0,1,1","2",""
"","html-keyboard-response","125","96167","0.0-125.0","33FBRBDW6PLDQ8HU5ZAHD8XUVH48C9","A3BWZ6V34W8SXX","382GHPVPHSDM8N0F9141EAH7F0K34Z","","null","<img src=""img/flower4.png"" style=""width:200px; border:14px solid green;"">","null","","","","","","","","",""
"","image-keyboard-response","126","96912","0.0-126.0","33FBRBDW6PLDQ8HU5ZAHD8XUVH48C9","A3BWZ6V34W8SXX","382GHPVPHSDM8N0F9141EAH7F0K34Z","","743","img/flower3.png","74","743","1","1","2","2","1,0,0,1,1,0,1,0,1","0,0,1,1,0,1,0,1,1","2",""
"","html-keyboard-response","127","97221","0.0-127.0","33FBRBDW6PLDQ8HU5ZAHD8XUVH48C9","A3BWZ6V34W8SXX","382GHPVPHSDM8N0F9141EAH7F0K34Z","","null","<img src=""img/flower3.png"" style=""width:200px; border:14px solid green;"">","null","","","","","","","","",""
"","image-keyboard-response","128","98053","0.0-128.0","33FBRBDW6PLDQ8HU5ZAHD8XUVH48C9","A3BWZ6V34W8SXX","382GHPVPHSDM8N0F9141EAH7F0K34Z","","831","img/flower4.png","76","832","3","1","1","2","1,0,0,1,1,0,1,0,1","0,0,1,1,0,1,0,1,1","2",""
"","html-keyboard-response","129","98355","0.0-129.0","33FBRBDW6PLDQ8HU5ZAHD8XUVH48C9","A3BWZ6V34W8SXX","382GHPVPHSDM8N0F9141EAH7F0K34Z","","null","<img src=""img/flower4.png"" style=""width:200px; border:14px solid green;"">","null","","","","","","","","",""
"","image-keyboard-response","130","99251","0.0-130.0","33FBRBDW6PLDQ8HU5ZAHD8XUVH48C9","A3BWZ6V34W8SXX","382GHPVPHSDM8N0F9141EAH7F0K34Z","","895","img/flower3.png","74","895","1","1","2","2","1,0,0,1,1,0,1,0,1","0,0,1,1,0,1,0,1,1","2",""
"","html-keyboard-response","131","99567","0.0-131.0","33FBRBDW6PLDQ8HU5ZAHD8XUVH48C9","A3BWZ6V34W8SXX","382GHPVPHSDM8N0F9141EAH7F0K34Z","","null","<img src=""img/flower3.png"" style=""width:200px; border:14px solid green;"">","null","","","","","","","","",""
"","image-keyboard-response","132","100635","0.0-132.0","33FBRBDW6PLDQ8HU5ZAHD8XUVH48C9","A3BWZ6V34W8SXX","382GHPVPHSDM8N0F9141EAH7F0K34Z","","1066","img/flower4.png","76","1068","3","1","1","2","1,0,0,1,1,0,1,0,1","0,0,1,1,0,1,0,1,1","2",""
"","html-keyboard-response","133","100941","0.0-133.0","33FBRBDW6PLDQ8HU5ZAHD8XUVH48C9","A3BWZ6V34W8SXX","382GHPVPHSDM8N0F9141EAH7F0K34Z","","null","<img src=""img/flower4.png"" style=""width:200px; border:14px solid green;"">","null","","","","","","","","",""
"","image-keyboard-response","134","101936","0.0-134.0","33FBRBDW6PLDQ8HU5ZAHD8XUVH48C9","A3BWZ6V34W8SXX","382GHPVPHSDM8N0F9141EAH7F0K34Z","","995","img/flower1.png","75","995","2","1","3","2","1,0,0,1,1,0,1,0,1","0,0,1,1,0,1,0,1,1","2",""
"","html-keyboard-response","135","102251","0.0-135.0","33FBRBDW6PLDQ8HU5ZAHD8XUVH48C9","A3BWZ6V34W8SXX","382GHPVPHSDM8N0F9141EAH7F0K34Z","","null","<img src=""img/flower1.png"" style=""width:200px; border:14px solid green;"">","null","","","","","","","","",""
"","image-keyboard-response","136","102937","0.0-136.0","33FBRBDW6PLDQ8HU5ZAHD8XUVH48C9","A3BWZ6V34W8SXX","382GHPVPHSDM8N0F9141EAH7F0K34Z","","685","img/flower3.png","74","685","1","1","2","2","1,0,0,1,1,0,1,0,1","0,0,1,1,0,1,0,1,1","2",""
"","html-keyboard-response","137","103242","0.0-137.0","33FBRBDW6PLDQ8HU5ZAHD8XUVH48C9","A3BWZ6V34W8SXX","382GHPVPHSDM8N0F9141EAH7F0K34Z","","null","<img src=""img/flower3.png"" style=""width:200px; border:14px solid green;"">","null","","","","","","","","",""
"","image-keyboard-response","138","103711","0.0-138.0","33FBRBDW6PLDQ8HU5ZAHD8XUVH48C9","A3BWZ6V34W8SXX","382GHPVPHSDM8N0F9141EAH7F0K34Z","","468","img/flower3.png","74","469","1","1","2","2","1,0,0,1,1,0,1,0,1","0,0,1,1,0,1,0,1,1","2",""
"","html-keyboard-response","139","104024","0.0-139.0","33FBRBDW6PLDQ8HU5ZAHD8XUVH48C9","A3BWZ6V34W8SXX","382GHPVPHSDM8N0F9141EAH7F0K34Z","","null","<img src=""img/flower3.png"" style=""width:200px; border:14px solid green;"">","null","","","","","","","","",""
"","image-keyboard-response","140","104698","0.0-140.0","33FBRBDW6PLDQ8HU5ZAHD8XUVH48C9","A3BWZ6V34W8SXX","382GHPVPHSDM8N0F9141EAH7F0K34Z","","672","img/flower4.png","76","672","3","1","1","2","1,0,0,1,1,0,1,0,1","0,0,1,1,0,1,0,1,1","2",""
"","html-keyboard-response","141","105013","0.0-141.0","33FBRBDW6PLDQ8HU5ZAHD8XUVH48C9","A3BWZ6V34W8SXX","382GHPVPHSDM8N0F9141EAH7F0K34Z","","null","<img src=""img/flower4.png"" style=""width:200px; border:14px solid green;"">","null","","","","","","","","",""
"","image-keyboard-response","142","105747","0.0-142.0","33FBRBDW6PLDQ8HU5ZAHD8XUVH48C9","A3BWZ6V34W8SXX","382GHPVPHSDM8N0F9141EAH7F0K34Z","","732","img/flower1.png","75","734","2","1","3","2","1,0,0,1,1,0,1,0,1","0,0,1,1,0,1,0,1,1","2",""
"","html-keyboard-response","143","106052","0.0-143.0","33FBRBDW6PLDQ8HU5ZAHD8XUVH48C9","A3BWZ6V34W8SXX","382GHPVPHSDM8N0F9141EAH7F0K34Z","","null","<img src=""img/flower1.png"" style=""width:200px; border:14px solid green;"">","null","","","","","","","","",""
"","image-keyboard-response","144","106723","0.0-144.0","33FBRBDW6PLDQ8HU5ZAHD8XUVH48C9","A3BWZ6V34W8SXX","382GHPVPHSDM8N0F9141EAH7F0K34Z","","670","img/flower3.png","74","671","1","1","2","2","1,0,0,1,1,0,1,0,1","0,0,1,1,0,1,0,1,1","2",""
"","html-keyboard-response","145","107026","0.0-145.0","33FBRBDW6PLDQ8HU5ZAHD8XUVH48C9","A3BWZ6V34W8SXX","382GHPVPHSDM8N0F9141EAH7F0K34Z","","null","<img src=""img/flower3.png"" style=""width:200px; border:14px solid green;"">","null","","","","","","","","",""
"","image-keyboard-response","146","107472","0.0-146.0","33FBRBDW6PLDQ8HU5ZAHD8XUVH48C9","A3BWZ6V34W8SXX","382GHPVPHSDM8N0F9141EAH7F0K34Z","","445","img/flower3.png","74","446","1","1","2","2","1,0,0,1,1,0,1,0,1","0,0,1,1,0,1,0,1,1","2",""
"","html-keyboard-response","147","107775","0.0-147.0","33FBRBDW6PLDQ8HU5ZAHD8XUVH48C9","A3BWZ6V34W8SXX","382GHPVPHSDM8N0F9141EAH7F0K34Z","","null","<img src=""img/flower3.png"" style=""width:200px; border:14px solid green;"">","null","","","","","","","","",""
"","image-keyboard-response","148","108194","0.0-148.0","33FBRBDW6PLDQ8HU5ZAHD8XUVH48C9","A3BWZ6V34W8SXX","382GHPVPHSDM8N0F9141EAH7F0K34Z","","416","img/flower3.png","74","417","1","1","2","2","1,0,0,1,1,0,1,0,1","0,0,1,1,0,1,0,1,1","2",""
"","html-keyboard-response","149","108512","0.0-149.0","33FBRBDW6PLDQ8HU5ZAHD8XUVH48C9","A3BWZ6V34W8SXX","382GHPVPHSDM8N0F9141EAH7F0K34Z","","null","<img src=""img/flower3.png"" style=""width:200px; border:14px solid green;"">","null","","","","","","","","",""
"","image-keyboard-response","150","108992","0.0-150.0","33FBRBDW6PLDQ8HU5ZAHD8XUVH48C9","A3BWZ6V34W8SXX","382GHPVPHSDM8N0F9141EAH7F0K34Z","","479","img/flower3.png","74","481","1","1","2","2","1,0,0,1,1,0,1,0,1","0,0,1,1,0,1,0,1,1","2",""
"","html-keyboard-response","151","109307","0.0-151.0","33FBRBDW6PLDQ8HU5ZAHD8XUVH48C9","A3BWZ6V34W8SXX","382GHPVPHSDM8N0F9141EAH7F0K34Z","","null","<img src=""img/flower3.png"" style=""width:200px; border:14px solid green;"">","null","","","","","","","","",""
"","image-keyboard-response","152","110001","0.0-152.0","33FBRBDW6PLDQ8HU5ZAHD8XUVH48C9","A3BWZ6V34W8SXX","382GHPVPHSDM8N0F9141EAH7F0K34Z","","693","img/flower1.png","75","695","2","1","3","2","1,0,0,1,1,0,1,0,1","0,0,1,1,0,1,0,1,1","2",""
"","html-keyboard-response","153","110315","0.0-153.0","33FBRBDW6PLDQ8HU5ZAHD8XUVH48C9","A3BWZ6V34W8SXX","382GHPVPHSDM8N0F9141EAH7F0K34Z","","null","<img src=""img/flower1.png"" style=""width:200px; border:14px solid green;"">","null","","","","","","","","",""
"","image-keyboard-response","154","110740","0.0-154.0","33FBRBDW6PLDQ8HU5ZAHD8XUVH48C9","A3BWZ6V34W8SXX","382GHPVPHSDM8N0F9141EAH7F0K34Z","","424","img/flower1.png","75","425","2","1","3","2","1,0,0,1,1,0,1,0,1","0,0,1,1,0,1,0,1,1","2",""
"","html-keyboard-response","155","111049","0.0-155.0","33FBRBDW6PLDQ8HU5ZAHD8XUVH48C9","A3BWZ6V34W8SXX","382GHPVPHSDM8N0F9141EAH7F0K34Z","","null","<img src=""img/flower1.png"" style=""width:200px; border:14px solid green;"">","null","","","","","","","","",""
"","image-keyboard-response","156","111501","0.0-156.0","33FBRBDW6PLDQ8HU5ZAHD8XUVH48C9","A3BWZ6V34W8SXX","382GHPVPHSDM8N0F9141EAH7F0K34Z","","450","img/flower1.png","75","451","2","1","3","2","1,0,0,1,1,0,1,0,1","0,0,1,1,0,1,0,1,1","2",""
"","html-keyboard-response","157","111817","0.0-157.0","33FBRBDW6PLDQ8HU5ZAHD8XUVH48C9","A3BWZ6V34W8SXX","382GHPVPHSDM8N0F9141EAH7F0K34Z","","null","<img src=""img/flower1.png"" style=""width:200px; border:14px solid green;"">","null","","","","","","","","",""
"","image-keyboard-response","158","112659","0.0-158.0","33FBRBDW6PLDQ8HU5ZAHD8XUVH48C9","A3BWZ6V34W8SXX","382GHPVPHSDM8N0F9141EAH7F0K34Z","","842","img/flower4.png","76","842","3","1","1","2","1,0,0,1,1,0,1,0,1","0,0,1,1,0,1,0,1,1","2",""
"","html-keyboard-response","159","112961","0.0-159.0","33FBRBDW6PLDQ8HU5ZAHD8XUVH48C9","A3BWZ6V34W8SXX","382GHPVPHSDM8N0F9141EAH7F0K34Z","","null","<img src=""img/flower4.png"" style=""width:200px; border:14px solid green;"">","null","","","","","","","","",""
"","image-keyboard-response","160","113373","0.0-160.0","33FBRBDW6PLDQ8HU5ZAHD8XUVH48C9","A3BWZ6V34W8SXX","382GHPVPHSDM8N0F9141EAH7F0K34Z","","411","img/flower4.png","76","412","3","1","1","2","1,0,0,1,1,0,1,0,1","0,0,1,1,0,1,0,1,1","2",""
"","html-keyboard-response","161","113679","0.0-161.0","33FBRBDW6PLDQ8HU5ZAHD8XUVH48C9","A3BWZ6V34W8SXX","382GHPVPHSDM8N0F9141EAH7F0K34Z","","null","<img src=""img/flower4.png"" style=""width:200px; border:14px solid green;"">","null","","","","","","","","",""
"","image-keyboard-response","162","114571","0.0-162.0","33FBRBDW6PLDQ8HU5ZAHD8XUVH48C9","A3BWZ6V34W8SXX","382GHPVPHSDM8N0F9141EAH7F0K34Z","","891","img/flower1.png","75","892","2","1","3","2","1,0,0,1,1,0,1,0,1","0,0,1,1,0,1,0,1,1","2",""
"","html-keyboard-response","163","114880","0.0-163.0","33FBRBDW6PLDQ8HU5ZAHD8XUVH48C9","A3BWZ6V34W8SXX","382GHPVPHSDM8N0F9141EAH7F0K34Z","","null","<img src=""img/flower1.png"" style=""width:200px; border:14px solid green;"">","null","","","","","","","","",""
"","image-keyboard-response","164","115582","0.0-164.0","33FBRBDW6PLDQ8HU5ZAHD8XUVH48C9","A3BWZ6V34W8SXX","382GHPVPHSDM8N0F9141EAH7F0K34Z","","701","img/flower4.png","76","701","3","1","1","2","1,0,0,1,1,0,1,0,1","0,0,1,1,0,1,0,1,1","2",""
"","html-keyboard-response","165","115884","0.0-165.0","33FBRBDW6PLDQ8HU5ZAHD8XUVH48C9","A3BWZ6V34W8SXX","382GHPVPHSDM8N0F9141EAH7F0K34Z","","null","<img src=""img/flower4.png"" style=""width:200px; border:14px solid green;"">","null","","","","","","","","",""
"","image-keyboard-response","166","116557","0.0-166.0","33FBRBDW6PLDQ8HU5ZAHD8XUVH48C9","A3BWZ6V34W8SXX","382GHPVPHSDM8N0F9141EAH7F0K34Z","","671","img/flower3.png","74","673","1","1","2","2","1,0,0,1,1,0,1,0,1","0,0,1,1,0,1,0,1,1","2",""
"","html-keyboard-response","167","116876","0.0-167.0","33FBRBDW6PLDQ8HU5ZAHD8XUVH48C9","A3BWZ6V34W8SXX","382GHPVPHSDM8N0F9141EAH7F0K34Z","","null","<img src=""img/flower3.png"" style=""width:200px; border:14px solid green;"">","null","","","","","","","","",""
"","image-keyboard-response","168","117572","0.0-168.0","33FBRBDW6PLDQ8HU5ZAHD8XUVH48C9","A3BWZ6V34W8SXX","382GHPVPHSDM8N0F9141EAH7F0K34Z","","694","img/flower1.png","75","696","2","1","3","2","1,0,0,1,1,0,1,0,1","0,0,1,1,0,1,0,1,1","2",""
"","html-keyboard-response","169","117884","0.0-169.0","33FBRBDW6PLDQ8HU5ZAHD8XUVH48C9","A3BWZ6V34W8SXX","382GHPVPHSDM8N0F9141EAH7F0K34Z","","null","<img src=""img/flower1.png"" style=""width:200px; border:14px solid green;"">","null","","","","","","","","",""
"","image-keyboard-response","170","118352","0.0-170.0","33FBRBDW6PLDQ8HU5ZAHD8XUVH48C9","A3BWZ6V34W8SXX","382GHPVPHSDM8N0F9141EAH7F0K34Z","","466","img/flower1.png","74","467","1","0","3","2","1,0,0,1,1,0,1,0,1","0,0,1,1,0,1,0,1,1","2",""
"","html-keyboard-response","171","118664","0.0-171.0","33FBRBDW6PLDQ8HU5ZAHD8XUVH48C9","A3BWZ6V34W8SXX","382GHPVPHSDM8N0F9141EAH7F0K34Z","","null","<img src=""img/flower1.png"" style=""width:200px;border:14px solid red;"">","null","","","","","","","","",""
"","image-keyboard-response","172","119264","0.0-172.0","33FBRBDW6PLDQ8HU5ZAHD8XUVH48C9","A3BWZ6V34W8SXX","382GHPVPHSDM8N0F9141EAH7F0K34Z","","597","img/flower1.png","75","599","2","1","3","2","1,0,0,1,1,0,1,0,1","0,0,1,1,0,1,0,1,1","2",""
"","html-keyboard-response","173","119578","0.0-173.0","33FBRBDW6PLDQ8HU5ZAHD8XUVH48C9","A3BWZ6V34W8SXX","382GHPVPHSDM8N0F9141EAH7F0K34Z","","null","<img src=""img/flower1.png"" style=""width:200px; border:14px solid green;"">","null","","","","","","","","",""
"","image-keyboard-response","174","120423","0.0-174.0","33FBRBDW6PLDQ8HU5ZAHD8XUVH48C9","A3BWZ6V34W8SXX","382GHPVPHSDM8N0F9141EAH7F0K34Z","","843","img/flower4.png","76","845","3","1","1","2","1,0,0,1,1,0,1,0,1","0,0,1,1,0,1,0,1,1","2",""
"","html-keyboard-response","175","120727","0.0-175.0","33FBRBDW6PLDQ8HU5ZAHD8XUVH48C9","A3BWZ6V34W8SXX","382GHPVPHSDM8N0F9141EAH7F0K34Z","","null","<img src=""img/flower4.png"" style=""width:200px; border:14px solid green;"">","null","","","","","","","","",""
"","image-keyboard-response","176","121181","0.0-176.0","33FBRBDW6PLDQ8HU5ZAHD8XUVH48C9","A3BWZ6V34W8SXX","382GHPVPHSDM8N0F9141EAH7F0K34Z","","452","img/flower4.png","76","454","3","1","1","2","1,0,0,1,1,0,1,0,1","0,0,1,1,0,1,0,1,1","2",""
"","html-keyboard-response","177","121495","0.0-177.0","33FBRBDW6PLDQ8HU5ZAHD8XUVH48C9","A3BWZ6V34W8SXX","382GHPVPHSDM8N0F9141EAH7F0K34Z","","null","<img src=""img/flower4.png"" style=""width:200px; border:14px solid green;"">","null","","","","","","","","",""
"","image-keyboard-response","178","122234","0.0-178.0","33FBRBDW6PLDQ8HU5ZAHD8XUVH48C9","A3BWZ6V34W8SXX","382GHPVPHSDM8N0F9141EAH7F0K34Z","","737","img/flower1.png","75","738","2","1","3","2","1,0,0,1,1,0,1,0,1","0,0,1,1,0,1,0,1,1","2",""
"","html-keyboard-response","179","122535","0.0-179.0","33FBRBDW6PLDQ8HU5ZAHD8XUVH48C9","A3BWZ6V34W8SXX","382GHPVPHSDM8N0F9141EAH7F0K34Z","","null","<img src=""img/flower1.png"" style=""width:200px; border:14px solid green;"">","null","","","","","","","","",""
"","image-keyboard-response","180","123286","0.0-180.0","33FBRBDW6PLDQ8HU5ZAHD8XUVH48C9","A3BWZ6V34W8SXX","382GHPVPHSDM8N0F9141EAH7F0K34Z","","748","img/flower3.png","74","750","1","1","2","2","1,0,0,1,1,0,1,0,1","0,0,1,1,0,1,0,1,1","2",""
"","html-keyboard-response","181","123589","0.0-181.0","33FBRBDW6PLDQ8HU5ZAHD8XUVH48C9","A3BWZ6V34W8SXX","382GHPVPHSDM8N0F9141EAH7F0K34Z","","null","<img src=""img/flower3.png"" style=""width:200px; border:14px solid green;"">","null","","","","","","","","",""
"","image-keyboard-response","182","125003","0.0-182.0","33FBRBDW6PLDQ8HU5ZAHD8XUVH48C9","A3BWZ6V34W8SXX","382GHPVPHSDM8N0F9141EAH7F0K34Z","","1414","img/flower6.png","74","1414","1","1","1","1","1,0.333,0.333,0.333,1,0.333,0.333,0.333,1","1,0.333,0.333,0.333,1,0.333,0.333,0.333,1","1",""
"","html-keyboard-response","183","125313","0.0-183.0","33FBRBDW6PLDQ8HU5ZAHD8XUVH48C9","A3BWZ6V34W8SXX","382GHPVPHSDM8N0F9141EAH7F0K34Z","","null","<img src=""img/flower6.png"" style=""width:200px; border:14px solid green;"">","null","","","","","","","","",""
"","image-keyboard-response","184","126044","0.0-184.0","33FBRBDW6PLDQ8HU5ZAHD8XUVH48C9","A3BWZ6V34W8SXX","382GHPVPHSDM8N0F9141EAH7F0K34Z","","730","img/flower2.png","74","730","1","0","3","1","1,0.333,0.333,0.333,1,0.333,0.333,0.333,1","1,0.333,0.333,0.333,1,0.333,0.333,0.333,1","1",""
"","html-keyboard-response","185","126352","0.0-185.0","33FBRBDW6PLDQ8HU5ZAHD8XUVH48C9","A3BWZ6V34W8SXX","382GHPVPHSDM8N0F9141EAH7F0K34Z","","null","<img src=""img/flower2.png"" style=""width:200px;border:14px solid red;"">","null","","","","","","","","",""
"","image-keyboard-response","186","127112","0.0-186.0","33FBRBDW6PLDQ8HU5ZAHD8XUVH48C9","A3BWZ6V34W8SXX","382GHPVPHSDM8N0F9141EAH7F0K34Z","","758","img/flower6.png","74","760","1","1","1","1","1,0.333,0.333,0.333,1,0.333,0.333,0.333,1","1,0.333,0.333,0.333,1,0.333,0.333,0.333,1","1",""
"","html-keyboard-response","187","127422","0.0-187.0","33FBRBDW6PLDQ8HU5ZAHD8XUVH48C9","A3BWZ6V34W8SXX","382GHPVPHSDM8N0F9141EAH7F0K34Z","","null","<img src=""img/flower6.png"" style=""width:200px; border:14px solid green;"">","null","","","","","","","","",""
"","image-keyboard-response","188","127855","0.0-188.0","33FBRBDW6PLDQ8HU5ZAHD8XUVH48C9","A3BWZ6V34W8SXX","382GHPVPHSDM8N0F9141EAH7F0K34Z","","431","img/flower2.png","75","432","2","1","3","1","1,0.333,0.333,0.333,1,0.333,0.333,0.333,1","1,0.333,0.333,0.333,1,0.333,0.333,0.333,1","1",""
"","html-keyboard-response","189","128156","0.0-189.0","33FBRBDW6PLDQ8HU5ZAHD8XUVH48C9","A3BWZ6V34W8SXX","382GHPVPHSDM8N0F9141EAH7F0K34Z","","null","<img src=""img/flower2.png"" style=""width:200px; border:14px solid green;"">","null","","","","","","","","",""
"","image-keyboard-response","190","128779","0.0-190.0","33FBRBDW6PLDQ8HU5ZAHD8XUVH48C9","A3BWZ6V34W8SXX","382GHPVPHSDM8N0F9141EAH7F0K34Z","","620","img/flower6.png","74","622","1","1","1","1","1,0.333,0.333,0.333,1,0.333,0.333,0.333,1","1,0.333,0.333,0.333,1,0.333,0.333,0.333,1","1",""
"","html-keyboard-response","191","129114","0.0-191.0","33FBRBDW6PLDQ8HU5ZAHD8XUVH48C9","A3BWZ6V34W8SXX","382GHPVPHSDM8N0F9141EAH7F0K34Z","","null","<img src=""img/flower6.png"" style=""width:200px; border:14px solid green;"">","null","","","","","","","","",""
"","image-keyboard-response","192","129562","0.0-192.0","33FBRBDW6PLDQ8HU5ZAHD8XUVH48C9","A3BWZ6V34W8SXX","382GHPVPHSDM8N0F9141EAH7F0K34Z","","447","img/flower2.png","75","448","2","1","3","1","1,0.333,0.333,0.333,1,0.333,0.333,0.333,1","1,0.333,0.333,0.333,1,0.333,0.333,0.333,1","1",""
"","html-keyboard-response","193","129867","0.0-193.0","33FBRBDW6PLDQ8HU5ZAHD8XUVH48C9","A3BWZ6V34W8SXX","382GHPVPHSDM8N0F9141EAH7F0K34Z","","null","<img src=""img/flower2.png"" style=""width:200px; border:14px solid green;"">","null","","","","","","","","",""
"","image-keyboard-response","194","130483","0.0-194.0","33FBRBDW6PLDQ8HU5ZAHD8XUVH48C9","A3BWZ6V34W8SXX","382GHPVPHSDM8N0F9141EAH7F0K34Z","","615","img/flower5.png","76","616","3","0","2","1","1,0.333,0.333,0.333,1,0.333,0.333,0.333,1","1,0.333,0.333,0.333,1,0.333,0.333,0.333,1","1",""
"","html-keyboard-response","195","130790","0.0-195.0","33FBRBDW6PLDQ8HU5ZAHD8XUVH48C9","A3BWZ6V34W8SXX","382GHPVPHSDM8N0F9141EAH7F0K34Z","","null","<img src=""img/flower5.png"" style=""width:200px;border:14px solid red;"">","null","","","","","","","","",""
"","image-keyboard-response","196","131500","0.0-196.0","33FBRBDW6PLDQ8HU5ZAHD8XUVH48C9","A3BWZ6V34W8SXX","382GHPVPHSDM8N0F9141EAH7F0K34Z","","709","img/flower6.png","74","710","1","1","1","1","1,0.333,0.333,0.333,1,0.333,0.333,0.333,1","1,0.333,0.333,0.333,1,0.333,0.333,0.333,1","1",""
"","html-keyboard-response","197","131807","0.0-197.0","33FBRBDW6PLDQ8HU5ZAHD8XUVH48C9","A3BWZ6V34W8SXX","382GHPVPHSDM8N0F9141EAH7F0K34Z","","null","<img src=""img/flower6.png"" style=""width:200px; border:14px solid green;"">","null","","","","","","","","",""
"","image-keyboard-response","198","132402","0.0-198.0","33FBRBDW6PLDQ8HU5ZAHD8XUVH48C9","A3BWZ6V34W8SXX","382GHPVPHSDM8N0F9141EAH7F0K34Z","","594","img/flower2.png","75","595","2","1","3","1","1,0.333,0.333,0.333,1,0.333,0.333,0.333,1","1,0.333,0.333,0.333,1,0.333,0.333,0.333,1","1",""
"","html-keyboard-response","199","132718","0.0-199.0","33FBRBDW6PLDQ8HU5ZAHD8XUVH48C9","A3BWZ6V34W8SXX","382GHPVPHSDM8N0F9141EAH7F0K34Z","","null","<img src=""img/flower2.png"" style=""width:200px; border:14px solid green;"">","null","","","","","","","","",""
"","image-keyboard-response","200","133119","0.0-200.0","33FBRBDW6PLDQ8HU5ZAHD8XUVH48C9","A3BWZ6V34W8SXX","382GHPVPHSDM8N0F9141EAH7F0K34Z","","400","img/flower2.png","75","401","2","0","3","1","1,0.333,0.333,0.333,1,0.333,0.333,0.333,1","1,0.333,0.333,0.333,1,0.333,0.333,0.333,1","1",""
"","html-keyboard-response","201","133434","0.0-201.0","33FBRBDW6PLDQ8HU5ZAHD8XUVH48C9","A3BWZ6V34W8SXX","382GHPVPHSDM8N0F9141EAH7F0K34Z","","null","<img src=""img/flower2.png"" style=""width:200px;border:14px solid red;"">","null","","","","","","","","",""
"","image-keyboard-response","202","134067","0.0-202.0","33FBRBDW6PLDQ8HU5ZAHD8XUVH48C9","A3BWZ6V34W8SXX","382GHPVPHSDM8N0F9141EAH7F0K34Z","","631","img/flower6.png","74","632","1","1","1","1","1,0.333,0.333,0.333,1,0.333,0.333,0.333,1","1,0.333,0.333,0.333,1,0.333,0.333,0.333,1","1",""
"","html-keyboard-response","203","134376","0.0-203.0","33FBRBDW6PLDQ8HU5ZAHD8XUVH48C9","A3BWZ6V34W8SXX","382GHPVPHSDM8N0F9141EAH7F0K34Z","","null","<img src=""img/flower6.png"" style=""width:200px; border:14px solid green;"">","null","","","","","","","","",""
"","image-keyboard-response","204","134779","0.0-204.0","33FBRBDW6PLDQ8HU5ZAHD8XUVH48C9","A3BWZ6V34W8SXX","382GHPVPHSDM8N0F9141EAH7F0K34Z","","401","img/flower6.png","74","402","1","1","1","1","1,0.333,0.333,0.333,1,0.333,0.333,0.333,1","1,0.333,0.333,0.333,1,0.333,0.333,0.333,1","1",""
"","html-keyboard-response","205","135080","0.0-205.0","33FBRBDW6PLDQ8HU5ZAHD8XUVH48C9","A3BWZ6V34W8SXX","382GHPVPHSDM8N0F9141EAH7F0K34Z","","null","<img src=""img/flower6.png"" style=""width:200px; border:14px solid green;"">","null","","","","","","","","",""
"","image-keyboard-response","206","135662","0.0-206.0","33FBRBDW6PLDQ8HU5ZAHD8XUVH48C9","A3BWZ6V34W8SXX","382GHPVPHSDM8N0F9141EAH7F0K34Z","","579","img/flower2.png","75","581","2","0","3","1","1,0.333,0.333,0.333,1,0.333,0.333,0.333,1","1,0.333,0.333,0.333,1,0.333,0.333,0.333,1","1",""
"","html-keyboard-response","207","135970","0.0-207.0","33FBRBDW6PLDQ8HU5ZAHD8XUVH48C9","A3BWZ6V34W8SXX","382GHPVPHSDM8N0F9141EAH7F0K34Z","","null","<img src=""img/flower2.png"" style=""width:200px;border:14px solid red;"">","null","","","","","","","","",""
"","image-keyboard-response","208","136742","0.0-208.0","33FBRBDW6PLDQ8HU5ZAHD8XUVH48C9","A3BWZ6V34W8SXX","382GHPVPHSDM8N0F9141EAH7F0K34Z","","770","img/flower6.png","74","772","1","1","1","1","1,0.333,0.333,0.333,1,0.333,0.333,0.333,1","1,0.333,0.333,0.333,1,0.333,0.333,0.333,1","1",""
"","html-keyboard-response","209","137059","0.0-209.0","33FBRBDW6PLDQ8HU5ZAHD8XUVH48C9","A3BWZ6V34W8SXX","382GHPVPHSDM8N0F9141EAH7F0K34Z","","null","<img src=""img/flower6.png"" style=""width:200px; border:14px solid green;"">","null","","","","","","","","",""
"","image-keyboard-response","210","137870","0.0-210.0","33FBRBDW6PLDQ8HU5ZAHD8XUVH48C9","A3BWZ6V34W8SXX","382GHPVPHSDM8N0F9141EAH7F0K34Z","","807","img/flower5.png","76","810","3","0","2","1","1,0.333,0.333,0.333,1,0.333,0.333,0.333,1","1,0.333,0.333,0.333,1,0.333,0.333,0.333,1","1",""
"","html-keyboard-response","211","138178","0.0-211.0","33FBRBDW6PLDQ8HU5ZAHD8XUVH48C9","A3BWZ6V34W8SXX","382GHPVPHSDM8N0F9141EAH7F0K34Z","","null","<img src=""img/flower5.png"" style=""width:200px;border:14px solid red;"">","null","","","","","","","","",""
"","image-keyboard-response","212","138943","0.0-212.0","33FBRBDW6PLDQ8HU5ZAHD8XUVH48C9","A3BWZ6V34W8SXX","382GHPVPHSDM8N0F9141EAH7F0K34Z","","764","img/flower5.png","75","765","2","1","2","1","1,0.333,0.333,0.333,1,0.333,0.333,0.333,1","1,0.333,0.333,0.333,1,0.333,0.333,0.333,1","1",""
"","html-keyboard-response","213","139246","0.0-213.0","33FBRBDW6PLDQ8HU5ZAHD8XUVH48C9","A3BWZ6V34W8SXX","382GHPVPHSDM8N0F9141EAH7F0K34Z","","null","<img src=""img/flower5.png"" style=""width:200px; border:14px solid green;"">","null","","","","","","","","",""
"","image-keyboard-response","214","140125","0.0-214.0","33FBRBDW6PLDQ8HU5ZAHD8XUVH48C9","A3BWZ6V34W8SXX","382GHPVPHSDM8N0F9141EAH7F0K34Z","","877","img/flower6.png","74","878","1","1","1","1","1,0.333,0.333,0.333,1,0.333,0.333,0.333,1","1,0.333,0.333,0.333,1,0.333,0.333,0.333,1","1",""
"","html-keyboard-response","215","140446","0.0-215.0","33FBRBDW6PLDQ8HU5ZAHD8XUVH48C9","A3BWZ6V34W8SXX","382GHPVPHSDM8N0F9141EAH7F0K34Z","","null","<img src=""img/flower6.png"" style=""width:200px; border:14px solid green;"">","null","","","","","","","","",""
"","image-keyboard-response","216","140966","0.0-216.0","33FBRBDW6PLDQ8HU5ZAHD8XUVH48C9","A3BWZ6V34W8SXX","382GHPVPHSDM8N0F9141EAH7F0K34Z","","518","img/flower6.png","74","519","1","1","1","1","1,0.333,0.333,0.333,1,0.333,0.333,0.333,1","1,0.333,0.333,0.333,1,0.333,0.333,0.333,1","1",""
"","html-keyboard-response","217","141272","0.0-217.0","33FBRBDW6PLDQ8HU5ZAHD8XUVH48C9","A3BWZ6V34W8SXX","382GHPVPHSDM8N0F9141EAH7F0K34Z","","null","<img src=""img/flower6.png"" style=""width:200px; border:14px solid green;"">","null","","","","","","","","",""
"","image-keyboard-response","218","142273","0.0-218.0","33FBRBDW6PLDQ8HU5ZAHD8XUVH48C9","A3BWZ6V34W8SXX","382GHPVPHSDM8N0F9141EAH7F0K34Z","","998","img/flower2.png","74","1000","1","0","3","1","1,0.333,0.333,0.333,1,0.333,0.333,0.333,1","1,0.333,0.333,0.333,1,0.333,0.333,0.333,1","1",""
"","html-keyboard-response","219","142579","0.0-219.0","33FBRBDW6PLDQ8HU5ZAHD8XUVH48C9","A3BWZ6V34W8SXX","382GHPVPHSDM8N0F9141EAH7F0K34Z","","null","<img src=""img/flower2.png"" style=""width:200px;border:14px solid red;"">","null","","","","","","","","",""
"","image-keyboard-response","220","143111","0.0-220.0","33FBRBDW6PLDQ8HU5ZAHD8XUVH48C9","A3BWZ6V34W8SXX","382GHPVPHSDM8N0F9141EAH7F0K34Z","","529","img/flower6.png","75","530","2","0","1","1","1,0.333,0.333,0.333,1,0.333,0.333,0.333,1","1,0.333,0.333,0.333,1,0.333,0.333,0.333,1","1",""
"","html-keyboard-response","221","143417","0.0-221.0","33FBRBDW6PLDQ8HU5ZAHD8XUVH48C9","A3BWZ6V34W8SXX","382GHPVPHSDM8N0F9141EAH7F0K34Z","","null","<img src=""img/flower6.png"" style=""width:200px;border:14px solid red;"">","null","","","","","","","","",""
"","image-keyboard-response","222","143871","0.0-222.0","33FBRBDW6PLDQ8HU5ZAHD8XUVH48C9","A3BWZ6V34W8SXX","382GHPVPHSDM8N0F9141EAH7F0K34Z","","452","img/flower6.png","74","453","1","1","1","1","1,0.333,0.333,0.333,1,0.333,0.333,0.333,1","1,0.333,0.333,0.333,1,0.333,0.333,0.333,1","1",""
"","html-keyboard-response","223","144185","0.0-223.0","33FBRBDW6PLDQ8HU5ZAHD8XUVH48C9","A3BWZ6V34W8SXX","382GHPVPHSDM8N0F9141EAH7F0K34Z","","null","<img src=""img/flower6.png"" style=""width:200px; border:14px solid green;"">","null","","","","","","","","",""
"","image-keyboard-response","224","145030","0.0-224.0","33FBRBDW6PLDQ8HU5ZAHD8XUVH48C9","A3BWZ6V34W8SXX","382GHPVPHSDM8N0F9141EAH7F0K34Z","","843","img/flower5.png","75","845","2","1","2","1","1,0.333,0.333,0.333,1,0.333,0.333,0.333,1","1,0.333,0.333,0.333,1,0.333,0.333,0.333,1","1",""
"","html-keyboard-response","225","145335","0.0-225.0","33FBRBDW6PLDQ8HU5ZAHD8XUVH48C9","A3BWZ6V34W8SXX","382GHPVPHSDM8N0F9141EAH7F0K34Z","","null","<img src=""img/flower5.png"" style=""width:200px; border:14px solid green;"">","null","","","","","","","","",""
"","image-keyboard-response","226","146546","0.0-226.0","33FBRBDW6PLDQ8HU5ZAHD8XUVH48C9","A3BWZ6V34W8SXX","382GHPVPHSDM8N0F9141EAH7F0K34Z","","1209","img/flower2.png","75","1211","2","0","3","1","1,0.333,0.333,0.333,1,0.333,0.333,0.333,1","1,0.333,0.333,0.333,1,0.333,0.333,0.333,1","1",""
"","html-keyboard-response","227","146852","0.0-227.0","33FBRBDW6PLDQ8HU5ZAHD8XUVH48C9","A3BWZ6V34W8SXX","382GHPVPHSDM8N0F9141EAH7F0K34Z","","null","<img src=""img/flower2.png"" style=""width:200px;border:14px solid red;"">","null","","","","","","","","",""
"","image-keyboard-response","228","147548","0.0-228.0","33FBRBDW6PLDQ8HU5ZAHD8XUVH48C9","A3BWZ6V34W8SXX","382GHPVPHSDM8N0F9141EAH7F0K34Z","","694","img/flower6.png","74","696","1","1","1","1","1,0.333,0.333,0.333,1,0.333,0.333,0.333,1","1,0.333,0.333,0.333,1,0.333,0.333,0.333,1","1",""
"","html-keyboard-response","229","147860","0.0-229.0","33FBRBDW6PLDQ8HU5ZAHD8XUVH48C9","A3BWZ6V34W8SXX","382GHPVPHSDM8N0F9141EAH7F0K34Z","","null","<img src=""img/flower6.png"" style=""width:200px; border:14px solid green;"">","null","","","","","","","","",""
"","image-keyboard-response","230","149426","0.0-230.0","33FBRBDW6PLDQ8HU5ZAHD8XUVH48C9","A3BWZ6V34W8SXX","382GHPVPHSDM8N0F9141EAH7F0K34Z","","1565","img/flower5.png","75","1566","2","1","2","1","1,0.333,0.333,0.333,1,0.333,0.333,0.333,1","1,0.333,0.333,0.333,1,0.333,0.333,0.333,1","1",""
"","html-keyboard-response","231","149729","0.0-231.0","33FBRBDW6PLDQ8HU5ZAHD8XUVH48C9","A3BWZ6V34W8SXX","382GHPVPHSDM8N0F9141EAH7F0K34Z","","null","<img src=""img/flower5.png"" style=""width:200px; border:14px solid green;"">","null","","","","","","","","",""
"","image-keyboard-response","232","150353","0.0-232.0","33FBRBDW6PLDQ8HU5ZAHD8XUVH48C9","A3BWZ6V34W8SXX","382GHPVPHSDM8N0F9141EAH7F0K34Z","","623","img/flower2.png","76","624","3","1","3","1","1,0.333,0.333,0.333,1,0.333,0.333,0.333,1","1,0.333,0.333,0.333,1,0.333,0.333,0.333,1","1",""
"","html-keyboard-response","233","150655","0.0-233.0","33FBRBDW6PLDQ8HU5ZAHD8XUVH48C9","A3BWZ6V34W8SXX","382GHPVPHSDM8N0F9141EAH7F0K34Z","","null","<img src=""img/flower2.png"" style=""width:200px; border:14px solid green;"">","null","","","","","","","","",""
"","image-keyboard-response","234","151084","0.0-234.0","33FBRBDW6PLDQ8HU5ZAHD8XUVH48C9","A3BWZ6V34W8SXX","382GHPVPHSDM8N0F9141EAH7F0K34Z","","428","img/flower2.png","76","429","3","1","3","1","1,0.333,0.333,0.333,1,0.333,0.333,0.333,1","1,0.333,0.333,0.333,1,0.333,0.333,0.333,1","1",""
"","html-keyboard-response","235","151391","0.0-235.0","33FBRBDW6PLDQ8HU5ZAHD8XUVH48C9","A3BWZ6V34W8SXX","382GHPVPHSDM8N0F9141EAH7F0K34Z","","null","<img src=""img/flower2.png"" style=""width:200px; border:14px solid green;"">","null","","","","","","","","",""
"","image-keyboard-response","236","151953","0.0-236.0","33FBRBDW6PLDQ8HU5ZAHD8XUVH48C9","A3BWZ6V34W8SXX","382GHPVPHSDM8N0F9141EAH7F0K34Z","","560","img/flower2.png","76","561","3","1","3","1","1,0.333,0.333,0.333,1,0.333,0.333,0.333,1","1,0.333,0.333,0.333,1,0.333,0.333,0.333,1","1",""
"","html-keyboard-response","237","152261","0.0-237.0","33FBRBDW6PLDQ8HU5ZAHD8XUVH48C9","A3BWZ6V34W8SXX","382GHPVPHSDM8N0F9141EAH7F0K34Z","","null","<img src=""img/flower2.png"" style=""width:200px; border:14px solid green;"">","null","","","","","","","","",""
"","image-keyboard-response","238","152711","0.0-238.0","33FBRBDW6PLDQ8HU5ZAHD8XUVH48C9","A3BWZ6V34W8SXX","382GHPVPHSDM8N0F9141EAH7F0K34Z","","447","img/flower2.png","76","449","3","1","3","1","1,0.333,0.333,0.333,1,0.333,0.333,0.333,1","1,0.333,0.333,0.333,1,0.333,0.333,0.333,1","1",""
"","html-keyboard-response","239","153026","0.0-239.0","33FBRBDW6PLDQ8HU5ZAHD8XUVH48C9","A3BWZ6V34W8SXX","382GHPVPHSDM8N0F9141EAH7F0K34Z","","null","<img src=""img/flower2.png"" style=""width:200px; border:14px solid green;"">","null","","","","","","","","",""
"","image-keyboard-response","240","153725","0.0-240.0","33FBRBDW6PLDQ8HU5ZAHD8XUVH48C9","A3BWZ6V34W8SXX","382GHPVPHSDM8N0F9141EAH7F0K34Z","","696","img/flower6.png","74","697","1","1","1","1","1,0.333,0.333,0.333,1,0.333,0.333,0.333,1","1,0.333,0.333,0.333,1,0.333,0.333,0.333,1","1",""
"","html-keyboard-response","241","154031","0.0-241.0","33FBRBDW6PLDQ8HU5ZAHD8XUVH48C9","A3BWZ6V34W8SXX","382GHPVPHSDM8N0F9141EAH7F0K34Z","","null","<img src=""img/flower6.png"" style=""width:200px; border:14px solid green;"">","null","","","","","","","","",""
"","image-keyboard-response","242","154504","0.0-242.0","33FBRBDW6PLDQ8HU5ZAHD8XUVH48C9","A3BWZ6V34W8SXX","382GHPVPHSDM8N0F9141EAH7F0K34Z","","472","img/flower6.png","74","473","1","1","1","1","1,0.333,0.333,0.333,1,0.333,0.333,0.333,1","1,0.333,0.333,0.333,1,0.333,0.333,0.333,1","1",""
"","html-keyboard-response","243","154812","0.0-243.0","33FBRBDW6PLDQ8HU5ZAHD8XUVH48C9","A3BWZ6V34W8SXX","382GHPVPHSDM8N0F9141EAH7F0K34Z","","null","<img src=""img/flower6.png"" style=""width:200px; border:14px solid green;"">","null","","","","","","","","",""
"","image-keyboard-response","244","155372","0.0-244.0","33FBRBDW6PLDQ8HU5ZAHD8XUVH48C9","A3BWZ6V34W8SXX","382GHPVPHSDM8N0F9141EAH7F0K34Z","","559","img/flower6.png","74","560","1","1","1","1","1,0.333,0.333,0.333,1,0.333,0.333,0.333,1","1,0.333,0.333,0.333,1,0.333,0.333,0.333,1","1",""
"","html-keyboard-response","245","155674","0.0-245.0","33FBRBDW6PLDQ8HU5ZAHD8XUVH48C9","A3BWZ6V34W8SXX","382GHPVPHSDM8N0F9141EAH7F0K34Z","","null","<img src=""img/flower6.png"" style=""width:200px; border:14px solid green;"">","null","","","","","","","","",""
"","image-keyboard-response","246","156191","0.0-246.0","33FBRBDW6PLDQ8HU5ZAHD8XUVH48C9","A3BWZ6V34W8SXX","382GHPVPHSDM8N0F9141EAH7F0K34Z","","515","img/flower6.png","74","516","1","1","1","1","1,0.333,0.333,0.333,1,0.333,0.333,0.333,1","1,0.333,0.333,0.333,1,0.333,0.333,0.333,1","1",""
"","html-keyboard-response","247","156503","0.0-247.0","33FBRBDW6PLDQ8HU5ZAHD8XUVH48C9","A3BWZ6V34W8SXX","382GHPVPHSDM8N0F9141EAH7F0K34Z","","null","<img src=""img/flower6.png"" style=""width:200px; border:14px solid green;"">","null","","","","","","","","",""
"","image-keyboard-response","248","157396","0.0-248.0","33FBRBDW6PLDQ8HU5ZAHD8XUVH48C9","A3BWZ6V34W8SXX","382GHPVPHSDM8N0F9141EAH7F0K34Z","","891","img/flower5.png","75","892","2","1","2","1","1,0.333,0.333,0.333,1,0.333,0.333,0.333,1","1,0.333,0.333,0.333,1,0.333,0.333,0.333,1","1",""
"","html-keyboard-response","249","157697","0.0-249.0","33FBRBDW6PLDQ8HU5ZAHD8XUVH48C9","A3BWZ6V34W8SXX","382GHPVPHSDM8N0F9141EAH7F0K34Z","","null","<img src=""img/flower5.png"" style=""width:200px; border:14px solid green;"">","null","","","","","","","","",""
"","image-keyboard-response","250","158121","0.0-250.0","33FBRBDW6PLDQ8HU5ZAHD8XUVH48C9","A3BWZ6V34W8SXX","382GHPVPHSDM8N0F9141EAH7F0K34Z","","423","img/flower5.png","75","424","2","1","2","1","1,0.333,0.333,0.333,1,0.333,0.333,0.333,1","1,0.333,0.333,0.333,1,0.333,0.333,0.333,1","1",""
"","html-keyboard-response","251","158430","0.0-251.0","33FBRBDW6PLDQ8HU5ZAHD8XUVH48C9","A3BWZ6V34W8SXX","382GHPVPHSDM8N0F9141EAH7F0K34Z","","null","<img src=""img/flower5.png"" style=""width:200px; border:14px solid green;"">","null","","","","","","","","",""
"","image-keyboard-response","252","159053","0.0-252.0","33FBRBDW6PLDQ8HU5ZAHD8XUVH48C9","A3BWZ6V34W8SXX","382GHPVPHSDM8N0F9141EAH7F0K34Z","","621","img/flower6.png","74","622","1","1","1","1","1,0.333,0.333,0.333,1,0.333,0.333,0.333,1","1,0.333,0.333,0.333,1,0.333,0.333,0.333,1","1",""
"","html-keyboard-response","253","159358","0.0-253.0","33FBRBDW6PLDQ8HU5ZAHD8XUVH48C9","A3BWZ6V34W8SXX","382GHPVPHSDM8N0F9141EAH7F0K34Z","","null","<img src=""img/flower6.png"" style=""width:200px; border:14px solid green;"">","null","","","","","","","","",""
"","image-keyboard-response","254","159904","0.0-254.0","33FBRBDW6PLDQ8HU5ZAHD8XUVH48C9","A3BWZ6V34W8SXX","382GHPVPHSDM8N0F9141EAH7F0K34Z","","545","img/flower5.png","75","546","2","1","2","1","1,0.333,0.333,0.333,1,0.333,0.333,0.333,1","1,0.333,0.333,0.333,1,0.333,0.333,0.333,1","1",""
"","html-keyboard-response","255","160207","0.0-255.0","33FBRBDW6PLDQ8HU5ZAHD8XUVH48C9","A3BWZ6V34W8SXX","382GHPVPHSDM8N0F9141EAH7F0K34Z","","null","<img src=""img/flower5.png"" style=""width:200px; border:14px solid green;"">","null","","","","","","","","",""
"","image-keyboard-response","256","160982","0.0-256.0","33FBRBDW6PLDQ8HU5ZAHD8XUVH48C9","A3BWZ6V34W8SXX","382GHPVPHSDM8N0F9141EAH7F0K34Z","","773","img/flower6.png","74","775","1","1","1","1","1,0.333,0.333,0.333,1,0.333,0.333,0.333,1","1,0.333,0.333,0.333,1,0.333,0.333,0.333,1","1",""
"","html-keyboard-response","257","161293","0.0-257.0","33FBRBDW6PLDQ8HU5ZAHD8XUVH48C9","A3BWZ6V34W8SXX","382GHPVPHSDM8N0F9141EAH7F0K34Z","","null","<img src=""img/flower6.png"" style=""width:200px; border:14px solid green;"">","null","","","","","","","","",""
"","image-keyboard-response","258","161929","0.0-258.0","33FBRBDW6PLDQ8HU5ZAHD8XUVH48C9","A3BWZ6V34W8SXX","382GHPVPHSDM8N0F9141EAH7F0K34Z","","632","img/flower5.png","75","633","2","1","2","1","1,0.333,0.333,0.333,1,0.333,0.333,0.333,1","1,0.333,0.333,0.333,1,0.333,0.333,0.333,1","1",""
"","html-keyboard-response","259","162234","0.0-259.0","33FBRBDW6PLDQ8HU5ZAHD8XUVH48C9","A3BWZ6V34W8SXX","382GHPVPHSDM8N0F9141EAH7F0K34Z","","null","<img src=""img/flower5.png"" style=""width:200px; border:14px solid green;"">","null","","","","","","","","",""
"","image-keyboard-response","260","162721","0.0-260.0","33FBRBDW6PLDQ8HU5ZAHD8XUVH48C9","A3BWZ6V34W8SXX","382GHPVPHSDM8N0F9141EAH7F0K34Z","","484","img/flower6.png","74","485","1","1","1","1","1,0.333,0.333,0.333,1,0.333,0.333,0.333,1","1,0.333,0.333,0.333,1,0.333,0.333,0.333,1","1",""
"","html-keyboard-response","261","163034","0.0-261.0","33FBRBDW6PLDQ8HU5ZAHD8XUVH48C9","A3BWZ6V34W8SXX","382GHPVPHSDM8N0F9141EAH7F0K34Z","","null","<img src=""img/flower6.png"" style=""width:200px; border:14px solid green;"">","null","","","","","","","","",""
"","image-keyboard-response","262","163650","0.0-262.0","33FBRBDW6PLDQ8HU5ZAHD8XUVH48C9","A3BWZ6V34W8SXX","382GHPVPHSDM8N0F9141EAH7F0K34Z","","614","img/flower5.png","75","615","2","1","2","1","1,0.333,0.333,0.333,1,0.333,0.333,0.333,1","1,0.333,0.333,0.333,1,0.333,0.333,0.333,1","1",""
"","html-keyboard-response","263","163961","0.0-263.0","33FBRBDW6PLDQ8HU5ZAHD8XUVH48C9","A3BWZ6V34W8SXX","382GHPVPHSDM8N0F9141EAH7F0K34Z","","null","<img src=""img/flower5.png"" style=""width:200px; border:14px solid green;"">","null","","","","","","","","",""
"","image-keyboard-response","264","164664","0.0-264.0","33FBRBDW6PLDQ8HU5ZAHD8XUVH48C9","A3BWZ6V34W8SXX","382GHPVPHSDM8N0F9141EAH7F0K34Z","","702","img/flower2.png","76","703","3","1","3","1","1,0.333,0.333,0.333,1,0.333,0.333,0.333,1","1,0.333,0.333,0.333,1,0.333,0.333,0.333,1","1",""
"","html-keyboard-response","265","164966","0.0-265.0","33FBRBDW6PLDQ8HU5ZAHD8XUVH48C9","A3BWZ6V34W8SXX","382GHPVPHSDM8N0F9141EAH7F0K34Z","","null","<img src=""img/flower2.png"" style=""width:200px; border:14px solid green;"">","null","","","","","","","","",""
"","image-keyboard-response","266","165443","0.0-266.0","33FBRBDW6PLDQ8HU5ZAHD8XUVH48C9","A3BWZ6V34W8SXX","382GHPVPHSDM8N0F9141EAH7F0K34Z","","475","img/flower2.png","75","476","2","0","3","1","1,0.333,0.333,0.333,1,0.333,0.333,0.333,1","1,0.333,0.333,0.333,1,0.333,0.333,0.333,1","1",""
"","html-keyboard-response","267","165749","0.0-267.0","33FBRBDW6PLDQ8HU5ZAHD8XUVH48C9","A3BWZ6V34W8SXX","382GHPVPHSDM8N0F9141EAH7F0K34Z","","null","<img src=""img/flower2.png"" style=""width:200px;border:14px solid red;"">","null","","","","","","","","",""
"","image-keyboard-response","268","166386","0.0-268.0","33FBRBDW6PLDQ8HU5ZAHD8XUVH48C9","A3BWZ6V34W8SXX","382GHPVPHSDM8N0F9141EAH7F0K34Z","","635","img/flower6.png","74","636","1","1","1","1","1,0.333,0.333,0.333,1,0.333,0.333,0.333,1","1,0.333,0.333,0.333,1,0.333,0.333,0.333,1","1",""
"","html-keyboard-response","269","166690","0.0-269.0","33FBRBDW6PLDQ8HU5ZAHD8XUVH48C9","A3BWZ6V34W8SXX","382GHPVPHSDM8N0F9141EAH7F0K34Z","","null","<img src=""img/flower6.png"" style=""width:200px; border:14px solid green;"">","null","","","","","","","","",""
"","image-keyboard-response","270","167394","0.0-270.0","33FBRBDW6PLDQ8HU5ZAHD8XUVH48C9","A3BWZ6V34W8SXX","382GHPVPHSDM8N0F9141EAH7F0K34Z","","701","img/flower2.png","76","702","3","1","3","1","1,0.333,0.333,0.333,1,0.333,0.333,0.333,1","1,0.333,0.333,0.333,1,0.333,0.333,0.333,1","1",""
"","html-keyboard-response","271","167710","0.0-271.0","33FBRBDW6PLDQ8HU5ZAHD8XUVH48C9","A3BWZ6V34W8SXX","382GHPVPHSDM8N0F9141EAH7F0K34Z","","null","<img src=""img/flower2.png"" style=""width:200px; border:14px solid green;"">","null","","","","","","","","",""
"","image-keyboard-response","272","168211","0.0-272.0","33FBRBDW6PLDQ8HU5ZAHD8XUVH48C9","A3BWZ6V34W8SXX","382GHPVPHSDM8N0F9141EAH7F0K34Z","","499","img/flower2.png","76","501","3","1","3","1","1,0.333,0.333,0.333,1,0.333,0.333,0.333,1","1,0.333,0.333,0.333,1,0.333,0.333,0.333,1","1",""
"","html-keyboard-response","273","168526","0.0-273.0","33FBRBDW6PLDQ8HU5ZAHD8XUVH48C9","A3BWZ6V34W8SXX","382GHPVPHSDM8N0F9141EAH7F0K34Z","","null","<img src=""img/flower2.png"" style=""width:200px; border:14px solid green;"">","null","","","","","","","","",""
"","image-keyboard-response","274","169126","0.0-274.0","33FBRBDW6PLDQ8HU5ZAHD8XUVH48C9","A3BWZ6V34W8SXX","382GHPVPHSDM8N0F9141EAH7F0K34Z","","598","img/flower2.png","76","599","3","1","3","1","1,0.333,0.333,0.333,1,0.333,0.333,0.333,1","1,0.333,0.333,0.333,1,0.333,0.333,0.333,1","1",""
"","html-keyboard-response","275","169436","0.0-275.0","33FBRBDW6PLDQ8HU5ZAHD8XUVH48C9","A3BWZ6V34W8SXX","382GHPVPHSDM8N0F9141EAH7F0K34Z","","null","<img src=""img/flower2.png"" style=""width:200px; border:14px solid green;"">","null","","","","","","","","",""
"","image-keyboard-response","276","170253","0.0-276.0","33FBRBDW6PLDQ8HU5ZAHD8XUVH48C9","A3BWZ6V34W8SXX","382GHPVPHSDM8N0F9141EAH7F0K34Z","","816","img/flower5.png","75","817","2","1","2","1","1,0.333,0.333,0.333,1,0.333,0.333,0.333,1","1,0.333,0.333,0.333,1,0.333,0.333,0.333,1","1",""
"","html-keyboard-response","277","170572","0.0-277.0","33FBRBDW6PLDQ8HU5ZAHD8XUVH48C9","A3BWZ6V34W8SXX","382GHPVPHSDM8N0F9141EAH7F0K34Z","","null","<img src=""img/flower5.png"" style=""width:200px; border:14px solid green;"">","null","","","","","","","","",""
"","image-keyboard-response","278","171170","0.0-278.0","33FBRBDW6PLDQ8HU5ZAHD8XUVH48C9","A3BWZ6V34W8SXX","382GHPVPHSDM8N0F9141EAH7F0K34Z","","598","img/flower6.png","74","599","1","1","1","1","1,0.333,0.333,0.333,1,0.333,0.333,0.333,1","1,0.333,0.333,0.333,1,0.333,0.333,0.333,1","1",""
"","html-keyboard-response","279","171479","0.0-279.0","33FBRBDW6PLDQ8HU5ZAHD8XUVH48C9","A3BWZ6V34W8SXX","382GHPVPHSDM8N0F9141EAH7F0K34Z","","null","<img src=""img/flower6.png"" style=""width:200px; border:14px solid green;"">","null","","","","","","","","",""
"","image-keyboard-response","280","172301","0.0-280.0","33FBRBDW6PLDQ8HU5ZAHD8XUVH48C9","A3BWZ6V34W8SXX","382GHPVPHSDM8N0F9141EAH7F0K34Z","","819","img/flower2.png","76","820","3","1","3","1","1,0.333,0.333,0.333,1,0.333,0.333,0.333,1","1,0.333,0.333,0.333,1,0.333,0.333,0.333,1","1",""
"","html-keyboard-response","281","172614","0.0-281.0","33FBRBDW6PLDQ8HU5ZAHD8XUVH48C9","A3BWZ6V34W8SXX","382GHPVPHSDM8N0F9141EAH7F0K34Z","","null","<img src=""img/flower2.png"" style=""width:200px; border:14px solid green;"">","null","","","","","","","","",""
"","image-keyboard-response","282","173463","0.0-282.0","33FBRBDW6PLDQ8HU5ZAHD8XUVH48C9","A3BWZ6V34W8SXX","382GHPVPHSDM8N0F9141EAH7F0K34Z","","846","img/flower6.png","74","848","1","1","1","1","1,0.333,0.333,0.333,1,0.333,0.333,0.333,1","1,0.333,0.333,0.333,1,0.333,0.333,0.333,1","1",""
"","html-keyboard-response","283","173771","0.0-283.0","33FBRBDW6PLDQ8HU5ZAHD8XUVH48C9","A3BWZ6V34W8SXX","382GHPVPHSDM8N0F9141EAH7F0K34Z","","null","<img src=""img/flower6.png"" style=""width:200px; border:14px solid green;"">","null","","","","","","","","",""
"","image-keyboard-response","284","174662","0.0-284.0","33FBRBDW6PLDQ8HU5ZAHD8XUVH48C9","A3BWZ6V34W8SXX","382GHPVPHSDM8N0F9141EAH7F0K34Z","","892","img/flower2.png","76","892","3","1","3","1","1,0.333,0.333,0.333,1,0.333,0.333,0.333,1","1,0.333,0.333,0.333,1,0.333,0.333,0.333,1","1",""
"","html-keyboard-response","285","174966","0.0-285.0","33FBRBDW6PLDQ8HU5ZAHD8XUVH48C9","A3BWZ6V34W8SXX","382GHPVPHSDM8N0F9141EAH7F0K34Z","","null","<img src=""img/flower2.png"" style=""width:200px; border:14px solid green;"">","null","","","","","","","","",""
"","image-keyboard-response","286","175400","0.0-286.0","33FBRBDW6PLDQ8HU5ZAHD8XUVH48C9","A3BWZ6V34W8SXX","382GHPVPHSDM8N0F9141EAH7F0K34Z","","434","img/flower2.png","76","434","3","1","3","1","1,0.333,0.333,0.333,1,0.333,0.333,0.333,1","1,0.333,0.333,0.333,1,0.333,0.333,0.333,1","1",""
"","html-keyboard-response","287","175709","0.0-287.0","33FBRBDW6PLDQ8HU5ZAHD8XUVH48C9","A3BWZ6V34W8SXX","382GHPVPHSDM8N0F9141EAH7F0K34Z","","null","<img src=""img/flower2.png"" style=""width:200px; border:14px solid green;"">","null","","","","","","","","",""
"","image-keyboard-response","288","176510","0.0-288.0","33FBRBDW6PLDQ8HU5ZAHD8XUVH48C9","A3BWZ6V34W8SXX","382GHPVPHSDM8N0F9141EAH7F0K34Z","","799","img/flower5.png","75","799","2","1","2","1","1,0.333,0.333,0.333,1,0.333,0.333,0.333,1","1,0.333,0.333,0.333,1,0.333,0.333,0.333,1","1",""
"","html-keyboard-response","289","176825","0.0-289.0","33FBRBDW6PLDQ8HU5ZAHD8XUVH48C9","A3BWZ6V34W8SXX","382GHPVPHSDM8N0F9141EAH7F0K34Z","","null","<img src=""img/flower5.png"" style=""width:200px; border:14px solid green;"">","null","","","","","","","","",""
"","image-keyboard-response","290","177212","0.0-290.0","33FBRBDW6PLDQ8HU5ZAHD8XUVH48C9","A3BWZ6V34W8SXX","382GHPVPHSDM8N0F9141EAH7F0K34Z","","386","img/flower5.png","75","388","2","1","2","1","1,0.333,0.333,0.333,1,0.333,0.333,0.333,1","1,0.333,0.333,0.333,1,0.333,0.333,0.333,1","1",""
"","html-keyboard-response","291","177526","0.0-291.0","33FBRBDW6PLDQ8HU5ZAHD8XUVH48C9","A3BWZ6V34W8SXX","382GHPVPHSDM8N0F9141EAH7F0K34Z","","null","<img src=""img/flower5.png"" style=""width:200px; border:14px solid green;"">","null","","","","","","","","",""
"","image-keyboard-response","292","178191","0.0-292.0","33FBRBDW6PLDQ8HU5ZAHD8XUVH48C9","A3BWZ6V34W8SXX","382GHPVPHSDM8N0F9141EAH7F0K34Z","","664","img/flower6.png","74","664","1","1","1","1","1,0.333,0.333,0.333,1,0.333,0.333,0.333,1","1,0.333,0.333,0.333,1,0.333,0.333,0.333,1","1",""
"","html-keyboard-response","293","178501","0.0-293.0","33FBRBDW6PLDQ8HU5ZAHD8XUVH48C9","A3BWZ6V34W8SXX","382GHPVPHSDM8N0F9141EAH7F0K34Z","","null","<img src=""img/flower6.png"" style=""width:200px; border:14px solid green;"">","null","","","","","","","","",""
"","image-keyboard-response","294","179388","0.0-294.0","33FBRBDW6PLDQ8HU5ZAHD8XUVH48C9","A3BWZ6V34W8SXX","382GHPVPHSDM8N0F9141EAH7F0K34Z","","885","img/flower5.png","75","886","2","1","2","1","1,0.333,0.333,0.333,1,0.333,0.333,0.333,1","1,0.333,0.333,0.333,1,0.333,0.333,0.333,1","1",""
"","html-keyboard-response","295","179696","0.0-295.0","33FBRBDW6PLDQ8HU5ZAHD8XUVH48C9","A3BWZ6V34W8SXX","382GHPVPHSDM8N0F9141EAH7F0K34Z","","null","<img src=""img/flower5.png"" style=""width:200px; border:14px solid green;"">","null","","","","","","","","",""
"","image-keyboard-response","296","180187","0.0-296.0","33FBRBDW6PLDQ8HU5ZAHD8XUVH48C9","A3BWZ6V34W8SXX","382GHPVPHSDM8N0F9141EAH7F0K34Z","","489","img/flower5.png","75","490","2","1","2","1","1,0.333,0.333,0.333,1,0.333,0.333,0.333,1","1,0.333,0.333,0.333,1,0.333,0.333,0.333,1","1",""
"","html-keyboard-response","297","180495","0.0-297.0","33FBRBDW6PLDQ8HU5ZAHD8XUVH48C9","A3BWZ6V34W8SXX","382GHPVPHSDM8N0F9141EAH7F0K34Z","","null","<img src=""img/flower5.png"" style=""width:200px; border:14px solid green;"">","null","","","","","","","","",""
"","image-keyboard-response","298","181050","0.0-298.0","33FBRBDW6PLDQ8HU5ZAHD8XUVH48C9","A3BWZ6V34W8SXX","382GHPVPHSDM8N0F9141EAH7F0K34Z","","554","img/flower5.png","75","555","2","1","2","1","1,0.333,0.333,0.333,1,0.333,0.333,0.333,1","1,0.333,0.333,0.333,1,0.333,0.333,0.333,1","1",""
"","html-keyboard-response","299","181402","0.0-299.0","33FBRBDW6PLDQ8HU5ZAHD8XUVH48C9","A3BWZ6V34W8SXX","382GHPVPHSDM8N0F9141EAH7F0K34Z","","null","<img src=""img/flower5.png"" style=""width:200px; border:14px solid green;"">","null","","","","","","","","",""
"","image-keyboard-response","300","182143","0.0-300.0","33FBRBDW6PLDQ8HU5ZAHD8XUVH48C9","A3BWZ6V34W8SXX","382GHPVPHSDM8N0F9141EAH7F0K34Z","","740","img/flower6.png","74","741","1","1","1","1","1,0.333,0.333,0.333,1,0.333,0.333,0.333,1","1,0.333,0.333,0.333,1,0.333,0.333,0.333,1","1",""
"","html-keyboard-response","301","182445","0.0-301.0","33FBRBDW6PLDQ8HU5ZAHD8XUVH48C9","A3BWZ6V34W8SXX","382GHPVPHSDM8N0F9141EAH7F0K34Z","","null","<img src=""img/flower6.png"" style=""width:200px; border:14px solid green;"">","null","","","","","","","","",""
"","image-keyboard-response","302","183323","0.0-302.0","33FBRBDW6PLDQ8HU5ZAHD8XUVH48C9","A3BWZ6V34W8SXX","382GHPVPHSDM8N0F9141EAH7F0K34Z","","877","img/flower2.png","76","878","3","1","3","1","1,0.333,0.333,0.333,1,0.333,0.333,0.333,1","1,0.333,0.333,0.333,1,0.333,0.333,0.333,1","1",""
"","html-keyboard-response","303","183630","0.0-303.0","33FBRBDW6PLDQ8HU5ZAHD8XUVH48C9","A3BWZ6V34W8SXX","382GHPVPHSDM8N0F9141EAH7F0K34Z","","null","<img src=""img/flower2.png"" style=""width:200px; border:14px solid green;"">","null","","","","","","","","",""
"","image-keyboard-response","304","184373","0.0-304.0","33FBRBDW6PLDQ8HU5ZAHD8XUVH48C9","A3BWZ6V34W8SXX","382GHPVPHSDM8N0F9141EAH7F0K34Z","","743","img/flower6.png","74","743","1","1","1","1","1,0.333,0.333,0.333,1,0.333,0.333,0.333,1","1,0.333,0.333,0.333,1,0.333,0.333,0.333,1","1",""
"","html-keyboard-response","305","184685","0.0-305.0","33FBRBDW6PLDQ8HU5ZAHD8XUVH48C9","A3BWZ6V34W8SXX","382GHPVPHSDM8N0F9141EAH7F0K34Z","","null","<img src=""img/flower6.png"" style=""width:200px; border:14px solid green;"">","null","","","","","","","","",""
"","image-keyboard-response","306","185555","0.0-306.0","33FBRBDW6PLDQ8HU5ZAHD8XUVH48C9","A3BWZ6V34W8SXX","382GHPVPHSDM8N0F9141EAH7F0K34Z","","868","img/flower2.png","76","869","3","1","3","1","1,0.333,0.333,0.333,1,0.333,0.333,0.333,1","1,0.333,0.333,0.333,1,0.333,0.333,0.333,1","1",""
"","html-keyboard-response","307","185867","0.0-307.0","33FBRBDW6PLDQ8HU5ZAHD8XUVH48C9","A3BWZ6V34W8SXX","382GHPVPHSDM8N0F9141EAH7F0K34Z","","null","<img src=""img/flower2.png"" style=""width:200px; border:14px solid green;"">","null","","","","","","","","",""
"","image-keyboard-response","308","186529","0.0-308.0","33FBRBDW6PLDQ8HU5ZAHD8XUVH48C9","A3BWZ6V34W8SXX","382GHPVPHSDM8N0F9141EAH7F0K34Z","","659","img/flower5.png","75","661","2","1","2","1","1,0.333,0.333,0.333,1,0.333,0.333,0.333,1","1,0.333,0.333,0.333,1,0.333,0.333,0.333,1","1",""
"","html-keyboard-response","309","186841","0.0-309.0","33FBRBDW6PLDQ8HU5ZAHD8XUVH48C9","A3BWZ6V34W8SXX","382GHPVPHSDM8N0F9141EAH7F0K34Z","","null","<img src=""img/flower5.png"" style=""width:200px; border:14px solid green;"">","null","","","","","","","","",""
"","image-keyboard-response","310","187361","0.0-310.0","33FBRBDW6PLDQ8HU5ZAHD8XUVH48C9","A3BWZ6V34W8SXX","382GHPVPHSDM8N0F9141EAH7F0K34Z","","518","img/flower5.png","75","519","2","1","2","1","1,0.333,0.333,0.333,1,0.333,0.333,0.333,1","1,0.333,0.333,0.333,1,0.333,0.333,0.333,1","1",""
"","html-keyboard-response","311","187674","0.0-311.0","33FBRBDW6PLDQ8HU5ZAHD8XUVH48C9","A3BWZ6V34W8SXX","382GHPVPHSDM8N0F9141EAH7F0K34Z","","null","<img src=""img/flower5.png"" style=""width:200px; border:14px solid green;"">","null","","","","","","","","",""
"","image-keyboard-response","312","188390","0.0-312.0","33FBRBDW6PLDQ8HU5ZAHD8XUVH48C9","A3BWZ6V34W8SXX","382GHPVPHSDM8N0F9141EAH7F0K34Z","","714","img/flower2.png","76","716","3","1","3","1","1,0.333,0.333,0.333,1,0.333,0.333,0.333,1","1,0.333,0.333,0.333,1,0.333,0.333,0.333,1","1",""
"","html-keyboard-response","313","188698","0.0-313.0","33FBRBDW6PLDQ8HU5ZAHD8XUVH48C9","A3BWZ6V34W8SXX","382GHPVPHSDM8N0F9141EAH7F0K34Z","","null","<img src=""img/flower2.png"" style=""width:200px; border:14px solid green;"">","null","","","","","","","","",""
"","image-keyboard-response","314","189341","0.0-314.0","33FBRBDW6PLDQ8HU5ZAHD8XUVH48C9","A3BWZ6V34W8SXX","382GHPVPHSDM8N0F9141EAH7F0K34Z","","641","img/flower5.png","75","642","2","1","2","1","1,0.333,0.333,0.333,1,0.333,0.333,0.333,1","1,0.333,0.333,0.333,1,0.333,0.333,0.333,1","1",""
"","html-keyboard-response","315","189675","0.0-315.0","33FBRBDW6PLDQ8HU5ZAHD8XUVH48C9","A3BWZ6V34W8SXX","382GHPVPHSDM8N0F9141EAH7F0K34Z","","null","<img src=""img/flower5.png"" style=""width:200px; border:14px solid green;"">","null","","","","","","","","",""
"","image-keyboard-response","316","190283","0.0-316.0","33FBRBDW6PLDQ8HU5ZAHD8XUVH48C9","A3BWZ6V34W8SXX","382GHPVPHSDM8N0F9141EAH7F0K34Z","","607","img/flower6.png","74","608","1","1","1","1","1,0.333,0.333,0.333,1,0.333,0.333,0.333,1","1,0.333,0.333,0.333,1,0.333,0.333,0.333,1","1",""
"","html-keyboard-response","317","190587","0.0-317.0","33FBRBDW6PLDQ8HU5ZAHD8XUVH48C9","A3BWZ6V34W8SXX","382GHPVPHSDM8N0F9141EAH7F0K34Z","","null","<img src=""img/flower6.png"" style=""width:200px; border:14px solid green;"">","null","","","","","","","","",""
"","image-keyboard-response","318","191238","0.0-318.0","33FBRBDW6PLDQ8HU5ZAHD8XUVH48C9","A3BWZ6V34W8SXX","382GHPVPHSDM8N0F9141EAH7F0K34Z","","649","img/flower5.png","75","650","2","1","2","1","1,0.333,0.333,0.333,1,0.333,0.333,0.333,1","1,0.333,0.333,0.333,1,0.333,0.333,0.333,1","1",""
"","html-keyboard-response","319","191547","0.0-319.0","33FBRBDW6PLDQ8HU5ZAHD8XUVH48C9","A3BWZ6V34W8SXX","382GHPVPHSDM8N0F9141EAH7F0K34Z","","null","<img src=""img/flower5.png"" style=""width:200px; border:14px solid green;"">","null","","","","","","","","",""
"","image-keyboard-response","320","192212","0.0-320.0","33FBRBDW6PLDQ8HU5ZAHD8XUVH48C9","A3BWZ6V34W8SXX","382GHPVPHSDM8N0F9141EAH7F0K34Z","","663","img/flower2.png","76","665","3","1","3","1","1,0.333,0.333,0.333,1,0.333,0.333,0.333,1","1,0.333,0.333,0.333,1,0.333,0.333,0.333,1","1",""
"","html-keyboard-response","321","192522","0.0-321.0","33FBRBDW6PLDQ8HU5ZAHD8XUVH48C9","A3BWZ6V34W8SXX","382GHPVPHSDM8N0F9141EAH7F0K34Z","","null","<img src=""img/flower2.png"" style=""width:200px; border:14px solid green;"">","null","","","","","","","","",""
"","image-keyboard-response","322","193265","0.0-322.0","33FBRBDW6PLDQ8HU5ZAHD8XUVH48C9","A3BWZ6V34W8SXX","382GHPVPHSDM8N0F9141EAH7F0K34Z","","742","img/flower6.png","74","742","1","1","1","1","1,0.333,0.333,0.333,1,0.333,0.333,0.333,1","1,0.333,0.333,0.333,1,0.333,0.333,0.333,1","1",""
"","html-keyboard-response","323","193580","0.0-323.0","33FBRBDW6PLDQ8HU5ZAHD8XUVH48C9","A3BWZ6V34W8SXX","382GHPVPHSDM8N0F9141EAH7F0K34Z","","null","<img src=""img/flower6.png"" style=""width:200px; border:14px solid green;"">","null","","","","","","","","",""
"","image-keyboard-response","324","194046","0.0-324.0","33FBRBDW6PLDQ8HU5ZAHD8XUVH48C9","A3BWZ6V34W8SXX","382GHPVPHSDM8N0F9141EAH7F0K34Z","","464","img/flower6.png","74","466","1","1","1","1","1,0.333,0.333,0.333,1,0.333,0.333,0.333,1","1,0.333,0.333,0.333,1,0.333,0.333,0.333,1","1",""
"","html-keyboard-response","325","194362","0.0-325.0","33FBRBDW6PLDQ8HU5ZAHD8XUVH48C9","A3BWZ6V34W8SXX","382GHPVPHSDM8N0F9141EAH7F0K34Z","","null","<img src=""img/flower6.png"" style=""width:200px; border:14px solid green;"">","null","","","","","","","","",""
"","image-keyboard-response","326","194999","0.0-326.0","33FBRBDW6PLDQ8HU5ZAHD8XUVH48C9","A3BWZ6V34W8SXX","382GHPVPHSDM8N0F9141EAH7F0K34Z","","636","img/flower5.png","75","637","2","1","2","1","1,0.333,0.333,0.333,1,0.333,0.333,0.333,1","1,0.333,0.333,0.333,1,0.333,0.333,0.333,1","1",""
"","html-keyboard-response","327","195309","0.0-327.0","33FBRBDW6PLDQ8HU5ZAHD8XUVH48C9","A3BWZ6V34W8SXX","382GHPVPHSDM8N0F9141EAH7F0K34Z","","null","<img src=""img/flower5.png"" style=""width:200px; border:14px solid green;"">","null","","","","","","","","",""
"","image-keyboard-response","328","195732","0.0-328.0","33FBRBDW6PLDQ8HU5ZAHD8XUVH48C9","A3BWZ6V34W8SXX","382GHPVPHSDM8N0F9141EAH7F0K34Z","","422","img/flower5.png","75","424","2","1","2","1","1,0.333,0.333,0.333,1,0.333,0.333,0.333,1","1,0.333,0.333,0.333,1,0.333,0.333,0.333,1","1",""
"","html-keyboard-response","329","196042","0.0-329.0","33FBRBDW6PLDQ8HU5ZAHD8XUVH48C9","A3BWZ6V34W8SXX","382GHPVPHSDM8N0F9141EAH7F0K34Z","","null","<img src=""img/flower5.png"" style=""width:200px; border:14px solid green;"">","null","","","","","","","","",""
"","image-keyboard-response","330","196771","0.0-330.0","33FBRBDW6PLDQ8HU5ZAHD8XUVH48C9","A3BWZ6V34W8SXX","382GHPVPHSDM8N0F9141EAH7F0K34Z","","727","img/flower2.png","76","728","3","1","3","1","1,0.333,0.333,0.333,1,0.333,0.333,0.333,1","1,0.333,0.333,0.333,1,0.333,0.333,0.333,1","1",""
"","html-keyboard-response","331","197083","0.0-331.0","33FBRBDW6PLDQ8HU5ZAHD8XUVH48C9","A3BWZ6V34W8SXX","382GHPVPHSDM8N0F9141EAH7F0K34Z","","null","<img src=""img/flower2.png"" style=""width:200px; border:14px solid green;"">","null","","","","","","","","",""
"","image-keyboard-response","332","197862","0.0-332.0","33FBRBDW6PLDQ8HU5ZAHD8XUVH48C9","A3BWZ6V34W8SXX","382GHPVPHSDM8N0F9141EAH7F0K34Z","","779","img/flower5.png","75","779","2","1","2","1","1,0.333,0.333,0.333,1,0.333,0.333,0.333,1","1,0.333,0.333,0.333,1,0.333,0.333,0.333,1","1",""
"","html-keyboard-response","333","198169","0.0-333.0","33FBRBDW6PLDQ8HU5ZAHD8XUVH48C9","A3BWZ6V34W8SXX","382GHPVPHSDM8N0F9141EAH7F0K34Z","","null","<img src=""img/flower5.png"" style=""width:200px; border:14px solid green;"">","null","","","","","","","","",""
"","image-keyboard-response","334","198606","0.0-334.0","33FBRBDW6PLDQ8HU5ZAHD8XUVH48C9","A3BWZ6V34W8SXX","382GHPVPHSDM8N0F9141EAH7F0K34Z","","434","img/flower5.png","75","437","2","1","2","1","1,0.333,0.333,0.333,1,0.333,0.333,0.333,1","1,0.333,0.333,0.333,1,0.333,0.333,0.333,1","1",""
"","html-keyboard-response","335","198921","0.0-335.0","33FBRBDW6PLDQ8HU5ZAHD8XUVH48C9","A3BWZ6V34W8SXX","382GHPVPHSDM8N0F9141EAH7F0K34Z","","null","<img src=""img/flower5.png"" style=""width:200px; border:14px solid green;"">","null","","","","","","","","",""
"","image-keyboard-response","336","199708","0.0-336.0","33FBRBDW6PLDQ8HU5ZAHD8XUVH48C9","A3BWZ6V34W8SXX","382GHPVPHSDM8N0F9141EAH7F0K34Z","","787","img/flower2.png","76","788","3","1","3","1","1,0.333,0.333,0.333,1,0.333,0.333,0.333,1","1,0.333,0.333,0.333,1,0.333,0.333,0.333,1","1",""
"","html-keyboard-response","337","200025","0.0-337.0","33FBRBDW6PLDQ8HU5ZAHD8XUVH48C9","A3BWZ6V34W8SXX","382GHPVPHSDM8N0F9141EAH7F0K34Z","","null","<img src=""img/flower2.png"" style=""width:200px; border:14px solid green;"">","null","","","","","","","","",""
"","image-keyboard-response","338","200450","0.0-338.0","33FBRBDW6PLDQ8HU5ZAHD8XUVH48C9","A3BWZ6V34W8SXX","382GHPVPHSDM8N0F9141EAH7F0K34Z","","423","img/flower2.png","76","426","3","1","3","1","1,0.333,0.333,0.333,1,0.333,0.333,0.333,1","1,0.333,0.333,0.333,1,0.333,0.333,0.333,1","1",""
"","html-keyboard-response","339","200757","0.0-339.0","33FBRBDW6PLDQ8HU5ZAHD8XUVH48C9","A3BWZ6V34W8SXX","382GHPVPHSDM8N0F9141EAH7F0K34Z","","null","<img src=""img/flower2.png"" style=""width:200px; border:14px solid green;"">","null","","","","","","","","",""
"","image-keyboard-response","340","201662","0.0-340.0","33FBRBDW6PLDQ8HU5ZAHD8XUVH48C9","A3BWZ6V34W8SXX","382GHPVPHSDM8N0F9141EAH7F0K34Z","","903","img/flower5.png","75","904","2","1","2","1","1,0.333,0.333,0.333,1,0.333,0.333,0.333,1","1,0.333,0.333,0.333,1,0.333,0.333,0.333,1","1",""
"","html-keyboard-response","341","201974","0.0-341.0","33FBRBDW6PLDQ8HU5ZAHD8XUVH48C9","A3BWZ6V34W8SXX","382GHPVPHSDM8N0F9141EAH7F0K34Z","","null","<img src=""img/flower5.png"" style=""width:200px; border:14px solid green;"">","null","","","","","","","","",""
"","image-keyboard-response","342","202574","0.0-342.0","33FBRBDW6PLDQ8HU5ZAHD8XUVH48C9","A3BWZ6V34W8SXX","382GHPVPHSDM8N0F9141EAH7F0K34Z","","598","img/flower6.png","74","599","1","1","1","1","1,0.333,0.333,0.333,1,0.333,0.333,0.333,1","1,0.333,0.333,0.333,1,0.333,0.333,0.333,1","1",""
"","html-keyboard-response","343","202886","0.0-343.0","33FBRBDW6PLDQ8HU5ZAHD8XUVH48C9","A3BWZ6V34W8SXX","382GHPVPHSDM8N0F9141EAH7F0K34Z","","null","<img src=""img/flower6.png"" style=""width:200px; border:14px solid green;"">","null","","","","","","","","",""
"","image-keyboard-response","344","203845","0.0-344.0","33FBRBDW6PLDQ8HU5ZAHD8XUVH48C9","A3BWZ6V34W8SXX","382GHPVPHSDM8N0F9141EAH7F0K34Z","","958","img/flower2.png","76","959","3","1","3","1","1,0.333,0.333,0.333,1,0.333,0.333,0.333,1","1,0.333,0.333,0.333,1,0.333,0.333,0.333,1","1",""
"","html-keyboard-response","345","204148","0.0-345.0","33FBRBDW6PLDQ8HU5ZAHD8XUVH48C9","A3BWZ6V34W8SXX","382GHPVPHSDM8N0F9141EAH7F0K34Z","","null","<img src=""img/flower2.png"" style=""width:200px; border:14px solid green;"">","null","","","","","","","","",""
"","image-keyboard-response","346","204538","0.0-346.0","33FBRBDW6PLDQ8HU5ZAHD8XUVH48C9","A3BWZ6V34W8SXX","382GHPVPHSDM8N0F9141EAH7F0K34Z","","387","img/flower2.png","76","389","3","1","3","1","1,0.333,0.333,0.333,1,0.333,0.333,0.333,1","1,0.333,0.333,0.333,1,0.333,0.333,0.333,1","1",""
"","html-keyboard-response","347","204853","0.0-347.0","33FBRBDW6PLDQ8HU5ZAHD8XUVH48C9","A3BWZ6V34W8SXX","382GHPVPHSDM8N0F9141EAH7F0K34Z","","null","<img src=""img/flower2.png"" style=""width:200px; border:14px solid green;"">","null","","","","","","","","",""
"","image-keyboard-response","348","205616","0.0-348.0","33FBRBDW6PLDQ8HU5ZAHD8XUVH48C9","A3BWZ6V34W8SXX","382GHPVPHSDM8N0F9141EAH7F0K34Z","","761","img/flower6.png","74","762","1","1","1","1","1,0.333,0.333,0.333,1,0.333,0.333,0.333,1","1,0.333,0.333,0.333,1,0.333,0.333,0.333,1","1",""
"","html-keyboard-response","349","205924","0.0-349.0","33FBRBDW6PLDQ8HU5ZAHD8XUVH48C9","A3BWZ6V34W8SXX","382GHPVPHSDM8N0F9141EAH7F0K34Z","","null","<img src=""img/flower6.png"" style=""width:200px; border:14px solid green;"">","null","","","","","","","","",""
"","image-keyboard-response","350","206630","0.0-350.0","33FBRBDW6PLDQ8HU5ZAHD8XUVH48C9","A3BWZ6V34W8SXX","382GHPVPHSDM8N0F9141EAH7F0K34Z","","705","img/flower5.png","75","706","2","1","2","1","1,0.333,0.333,0.333,1,0.333,0.333,0.333,1","1,0.333,0.333,0.333,1,0.333,0.333,0.333,1","1",""
"","html-keyboard-response","351","206945","0.0-351.0","33FBRBDW6PLDQ8HU5ZAHD8XUVH48C9","A3BWZ6V34W8SXX","382GHPVPHSDM8N0F9141EAH7F0K34Z","","null","<img src=""img/flower5.png"" style=""width:200px; border:14px solid green;"">","null","","","","","","","","",""
"","image-keyboard-response","352","207339","0.0-352.0","33FBRBDW6PLDQ8HU5ZAHD8XUVH48C9","A3BWZ6V34W8SXX","382GHPVPHSDM8N0F9141EAH7F0K34Z","","392","img/flower5.png","75","393","2","1","2","1","1,0.333,0.333,0.333,1,0.333,0.333,0.333,1","1,0.333,0.333,0.333,1,0.333,0.333,0.333,1","1",""
"","html-keyboard-response","353","207650","0.0-353.0","33FBRBDW6PLDQ8HU5ZAHD8XUVH48C9","A3BWZ6V34W8SXX","382GHPVPHSDM8N0F9141EAH7F0K34Z","","null","<img src=""img/flower5.png"" style=""width:200px; border:14px solid green;"">","null","","","","","","","","",""
"","image-keyboard-response","354","208402","0.0-354.0","33FBRBDW6PLDQ8HU5ZAHD8XUVH48C9","A3BWZ6V34W8SXX","382GHPVPHSDM8N0F9141EAH7F0K34Z","","749","img/flower2.png","76","750","3","1","3","1","1,0.333,0.333,0.333,1,0.333,0.333,0.333,1","1,0.333,0.333,0.333,1,0.333,0.333,0.333,1","1",""
"","html-keyboard-response","355","208702","0.0-355.0","33FBRBDW6PLDQ8HU5ZAHD8XUVH48C9","A3BWZ6V34W8SXX","382GHPVPHSDM8N0F9141EAH7F0K34Z","","null","<img src=""img/flower2.png"" style=""width:200px; border:14px solid green;"">","null","","","","","","","","",""
"","image-keyboard-response","356","209528","0.0-356.0","33FBRBDW6PLDQ8HU5ZAHD8XUVH48C9","A3BWZ6V34W8SXX","382GHPVPHSDM8N0F9141EAH7F0K34Z","","823","img/flower5.png","75","824","2","1","2","1","1,0.333,0.333,0.333,1,0.333,0.333,0.333,1","1,0.333,0.333,0.333,1,0.333,0.333,0.333,1","1",""
"","html-keyboard-response","357","209842","0.0-357.0","33FBRBDW6PLDQ8HU5ZAHD8XUVH48C9","A3BWZ6V34W8SXX","382GHPVPHSDM8N0F9141EAH7F0K34Z","","null","<img src=""img/flower5.png"" style=""width:200px; border:14px solid green;"">","null","","","","","","","","",""
"","image-keyboard-response","358","210271","0.0-358.0","33FBRBDW6PLDQ8HU5ZAHD8XUVH48C9","A3BWZ6V34W8SXX","382GHPVPHSDM8N0F9141EAH7F0K34Z","","426","img/flower5.png","75","427","2","1","2","1","1,0.333,0.333,0.333,1,0.333,0.333,0.333,1","1,0.333,0.333,0.333,1,0.333,0.333,0.333,1","1",""
"","html-keyboard-response","359","210577","0.0-359.0","33FBRBDW6PLDQ8HU5ZAHD8XUVH48C9","A3BWZ6V34W8SXX","382GHPVPHSDM8N0F9141EAH7F0K34Z","","null","<img src=""img/flower5.png"" style=""width:200px; border:14px solid green;"">","null","","","","","","","","",""
"","image-keyboard-response","360","211187","0.0-360.0","33FBRBDW6PLDQ8HU5ZAHD8XUVH48C9","A3BWZ6V34W8SXX","382GHPVPHSDM8N0F9141EAH7F0K34Z","","607","img/flower5.png","75","609","2","1","2","1","1,0.333,0.333,0.333,1,0.333,0.333,0.333,1","1,0.333,0.333,0.333,1,0.333,0.333,0.333,1","1",""
"","html-keyboard-response","361","211488","0.0-361.0","33FBRBDW6PLDQ8HU5ZAHD8XUVH48C9","A3BWZ6V34W8SXX","382GHPVPHSDM8N0F9141EAH7F0K34Z","","null","<img src=""img/flower5.png"" style=""width:200px; border:14px solid green;"">","null","","","","","","","","",""
"","html-keyboard-response","362","213652","0.0-362.0","33FBRBDW6PLDQ8HU5ZAHD8XUVH48C9","A3BWZ6V34W8SXX","382GHPVPHSDM8N0F9141EAH7F0K34Z","","","","","","","","","","","","",""
"","instructions","363","215473","0.0-363.0","33FBRBDW6PLDQ8HU5ZAHD8XUVH48C9","A3BWZ6V34W8SXX","382GHPVPHSDM8N0F9141EAH7F0K34Z","[{""page_index"":0,""viewing_time"":1819}]","1820","","","","","","","","","","",""
"","survey-text","364","219877","0.0-364.0","33FBRBDW6PLDQ8HU5ZAHD8XUVH48C9","A3BWZ6V34W8SXX","382GHPVPHSDM8N0F9141EAH7F0K34Z","","4396","","","","","","","","","","","{""Q0"":""A3BWZ6V34W8SXX""}"
