"rt","url","trial_type","trial_index","time_elapsed","internal_node_id","assignmentID","mturkID","hitID","success","view_history","stimulus","key_press","reactionTime","a","r","s","cond","reward_cond","reward_cond_actual","reward_matrix_idx","responses"
"37841.10000000149","consent.html","external-html","0","37935","0.0-0.0","3GA6AFUKOPAI6JM4FATMXIMZRPTH3E","A3CH1Z6J9R38G9","32XN26MTXZ5MP383W6LZYTLBY7P0LI","","","","","","","","","","","","",""
"","","fullscreen","1","40405","0.0-1.0","3GA6AFUKOPAI6JM4FATMXIMZRPTH3E","A3CH1Z6J9R38G9","32XN26MTXZ5MP383W6LZYTLBY7P0LI","true","","","","","","","","","","","",""
"88908.20000000298","","instructions","2","129314","0.0-2.0","3GA6AFUKOPAI6JM4FATMXIMZRPTH3E","A3CH1Z6J9R38G9","32XN26MTXZ5MP383W6LZYTLBY7P0LI","","[{""page_index"":0,""viewing_time"":3192.7000000029802},{""page_index"":1,""viewing_time"":7673.79999999702},{""page_index"":2,""viewing_time"":35113.89999999851},{""page_index"":3,""viewing_time"":9379.80000000447},{""page_index"":4,""viewing_time"":3661.7999999970198},{""page_index"":3,""viewing_time"":1510.1000000014901},{""page_index"":4,""viewing_time"":997.8999999985099},{""page_index"":5,""viewing_time"":20937.89999999851},{""page_index"":6,""viewing_time"":6439.80000000447}]","","","","","","","","","","",""
"18702.60000000149","","instructions","3","148017","0.0-3.0","3GA6AFUKOPAI6JM4FATMXIMZRPTH3E","A3CH1Z6J9R38G9","32XN26MTXZ5MP383W6LZYTLBY7P0LI","","[{""page_index"":0,""viewing_time"":18702.40000000596}]","","","","","","","","","","",""
"1122.7999999970198","","image-keyboard-response","4","149141","0.0-4.0","3GA6AFUKOPAI6JM4FATMXIMZRPTH3E","A3CH1Z6J9R38G9","32XN26MTXZ5MP383W6LZYTLBY7P0LI","","","img/flower5.png","75","1124.1999999955297","2","1","2","","","","",""
"null","","html-keyboard-response","5","149444","0.0-5.0","3GA6AFUKOPAI6JM4FATMXIMZRPTH3E","A3CH1Z6J9R38G9","32XN26MTXZ5MP383W6LZYTLBY7P0LI","","","<img src=""img/flower5.png"" style=""width:200px; border:14px solid green;"">","null","","","","","","","","",""
"912.5","","image-keyboard-response","6","150357","0.0-6.0","3GA6AFUKOPAI6JM4FATMXIMZRPTH3E","A3CH1Z6J9R38G9","32XN26MTXZ5MP383W6LZYTLBY7P0LI","","","img/flower4.png","74","913.2000000029802","1","1","1","","","","",""
"null","","html-keyboard-response","7","150659","0.0-7.0","3GA6AFUKOPAI6JM4FATMXIMZRPTH3E","A3CH1Z6J9R38G9","32XN26MTXZ5MP383W6LZYTLBY7P0LI","","","<img src=""img/flower4.png"" style=""width:200px; border:14px solid green;"">","null","","","","","","","","",""
"907.6000000014901","","image-keyboard-response","8","151568","0.0-8.0","3GA6AFUKOPAI6JM4FATMXIMZRPTH3E","A3CH1Z6J9R38G9","32XN26MTXZ5MP383W6LZYTLBY7P0LI","","","img/flower6.png","76","908.3999999985099","3","1","3","","","","",""
"null","","html-keyboard-response","9","151869","0.0-9.0","3GA6AFUKOPAI6JM4FATMXIMZRPTH3E","A3CH1Z6J9R38G9","32XN26MTXZ5MP383W6LZYTLBY7P0LI","","","<img src=""img/flower6.png"" style=""width:200px; border:14px solid green;"">","null","","","","","","","","",""
"1237.1000000014901","","image-keyboard-response","10","153107","0.0-10.0","3GA6AFUKOPAI6JM4FATMXIMZRPTH3E","A3CH1Z6J9R38G9","32XN26MTXZ5MP383W6LZYTLBY7P0LI","","","img/flower4.png","74","1237.7000000029802","1","0","1","","","","",""
"null","","html-keyboard-response","11","153408","0.0-11.0","3GA6AFUKOPAI6JM4FATMXIMZRPTH3E","A3CH1Z6J9R38G9","32XN26MTXZ5MP383W6LZYTLBY7P0LI","","","<img src=""img/flower4.png"" style=""width:200px;border:14px solid red;"">","null","","","","","","","","",""
"1212.6999999955297","","image-keyboard-response","12","154622","0.0-12.0","3GA6AFUKOPAI6JM4FATMXIMZRPTH3E","A3CH1Z6J9R38G9","32XN26MTXZ5MP383W6LZYTLBY7P0LI","","","img/flower6.png","76","1213.2999999970198","3","1","3","","","","",""
"null","","html-keyboard-response","13","154924","0.0-13.0","3GA6AFUKOPAI6JM4FATMXIMZRPTH3E","A3CH1Z6J9R38G9","32XN26MTXZ5MP383W6LZYTLBY7P0LI","","","<img src=""img/flower6.png"" style=""width:200px; border:14px solid green;"">","null","","","","","","","","",""
"677.3999999985099","","image-keyboard-response","14","155602","0.0-14.0","3GA6AFUKOPAI6JM4FATMXIMZRPTH3E","A3CH1Z6J9R38G9","32XN26MTXZ5MP383W6LZYTLBY7P0LI","","","img/flower5.png","75","678.1000000014901","2","0","2","","","","",""
"null","","html-keyboard-response","15","155903","0.0-15.0","3GA6AFUKOPAI6JM4FATMXIMZRPTH3E","A3CH1Z6J9R38G9","32XN26MTXZ5MP383W6LZYTLBY7P0LI","","","<img src=""img/flower5.png"" style=""width:200px;border:14px solid red;"">","null","","","","","","","","",""
"740.1000000014901","","image-keyboard-response","16","156644","0.0-16.0","3GA6AFUKOPAI6JM4FATMXIMZRPTH3E","A3CH1Z6J9R38G9","32XN26MTXZ5MP383W6LZYTLBY7P0LI","","","img/flower4.png","74","740.8999999985099","1","1","1","","","","",""
"null","","html-keyboard-response","17","156945","0.0-17.0","3GA6AFUKOPAI6JM4FATMXIMZRPTH3E","A3CH1Z6J9R38G9","32XN26MTXZ5MP383W6LZYTLBY7P0LI","","","<img src=""img/flower4.png"" style=""width:200px; border:14px solid green;"">","null","","","","","","","","",""
"560.7999999970198","","image-keyboard-response","18","157507","0.0-18.0","3GA6AFUKOPAI6JM4FATMXIMZRPTH3E","A3CH1Z6J9R38G9","32XN26MTXZ5MP383W6LZYTLBY7P0LI","","","img/flower4.png","74","561.6000000014901","1","0","1","","","","",""
"null","","html-keyboard-response","19","157809","0.0-19.0","3GA6AFUKOPAI6JM4FATMXIMZRPTH3E","A3CH1Z6J9R38G9","32XN26MTXZ5MP383W6LZYTLBY7P0LI","","","<img src=""img/flower4.png"" style=""width:200px;border:14px solid red;"">","null","","","","","","","","",""
"1550.1999999955297","","image-keyboard-response","20","159360","0.0-20.0","3GA6AFUKOPAI6JM4FATMXIMZRPTH3E","A3CH1Z6J9R38G9","32XN26MTXZ5MP383W6LZYTLBY7P0LI","","","img/flower5.png","75","1551","2","0","2","","","","",""
"null","","html-keyboard-response","21","159661","0.0-21.0","3GA6AFUKOPAI6JM4FATMXIMZRPTH3E","A3CH1Z6J9R38G9","32XN26MTXZ5MP383W6LZYTLBY7P0LI","","","<img src=""img/flower5.png"" style=""width:200px;border:14px solid red;"">","null","","","","","","","","",""
"634","","image-keyboard-response","22","160296","0.0-22.0","3GA6AFUKOPAI6JM4FATMXIMZRPTH3E","A3CH1Z6J9R38G9","32XN26MTXZ5MP383W6LZYTLBY7P0LI","","","img/flower5.png","75","634.8999999985099","2","1","2","","","","",""
"null","","html-keyboard-response","23","160598","0.0-23.0","3GA6AFUKOPAI6JM4FATMXIMZRPTH3E","A3CH1Z6J9R38G9","32XN26MTXZ5MP383W6LZYTLBY7P0LI","","","<img src=""img/flower5.png"" style=""width:200px; border:14px solid green;"">","null","","","","","","","","",""
"557","","image-keyboard-response","24","161156","0.0-24.0","3GA6AFUKOPAI6JM4FATMXIMZRPTH3E","A3CH1Z6J9R38G9","32XN26MTXZ5MP383W6LZYTLBY7P0LI","","","img/flower5.png","75","557.7000000029802","2","1","2","","","","",""
"null","","html-keyboard-response","25","161457","0.0-25.0","3GA6AFUKOPAI6JM4FATMXIMZRPTH3E","A3CH1Z6J9R38G9","32XN26MTXZ5MP383W6LZYTLBY7P0LI","","","<img src=""img/flower5.png"" style=""width:200px; border:14px solid green;"">","null","","","","","","","","",""
"610.7000000029802","","image-keyboard-response","26","162069","0.0-26.0","3GA6AFUKOPAI6JM4FATMXIMZRPTH3E","A3CH1Z6J9R38G9","32XN26MTXZ5MP383W6LZYTLBY7P0LI","","","img/flower6.png","76","611.4000000059605","3","1","3","","","","",""
"null","","html-keyboard-response","27","162370","0.0-27.0","3GA6AFUKOPAI6JM4FATMXIMZRPTH3E","A3CH1Z6J9R38G9","32XN26MTXZ5MP383W6LZYTLBY7P0LI","","","<img src=""img/flower6.png"" style=""width:200px; border:14px solid green;"">","null","","","","","","","","",""
"434.40000000596046","","image-keyboard-response","28","162806","0.0-28.0","3GA6AFUKOPAI6JM4FATMXIMZRPTH3E","A3CH1Z6J9R38G9","32XN26MTXZ5MP383W6LZYTLBY7P0LI","","","img/flower6.png","76","435.1000000014901","3","1","3","","","","",""
"null","","html-keyboard-response","29","163107","0.0-29.0","3GA6AFUKOPAI6JM4FATMXIMZRPTH3E","A3CH1Z6J9R38G9","32XN26MTXZ5MP383W6LZYTLBY7P0LI","","","<img src=""img/flower6.png"" style=""width:200px; border:14px solid green;"">","null","","","","","","","","",""
"649.8999999985099","","image-keyboard-response","30","163758","0.0-30.0","3GA6AFUKOPAI6JM4FATMXIMZRPTH3E","A3CH1Z6J9R38G9","32XN26MTXZ5MP383W6LZYTLBY7P0LI","","","img/flower4.png","74","650.7000000029802","1","1","1","","","","",""
"null","","html-keyboard-response","31","164060","0.0-31.0","3GA6AFUKOPAI6JM4FATMXIMZRPTH3E","A3CH1Z6J9R38G9","32XN26MTXZ5MP383W6LZYTLBY7P0LI","","","<img src=""img/flower4.png"" style=""width:200px; border:14px solid green;"">","null","","","","","","","","",""
"529.2000000029802","","image-keyboard-response","32","164590","0.0-32.0","3GA6AFUKOPAI6JM4FATMXIMZRPTH3E","A3CH1Z6J9R38G9","32XN26MTXZ5MP383W6LZYTLBY7P0LI","","","img/flower5.png","75","529.7000000029802","2","0","2","","","","",""
"null","","html-keyboard-response","33","164891","0.0-33.0","3GA6AFUKOPAI6JM4FATMXIMZRPTH3E","A3CH1Z6J9R38G9","32XN26MTXZ5MP383W6LZYTLBY7P0LI","","","<img src=""img/flower5.png"" style=""width:200px;border:14px solid red;"">","null","","","","","","","","",""
"968.2000000029802","","image-keyboard-response","34","165860","0.0-34.0","3GA6AFUKOPAI6JM4FATMXIMZRPTH3E","A3CH1Z6J9R38G9","32XN26MTXZ5MP383W6LZYTLBY7P0LI","","","img/flower4.png","74","968.8999999985099","1","1","1","","","","",""
"null","","html-keyboard-response","35","166161","0.0-35.0","3GA6AFUKOPAI6JM4FATMXIMZRPTH3E","A3CH1Z6J9R38G9","32XN26MTXZ5MP383W6LZYTLBY7P0LI","","","<img src=""img/flower4.png"" style=""width:200px; border:14px solid green;"">","null","","","","","","","","",""
"582.5","","image-keyboard-response","36","166745","0.0-36.0","3GA6AFUKOPAI6JM4FATMXIMZRPTH3E","A3CH1Z6J9R38G9","32XN26MTXZ5MP383W6LZYTLBY7P0LI","","","img/flower5.png","75","583","2","0","2","","","","",""
"null","","html-keyboard-response","37","167046","0.0-37.0","3GA6AFUKOPAI6JM4FATMXIMZRPTH3E","A3CH1Z6J9R38G9","32XN26MTXZ5MP383W6LZYTLBY7P0LI","","","<img src=""img/flower5.png"" style=""width:200px;border:14px solid red;"">","null","","","","","","","","",""
"600.1000000014901","","image-keyboard-response","38","167647","0.0-38.0","3GA6AFUKOPAI6JM4FATMXIMZRPTH3E","A3CH1Z6J9R38G9","32XN26MTXZ5MP383W6LZYTLBY7P0LI","","","img/flower6.png","76","600.8000000044703","3","1","3","","","","",""
"null","","html-keyboard-response","39","167949","0.0-39.0","3GA6AFUKOPAI6JM4FATMXIMZRPTH3E","A3CH1Z6J9R38G9","32XN26MTXZ5MP383W6LZYTLBY7P0LI","","","<img src=""img/flower6.png"" style=""width:200px; border:14px solid green;"">","null","","","","","","","","",""
"591.1999999955297","","image-keyboard-response","40","168541","0.0-40.0","3GA6AFUKOPAI6JM4FATMXIMZRPTH3E","A3CH1Z6J9R38G9","32XN26MTXZ5MP383W6LZYTLBY7P0LI","","","img/flower5.png","75","591.7999999970198","2","0","2","","","","",""
"null","","html-keyboard-response","41","168843","0.0-41.0","3GA6AFUKOPAI6JM4FATMXIMZRPTH3E","A3CH1Z6J9R38G9","32XN26MTXZ5MP383W6LZYTLBY7P0LI","","","<img src=""img/flower5.png"" style=""width:200px;border:14px solid red;"">","null","","","","","","","","",""
"623.9000000059605","","image-keyboard-response","42","169468","0.0-42.0","3GA6AFUKOPAI6JM4FATMXIMZRPTH3E","A3CH1Z6J9R38G9","32XN26MTXZ5MP383W6LZYTLBY7P0LI","","","img/flower6.png","76","624.6000000014901","3","0","3","","","","",""
"null","","html-keyboard-response","43","169769","0.0-43.0","3GA6AFUKOPAI6JM4FATMXIMZRPTH3E","A3CH1Z6J9R38G9","32XN26MTXZ5MP383W6LZYTLBY7P0LI","","","<img src=""img/flower6.png"" style=""width:200px;border:14px solid red;"">","null","","","","","","","","",""
"527.4000000059605","","image-keyboard-response","44","170297","0.0-44.0","3GA6AFUKOPAI6JM4FATMXIMZRPTH3E","A3CH1Z6J9R38G9","32XN26MTXZ5MP383W6LZYTLBY7P0LI","","","img/flower6.png","76","527.8999999985099","3","1","3","","","","",""
"null","","html-keyboard-response","45","170599","0.0-45.0","3GA6AFUKOPAI6JM4FATMXIMZRPTH3E","A3CH1Z6J9R38G9","32XN26MTXZ5MP383W6LZYTLBY7P0LI","","","<img src=""img/flower6.png"" style=""width:200px; border:14px solid green;"">","null","","","","","","","","",""
"525.1000000014901","","image-keyboard-response","46","171125","0.0-46.0","3GA6AFUKOPAI6JM4FATMXIMZRPTH3E","A3CH1Z6J9R38G9","32XN26MTXZ5MP383W6LZYTLBY7P0LI","","","img/flower6.png","76","525.7999999970198","3","0","3","","","","",""
"null","","html-keyboard-response","47","171426","0.0-47.0","3GA6AFUKOPAI6JM4FATMXIMZRPTH3E","A3CH1Z6J9R38G9","32XN26MTXZ5MP383W6LZYTLBY7P0LI","","","<img src=""img/flower6.png"" style=""width:200px;border:14px solid red;"">","null","","","","","","","","",""
"488.80000000447035","","image-keyboard-response","48","171916","0.0-48.0","3GA6AFUKOPAI6JM4FATMXIMZRPTH3E","A3CH1Z6J9R38G9","32XN26MTXZ5MP383W6LZYTLBY7P0LI","","","img/flower6.png","76","489.5","3","1","3","","","","",""
"null","","html-keyboard-response","49","172217","0.0-49.0","3GA6AFUKOPAI6JM4FATMXIMZRPTH3E","A3CH1Z6J9R38G9","32XN26MTXZ5MP383W6LZYTLBY7P0LI","","","<img src=""img/flower6.png"" style=""width:200px; border:14px solid green;"">","null","","","","","","","","",""
"631.6000000014901","","image-keyboard-response","50","172850","0.0-50.0","3GA6AFUKOPAI6JM4FATMXIMZRPTH3E","A3CH1Z6J9R38G9","32XN26MTXZ5MP383W6LZYTLBY7P0LI","","","img/flower4.png","74","632.2999999970198","1","1","1","","","","",""
"null","","html-keyboard-response","51","173151","0.0-51.0","3GA6AFUKOPAI6JM4FATMXIMZRPTH3E","A3CH1Z6J9R38G9","32XN26MTXZ5MP383W6LZYTLBY7P0LI","","","<img src=""img/flower4.png"" style=""width:200px; border:14px solid green;"">","null","","","","","","","","",""
"593","","image-keyboard-response","52","173745","0.0-52.0","3GA6AFUKOPAI6JM4FATMXIMZRPTH3E","A3CH1Z6J9R38G9","32XN26MTXZ5MP383W6LZYTLBY7P0LI","","","img/flower5.png","75","593.6000000014901","2","1","2","","","","",""
"null","","html-keyboard-response","53","174050","0.0-53.0","3GA6AFUKOPAI6JM4FATMXIMZRPTH3E","A3CH1Z6J9R38G9","32XN26MTXZ5MP383W6LZYTLBY7P0LI","","","<img src=""img/flower5.png"" style=""width:200px; border:14px solid green;"">","null","","","","","","","","",""
"473.6000000014901","","image-keyboard-response","54","174525","0.0-54.0","3GA6AFUKOPAI6JM4FATMXIMZRPTH3E","A3CH1Z6J9R38G9","32XN26MTXZ5MP383W6LZYTLBY7P0LI","","","img/flower5.png","75","474.19999999552965","2","1","2","","","","",""
"null","","html-keyboard-response","55","174826","0.0-55.0","3GA6AFUKOPAI6JM4FATMXIMZRPTH3E","A3CH1Z6J9R38G9","32XN26MTXZ5MP383W6LZYTLBY7P0LI","","","<img src=""img/flower5.png"" style=""width:200px; border:14px solid green;"">","null","","","","","","","","",""
"607.1000000014901","","image-keyboard-response","56","175434","0.0-56.0","3GA6AFUKOPAI6JM4FATMXIMZRPTH3E","A3CH1Z6J9R38G9","32XN26MTXZ5MP383W6LZYTLBY7P0LI","","","img/flower4.png","74","607.6999999955297","1","1","1","","","","",""
"null","","html-keyboard-response","57","175735","0.0-57.0","3GA6AFUKOPAI6JM4FATMXIMZRPTH3E","A3CH1Z6J9R38G9","32XN26MTXZ5MP383W6LZYTLBY7P0LI","","","<img src=""img/flower4.png"" style=""width:200px; border:14px solid green;"">","null","","","","","","","","",""
"654.6000000014901","","image-keyboard-response","58","176391","0.0-58.0","3GA6AFUKOPAI6JM4FATMXIMZRPTH3E","A3CH1Z6J9R38G9","32XN26MTXZ5MP383W6LZYTLBY7P0LI","","","img/flower6.png","76","655.2999999970198","3","1","3","","","","",""
"null","","html-keyboard-response","59","176692","0.0-59.0","3GA6AFUKOPAI6JM4FATMXIMZRPTH3E","A3CH1Z6J9R38G9","32XN26MTXZ5MP383W6LZYTLBY7P0LI","","","<img src=""img/flower6.png"" style=""width:200px; border:14px solid green;"">","null","","","","","","","","",""
"840.6000000014901","","image-keyboard-response","60","177534","0.0-60.0","3GA6AFUKOPAI6JM4FATMXIMZRPTH3E","A3CH1Z6J9R38G9","32XN26MTXZ5MP383W6LZYTLBY7P0LI","","","img/flower4.png","74","841.2999999970198","1","1","1","","","","",""
"null","","html-keyboard-response","61","177835","0.0-61.0","3GA6AFUKOPAI6JM4FATMXIMZRPTH3E","A3CH1Z6J9R38G9","32XN26MTXZ5MP383W6LZYTLBY7P0LI","","","<img src=""img/flower4.png"" style=""width:200px; border:14px solid green;"">","null","","","","","","","","",""
"471.6000000014901","","image-keyboard-response","62","178308","0.0-62.0","3GA6AFUKOPAI6JM4FATMXIMZRPTH3E","A3CH1Z6J9R38G9","32XN26MTXZ5MP383W6LZYTLBY7P0LI","","","img/flower4.png","74","472.20000000298023","1","1","1","","","","",""
"null","","html-keyboard-response","63","178609","0.0-63.0","3GA6AFUKOPAI6JM4FATMXIMZRPTH3E","A3CH1Z6J9R38G9","32XN26MTXZ5MP383W6LZYTLBY7P0LI","","","<img src=""img/flower4.png"" style=""width:200px; border:14px solid green;"">","null","","","","","","","","",""
"9764.89999999851","","instructions","64","188374","0.0-64.0","3GA6AFUKOPAI6JM4FATMXIMZRPTH3E","A3CH1Z6J9R38G9","32XN26MTXZ5MP383W6LZYTLBY7P0LI","","[{""page_index"":0,""viewing_time"":4068.89999999851},{""page_index"":1,""viewing_time"":5695.70000000298}]","","","","","","","","","","",""
"1241.6000000014901","","image-keyboard-response","65","189617","0.0-65.0","3GA6AFUKOPAI6JM4FATMXIMZRPTH3E","A3CH1Z6J9R38G9","32XN26MTXZ5MP383W6LZYTLBY7P0LI","","","img/flower5.png","75","1242.5","2","1","2","","","","",""
"null","","html-keyboard-response","66","189918","0.0-66.0","3GA6AFUKOPAI6JM4FATMXIMZRPTH3E","A3CH1Z6J9R38G9","32XN26MTXZ5MP383W6LZYTLBY7P0LI","","","<img src=""img/flower5.png"" style=""width:200px; border:14px solid green;"">","null","","","","","","","","",""
"359.3999999985099","","image-keyboard-response","67","190278","0.0-67.0","3GA6AFUKOPAI6JM4FATMXIMZRPTH3E","A3CH1Z6J9R38G9","32XN26MTXZ5MP383W6LZYTLBY7P0LI","","","img/flower5.png","75","360.1000000014901","2","1","2","","","","",""
"null","","html-keyboard-response","68","190580","0.0-68.0","3GA6AFUKOPAI6JM4FATMXIMZRPTH3E","A3CH1Z6J9R38G9","32XN26MTXZ5MP383W6LZYTLBY7P0LI","","","<img src=""img/flower5.png"" style=""width:200px; border:14px solid green;"">","null","","","","","","","","",""
"715.5","","image-keyboard-response","69","191296","0.0-69.0","3GA6AFUKOPAI6JM4FATMXIMZRPTH3E","A3CH1Z6J9R38G9","32XN26MTXZ5MP383W6LZYTLBY7P0LI","","","img/flower4.png","74","717","1","1","1","","","","",""
"null","","html-keyboard-response","70","191599","0.0-70.0","3GA6AFUKOPAI6JM4FATMXIMZRPTH3E","A3CH1Z6J9R38G9","32XN26MTXZ5MP383W6LZYTLBY7P0LI","","","<img src=""img/flower4.png"" style=""width:200px; border:14px solid green;"">","null","","","","","","","","",""
"416.80000000447035","","image-keyboard-response","71","192017","0.0-71.0","3GA6AFUKOPAI6JM4FATMXIMZRPTH3E","A3CH1Z6J9R38G9","32XN26MTXZ5MP383W6LZYTLBY7P0LI","","","img/flower4.png","74","417.3999999985099","1","1","1","","","","",""
"null","","html-keyboard-response","72","192318","0.0-72.0","3GA6AFUKOPAI6JM4FATMXIMZRPTH3E","A3CH1Z6J9R38G9","32XN26MTXZ5MP383W6LZYTLBY7P0LI","","","<img src=""img/flower4.png"" style=""width:200px; border:14px solid green;"">","null","","","","","","","","",""
"420","","image-keyboard-response","73","192738","0.0-73.0","3GA6AFUKOPAI6JM4FATMXIMZRPTH3E","A3CH1Z6J9R38G9","32XN26MTXZ5MP383W6LZYTLBY7P0LI","","","img/flower4.png","74","420.70000000298023","1","1","1","","","","",""
"null","","html-keyboard-response","74","193039","0.0-74.0","3GA6AFUKOPAI6JM4FATMXIMZRPTH3E","A3CH1Z6J9R38G9","32XN26MTXZ5MP383W6LZYTLBY7P0LI","","","<img src=""img/flower4.png"" style=""width:200px; border:14px solid green;"">","null","","","","","","","","",""
"475.29999999701977","","image-keyboard-response","75","193515","0.0-75.0","3GA6AFUKOPAI6JM4FATMXIMZRPTH3E","A3CH1Z6J9R38G9","32XN26MTXZ5MP383W6LZYTLBY7P0LI","","","img/flower4.png","74","475.8999999985099","1","0","1","","","","",""
"null","","html-keyboard-response","76","193816","0.0-76.0","3GA6AFUKOPAI6JM4FATMXIMZRPTH3E","A3CH1Z6J9R38G9","32XN26MTXZ5MP383W6LZYTLBY7P0LI","","","<img src=""img/flower4.png"" style=""width:200px;border:14px solid red;"">","null","","","","","","","","",""
"712.2999999970198","","image-keyboard-response","77","194529","0.0-77.0","3GA6AFUKOPAI6JM4FATMXIMZRPTH3E","A3CH1Z6J9R38G9","32XN26MTXZ5MP383W6LZYTLBY7P0LI","","","img/flower6.png","76","713","3","1","3","","","","",""
"null","","html-keyboard-response","78","194831","0.0-78.0","3GA6AFUKOPAI6JM4FATMXIMZRPTH3E","A3CH1Z6J9R38G9","32XN26MTXZ5MP383W6LZYTLBY7P0LI","","","<img src=""img/flower6.png"" style=""width:200px; border:14px solid green;"">","null","","","","","","","","",""
"697.7999999970198","","image-keyboard-response","79","195529","0.0-79.0","3GA6AFUKOPAI6JM4FATMXIMZRPTH3E","A3CH1Z6J9R38G9","32XN26MTXZ5MP383W6LZYTLBY7P0LI","","","img/flower5.png","75","698.5","2","1","2","","","","",""
"null","","html-keyboard-response","80","195831","0.0-80.0","3GA6AFUKOPAI6JM4FATMXIMZRPTH3E","A3CH1Z6J9R38G9","32XN26MTXZ5MP383W6LZYTLBY7P0LI","","","<img src=""img/flower5.png"" style=""width:200px; border:14px solid green;"">","null","","","","","","","","",""
"669.5","","image-keyboard-response","81","196501","0.0-81.0","3GA6AFUKOPAI6JM4FATMXIMZRPTH3E","A3CH1Z6J9R38G9","32XN26MTXZ5MP383W6LZYTLBY7P0LI","","","img/flower6.png","76","670.2999999970198","3","1","3","","","","",""
"null","","html-keyboard-response","82","196803","0.0-82.0","3GA6AFUKOPAI6JM4FATMXIMZRPTH3E","A3CH1Z6J9R38G9","32XN26MTXZ5MP383W6LZYTLBY7P0LI","","","<img src=""img/flower6.png"" style=""width:200px; border:14px solid green;"">","null","","","","","","","","",""
"630.8000000044703","","image-keyboard-response","83","197434","0.0-83.0","3GA6AFUKOPAI6JM4FATMXIMZRPTH3E","A3CH1Z6J9R38G9","32XN26MTXZ5MP383W6LZYTLBY7P0LI","","","img/flower5.png","75","631.3999999985099","2","1","2","","","","",""
"null","","html-keyboard-response","84","197736","0.0-84.0","3GA6AFUKOPAI6JM4FATMXIMZRPTH3E","A3CH1Z6J9R38G9","32XN26MTXZ5MP383W6LZYTLBY7P0LI","","","<img src=""img/flower5.png"" style=""width:200px; border:14px solid green;"">","null","","","","","","","","",""
"413.1000000014901","","image-keyboard-response","85","198150","0.0-85.0","3GA6AFUKOPAI6JM4FATMXIMZRPTH3E","A3CH1Z6J9R38G9","32XN26MTXZ5MP383W6LZYTLBY7P0LI","","","img/flower5.png","75","413.90000000596046","2","1","2","","","","",""
"null","","html-keyboard-response","86","198451","0.0-86.0","3GA6AFUKOPAI6JM4FATMXIMZRPTH3E","A3CH1Z6J9R38G9","32XN26MTXZ5MP383W6LZYTLBY7P0LI","","","<img src=""img/flower5.png"" style=""width:200px; border:14px solid green;"">","null","","","","","","","","",""
"496.5","","image-keyboard-response","87","198948","0.0-87.0","3GA6AFUKOPAI6JM4FATMXIMZRPTH3E","A3CH1Z6J9R38G9","32XN26MTXZ5MP383W6LZYTLBY7P0LI","","","img/flower6.png","76","497","3","1","3","","","","",""
"null","","html-keyboard-response","88","199250","0.0-88.0","3GA6AFUKOPAI6JM4FATMXIMZRPTH3E","A3CH1Z6J9R38G9","32XN26MTXZ5MP383W6LZYTLBY7P0LI","","","<img src=""img/flower6.png"" style=""width:200px; border:14px solid green;"">","null","","","","","","","","",""
"389.69999999552965","","image-keyboard-response","89","199640","0.0-89.0","3GA6AFUKOPAI6JM4FATMXIMZRPTH3E","A3CH1Z6J9R38G9","32XN26MTXZ5MP383W6LZYTLBY7P0LI","","","img/flower6.png","76","390.30000000447035","3","1","3","","","","",""
"null","","html-keyboard-response","90","199942","0.0-90.0","3GA6AFUKOPAI6JM4FATMXIMZRPTH3E","A3CH1Z6J9R38G9","32XN26MTXZ5MP383W6LZYTLBY7P0LI","","","<img src=""img/flower6.png"" style=""width:200px; border:14px solid green;"">","null","","","","","","","","",""
"402.3999999985099","","image-keyboard-response","91","200345","0.0-91.0","3GA6AFUKOPAI6JM4FATMXIMZRPTH3E","A3CH1Z6J9R38G9","32XN26MTXZ5MP383W6LZYTLBY7P0LI","","","img/flower6.png","76","403","3","1","3","","","","",""
"null","","html-keyboard-response","92","200646","0.0-92.0","3GA6AFUKOPAI6JM4FATMXIMZRPTH3E","A3CH1Z6J9R38G9","32XN26MTXZ5MP383W6LZYTLBY7P0LI","","","<img src=""img/flower6.png"" style=""width:200px; border:14px solid green;"">","null","","","","","","","","",""
"541.8999999985099","","image-keyboard-response","93","201189","0.0-93.0","3GA6AFUKOPAI6JM4FATMXIMZRPTH3E","A3CH1Z6J9R38G9","32XN26MTXZ5MP383W6LZYTLBY7P0LI","","","img/flower4.png","74","542.8000000044703","1","0","1","","","","",""
"null","","html-keyboard-response","94","201491","0.0-94.0","3GA6AFUKOPAI6JM4FATMXIMZRPTH3E","A3CH1Z6J9R38G9","32XN26MTXZ5MP383W6LZYTLBY7P0LI","","","<img src=""img/flower4.png"" style=""width:200px;border:14px solid red;"">","null","","","","","","","","",""
"759.7000000029802","","image-keyboard-response","95","202251","0.0-95.0","3GA6AFUKOPAI6JM4FATMXIMZRPTH3E","A3CH1Z6J9R38G9","32XN26MTXZ5MP383W6LZYTLBY7P0LI","","","img/flower6.png","76","760.4000000059605","3","1","3","","","","",""
"null","","html-keyboard-response","96","202553","0.0-96.0","3GA6AFUKOPAI6JM4FATMXIMZRPTH3E","A3CH1Z6J9R38G9","32XN26MTXZ5MP383W6LZYTLBY7P0LI","","","<img src=""img/flower6.png"" style=""width:200px; border:14px solid green;"">","null","","","","","","","","",""
"340.5","","image-keyboard-response","97","202894","0.0-97.0","3GA6AFUKOPAI6JM4FATMXIMZRPTH3E","A3CH1Z6J9R38G9","32XN26MTXZ5MP383W6LZYTLBY7P0LI","","","img/flower5.png","75","341.20000000298023","2","1","2","","","","",""
"null","","html-keyboard-response","98","203196","0.0-98.0","3GA6AFUKOPAI6JM4FATMXIMZRPTH3E","A3CH1Z6J9R38G9","32XN26MTXZ5MP383W6LZYTLBY7P0LI","","","<img src=""img/flower5.png"" style=""width:200px; border:14px solid green;"">","null","","","","","","","","",""
"548.3999999985099","","image-keyboard-response","99","203745","0.0-99.0","3GA6AFUKOPAI6JM4FATMXIMZRPTH3E","A3CH1Z6J9R38G9","32XN26MTXZ5MP383W6LZYTLBY7P0LI","","","img/flower4.png","74","549.1000000014901","1","1","1","","","","",""
"null","","html-keyboard-response","100","204047","0.0-100.0","3GA6AFUKOPAI6JM4FATMXIMZRPTH3E","A3CH1Z6J9R38G9","32XN26MTXZ5MP383W6LZYTLBY7P0LI","","","<img src=""img/flower4.png"" style=""width:200px; border:14px solid green;"">","null","","","","","","","","",""
"536.7000000029802","","image-keyboard-response","101","204584","0.0-101.0","3GA6AFUKOPAI6JM4FATMXIMZRPTH3E","A3CH1Z6J9R38G9","32XN26MTXZ5MP383W6LZYTLBY7P0LI","","","img/flower4.png","74","537.4000000059605","1","1","1","","","","",""
"null","","html-keyboard-response","102","204885","0.0-102.0","3GA6AFUKOPAI6JM4FATMXIMZRPTH3E","A3CH1Z6J9R38G9","32XN26MTXZ5MP383W6LZYTLBY7P0LI","","","<img src=""img/flower4.png"" style=""width:200px; border:14px solid green;"">","null","","","","","","","","",""
"621.8999999985099","","image-keyboard-response","103","205508","0.0-103.0","3GA6AFUKOPAI6JM4FATMXIMZRPTH3E","A3CH1Z6J9R38G9","32XN26MTXZ5MP383W6LZYTLBY7P0LI","","","img/flower6.png","76","622.3999999985099","3","0","3","","","","",""
"null","","html-keyboard-response","104","205809","0.0-104.0","3GA6AFUKOPAI6JM4FATMXIMZRPTH3E","A3CH1Z6J9R38G9","32XN26MTXZ5MP383W6LZYTLBY7P0LI","","","<img src=""img/flower6.png"" style=""width:200px;border:14px solid red;"">","null","","","","","","","","",""
"320.29999999701977","","image-keyboard-response","105","206130","0.0-105.0","3GA6AFUKOPAI6JM4FATMXIMZRPTH3E","A3CH1Z6J9R38G9","32XN26MTXZ5MP383W6LZYTLBY7P0LI","","","img/flower6.png","76","320.8999999985099","3","1","3","","","","",""
"null","","html-keyboard-response","106","206431","0.0-106.0","3GA6AFUKOPAI6JM4FATMXIMZRPTH3E","A3CH1Z6J9R38G9","32XN26MTXZ5MP383W6LZYTLBY7P0LI","","","<img src=""img/flower6.png"" style=""width:200px; border:14px solid green;"">","null","","","","","","","","",""
"667.0999999940395","","image-keyboard-response","107","207099","0.0-107.0","3GA6AFUKOPAI6JM4FATMXIMZRPTH3E","A3CH1Z6J9R38G9","32XN26MTXZ5MP383W6LZYTLBY7P0LI","","","img/flower4.png","74","667.7000000029802","1","1","1","","","","",""
"null","","html-keyboard-response","108","207400","0.0-108.0","3GA6AFUKOPAI6JM4FATMXIMZRPTH3E","A3CH1Z6J9R38G9","32XN26MTXZ5MP383W6LZYTLBY7P0LI","","","<img src=""img/flower4.png"" style=""width:200px; border:14px solid green;"">","null","","","","","","","","",""
"495.3999999985099","","image-keyboard-response","109","207896","0.0-109.0","3GA6AFUKOPAI6JM4FATMXIMZRPTH3E","A3CH1Z6J9R38G9","32XN26MTXZ5MP383W6LZYTLBY7P0LI","","","img/flower5.png","75","496","2","1","2","","","","",""
"null","","html-keyboard-response","110","208197","0.0-110.0","3GA6AFUKOPAI6JM4FATMXIMZRPTH3E","A3CH1Z6J9R38G9","32XN26MTXZ5MP383W6LZYTLBY7P0LI","","","<img src=""img/flower5.png"" style=""width:200px; border:14px solid green;"">","null","","","","","","","","",""
"500","","image-keyboard-response","111","208698","0.0-111.0","3GA6AFUKOPAI6JM4FATMXIMZRPTH3E","A3CH1Z6J9R38G9","32XN26MTXZ5MP383W6LZYTLBY7P0LI","","","img/flower5.png","75","500.6000000014901","2","1","2","","","","",""
"null","","html-keyboard-response","112","209000","0.0-112.0","3GA6AFUKOPAI6JM4FATMXIMZRPTH3E","A3CH1Z6J9R38G9","32XN26MTXZ5MP383W6LZYTLBY7P0LI","","","<img src=""img/flower5.png"" style=""width:200px; border:14px solid green;"">","null","","","","","","","","",""
"748.2999999970198","","image-keyboard-response","113","209749","0.0-113.0","3GA6AFUKOPAI6JM4FATMXIMZRPTH3E","A3CH1Z6J9R38G9","32XN26MTXZ5MP383W6LZYTLBY7P0LI","","","img/flower5.png","75","748.8999999985099","2","1","2","","","","",""
"null","","html-keyboard-response","114","210051","0.0-114.0","3GA6AFUKOPAI6JM4FATMXIMZRPTH3E","A3CH1Z6J9R38G9","32XN26MTXZ5MP383W6LZYTLBY7P0LI","","","<img src=""img/flower5.png"" style=""width:200px; border:14px solid green;"">","null","","","","","","","","",""
"559.5","","image-keyboard-response","115","210611","0.0-115.0","3GA6AFUKOPAI6JM4FATMXIMZRPTH3E","A3CH1Z6J9R38G9","32XN26MTXZ5MP383W6LZYTLBY7P0LI","","","img/flower6.png","76","560.1000000014901","3","1","3","","","","",""
"null","","html-keyboard-response","116","210912","0.0-116.0","3GA6AFUKOPAI6JM4FATMXIMZRPTH3E","A3CH1Z6J9R38G9","32XN26MTXZ5MP383W6LZYTLBY7P0LI","","","<img src=""img/flower6.png"" style=""width:200px; border:14px solid green;"">","null","","","","","","","","",""
"319.19999999552965","","image-keyboard-response","117","211232","0.0-117.0","3GA6AFUKOPAI6JM4FATMXIMZRPTH3E","A3CH1Z6J9R38G9","32XN26MTXZ5MP383W6LZYTLBY7P0LI","","","img/flower6.png","76","319.6000000014901","3","1","3","","","","",""
"null","","html-keyboard-response","118","211533","0.0-118.0","3GA6AFUKOPAI6JM4FATMXIMZRPTH3E","A3CH1Z6J9R38G9","32XN26MTXZ5MP383W6LZYTLBY7P0LI","","","<img src=""img/flower6.png"" style=""width:200px; border:14px solid green;"">","null","","","","","","","","",""
"514.8999999985099","","image-keyboard-response","119","212049","0.0-119.0","3GA6AFUKOPAI6JM4FATMXIMZRPTH3E","A3CH1Z6J9R38G9","32XN26MTXZ5MP383W6LZYTLBY7P0LI","","","img/flower4.png","74","515.6000000014901","1","0","1","","","","",""
"null","","html-keyboard-response","120","212350","0.0-120.0","3GA6AFUKOPAI6JM4FATMXIMZRPTH3E","A3CH1Z6J9R38G9","32XN26MTXZ5MP383W6LZYTLBY7P0LI","","","<img src=""img/flower4.png"" style=""width:200px;border:14px solid red;"">","null","","","","","","","","",""
"817.3999999985099","","image-keyboard-response","121","213168","0.0-121.0","3GA6AFUKOPAI6JM4FATMXIMZRPTH3E","A3CH1Z6J9R38G9","32XN26MTXZ5MP383W6LZYTLBY7P0LI","","","img/flower5.png","75","818.0999999940395","2","1","2","","","","",""
"null","","html-keyboard-response","122","213470","0.0-122.0","3GA6AFUKOPAI6JM4FATMXIMZRPTH3E","A3CH1Z6J9R38G9","32XN26MTXZ5MP383W6LZYTLBY7P0LI","","","<img src=""img/flower5.png"" style=""width:200px; border:14px solid green;"">","null","","","","","","","","",""
"564.3999999985099","","image-keyboard-response","123","214035","0.0-123.0","3GA6AFUKOPAI6JM4FATMXIMZRPTH3E","A3CH1Z6J9R38G9","32XN26MTXZ5MP383W6LZYTLBY7P0LI","","","img/flower4.png","74","565.1000000014901","1","0","1","","","","",""
"null","","html-keyboard-response","124","214337","0.0-124.0","3GA6AFUKOPAI6JM4FATMXIMZRPTH3E","A3CH1Z6J9R38G9","32XN26MTXZ5MP383W6LZYTLBY7P0LI","","","<img src=""img/flower4.png"" style=""width:200px;border:14px solid red;"">","null","","","","","","","","",""
"6959","","instructions","125","221296","0.0-125.0","3GA6AFUKOPAI6JM4FATMXIMZRPTH3E","A3CH1Z6J9R38G9","32XN26MTXZ5MP383W6LZYTLBY7P0LI","","[{""page_index"":0,""viewing_time"":6958.70000000298}]","","","","","","","","","","",""
"1339.1999999955297","","image-keyboard-response","126","222636","0.0-126.0","3GA6AFUKOPAI6JM4FATMXIMZRPTH3E","A3CH1Z6J9R38G9","32XN26MTXZ5MP383W6LZYTLBY7P0LI","","","img/flower5.png","75","1340","2","1","2","1","1,0.333,0.333,0.333,1,0.333,0.333,0.333,1","1,0.333,0.333,0.333,1,0.333,0.333,0.333,1","1",""
"null","","html-keyboard-response","127","222939","0.0-127.0","3GA6AFUKOPAI6JM4FATMXIMZRPTH3E","A3CH1Z6J9R38G9","32XN26MTXZ5MP383W6LZYTLBY7P0LI","","","<img src=""img/flower5.png"" style=""width:200px; border:14px solid green;"">","null","","","","","","","","",""
"1256.7000000029802","","image-keyboard-response","128","224196","0.0-128.0","3GA6AFUKOPAI6JM4FATMXIMZRPTH3E","A3CH1Z6J9R38G9","32XN26MTXZ5MP383W6LZYTLBY7P0LI","","","img/flower1.png","75","1257.5","2","0","1","1","1,0.333,0.333,0.333,1,0.333,0.333,0.333,1","1,0.333,0.333,0.333,1,0.333,0.333,0.333,1","1",""
"null","","html-keyboard-response","129","224499","0.0-129.0","3GA6AFUKOPAI6JM4FATMXIMZRPTH3E","A3CH1Z6J9R38G9","32XN26MTXZ5MP383W6LZYTLBY7P0LI","","","<img src=""img/flower1.png"" style=""width:200px;border:14px solid red;"">","null","","","","","","","","",""
"475.1000000014901","","image-keyboard-response","130","224975","0.0-130.0","3GA6AFUKOPAI6JM4FATMXIMZRPTH3E","A3CH1Z6J9R38G9","32XN26MTXZ5MP383W6LZYTLBY7P0LI","","","img/flower1.png","75","475.8999999985099","2","1","1","1","1,0.333,0.333,0.333,1,0.333,0.333,0.333,1","1,0.333,0.333,0.333,1,0.333,0.333,0.333,1","1",""
"null","","html-keyboard-response","131","225277","0.0-131.0","3GA6AFUKOPAI6JM4FATMXIMZRPTH3E","A3CH1Z6J9R38G9","32XN26MTXZ5MP383W6LZYTLBY7P0LI","","","<img src=""img/flower1.png"" style=""width:200px; border:14px solid green;"">","null","","","","","","","","",""
"1182.7999999970198","","image-keyboard-response","132","226460","0.0-132.0","3GA6AFUKOPAI6JM4FATMXIMZRPTH3E","A3CH1Z6J9R38G9","32XN26MTXZ5MP383W6LZYTLBY7P0LI","","","img/flower5.png","74","1183.5999999940395","1","1","2","1","1,0.333,0.333,0.333,1,0.333,0.333,0.333,1","1,0.333,0.333,0.333,1,0.333,0.333,0.333,1","1",""
"null","","html-keyboard-response","133","226762","0.0-133.0","3GA6AFUKOPAI6JM4FATMXIMZRPTH3E","A3CH1Z6J9R38G9","32XN26MTXZ5MP383W6LZYTLBY7P0LI","","","<img src=""img/flower5.png"" style=""width:200px; border:14px solid green;"">","null","","","","","","","","",""
"646.2999999970198","","image-keyboard-response","134","227409","0.0-134.0","3GA6AFUKOPAI6JM4FATMXIMZRPTH3E","A3CH1Z6J9R38G9","32XN26MTXZ5MP383W6LZYTLBY7P0LI","","","img/flower1.png","75","646.7999999970198","2","0","1","1","1,0.333,0.333,0.333,1,0.333,0.333,0.333,1","1,0.333,0.333,0.333,1,0.333,0.333,0.333,1","1",""
"null","","html-keyboard-response","135","227711","0.0-135.0","3GA6AFUKOPAI6JM4FATMXIMZRPTH3E","A3CH1Z6J9R38G9","32XN26MTXZ5MP383W6LZYTLBY7P0LI","","","<img src=""img/flower1.png"" style=""width:200px;border:14px solid red;"">","null","","","","","","","","",""
"871.8000000044703","","image-keyboard-response","136","228584","0.0-136.0","3GA6AFUKOPAI6JM4FATMXIMZRPTH3E","A3CH1Z6J9R38G9","32XN26MTXZ5MP383W6LZYTLBY7P0LI","","","img/flower5.png","75","872.6000000014901","2","1","2","1","1,0.333,0.333,0.333,1,0.333,0.333,0.333,1","1,0.333,0.333,0.333,1,0.333,0.333,0.333,1","1",""
"null","","html-keyboard-response","137","228886","0.0-137.0","3GA6AFUKOPAI6JM4FATMXIMZRPTH3E","A3CH1Z6J9R38G9","32XN26MTXZ5MP383W6LZYTLBY7P0LI","","","<img src=""img/flower5.png"" style=""width:200px; border:14px solid green;"">","null","","","","","","","","",""
"416.20000000298023","","image-keyboard-response","138","229303","0.0-138.0","3GA6AFUKOPAI6JM4FATMXIMZRPTH3E","A3CH1Z6J9R38G9","32XN26MTXZ5MP383W6LZYTLBY7P0LI","","","img/flower5.png","75","416.8999999985099","2","1","2","1","1,0.333,0.333,0.333,1,0.333,0.333,0.333,1","1,0.333,0.333,0.333,1,0.333,0.333,0.333,1","1",""
"null","","html-keyboard-response","139","229604","0.0-139.0","3GA6AFUKOPAI6JM4FATMXIMZRPTH3E","A3CH1Z6J9R38G9","32XN26MTXZ5MP383W6LZYTLBY7P0LI","","","<img src=""img/flower5.png"" style=""width:200px; border:14px solid green;"">","null","","","","","","","","",""
"417.09999999403954","","image-keyboard-response","140","230022","0.0-140.0","3GA6AFUKOPAI6JM4FATMXIMZRPTH3E","A3CH1Z6J9R38G9","32XN26MTXZ5MP383W6LZYTLBY7P0LI","","","img/flower5.png","75","417.69999999552965","2","1","2","1","1,0.333,0.333,0.333,1,0.333,0.333,0.333,1","1,0.333,0.333,0.333,1,0.333,0.333,0.333,1","1",""
"null","","html-keyboard-response","141","230324","0.0-141.0","3GA6AFUKOPAI6JM4FATMXIMZRPTH3E","A3CH1Z6J9R38G9","32XN26MTXZ5MP383W6LZYTLBY7P0LI","","","<img src=""img/flower5.png"" style=""width:200px; border:14px solid green;"">","null","","","","","","","","",""
"377","","image-keyboard-response","142","230702","0.0-142.0","3GA6AFUKOPAI6JM4FATMXIMZRPTH3E","A3CH1Z6J9R38G9","32XN26MTXZ5MP383W6LZYTLBY7P0LI","","","img/flower5.png","75","377.69999999552965","2","1","2","1","1,0.333,0.333,0.333,1,0.333,0.333,0.333,1","1,0.333,0.333,0.333,1,0.333,0.333,0.333,1","1",""
"null","","html-keyboard-response","143","231004","0.0-143.0","3GA6AFUKOPAI6JM4FATMXIMZRPTH3E","A3CH1Z6J9R38G9","32XN26MTXZ5MP383W6LZYTLBY7P0LI","","","<img src=""img/flower5.png"" style=""width:200px; border:14px solid green;"">","null","","","","","","","","",""
"346.5","","image-keyboard-response","144","231351","0.0-144.0","3GA6AFUKOPAI6JM4FATMXIMZRPTH3E","A3CH1Z6J9R38G9","32XN26MTXZ5MP383W6LZYTLBY7P0LI","","","img/flower5.png","75","347.09999999403954","2","1","2","1","1,0.333,0.333,0.333,1,0.333,0.333,0.333,1","1,0.333,0.333,0.333,1,0.333,0.333,0.333,1","1",""
"null","","html-keyboard-response","145","231653","0.0-145.0","3GA6AFUKOPAI6JM4FATMXIMZRPTH3E","A3CH1Z6J9R38G9","32XN26MTXZ5MP383W6LZYTLBY7P0LI","","","<img src=""img/flower5.png"" style=""width:200px; border:14px solid green;"">","null","","","","","","","","",""
"326.30000000447035","","image-keyboard-response","146","231980","0.0-146.0","3GA6AFUKOPAI6JM4FATMXIMZRPTH3E","A3CH1Z6J9R38G9","32XN26MTXZ5MP383W6LZYTLBY7P0LI","","","img/flower5.png","75","327.09999999403954","2","1","2","1","1,0.333,0.333,0.333,1,0.333,0.333,0.333,1","1,0.333,0.333,0.333,1,0.333,0.333,0.333,1","1",""
"null","","html-keyboard-response","147","232282","0.0-147.0","3GA6AFUKOPAI6JM4FATMXIMZRPTH3E","A3CH1Z6J9R38G9","32XN26MTXZ5MP383W6LZYTLBY7P0LI","","","<img src=""img/flower5.png"" style=""width:200px; border:14px solid green;"">","null","","","","","","","","",""
"335.80000000447035","","image-keyboard-response","148","232619","0.0-148.0","3GA6AFUKOPAI6JM4FATMXIMZRPTH3E","A3CH1Z6J9R38G9","32XN26MTXZ5MP383W6LZYTLBY7P0LI","","","img/flower5.png","75","336.40000000596046","2","1","2","1","1,0.333,0.333,0.333,1,0.333,0.333,0.333,1","1,0.333,0.333,0.333,1,0.333,0.333,0.333,1","1",""
"null","","html-keyboard-response","149","232920","0.0-149.0","3GA6AFUKOPAI6JM4FATMXIMZRPTH3E","A3CH1Z6J9R38G9","32XN26MTXZ5MP383W6LZYTLBY7P0LI","","","<img src=""img/flower5.png"" style=""width:200px; border:14px solid green;"">","null","","","","","","","","",""
"787.2999999970198","","image-keyboard-response","150","233708","0.0-150.0","3GA6AFUKOPAI6JM4FATMXIMZRPTH3E","A3CH1Z6J9R38G9","32XN26MTXZ5MP383W6LZYTLBY7P0LI","","","img/flower1.png","74","788","1","1","1","1","1,0.333,0.333,0.333,1,0.333,0.333,0.333,1","1,0.333,0.333,0.333,1,0.333,0.333,0.333,1","1",""
"null","","html-keyboard-response","151","234009","0.0-151.0","3GA6AFUKOPAI6JM4FATMXIMZRPTH3E","A3CH1Z6J9R38G9","32XN26MTXZ5MP383W6LZYTLBY7P0LI","","","<img src=""img/flower1.png"" style=""width:200px; border:14px solid green;"">","null","","","","","","","","",""
"654.2000000029802","","image-keyboard-response","152","234664","0.0-152.0","3GA6AFUKOPAI6JM4FATMXIMZRPTH3E","A3CH1Z6J9R38G9","32XN26MTXZ5MP383W6LZYTLBY7P0LI","","","img/flower5.png","75","654.8999999985099","2","1","2","1","1,0.333,0.333,0.333,1,0.333,0.333,0.333,1","1,0.333,0.333,0.333,1,0.333,0.333,0.333,1","1",""
"null","","html-keyboard-response","153","234965","0.0-153.0","3GA6AFUKOPAI6JM4FATMXIMZRPTH3E","A3CH1Z6J9R38G9","32XN26MTXZ5MP383W6LZYTLBY7P0LI","","","<img src=""img/flower5.png"" style=""width:200px; border:14px solid green;"">","null","","","","","","","","",""
"726","","image-keyboard-response","154","235692","0.0-154.0","3GA6AFUKOPAI6JM4FATMXIMZRPTH3E","A3CH1Z6J9R38G9","32XN26MTXZ5MP383W6LZYTLBY7P0LI","","","img/flower3.png","76","726.5999999940395","3","1","3","1","1,0.333,0.333,0.333,1,0.333,0.333,0.333,1","1,0.333,0.333,0.333,1,0.333,0.333,0.333,1","1",""
"null","","html-keyboard-response","155","235993","0.0-155.0","3GA6AFUKOPAI6JM4FATMXIMZRPTH3E","A3CH1Z6J9R38G9","32XN26MTXZ5MP383W6LZYTLBY7P0LI","","","<img src=""img/flower3.png"" style=""width:200px; border:14px solid green;"">","null","","","","","","","","",""
"657","","image-keyboard-response","156","236651","0.0-156.0","3GA6AFUKOPAI6JM4FATMXIMZRPTH3E","A3CH1Z6J9R38G9","32XN26MTXZ5MP383W6LZYTLBY7P0LI","","","img/flower5.png","75","657.7000000029802","2","1","2","1","1,0.333,0.333,0.333,1,0.333,0.333,0.333,1","1,0.333,0.333,0.333,1,0.333,0.333,0.333,1","1",""
"null","","html-keyboard-response","157","236952","0.0-157.0","3GA6AFUKOPAI6JM4FATMXIMZRPTH3E","A3CH1Z6J9R38G9","32XN26MTXZ5MP383W6LZYTLBY7P0LI","","","<img src=""img/flower5.png"" style=""width:200px; border:14px solid green;"">","null","","","","","","","","",""
"437","","image-keyboard-response","158","237390","0.0-158.0","3GA6AFUKOPAI6JM4FATMXIMZRPTH3E","A3CH1Z6J9R38G9","32XN26MTXZ5MP383W6LZYTLBY7P0LI","","","img/flower3.png","76","437.6000000014901","3","1","3","1","1,0.333,0.333,0.333,1,0.333,0.333,0.333,1","1,0.333,0.333,0.333,1,0.333,0.333,0.333,1","1",""
"null","","html-keyboard-response","159","237691","0.0-159.0","3GA6AFUKOPAI6JM4FATMXIMZRPTH3E","A3CH1Z6J9R38G9","32XN26MTXZ5MP383W6LZYTLBY7P0LI","","","<img src=""img/flower3.png"" style=""width:200px; border:14px solid green;"">","null","","","","","","","","",""
"483.1000000014901","","image-keyboard-response","160","238175","0.0-160.0","3GA6AFUKOPAI6JM4FATMXIMZRPTH3E","A3CH1Z6J9R38G9","32XN26MTXZ5MP383W6LZYTLBY7P0LI","","","img/flower5.png","75","483.69999999552965","2","1","2","1","1,0.333,0.333,0.333,1,0.333,0.333,0.333,1","1,0.333,0.333,0.333,1,0.333,0.333,0.333,1","1",""
"null","","html-keyboard-response","161","238476","0.0-161.0","3GA6AFUKOPAI6JM4FATMXIMZRPTH3E","A3CH1Z6J9R38G9","32XN26MTXZ5MP383W6LZYTLBY7P0LI","","","<img src=""img/flower5.png"" style=""width:200px; border:14px solid green;"">","null","","","","","","","","",""
"322.30000000447035","","image-keyboard-response","162","238799","0.0-162.0","3GA6AFUKOPAI6JM4FATMXIMZRPTH3E","A3CH1Z6J9R38G9","32XN26MTXZ5MP383W6LZYTLBY7P0LI","","","img/flower5.png","75","323","2","1","2","1","1,0.333,0.333,0.333,1,0.333,0.333,0.333,1","1,0.333,0.333,0.333,1,0.333,0.333,0.333,1","1",""
"null","","html-keyboard-response","163","239100","0.0-163.0","3GA6AFUKOPAI6JM4FATMXIMZRPTH3E","A3CH1Z6J9R38G9","32XN26MTXZ5MP383W6LZYTLBY7P0LI","","","<img src=""img/flower5.png"" style=""width:200px; border:14px solid green;"">","null","","","","","","","","",""
"761","","image-keyboard-response","164","239862","0.0-164.0","3GA6AFUKOPAI6JM4FATMXIMZRPTH3E","A3CH1Z6J9R38G9","32XN26MTXZ5MP383W6LZYTLBY7P0LI","","","img/flower3.png","76","761.7000000029802","3","1","3","1","1,0.333,0.333,0.333,1,0.333,0.333,0.333,1","1,0.333,0.333,0.333,1,0.333,0.333,0.333,1","1",""
"null","","html-keyboard-response","165","240163","0.0-165.0","3GA6AFUKOPAI6JM4FATMXIMZRPTH3E","A3CH1Z6J9R38G9","32XN26MTXZ5MP383W6LZYTLBY7P0LI","","","<img src=""img/flower3.png"" style=""width:200px; border:14px solid green;"">","null","","","","","","","","",""
"463.69999999552965","","image-keyboard-response","166","240628","0.0-166.0","3GA6AFUKOPAI6JM4FATMXIMZRPTH3E","A3CH1Z6J9R38G9","32XN26MTXZ5MP383W6LZYTLBY7P0LI","","","img/flower3.png","76","464.5","3","1","3","1","1,0.333,0.333,0.333,1,0.333,0.333,0.333,1","1,0.333,0.333,0.333,1,0.333,0.333,0.333,1","1",""
"null","","html-keyboard-response","167","240929","0.0-167.0","3GA6AFUKOPAI6JM4FATMXIMZRPTH3E","A3CH1Z6J9R38G9","32XN26MTXZ5MP383W6LZYTLBY7P0LI","","","<img src=""img/flower3.png"" style=""width:200px; border:14px solid green;"">","null","","","","","","","","",""
"606","","image-keyboard-response","168","241536","0.0-168.0","3GA6AFUKOPAI6JM4FATMXIMZRPTH3E","A3CH1Z6J9R38G9","32XN26MTXZ5MP383W6LZYTLBY7P0LI","","","img/flower5.png","75","606.6000000014901","2","1","2","1","1,0.333,0.333,0.333,1,0.333,0.333,0.333,1","1,0.333,0.333,0.333,1,0.333,0.333,0.333,1","1",""
"null","","html-keyboard-response","169","241837","0.0-169.0","3GA6AFUKOPAI6JM4FATMXIMZRPTH3E","A3CH1Z6J9R38G9","32XN26MTXZ5MP383W6LZYTLBY7P0LI","","","<img src=""img/flower5.png"" style=""width:200px; border:14px solid green;"">","null","","","","","","","","",""
"422","","image-keyboard-response","170","242260","0.0-170.0","3GA6AFUKOPAI6JM4FATMXIMZRPTH3E","A3CH1Z6J9R38G9","32XN26MTXZ5MP383W6LZYTLBY7P0LI","","","img/flower5.png","75","422.69999999552965","2","1","2","1","1,0.333,0.333,0.333,1,0.333,0.333,0.333,1","1,0.333,0.333,0.333,1,0.333,0.333,0.333,1","1",""
"null","","html-keyboard-response","171","242562","0.0-171.0","3GA6AFUKOPAI6JM4FATMXIMZRPTH3E","A3CH1Z6J9R38G9","32XN26MTXZ5MP383W6LZYTLBY7P0LI","","","<img src=""img/flower5.png"" style=""width:200px; border:14px solid green;"">","null","","","","","","","","",""
"504.20000000298023","","image-keyboard-response","172","243067","0.0-172.0","3GA6AFUKOPAI6JM4FATMXIMZRPTH3E","A3CH1Z6J9R38G9","32XN26MTXZ5MP383W6LZYTLBY7P0LI","","","img/flower3.png","76","504.80000000447035","3","1","3","1","1,0.333,0.333,0.333,1,0.333,0.333,0.333,1","1,0.333,0.333,0.333,1,0.333,0.333,0.333,1","1",""
"null","","html-keyboard-response","173","243368","0.0-173.0","3GA6AFUKOPAI6JM4FATMXIMZRPTH3E","A3CH1Z6J9R38G9","32XN26MTXZ5MP383W6LZYTLBY7P0LI","","","<img src=""img/flower3.png"" style=""width:200px; border:14px solid green;"">","null","","","","","","","","",""
"1092.8999999985099","","image-keyboard-response","174","244462","0.0-174.0","3GA6AFUKOPAI6JM4FATMXIMZRPTH3E","A3CH1Z6J9R38G9","32XN26MTXZ5MP383W6LZYTLBY7P0LI","","","img/flower1.png","74","1093.5","1","1","1","1","1,0.333,0.333,0.333,1,0.333,0.333,0.333,1","1,0.333,0.333,0.333,1,0.333,0.333,0.333,1","1",""
"null","","html-keyboard-response","175","244763","0.0-175.0","3GA6AFUKOPAI6JM4FATMXIMZRPTH3E","A3CH1Z6J9R38G9","32XN26MTXZ5MP383W6LZYTLBY7P0LI","","","<img src=""img/flower1.png"" style=""width:200px; border:14px solid green;"">","null","","","","","","","","",""
"768.6000000014901","","image-keyboard-response","176","245533","0.0-176.0","3GA6AFUKOPAI6JM4FATMXIMZRPTH3E","A3CH1Z6J9R38G9","32XN26MTXZ5MP383W6LZYTLBY7P0LI","","","img/flower3.png","76","769.3000000044703","3","1","3","1","1,0.333,0.333,0.333,1,0.333,0.333,0.333,1","1,0.333,0.333,0.333,1,0.333,0.333,0.333,1","1",""
"null","","html-keyboard-response","177","245835","0.0-177.0","3GA6AFUKOPAI6JM4FATMXIMZRPTH3E","A3CH1Z6J9R38G9","32XN26MTXZ5MP383W6LZYTLBY7P0LI","","","<img src=""img/flower3.png"" style=""width:200px; border:14px solid green;"">","null","","","","","","","","",""
"867.1000000014901","","image-keyboard-response","178","246703","0.0-178.0","3GA6AFUKOPAI6JM4FATMXIMZRPTH3E","A3CH1Z6J9R38G9","32XN26MTXZ5MP383W6LZYTLBY7P0LI","","","img/flower5.png","75","867.7000000029802","2","1","2","1","1,0.333,0.333,0.333,1,0.333,0.333,0.333,1","1,0.333,0.333,0.333,1,0.333,0.333,0.333,1","1",""
"null","","html-keyboard-response","179","247004","0.0-179.0","3GA6AFUKOPAI6JM4FATMXIMZRPTH3E","A3CH1Z6J9R38G9","32XN26MTXZ5MP383W6LZYTLBY7P0LI","","","<img src=""img/flower5.png"" style=""width:200px; border:14px solid green;"">","null","","","","","","","","",""
"539.8999999985099","","image-keyboard-response","180","247545","0.0-180.0","3GA6AFUKOPAI6JM4FATMXIMZRPTH3E","A3CH1Z6J9R38G9","32XN26MTXZ5MP383W6LZYTLBY7P0LI","","","img/flower3.png","76","540.6000000014901","3","1","3","1","1,0.333,0.333,0.333,1,0.333,0.333,0.333,1","1,0.333,0.333,0.333,1,0.333,0.333,0.333,1","1",""
"null","","html-keyboard-response","181","247846","0.0-181.0","3GA6AFUKOPAI6JM4FATMXIMZRPTH3E","A3CH1Z6J9R38G9","32XN26MTXZ5MP383W6LZYTLBY7P0LI","","","<img src=""img/flower3.png"" style=""width:200px; border:14px solid green;"">","null","","","","","","","","",""
"588","","image-keyboard-response","182","248435","0.0-182.0","3GA6AFUKOPAI6JM4FATMXIMZRPTH3E","A3CH1Z6J9R38G9","32XN26MTXZ5MP383W6LZYTLBY7P0LI","","","img/flower1.png","75","588.5999999940395","2","0","1","1","1,0.333,0.333,0.333,1,0.333,0.333,0.333,1","1,0.333,0.333,0.333,1,0.333,0.333,0.333,1","1",""
"null","","html-keyboard-response","183","248736","0.0-183.0","3GA6AFUKOPAI6JM4FATMXIMZRPTH3E","A3CH1Z6J9R38G9","32XN26MTXZ5MP383W6LZYTLBY7P0LI","","","<img src=""img/flower1.png"" style=""width:200px;border:14px solid red;"">","null","","","","","","","","",""
"975.2000000029802","","image-keyboard-response","184","249712","0.0-184.0","3GA6AFUKOPAI6JM4FATMXIMZRPTH3E","A3CH1Z6J9R38G9","32XN26MTXZ5MP383W6LZYTLBY7P0LI","","","img/flower3.png","76","975.8000000044703","3","1","3","1","1,0.333,0.333,0.333,1,0.333,0.333,0.333,1","1,0.333,0.333,0.333,1,0.333,0.333,0.333,1","1",""
"null","","html-keyboard-response","185","250014","0.0-185.0","3GA6AFUKOPAI6JM4FATMXIMZRPTH3E","A3CH1Z6J9R38G9","32XN26MTXZ5MP383W6LZYTLBY7P0LI","","","<img src=""img/flower3.png"" style=""width:200px; border:14px solid green;"">","null","","","","","","","","",""
"716","","image-keyboard-response","186","250731","0.0-186.0","3GA6AFUKOPAI6JM4FATMXIMZRPTH3E","A3CH1Z6J9R38G9","32XN26MTXZ5MP383W6LZYTLBY7P0LI","","","img/flower5.png","75","716.6000000014901","2","1","2","1","1,0.333,0.333,0.333,1,0.333,0.333,0.333,1","1,0.333,0.333,0.333,1,0.333,0.333,0.333,1","1",""
"null","","html-keyboard-response","187","251032","0.0-187.0","3GA6AFUKOPAI6JM4FATMXIMZRPTH3E","A3CH1Z6J9R38G9","32XN26MTXZ5MP383W6LZYTLBY7P0LI","","","<img src=""img/flower5.png"" style=""width:200px; border:14px solid green;"">","null","","","","","","","","",""
"721.7999999970198","","image-keyboard-response","188","251755","0.0-188.0","3GA6AFUKOPAI6JM4FATMXIMZRPTH3E","A3CH1Z6J9R38G9","32XN26MTXZ5MP383W6LZYTLBY7P0LI","","","img/flower1.png","76","722.5","3","1","1","1","1,0.333,0.333,0.333,1,0.333,0.333,0.333,1","1,0.333,0.333,0.333,1,0.333,0.333,0.333,1","1",""
"null","","html-keyboard-response","189","252057","0.0-189.0","3GA6AFUKOPAI6JM4FATMXIMZRPTH3E","A3CH1Z6J9R38G9","32XN26MTXZ5MP383W6LZYTLBY7P0LI","","","<img src=""img/flower1.png"" style=""width:200px; border:14px solid green;"">","null","","","","","","","","",""
"677.6000000014901","","image-keyboard-response","190","252735","0.0-190.0","3GA6AFUKOPAI6JM4FATMXIMZRPTH3E","A3CH1Z6J9R38G9","32XN26MTXZ5MP383W6LZYTLBY7P0LI","","","img/flower5.png","75","678.3999999985099","2","1","2","1","1,0.333,0.333,0.333,1,0.333,0.333,0.333,1","1,0.333,0.333,0.333,1,0.333,0.333,0.333,1","1",""
"null","","html-keyboard-response","191","253037","0.0-191.0","3GA6AFUKOPAI6JM4FATMXIMZRPTH3E","A3CH1Z6J9R38G9","32XN26MTXZ5MP383W6LZYTLBY7P0LI","","","<img src=""img/flower5.png"" style=""width:200px; border:14px solid green;"">","null","","","","","","","","",""
"684.2999999970198","","image-keyboard-response","192","253722","0.0-192.0","3GA6AFUKOPAI6JM4FATMXIMZRPTH3E","A3CH1Z6J9R38G9","32XN26MTXZ5MP383W6LZYTLBY7P0LI","","","img/flower1.png","76","685.1000000014901","3","1","1","1","1,0.333,0.333,0.333,1,0.333,0.333,0.333,1","1,0.333,0.333,0.333,1,0.333,0.333,0.333,1","1",""
"null","","html-keyboard-response","193","254024","0.0-193.0","3GA6AFUKOPAI6JM4FATMXIMZRPTH3E","A3CH1Z6J9R38G9","32XN26MTXZ5MP383W6LZYTLBY7P0LI","","","<img src=""img/flower1.png"" style=""width:200px; border:14px solid green;"">","null","","","","","","","","",""
"696.2999999970198","","image-keyboard-response","194","254721","0.0-194.0","3GA6AFUKOPAI6JM4FATMXIMZRPTH3E","A3CH1Z6J9R38G9","32XN26MTXZ5MP383W6LZYTLBY7P0LI","","","img/flower5.png","75","696.8999999985099","2","1","2","1","1,0.333,0.333,0.333,1,0.333,0.333,0.333,1","1,0.333,0.333,0.333,1,0.333,0.333,0.333,1","1",""
"null","","html-keyboard-response","195","255022","0.0-195.0","3GA6AFUKOPAI6JM4FATMXIMZRPTH3E","A3CH1Z6J9R38G9","32XN26MTXZ5MP383W6LZYTLBY7P0LI","","","<img src=""img/flower5.png"" style=""width:200px; border:14px solid green;"">","null","","","","","","","","",""
"522.8000000044703","","image-keyboard-response","196","255546","0.0-196.0","3GA6AFUKOPAI6JM4FATMXIMZRPTH3E","A3CH1Z6J9R38G9","32XN26MTXZ5MP383W6LZYTLBY7P0LI","","","img/flower1.png","76","523.3999999985099","3","1","1","1","1,0.333,0.333,0.333,1,0.333,0.333,0.333,1","1,0.333,0.333,0.333,1,0.333,0.333,0.333,1","1",""
"null","","html-keyboard-response","197","255848","0.0-197.0","3GA6AFUKOPAI6JM4FATMXIMZRPTH3E","A3CH1Z6J9R38G9","32XN26MTXZ5MP383W6LZYTLBY7P0LI","","","<img src=""img/flower1.png"" style=""width:200px; border:14px solid green;"">","null","","","","","","","","",""
"530.3999999985099","","image-keyboard-response","198","256379","0.0-198.0","3GA6AFUKOPAI6JM4FATMXIMZRPTH3E","A3CH1Z6J9R38G9","32XN26MTXZ5MP383W6LZYTLBY7P0LI","","","img/flower1.png","76","531.1000000014901","3","1","1","1","1,0.333,0.333,0.333,1,0.333,0.333,0.333,1","1,0.333,0.333,0.333,1,0.333,0.333,0.333,1","1",""
"null","","html-keyboard-response","199","256680","0.0-199.0","3GA6AFUKOPAI6JM4FATMXIMZRPTH3E","A3CH1Z6J9R38G9","32XN26MTXZ5MP383W6LZYTLBY7P0LI","","","<img src=""img/flower1.png"" style=""width:200px; border:14px solid green;"">","null","","","","","","","","",""
"1145.5","","image-keyboard-response","200","257826","0.0-200.0","3GA6AFUKOPAI6JM4FATMXIMZRPTH3E","A3CH1Z6J9R38G9","32XN26MTXZ5MP383W6LZYTLBY7P0LI","","","img/flower3.png","74","1146.1999999955297","1","0","3","1","1,0.333,0.333,0.333,1,0.333,0.333,0.333,1","1,0.333,0.333,0.333,1,0.333,0.333,0.333,1","1",""
"null","","html-keyboard-response","201","258128","0.0-201.0","3GA6AFUKOPAI6JM4FATMXIMZRPTH3E","A3CH1Z6J9R38G9","32XN26MTXZ5MP383W6LZYTLBY7P0LI","","","<img src=""img/flower3.png"" style=""width:200px;border:14px solid red;"">","null","","","","","","","","",""
"632.6999999955297","","image-keyboard-response","202","258761","0.0-202.0","3GA6AFUKOPAI6JM4FATMXIMZRPTH3E","A3CH1Z6J9R38G9","32XN26MTXZ5MP383W6LZYTLBY7P0LI","","","img/flower3.png","75","633.2999999970198","2","0","3","1","1,0.333,0.333,0.333,1,0.333,0.333,0.333,1","1,0.333,0.333,0.333,1,0.333,0.333,0.333,1","1",""
"null","","html-keyboard-response","203","259063","0.0-203.0","3GA6AFUKOPAI6JM4FATMXIMZRPTH3E","A3CH1Z6J9R38G9","32XN26MTXZ5MP383W6LZYTLBY7P0LI","","","<img src=""img/flower3.png"" style=""width:200px;border:14px solid red;"">","null","","","","","","","","",""
"830.6999999955297","","image-keyboard-response","204","259894","0.0-204.0","3GA6AFUKOPAI6JM4FATMXIMZRPTH3E","A3CH1Z6J9R38G9","32XN26MTXZ5MP383W6LZYTLBY7P0LI","","","img/flower5.png","75","831.3999999985099","2","1","2","1","1,0.333,0.333,0.333,1,0.333,0.333,0.333,1","1,0.333,0.333,0.333,1,0.333,0.333,0.333,1","1",""
"null","","html-keyboard-response","205","260196","0.0-205.0","3GA6AFUKOPAI6JM4FATMXIMZRPTH3E","A3CH1Z6J9R38G9","32XN26MTXZ5MP383W6LZYTLBY7P0LI","","","<img src=""img/flower5.png"" style=""width:200px; border:14px solid green;"">","null","","","","","","","","",""
"701.6999999955297","","image-keyboard-response","206","260898","0.0-206.0","3GA6AFUKOPAI6JM4FATMXIMZRPTH3E","A3CH1Z6J9R38G9","32XN26MTXZ5MP383W6LZYTLBY7P0LI","","","img/flower3.png","76","702.3999999985099","3","1","3","1","1,0.333,0.333,0.333,1,0.333,0.333,0.333,1","1,0.333,0.333,0.333,1,0.333,0.333,0.333,1","1",""
"null","","html-keyboard-response","207","261200","0.0-207.0","3GA6AFUKOPAI6JM4FATMXIMZRPTH3E","A3CH1Z6J9R38G9","32XN26MTXZ5MP383W6LZYTLBY7P0LI","","","<img src=""img/flower3.png"" style=""width:200px; border:14px solid green;"">","null","","","","","","","","",""
"350.6000000014901","","image-keyboard-response","208","261552","0.0-208.0","3GA6AFUKOPAI6JM4FATMXIMZRPTH3E","A3CH1Z6J9R38G9","32XN26MTXZ5MP383W6LZYTLBY7P0LI","","","img/flower3.png","76","351.3999999985099","3","1","3","1","1,0.333,0.333,0.333,1,0.333,0.333,0.333,1","1,0.333,0.333,0.333,1,0.333,0.333,0.333,1","1",""
"null","","html-keyboard-response","209","261854","0.0-209.0","3GA6AFUKOPAI6JM4FATMXIMZRPTH3E","A3CH1Z6J9R38G9","32XN26MTXZ5MP383W6LZYTLBY7P0LI","","","<img src=""img/flower3.png"" style=""width:200px; border:14px solid green;"">","null","","","","","","","","",""
"722.7999999970198","","image-keyboard-response","210","262577","0.0-210.0","3GA6AFUKOPAI6JM4FATMXIMZRPTH3E","A3CH1Z6J9R38G9","32XN26MTXZ5MP383W6LZYTLBY7P0LI","","","img/flower1.png","76","723.3999999985099","3","0","1","1","1,0.333,0.333,0.333,1,0.333,0.333,0.333,1","1,0.333,0.333,0.333,1,0.333,0.333,0.333,1","1",""
"null","","html-keyboard-response","211","262878","0.0-211.0","3GA6AFUKOPAI6JM4FATMXIMZRPTH3E","A3CH1Z6J9R38G9","32XN26MTXZ5MP383W6LZYTLBY7P0LI","","","<img src=""img/flower1.png"" style=""width:200px;border:14px solid red;"">","null","","","","","","","","",""
"387.29999999701977","","image-keyboard-response","212","263266","0.0-212.0","3GA6AFUKOPAI6JM4FATMXIMZRPTH3E","A3CH1Z6J9R38G9","32XN26MTXZ5MP383W6LZYTLBY7P0LI","","","img/flower1.png","76","387.8999999985099","3","1","1","1","1,0.333,0.333,0.333,1,0.333,0.333,0.333,1","1,0.333,0.333,0.333,1,0.333,0.333,0.333,1","1",""
"null","","html-keyboard-response","213","263568","0.0-213.0","3GA6AFUKOPAI6JM4FATMXIMZRPTH3E","A3CH1Z6J9R38G9","32XN26MTXZ5MP383W6LZYTLBY7P0LI","","","<img src=""img/flower1.png"" style=""width:200px; border:14px solid green;"">","null","","","","","","","","",""
"583.8999999985099","","image-keyboard-response","214","264152","0.0-214.0","3GA6AFUKOPAI6JM4FATMXIMZRPTH3E","A3CH1Z6J9R38G9","32XN26MTXZ5MP383W6LZYTLBY7P0LI","","","img/flower3.png","76","584.6999999955297","3","1","3","1","1,0.333,0.333,0.333,1,0.333,0.333,0.333,1","1,0.333,0.333,0.333,1,0.333,0.333,0.333,1","1",""
"null","","html-keyboard-response","215","264454","0.0-215.0","3GA6AFUKOPAI6JM4FATMXIMZRPTH3E","A3CH1Z6J9R38G9","32XN26MTXZ5MP383W6LZYTLBY7P0LI","","","<img src=""img/flower3.png"" style=""width:200px; border:14px solid green;"">","null","","","","","","","","",""
"361.6000000014901","","image-keyboard-response","216","264816","0.0-216.0","3GA6AFUKOPAI6JM4FATMXIMZRPTH3E","A3CH1Z6J9R38G9","32XN26MTXZ5MP383W6LZYTLBY7P0LI","","","img/flower3.png","76","362.29999999701977","3","1","3","1","1,0.333,0.333,0.333,1,0.333,0.333,0.333,1","1,0.333,0.333,0.333,1,0.333,0.333,0.333,1","1",""
"null","","html-keyboard-response","217","265117","0.0-217.0","3GA6AFUKOPAI6JM4FATMXIMZRPTH3E","A3CH1Z6J9R38G9","32XN26MTXZ5MP383W6LZYTLBY7P0LI","","","<img src=""img/flower3.png"" style=""width:200px; border:14px solid green;"">","null","","","","","","","","",""
"1452.8999999985099","","image-keyboard-response","218","266571","0.0-218.0","3GA6AFUKOPAI6JM4FATMXIMZRPTH3E","A3CH1Z6J9R38G9","32XN26MTXZ5MP383W6LZYTLBY7P0LI","","","img/flower1.png","76","1453.7000000029802","3","0","1","1","1,0.333,0.333,0.333,1,0.333,0.333,0.333,1","1,0.333,0.333,0.333,1,0.333,0.333,0.333,1","1",""
"null","","html-keyboard-response","219","266872","0.0-219.0","3GA6AFUKOPAI6JM4FATMXIMZRPTH3E","A3CH1Z6J9R38G9","32XN26MTXZ5MP383W6LZYTLBY7P0LI","","","<img src=""img/flower1.png"" style=""width:200px;border:14px solid red;"">","null","","","","","","","","",""
"332","","image-keyboard-response","220","267205","0.0-220.0","3GA6AFUKOPAI6JM4FATMXIMZRPTH3E","A3CH1Z6J9R38G9","32XN26MTXZ5MP383W6LZYTLBY7P0LI","","","img/flower1.png","76","332.80000000447035","3","0","1","1","1,0.333,0.333,0.333,1,0.333,0.333,0.333,1","1,0.333,0.333,0.333,1,0.333,0.333,0.333,1","1",""
"null","","html-keyboard-response","221","267508","0.0-221.0","3GA6AFUKOPAI6JM4FATMXIMZRPTH3E","A3CH1Z6J9R38G9","32XN26MTXZ5MP383W6LZYTLBY7P0LI","","","<img src=""img/flower1.png"" style=""width:200px;border:14px solid red;"">","null","","","","","","","","",""
"669.7999999970198","","image-keyboard-response","222","268179","0.0-222.0","3GA6AFUKOPAI6JM4FATMXIMZRPTH3E","A3CH1Z6J9R38G9","32XN26MTXZ5MP383W6LZYTLBY7P0LI","","","img/flower5.png","75","670.7000000029802","2","1","2","1","1,0.333,0.333,0.333,1,0.333,0.333,0.333,1","1,0.333,0.333,0.333,1,0.333,0.333,0.333,1","1",""
"null","","html-keyboard-response","223","268481","0.0-223.0","3GA6AFUKOPAI6JM4FATMXIMZRPTH3E","A3CH1Z6J9R38G9","32XN26MTXZ5MP383W6LZYTLBY7P0LI","","","<img src=""img/flower5.png"" style=""width:200px; border:14px solid green;"">","null","","","","","","","","",""
"810.5","","image-keyboard-response","224","269292","0.0-224.0","3GA6AFUKOPAI6JM4FATMXIMZRPTH3E","A3CH1Z6J9R38G9","32XN26MTXZ5MP383W6LZYTLBY7P0LI","","","img/flower3.png","76","811.3000000044703","3","1","3","1","1,0.333,0.333,0.333,1,0.333,0.333,0.333,1","1,0.333,0.333,0.333,1,0.333,0.333,0.333,1","1",""
"null","","html-keyboard-response","225","269594","0.0-225.0","3GA6AFUKOPAI6JM4FATMXIMZRPTH3E","A3CH1Z6J9R38G9","32XN26MTXZ5MP383W6LZYTLBY7P0LI","","","<img src=""img/flower3.png"" style=""width:200px; border:14px solid green;"">","null","","","","","","","","",""
"677.6999999955297","","image-keyboard-response","226","270272","0.0-226.0","3GA6AFUKOPAI6JM4FATMXIMZRPTH3E","A3CH1Z6J9R38G9","32XN26MTXZ5MP383W6LZYTLBY7P0LI","","","img/flower1.png","76","678.5","3","1","1","1","1,0.333,0.333,0.333,1,0.333,0.333,0.333,1","1,0.333,0.333,0.333,1,0.333,0.333,0.333,1","1",""
"null","","html-keyboard-response","227","270574","0.0-227.0","3GA6AFUKOPAI6JM4FATMXIMZRPTH3E","A3CH1Z6J9R38G9","32XN26MTXZ5MP383W6LZYTLBY7P0LI","","","<img src=""img/flower1.png"" style=""width:200px; border:14px solid green;"">","null","","","","","","","","",""
"716","","image-keyboard-response","228","271290","0.0-228.0","3GA6AFUKOPAI6JM4FATMXIMZRPTH3E","A3CH1Z6J9R38G9","32XN26MTXZ5MP383W6LZYTLBY7P0LI","","","img/flower5.png","75","716.6000000014901","2","1","2","1","1,0.333,0.333,0.333,1,0.333,0.333,0.333,1","1,0.333,0.333,0.333,1,0.333,0.333,0.333,1","1",""
"null","","html-keyboard-response","229","271592","0.0-229.0","3GA6AFUKOPAI6JM4FATMXIMZRPTH3E","A3CH1Z6J9R38G9","32XN26MTXZ5MP383W6LZYTLBY7P0LI","","","<img src=""img/flower5.png"" style=""width:200px; border:14px solid green;"">","null","","","","","","","","",""
"1082.7999999970198","","image-keyboard-response","230","272676","0.0-230.0","3GA6AFUKOPAI6JM4FATMXIMZRPTH3E","A3CH1Z6J9R38G9","32XN26MTXZ5MP383W6LZYTLBY7P0LI","","","img/flower3.png","76","1083.3999999985099","3","1","3","1","1,0.333,0.333,0.333,1,0.333,0.333,0.333,1","1,0.333,0.333,0.333,1,0.333,0.333,0.333,1","1",""
"null","","html-keyboard-response","231","272978","0.0-231.0","3GA6AFUKOPAI6JM4FATMXIMZRPTH3E","A3CH1Z6J9R38G9","32XN26MTXZ5MP383W6LZYTLBY7P0LI","","","<img src=""img/flower3.png"" style=""width:200px; border:14px solid green;"">","null","","","","","","","","",""
"393","","image-keyboard-response","232","273372","0.0-232.0","3GA6AFUKOPAI6JM4FATMXIMZRPTH3E","A3CH1Z6J9R38G9","32XN26MTXZ5MP383W6LZYTLBY7P0LI","","","img/flower3.png","76","393.69999999552965","3","1","3","1","1,0.333,0.333,0.333,1,0.333,0.333,0.333,1","1,0.333,0.333,0.333,1,0.333,0.333,0.333,1","1",""
"null","","html-keyboard-response","233","273674","0.0-233.0","3GA6AFUKOPAI6JM4FATMXIMZRPTH3E","A3CH1Z6J9R38G9","32XN26MTXZ5MP383W6LZYTLBY7P0LI","","","<img src=""img/flower3.png"" style=""width:200px; border:14px solid green;"">","null","","","","","","","","",""
"996.6999999955297","","image-keyboard-response","234","274671","0.0-234.0","3GA6AFUKOPAI6JM4FATMXIMZRPTH3E","A3CH1Z6J9R38G9","32XN26MTXZ5MP383W6LZYTLBY7P0LI","","","img/flower1.png","76","997.2999999970198","3","1","1","1","1,0.333,0.333,0.333,1,0.333,0.333,0.333,1","1,0.333,0.333,0.333,1,0.333,0.333,0.333,1","1",""
"null","","html-keyboard-response","235","274973","0.0-235.0","3GA6AFUKOPAI6JM4FATMXIMZRPTH3E","A3CH1Z6J9R38G9","32XN26MTXZ5MP383W6LZYTLBY7P0LI","","","<img src=""img/flower1.png"" style=""width:200px; border:14px solid green;"">","null","","","","","","","","",""
"612.3000000044703","","image-keyboard-response","236","275586","0.0-236.0","3GA6AFUKOPAI6JM4FATMXIMZRPTH3E","A3CH1Z6J9R38G9","32XN26MTXZ5MP383W6LZYTLBY7P0LI","","","img/flower5.png","75","613.1000000014901","2","1","2","1","1,0.333,0.333,0.333,1,0.333,0.333,0.333,1","1,0.333,0.333,0.333,1,0.333,0.333,0.333,1","1",""
"null","","html-keyboard-response","237","275887","0.0-237.0","3GA6AFUKOPAI6JM4FATMXIMZRPTH3E","A3CH1Z6J9R38G9","32XN26MTXZ5MP383W6LZYTLBY7P0LI","","","<img src=""img/flower5.png"" style=""width:200px; border:14px solid green;"">","null","","","","","","","","",""
"464.80000000447035","","image-keyboard-response","238","276353","0.0-238.0","3GA6AFUKOPAI6JM4FATMXIMZRPTH3E","A3CH1Z6J9R38G9","32XN26MTXZ5MP383W6LZYTLBY7P0LI","","","img/flower3.png","76","465.70000000298023","3","1","3","1","1,0.333,0.333,0.333,1,0.333,0.333,0.333,1","1,0.333,0.333,0.333,1,0.333,0.333,0.333,1","1",""
"null","","html-keyboard-response","239","276655","0.0-239.0","3GA6AFUKOPAI6JM4FATMXIMZRPTH3E","A3CH1Z6J9R38G9","32XN26MTXZ5MP383W6LZYTLBY7P0LI","","","<img src=""img/flower3.png"" style=""width:200px; border:14px solid green;"">","null","","","","","","","","",""
"753.2000000029802","","image-keyboard-response","240","277409","0.0-240.0","3GA6AFUKOPAI6JM4FATMXIMZRPTH3E","A3CH1Z6J9R38G9","32XN26MTXZ5MP383W6LZYTLBY7P0LI","","","img/flower1.png","76","754","3","0","1","1","1,0.333,0.333,0.333,1,0.333,0.333,0.333,1","1,0.333,0.333,0.333,1,0.333,0.333,0.333,1","1",""
"null","","html-keyboard-response","241","277711","0.0-241.0","3GA6AFUKOPAI6JM4FATMXIMZRPTH3E","A3CH1Z6J9R38G9","32XN26MTXZ5MP383W6LZYTLBY7P0LI","","","<img src=""img/flower1.png"" style=""width:200px;border:14px solid red;"">","null","","","","","","","","",""
"677.5","","image-keyboard-response","242","278389","0.0-242.0","3GA6AFUKOPAI6JM4FATMXIMZRPTH3E","A3CH1Z6J9R38G9","32XN26MTXZ5MP383W6LZYTLBY7P0LI","","","img/flower5.png","75","678.2000000029802","2","1","2","1","1,0.333,0.333,0.333,1,0.333,0.333,0.333,1","1,0.333,0.333,0.333,1,0.333,0.333,0.333,1","1",""
"null","","html-keyboard-response","243","278691","0.0-243.0","3GA6AFUKOPAI6JM4FATMXIMZRPTH3E","A3CH1Z6J9R38G9","32XN26MTXZ5MP383W6LZYTLBY7P0LI","","","<img src=""img/flower5.png"" style=""width:200px; border:14px solid green;"">","null","","","","","","","","",""
"590.9000000059605","","image-keyboard-response","244","279283","0.0-244.0","3GA6AFUKOPAI6JM4FATMXIMZRPTH3E","A3CH1Z6J9R38G9","32XN26MTXZ5MP383W6LZYTLBY7P0LI","","","img/flower3.png","76","591.6000000014901","3","1","3","1","1,0.333,0.333,0.333,1,0.333,0.333,0.333,1","1,0.333,0.333,0.333,1,0.333,0.333,0.333,1","1",""
"null","","html-keyboard-response","245","279584","0.0-245.0","3GA6AFUKOPAI6JM4FATMXIMZRPTH3E","A3CH1Z6J9R38G9","32XN26MTXZ5MP383W6LZYTLBY7P0LI","","","<img src=""img/flower3.png"" style=""width:200px; border:14px solid green;"">","null","","","","","","","","",""
"875.3999999985099","","image-keyboard-response","246","280460","0.0-246.0","3GA6AFUKOPAI6JM4FATMXIMZRPTH3E","A3CH1Z6J9R38G9","32XN26MTXZ5MP383W6LZYTLBY7P0LI","","","img/flower5.png","75","876.0999999940395","2","1","2","1","1,0.333,0.333,0.333,1,0.333,0.333,0.333,1","1,0.333,0.333,0.333,1,0.333,0.333,0.333,1","1",""
"null","","html-keyboard-response","247","280763","0.0-247.0","3GA6AFUKOPAI6JM4FATMXIMZRPTH3E","A3CH1Z6J9R38G9","32XN26MTXZ5MP383W6LZYTLBY7P0LI","","","<img src=""img/flower5.png"" style=""width:200px; border:14px solid green;"">","null","","","","","","","","",""
"641.3999999985099","","image-keyboard-response","248","281405","0.0-248.0","3GA6AFUKOPAI6JM4FATMXIMZRPTH3E","A3CH1Z6J9R38G9","32XN26MTXZ5MP383W6LZYTLBY7P0LI","","","img/flower1.png","76","642.1999999955297","3","0","1","1","1,0.333,0.333,0.333,1,0.333,0.333,0.333,1","1,0.333,0.333,0.333,1,0.333,0.333,0.333,1","1",""
"null","","html-keyboard-response","249","281707","0.0-249.0","3GA6AFUKOPAI6JM4FATMXIMZRPTH3E","A3CH1Z6J9R38G9","32XN26MTXZ5MP383W6LZYTLBY7P0LI","","","<img src=""img/flower1.png"" style=""width:200px;border:14px solid red;"">","null","","","","","","","","",""
"641.2000000029802","","image-keyboard-response","250","282349","0.0-250.0","3GA6AFUKOPAI6JM4FATMXIMZRPTH3E","A3CH1Z6J9R38G9","32XN26MTXZ5MP383W6LZYTLBY7P0LI","","","img/flower5.png","75","642","2","1","2","1","1,0.333,0.333,0.333,1,0.333,0.333,0.333,1","1,0.333,0.333,0.333,1,0.333,0.333,0.333,1","1",""
"null","","html-keyboard-response","251","282650","0.0-251.0","3GA6AFUKOPAI6JM4FATMXIMZRPTH3E","A3CH1Z6J9R38G9","32XN26MTXZ5MP383W6LZYTLBY7P0LI","","","<img src=""img/flower5.png"" style=""width:200px; border:14px solid green;"">","null","","","","","","","","",""
"391.59999999403954","","image-keyboard-response","252","283043","0.0-252.0","3GA6AFUKOPAI6JM4FATMXIMZRPTH3E","A3CH1Z6J9R38G9","32XN26MTXZ5MP383W6LZYTLBY7P0LI","","","img/flower1.png","76","392.3999999985099","3","0","1","1","1,0.333,0.333,0.333,1,0.333,0.333,0.333,1","1,0.333,0.333,0.333,1,0.333,0.333,0.333,1","1",""
"null","","html-keyboard-response","253","283344","0.0-253.0","3GA6AFUKOPAI6JM4FATMXIMZRPTH3E","A3CH1Z6J9R38G9","32XN26MTXZ5MP383W6LZYTLBY7P0LI","","","<img src=""img/flower1.png"" style=""width:200px;border:14px solid red;"">","null","","","","","","","","",""
"833.3999999985099","","image-keyboard-response","254","284179","0.0-254.0","3GA6AFUKOPAI6JM4FATMXIMZRPTH3E","A3CH1Z6J9R38G9","32XN26MTXZ5MP383W6LZYTLBY7P0LI","","","img/flower3.png","76","834.1000000014901","3","1","3","1","1,0.333,0.333,0.333,1,0.333,0.333,0.333,1","1,0.333,0.333,0.333,1,0.333,0.333,0.333,1","1",""
"null","","html-keyboard-response","255","284481","0.0-255.0","3GA6AFUKOPAI6JM4FATMXIMZRPTH3E","A3CH1Z6J9R38G9","32XN26MTXZ5MP383W6LZYTLBY7P0LI","","","<img src=""img/flower3.png"" style=""width:200px; border:14px solid green;"">","null","","","","","","","","",""
"660.3000000044703","","image-keyboard-response","256","285142","0.0-256.0","3GA6AFUKOPAI6JM4FATMXIMZRPTH3E","A3CH1Z6J9R38G9","32XN26MTXZ5MP383W6LZYTLBY7P0LI","","","img/flower1.png","76","661.1000000014901","3","0","1","1","1,0.333,0.333,0.333,1,0.333,0.333,0.333,1","1,0.333,0.333,0.333,1,0.333,0.333,0.333,1","1",""
"null","","html-keyboard-response","257","285444","0.0-257.0","3GA6AFUKOPAI6JM4FATMXIMZRPTH3E","A3CH1Z6J9R38G9","32XN26MTXZ5MP383W6LZYTLBY7P0LI","","","<img src=""img/flower1.png"" style=""width:200px;border:14px solid red;"">","null","","","","","","","","",""
"496.8999999985099","","image-keyboard-response","258","285942","0.0-258.0","3GA6AFUKOPAI6JM4FATMXIMZRPTH3E","A3CH1Z6J9R38G9","32XN26MTXZ5MP383W6LZYTLBY7P0LI","","","img/flower5.png","75","497.6000000014901","2","1","2","1","1,0.333,0.333,0.333,1,0.333,0.333,0.333,1","1,0.333,0.333,0.333,1,0.333,0.333,0.333,1","1",""
"null","","html-keyboard-response","259","286244","0.0-259.0","3GA6AFUKOPAI6JM4FATMXIMZRPTH3E","A3CH1Z6J9R38G9","32XN26MTXZ5MP383W6LZYTLBY7P0LI","","","<img src=""img/flower5.png"" style=""width:200px; border:14px solid green;"">","null","","","","","","","","",""
"374.5","","image-keyboard-response","260","286619","0.0-260.0","3GA6AFUKOPAI6JM4FATMXIMZRPTH3E","A3CH1Z6J9R38G9","32XN26MTXZ5MP383W6LZYTLBY7P0LI","","","img/flower1.png","74","375","1","1","1","1","1,0.333,0.333,0.333,1,0.333,0.333,0.333,1","1,0.333,0.333,0.333,1,0.333,0.333,0.333,1","1",""
"null","","html-keyboard-response","261","286920","0.0-261.0","3GA6AFUKOPAI6JM4FATMXIMZRPTH3E","A3CH1Z6J9R38G9","32XN26MTXZ5MP383W6LZYTLBY7P0LI","","","<img src=""img/flower1.png"" style=""width:200px; border:14px solid green;"">","null","","","","","","","","",""
"577.2999999970198","","image-keyboard-response","262","287499","0.0-262.0","3GA6AFUKOPAI6JM4FATMXIMZRPTH3E","A3CH1Z6J9R38G9","32XN26MTXZ5MP383W6LZYTLBY7P0LI","","","img/flower5.png","75","578","2","1","2","1","1,0.333,0.333,0.333,1,0.333,0.333,0.333,1","1,0.333,0.333,0.333,1,0.333,0.333,0.333,1","1",""
"null","","html-keyboard-response","263","287800","0.0-263.0","3GA6AFUKOPAI6JM4FATMXIMZRPTH3E","A3CH1Z6J9R38G9","32XN26MTXZ5MP383W6LZYTLBY7P0LI","","","<img src=""img/flower5.png"" style=""width:200px; border:14px solid green;"">","null","","","","","","","","",""
"649.2000000029802","","image-keyboard-response","264","288450","0.0-264.0","3GA6AFUKOPAI6JM4FATMXIMZRPTH3E","A3CH1Z6J9R38G9","32XN26MTXZ5MP383W6LZYTLBY7P0LI","","","img/flower3.png","76","649.8999999985099","3","1","3","1","1,0.333,0.333,0.333,1,0.333,0.333,0.333,1","1,0.333,0.333,0.333,1,0.333,0.333,0.333,1","1",""
"null","","html-keyboard-response","265","288752","0.0-265.0","3GA6AFUKOPAI6JM4FATMXIMZRPTH3E","A3CH1Z6J9R38G9","32XN26MTXZ5MP383W6LZYTLBY7P0LI","","","<img src=""img/flower3.png"" style=""width:200px; border:14px solid green;"">","null","","","","","","","","",""
"364.3999999985099","","image-keyboard-response","266","289117","0.0-266.0","3GA6AFUKOPAI6JM4FATMXIMZRPTH3E","A3CH1Z6J9R38G9","32XN26MTXZ5MP383W6LZYTLBY7P0LI","","","img/flower1.png","74","365","1","1","1","1","1,0.333,0.333,0.333,1,0.333,0.333,0.333,1","1,0.333,0.333,0.333,1,0.333,0.333,0.333,1","1",""
"null","","html-keyboard-response","267","289418","0.0-267.0","3GA6AFUKOPAI6JM4FATMXIMZRPTH3E","A3CH1Z6J9R38G9","32XN26MTXZ5MP383W6LZYTLBY7P0LI","","","<img src=""img/flower1.png"" style=""width:200px; border:14px solid green;"">","null","","","","","","","","",""
"415.8999999985099","","image-keyboard-response","268","289835","0.0-268.0","3GA6AFUKOPAI6JM4FATMXIMZRPTH3E","A3CH1Z6J9R38G9","32XN26MTXZ5MP383W6LZYTLBY7P0LI","","","img/flower1.png","74","416.70000000298023","1","1","1","1","1,0.333,0.333,0.333,1,0.333,0.333,0.333,1","1,0.333,0.333,0.333,1,0.333,0.333,0.333,1","1",""
"null","","html-keyboard-response","269","290137","0.0-269.0","3GA6AFUKOPAI6JM4FATMXIMZRPTH3E","A3CH1Z6J9R38G9","32XN26MTXZ5MP383W6LZYTLBY7P0LI","","","<img src=""img/flower1.png"" style=""width:200px; border:14px solid green;"">","null","","","","","","","","",""
"627","","image-keyboard-response","270","290765","0.0-270.0","3GA6AFUKOPAI6JM4FATMXIMZRPTH3E","A3CH1Z6J9R38G9","32XN26MTXZ5MP383W6LZYTLBY7P0LI","","","img/flower3.png","75","627.7999999970198","2","1","3","1","1,0.333,0.333,0.333,1,0.333,0.333,0.333,1","1,0.333,0.333,0.333,1,0.333,0.333,0.333,1","1",""
"null","","html-keyboard-response","271","291067","0.0-271.0","3GA6AFUKOPAI6JM4FATMXIMZRPTH3E","A3CH1Z6J9R38G9","32XN26MTXZ5MP383W6LZYTLBY7P0LI","","","<img src=""img/flower3.png"" style=""width:200px; border:14px solid green;"">","null","","","","","","","","",""
"1038.3999999985099","","image-keyboard-response","272","292106","0.0-272.0","3GA6AFUKOPAI6JM4FATMXIMZRPTH3E","A3CH1Z6J9R38G9","32XN26MTXZ5MP383W6LZYTLBY7P0LI","","","img/flower5.png","75","1039","2","1","2","1","1,0.333,0.333,0.333,1,0.333,0.333,0.333,1","1,0.333,0.333,0.333,1,0.333,0.333,0.333,1","1",""
"null","","html-keyboard-response","273","292407","0.0-273.0","3GA6AFUKOPAI6JM4FATMXIMZRPTH3E","A3CH1Z6J9R38G9","32XN26MTXZ5MP383W6LZYTLBY7P0LI","","","<img src=""img/flower5.png"" style=""width:200px; border:14px solid green;"">","null","","","","","","","","",""
"594.2000000029802","","image-keyboard-response","274","293002","0.0-274.0","3GA6AFUKOPAI6JM4FATMXIMZRPTH3E","A3CH1Z6J9R38G9","32XN26MTXZ5MP383W6LZYTLBY7P0LI","","","img/flower3.png","75","594.8000000044703","2","1","3","1","1,0.333,0.333,0.333,1,0.333,0.333,0.333,1","1,0.333,0.333,0.333,1,0.333,0.333,0.333,1","1",""
"null","","html-keyboard-response","275","293304","0.0-275.0","3GA6AFUKOPAI6JM4FATMXIMZRPTH3E","A3CH1Z6J9R38G9","32XN26MTXZ5MP383W6LZYTLBY7P0LI","","","<img src=""img/flower3.png"" style=""width:200px; border:14px solid green;"">","null","","","","","","","","",""
"318.29999999701977","","image-keyboard-response","276","293623","0.0-276.0","3GA6AFUKOPAI6JM4FATMXIMZRPTH3E","A3CH1Z6J9R38G9","32XN26MTXZ5MP383W6LZYTLBY7P0LI","","","img/flower3.png","76","319","3","1","3","1","1,0.333,0.333,0.333,1,0.333,0.333,0.333,1","1,0.333,0.333,0.333,1,0.333,0.333,0.333,1","1",""
"null","","html-keyboard-response","277","293924","0.0-277.0","3GA6AFUKOPAI6JM4FATMXIMZRPTH3E","A3CH1Z6J9R38G9","32XN26MTXZ5MP383W6LZYTLBY7P0LI","","","<img src=""img/flower3.png"" style=""width:200px; border:14px solid green;"">","null","","","","","","","","",""
"715.7000000029802","","image-keyboard-response","278","294640","0.0-278.0","3GA6AFUKOPAI6JM4FATMXIMZRPTH3E","A3CH1Z6J9R38G9","32XN26MTXZ5MP383W6LZYTLBY7P0LI","","","img/flower5.png","75","716.4000000059605","2","1","2","1","1,0.333,0.333,0.333,1,0.333,0.333,0.333,1","1,0.333,0.333,0.333,1,0.333,0.333,0.333,1","1",""
"null","","html-keyboard-response","279","294942","0.0-279.0","3GA6AFUKOPAI6JM4FATMXIMZRPTH3E","A3CH1Z6J9R38G9","32XN26MTXZ5MP383W6LZYTLBY7P0LI","","","<img src=""img/flower5.png"" style=""width:200px; border:14px solid green;"">","null","","","","","","","","",""
"586.5","","image-keyboard-response","280","295529","0.0-280.0","3GA6AFUKOPAI6JM4FATMXIMZRPTH3E","A3CH1Z6J9R38G9","32XN26MTXZ5MP383W6LZYTLBY7P0LI","","","img/flower3.png","76","587.1999999955297","3","1","3","1","1,0.333,0.333,0.333,1,0.333,0.333,0.333,1","1,0.333,0.333,0.333,1,0.333,0.333,0.333,1","1",""
"null","","html-keyboard-response","281","295831","0.0-281.0","3GA6AFUKOPAI6JM4FATMXIMZRPTH3E","A3CH1Z6J9R38G9","32XN26MTXZ5MP383W6LZYTLBY7P0LI","","","<img src=""img/flower3.png"" style=""width:200px; border:14px solid green;"">","null","","","","","","","","",""
"884","","image-keyboard-response","282","296716","0.0-282.0","3GA6AFUKOPAI6JM4FATMXIMZRPTH3E","A3CH1Z6J9R38G9","32XN26MTXZ5MP383W6LZYTLBY7P0LI","","","img/flower1.png","74","884.8000000044703","1","1","1","1","1,0.333,0.333,0.333,1,0.333,0.333,0.333,1","1,0.333,0.333,0.333,1,0.333,0.333,0.333,1","1",""
"null","","html-keyboard-response","283","297017","0.0-283.0","3GA6AFUKOPAI6JM4FATMXIMZRPTH3E","A3CH1Z6J9R38G9","32XN26MTXZ5MP383W6LZYTLBY7P0LI","","","<img src=""img/flower1.png"" style=""width:200px; border:14px solid green;"">","null","","","","","","","","",""
"306.8999999985099","","image-keyboard-response","284","297325","0.0-284.0","3GA6AFUKOPAI6JM4FATMXIMZRPTH3E","A3CH1Z6J9R38G9","32XN26MTXZ5MP383W6LZYTLBY7P0LI","","","img/flower1.png","74","308","1","1","1","1","1,0.333,0.333,0.333,1,0.333,0.333,0.333,1","1,0.333,0.333,0.333,1,0.333,0.333,0.333,1","1",""
"null","","html-keyboard-response","285","297627","0.0-285.0","3GA6AFUKOPAI6JM4FATMXIMZRPTH3E","A3CH1Z6J9R38G9","32XN26MTXZ5MP383W6LZYTLBY7P0LI","","","<img src=""img/flower1.png"" style=""width:200px; border:14px solid green;"">","null","","","","","","","","",""
"864.5","","image-keyboard-response","286","298492","0.0-286.0","3GA6AFUKOPAI6JM4FATMXIMZRPTH3E","A3CH1Z6J9R38G9","32XN26MTXZ5MP383W6LZYTLBY7P0LI","","","img/flower3.png","76","865.0999999940395","3","1","3","1","1,0.333,0.333,0.333,1,0.333,0.333,0.333,1","1,0.333,0.333,0.333,1,0.333,0.333,0.333,1","1",""
"null","","html-keyboard-response","287","298793","0.0-287.0","3GA6AFUKOPAI6JM4FATMXIMZRPTH3E","A3CH1Z6J9R38G9","32XN26MTXZ5MP383W6LZYTLBY7P0LI","","","<img src=""img/flower3.png"" style=""width:200px; border:14px solid green;"">","null","","","","","","","","",""
"284.70000000298023","","image-keyboard-response","288","299079","0.0-288.0","3GA6AFUKOPAI6JM4FATMXIMZRPTH3E","A3CH1Z6J9R38G9","32XN26MTXZ5MP383W6LZYTLBY7P0LI","","","img/flower3.png","76","285.30000000447035","3","1","3","1","1,0.333,0.333,0.333,1,0.333,0.333,0.333,1","1,0.333,0.333,0.333,1,0.333,0.333,0.333,1","1",""
"null","","html-keyboard-response","289","299380","0.0-289.0","3GA6AFUKOPAI6JM4FATMXIMZRPTH3E","A3CH1Z6J9R38G9","32XN26MTXZ5MP383W6LZYTLBY7P0LI","","","<img src=""img/flower3.png"" style=""width:200px; border:14px solid green;"">","null","","","","","","","","",""
"1129.6000000014901","","image-keyboard-response","290","300511","0.0-290.0","3GA6AFUKOPAI6JM4FATMXIMZRPTH3E","A3CH1Z6J9R38G9","32XN26MTXZ5MP383W6LZYTLBY7P0LI","","","img/flower1.png","74","1130.3000000044703","1","1","1","1","1,0.333,0.333,0.333,1,0.333,0.333,0.333,1","1,0.333,0.333,0.333,1,0.333,0.333,0.333,1","1",""
"null","","html-keyboard-response","291","300812","0.0-291.0","3GA6AFUKOPAI6JM4FATMXIMZRPTH3E","A3CH1Z6J9R38G9","32XN26MTXZ5MP383W6LZYTLBY7P0LI","","","<img src=""img/flower1.png"" style=""width:200px; border:14px solid green;"">","null","","","","","","","","",""
"833.5","","image-keyboard-response","292","301647","0.0-292.0","3GA6AFUKOPAI6JM4FATMXIMZRPTH3E","A3CH1Z6J9R38G9","32XN26MTXZ5MP383W6LZYTLBY7P0LI","","","img/flower3.png","76","834.2000000029802","3","1","3","1","1,0.333,0.333,0.333,1,0.333,0.333,0.333,1","1,0.333,0.333,0.333,1,0.333,0.333,0.333,1","1",""
"null","","html-keyboard-response","293","301948","0.0-293.0","3GA6AFUKOPAI6JM4FATMXIMZRPTH3E","A3CH1Z6J9R38G9","32XN26MTXZ5MP383W6LZYTLBY7P0LI","","","<img src=""img/flower3.png"" style=""width:200px; border:14px solid green;"">","null","","","","","","","","",""
"532.8999999985099","","image-keyboard-response","294","302482","0.0-294.0","3GA6AFUKOPAI6JM4FATMXIMZRPTH3E","A3CH1Z6J9R38G9","32XN26MTXZ5MP383W6LZYTLBY7P0LI","","","img/flower1.png","76","533.6000000014901","3","1","1","1","1,0.333,0.333,0.333,1,0.333,0.333,0.333,1","1,0.333,0.333,0.333,1,0.333,0.333,0.333,1","1",""
"null","","html-keyboard-response","295","302783","0.0-295.0","3GA6AFUKOPAI6JM4FATMXIMZRPTH3E","A3CH1Z6J9R38G9","32XN26MTXZ5MP383W6LZYTLBY7P0LI","","","<img src=""img/flower1.png"" style=""width:200px; border:14px solid green;"">","null","","","","","","","","",""
"510.70000000298023","","image-keyboard-response","296","303295","0.0-296.0","3GA6AFUKOPAI6JM4FATMXIMZRPTH3E","A3CH1Z6J9R38G9","32XN26MTXZ5MP383W6LZYTLBY7P0LI","","","img/flower3.png","76","511.40000000596046","3","1","3","1","1,0.333,0.333,0.333,1,0.333,0.333,0.333,1","1,0.333,0.333,0.333,1,0.333,0.333,0.333,1","1",""
"null","","html-keyboard-response","297","303596","0.0-297.0","3GA6AFUKOPAI6JM4FATMXIMZRPTH3E","A3CH1Z6J9R38G9","32XN26MTXZ5MP383W6LZYTLBY7P0LI","","","<img src=""img/flower3.png"" style=""width:200px; border:14px solid green;"">","null","","","","","","","","",""
"516.2000000029802","","image-keyboard-response","298","304113","0.0-298.0","3GA6AFUKOPAI6JM4FATMXIMZRPTH3E","A3CH1Z6J9R38G9","32XN26MTXZ5MP383W6LZYTLBY7P0LI","","","img/flower1.png","76","516.7999999970198","3","1","1","1","1,0.333,0.333,0.333,1,0.333,0.333,0.333,1","1,0.333,0.333,0.333,1,0.333,0.333,0.333,1","1",""
"null","","html-keyboard-response","299","304414","0.0-299.0","3GA6AFUKOPAI6JM4FATMXIMZRPTH3E","A3CH1Z6J9R38G9","32XN26MTXZ5MP383W6LZYTLBY7P0LI","","","<img src=""img/flower1.png"" style=""width:200px; border:14px solid green;"">","null","","","","","","","","",""
"328.70000000298023","","image-keyboard-response","300","304744","0.0-300.0","3GA6AFUKOPAI6JM4FATMXIMZRPTH3E","A3CH1Z6J9R38G9","32XN26MTXZ5MP383W6LZYTLBY7P0LI","","","img/flower1.png","76","329.3999999985099","3","0","1","1","1,0.333,0.333,0.333,1,0.333,0.333,0.333,1","1,0.333,0.333,0.333,1,0.333,0.333,0.333,1","1",""
"null","","html-keyboard-response","301","305046","0.0-301.0","3GA6AFUKOPAI6JM4FATMXIMZRPTH3E","A3CH1Z6J9R38G9","32XN26MTXZ5MP383W6LZYTLBY7P0LI","","","<img src=""img/flower1.png"" style=""width:200px;border:14px solid red;"">","null","","","","","","","","",""
"357.29999999701977","","image-keyboard-response","302","305404","0.0-302.0","3GA6AFUKOPAI6JM4FATMXIMZRPTH3E","A3CH1Z6J9R38G9","32XN26MTXZ5MP383W6LZYTLBY7P0LI","","","img/flower1.png","76","357.8999999985099","3","1","1","1","1,0.333,0.333,0.333,1,0.333,0.333,0.333,1","1,0.333,0.333,0.333,1,0.333,0.333,0.333,1","1",""
"null","","html-keyboard-response","303","305705","0.0-303.0","3GA6AFUKOPAI6JM4FATMXIMZRPTH3E","A3CH1Z6J9R38G9","32XN26MTXZ5MP383W6LZYTLBY7P0LI","","","<img src=""img/flower1.png"" style=""width:200px; border:14px solid green;"">","null","","","","","","","","",""
"642.6000000014901","","image-keyboard-response","304","306349","0.0-304.0","3GA6AFUKOPAI6JM4FATMXIMZRPTH3E","A3CH1Z6J9R38G9","32XN26MTXZ5MP383W6LZYTLBY7P0LI","","","img/flower3.png","75","643.2000000029802","2","0","3","1","1,0.333,0.333,0.333,1,0.333,0.333,0.333,1","1,0.333,0.333,0.333,1,0.333,0.333,0.333,1","1",""
"null","","html-keyboard-response","305","306662","0.0-305.0","3GA6AFUKOPAI6JM4FATMXIMZRPTH3E","A3CH1Z6J9R38G9","32XN26MTXZ5MP383W6LZYTLBY7P0LI","","","<img src=""img/flower3.png"" style=""width:200px;border:14px solid red;"">","null","","","","","","","","",""
"","","html-keyboard-response","306","311033","0.0-306.0","3GA6AFUKOPAI6JM4FATMXIMZRPTH3E","A3CH1Z6J9R38G9","32XN26MTXZ5MP383W6LZYTLBY7P0LI","","","","","","","","","","","","",""
"1829.1000000014901","","image-keyboard-response","307","312864","0.0-307.0","3GA6AFUKOPAI6JM4FATMXIMZRPTH3E","A3CH1Z6J9R38G9","32XN26MTXZ5MP383W6LZYTLBY7P0LI","","","img/flower4.png","74","1830","1","1","1","2","1,0,0,1,1,0,1,0,1","1,0,0,1,1,0,1,0,1","1",""
"null","","html-keyboard-response","308","313165","0.0-308.0","3GA6AFUKOPAI6JM4FATMXIMZRPTH3E","A3CH1Z6J9R38G9","32XN26MTXZ5MP383W6LZYTLBY7P0LI","","","<img src=""img/flower4.png"" style=""width:200px; border:14px solid green;"">","null","","","","","","","","",""
"776.2999999970198","","image-keyboard-response","309","313942","0.0-309.0","3GA6AFUKOPAI6JM4FATMXIMZRPTH3E","A3CH1Z6J9R38G9","32XN26MTXZ5MP383W6LZYTLBY7P0LI","","","img/flower6.png","76","777","3","1","3","2","1,0,0,1,1,0,1,0,1","1,0,0,1,1,0,1,0,1","1",""
"null","","html-keyboard-response","310","314244","0.0-310.0","3GA6AFUKOPAI6JM4FATMXIMZRPTH3E","A3CH1Z6J9R38G9","32XN26MTXZ5MP383W6LZYTLBY7P0LI","","","<img src=""img/flower6.png"" style=""width:200px; border:14px solid green;"">","null","","","","","","","","",""
"428.19999999552965","","image-keyboard-response","311","314673","0.0-311.0","3GA6AFUKOPAI6JM4FATMXIMZRPTH3E","A3CH1Z6J9R38G9","32XN26MTXZ5MP383W6LZYTLBY7P0LI","","","img/flower6.png","76","428.8999999985099","3","1","3","2","1,0,0,1,1,0,1,0,1","1,0,0,1,1,0,1,0,1","1",""
"null","","html-keyboard-response","312","314975","0.0-312.0","3GA6AFUKOPAI6JM4FATMXIMZRPTH3E","A3CH1Z6J9R38G9","32XN26MTXZ5MP383W6LZYTLBY7P0LI","","","<img src=""img/flower6.png"" style=""width:200px; border:14px solid green;"">","null","","","","","","","","",""
"294.3999999985099","","image-keyboard-response","313","315271","0.0-313.0","3GA6AFUKOPAI6JM4FATMXIMZRPTH3E","A3CH1Z6J9R38G9","32XN26MTXZ5MP383W6LZYTLBY7P0LI","","","img/flower6.png","76","295.30000000447035","3","1","3","2","1,0,0,1,1,0,1,0,1","1,0,0,1,1,0,1,0,1","1",""
"null","","html-keyboard-response","314","315572","0.0-314.0","3GA6AFUKOPAI6JM4FATMXIMZRPTH3E","A3CH1Z6J9R38G9","32XN26MTXZ5MP383W6LZYTLBY7P0LI","","","<img src=""img/flower6.png"" style=""width:200px; border:14px solid green;"">","null","","","","","","","","",""
"284.5","","image-keyboard-response","315","315858","0.0-315.0","3GA6AFUKOPAI6JM4FATMXIMZRPTH3E","A3CH1Z6J9R38G9","32XN26MTXZ5MP383W6LZYTLBY7P0LI","","","img/flower6.png","76","285.20000000298023","3","1","3","2","1,0,0,1,1,0,1,0,1","1,0,0,1,1,0,1,0,1","1",""
"null","","html-keyboard-response","316","316159","0.0-316.0","3GA6AFUKOPAI6JM4FATMXIMZRPTH3E","A3CH1Z6J9R38G9","32XN26MTXZ5MP383W6LZYTLBY7P0LI","","","<img src=""img/flower6.png"" style=""width:200px; border:14px solid green;"">","null","","","","","","","","",""
"710.6000000014901","","image-keyboard-response","317","316871","0.0-317.0","3GA6AFUKOPAI6JM4FATMXIMZRPTH3E","A3CH1Z6J9R38G9","32XN26MTXZ5MP383W6LZYTLBY7P0LI","","","img/flower2.png","75","711.3000000044703","2","1","2","2","1,0,0,1,1,0,1,0,1","1,0,0,1,1,0,1,0,1","1",""
"null","","html-keyboard-response","318","317172","0.0-318.0","3GA6AFUKOPAI6JM4FATMXIMZRPTH3E","A3CH1Z6J9R38G9","32XN26MTXZ5MP383W6LZYTLBY7P0LI","","","<img src=""img/flower2.png"" style=""width:200px; border:14px solid green;"">","null","","","","","","","","",""
"610.2999999970198","","image-keyboard-response","319","317783","0.0-319.0","3GA6AFUKOPAI6JM4FATMXIMZRPTH3E","A3CH1Z6J9R38G9","32XN26MTXZ5MP383W6LZYTLBY7P0LI","","","img/flower4.png","74","611","1","1","1","2","1,0,0,1,1,0,1,0,1","1,0,0,1,1,0,1,0,1","1",""
"null","","html-keyboard-response","320","318085","0.0-320.0","3GA6AFUKOPAI6JM4FATMXIMZRPTH3E","A3CH1Z6J9R38G9","32XN26MTXZ5MP383W6LZYTLBY7P0LI","","","<img src=""img/flower4.png"" style=""width:200px; border:14px solid green;"">","null","","","","","","","","",""
"329.3999999985099","","image-keyboard-response","321","318416","0.0-321.0","3GA6AFUKOPAI6JM4FATMXIMZRPTH3E","A3CH1Z6J9R38G9","32XN26MTXZ5MP383W6LZYTLBY7P0LI","","","img/flower4.png","74","330.20000000298023","1","1","1","2","1,0,0,1,1,0,1,0,1","1,0,0,1,1,0,1,0,1","1",""
"null","","html-keyboard-response","322","318729","0.0-322.0","3GA6AFUKOPAI6JM4FATMXIMZRPTH3E","A3CH1Z6J9R38G9","32XN26MTXZ5MP383W6LZYTLBY7P0LI","","","<img src=""img/flower4.png"" style=""width:200px; border:14px solid green;"">","null","","","","","","","","",""
"573.1999999955297","","image-keyboard-response","323","319303","0.0-323.0","3GA6AFUKOPAI6JM4FATMXIMZRPTH3E","A3CH1Z6J9R38G9","32XN26MTXZ5MP383W6LZYTLBY7P0LI","","","img/flower6.png","76","574","3","1","3","2","1,0,0,1,1,0,1,0,1","1,0,0,1,1,0,1,0,1","1",""
"null","","html-keyboard-response","324","319606","0.0-324.0","3GA6AFUKOPAI6JM4FATMXIMZRPTH3E","A3CH1Z6J9R38G9","32XN26MTXZ5MP383W6LZYTLBY7P0LI","","","<img src=""img/flower6.png"" style=""width:200px; border:14px solid green;"">","null","","","","","","","","",""
"578.3999999985099","","image-keyboard-response","325","320185","0.0-325.0","3GA6AFUKOPAI6JM4FATMXIMZRPTH3E","A3CH1Z6J9R38G9","32XN26MTXZ5MP383W6LZYTLBY7P0LI","","","img/flower2.png","75","579.1999999955297","2","1","2","2","1,0,0,1,1,0,1,0,1","1,0,0,1,1,0,1,0,1","1",""
"null","","html-keyboard-response","326","320486","0.0-326.0","3GA6AFUKOPAI6JM4FATMXIMZRPTH3E","A3CH1Z6J9R38G9","32XN26MTXZ5MP383W6LZYTLBY7P0LI","","","<img src=""img/flower2.png"" style=""width:200px; border:14px solid green;"">","null","","","","","","","","",""
"694.1999999955297","","image-keyboard-response","327","321182","0.0-327.0","3GA6AFUKOPAI6JM4FATMXIMZRPTH3E","A3CH1Z6J9R38G9","32XN26MTXZ5MP383W6LZYTLBY7P0LI","","","img/flower6.png","76","695","3","1","3","2","1,0,0,1,1,0,1,0,1","1,0,0,1,1,0,1,0,1","1",""
"null","","html-keyboard-response","328","321483","0.0-328.0","3GA6AFUKOPAI6JM4FATMXIMZRPTH3E","A3CH1Z6J9R38G9","32XN26MTXZ5MP383W6LZYTLBY7P0LI","","","<img src=""img/flower6.png"" style=""width:200px; border:14px solid green;"">","null","","","","","","","","",""
"393.3999999985099","","image-keyboard-response","329","321877","0.0-329.0","3GA6AFUKOPAI6JM4FATMXIMZRPTH3E","A3CH1Z6J9R38G9","32XN26MTXZ5MP383W6LZYTLBY7P0LI","","","img/flower6.png","76","394.1000000014901","3","1","3","2","1,0,0,1,1,0,1,0,1","1,0,0,1,1,0,1,0,1","1",""
"null","","html-keyboard-response","330","322178","0.0-330.0","3GA6AFUKOPAI6JM4FATMXIMZRPTH3E","A3CH1Z6J9R38G9","32XN26MTXZ5MP383W6LZYTLBY7P0LI","","","<img src=""img/flower6.png"" style=""width:200px; border:14px solid green;"">","null","","","","","","","","",""
"342.90000000596046","","image-keyboard-response","331","322522","0.0-331.0","3GA6AFUKOPAI6JM4FATMXIMZRPTH3E","A3CH1Z6J9R38G9","32XN26MTXZ5MP383W6LZYTLBY7P0LI","","","img/flower6.png","76","343.69999999552965","3","1","3","2","1,0,0,1,1,0,1,0,1","1,0,0,1,1,0,1,0,1","1",""
"null","","html-keyboard-response","332","322824","0.0-332.0","3GA6AFUKOPAI6JM4FATMXIMZRPTH3E","A3CH1Z6J9R38G9","32XN26MTXZ5MP383W6LZYTLBY7P0LI","","","<img src=""img/flower6.png"" style=""width:200px; border:14px solid green;"">","null","","","","","","","","",""
"549.5","","image-keyboard-response","333","323374","0.0-333.0","3GA6AFUKOPAI6JM4FATMXIMZRPTH3E","A3CH1Z6J9R38G9","32XN26MTXZ5MP383W6LZYTLBY7P0LI","","","img/flower2.png","75","550.1000000014901","2","1","2","2","1,0,0,1,1,0,1,0,1","1,0,0,1,1,0,1,0,1","1",""
"null","","html-keyboard-response","334","323676","0.0-334.0","3GA6AFUKOPAI6JM4FATMXIMZRPTH3E","A3CH1Z6J9R38G9","32XN26MTXZ5MP383W6LZYTLBY7P0LI","","","<img src=""img/flower2.png"" style=""width:200px; border:14px solid green;"">","null","","","","","","","","",""
"317.90000000596046","","image-keyboard-response","335","323994","0.0-335.0","3GA6AFUKOPAI6JM4FATMXIMZRPTH3E","A3CH1Z6J9R38G9","32XN26MTXZ5MP383W6LZYTLBY7P0LI","","","img/flower2.png","75","318.59999999403954","2","1","2","2","1,0,0,1,1,0,1,0,1","1,0,0,1,1,0,1,0,1","1",""
"null","","html-keyboard-response","336","324296","0.0-336.0","3GA6AFUKOPAI6JM4FATMXIMZRPTH3E","A3CH1Z6J9R38G9","32XN26MTXZ5MP383W6LZYTLBY7P0LI","","","<img src=""img/flower2.png"" style=""width:200px; border:14px solid green;"">","null","","","","","","","","",""
"622.6999999955297","","image-keyboard-response","337","324920","0.0-337.0","3GA6AFUKOPAI6JM4FATMXIMZRPTH3E","A3CH1Z6J9R38G9","32XN26MTXZ5MP383W6LZYTLBY7P0LI","","","img/flower4.png","74","623.3999999985099","1","1","1","2","1,0,0,1,1,0,1,0,1","1,0,0,1,1,0,1,0,1","1",""
"null","","html-keyboard-response","338","325220","0.0-338.0","3GA6AFUKOPAI6JM4FATMXIMZRPTH3E","A3CH1Z6J9R38G9","32XN26MTXZ5MP383W6LZYTLBY7P0LI","","","<img src=""img/flower4.png"" style=""width:200px; border:14px solid green;"">","null","","","","","","","","",""
"621.2999999970198","","image-keyboard-response","339","325842","0.0-339.0","3GA6AFUKOPAI6JM4FATMXIMZRPTH3E","A3CH1Z6J9R38G9","32XN26MTXZ5MP383W6LZYTLBY7P0LI","","","img/flower6.png","76","622","3","1","3","2","1,0,0,1,1,0,1,0,1","1,0,0,1,1,0,1,0,1","1",""
"null","","html-keyboard-response","340","326143","0.0-340.0","3GA6AFUKOPAI6JM4FATMXIMZRPTH3E","A3CH1Z6J9R38G9","32XN26MTXZ5MP383W6LZYTLBY7P0LI","","","<img src=""img/flower6.png"" style=""width:200px; border:14px solid green;"">","null","","","","","","","","",""
"1030.2999999970198","","image-keyboard-response","341","327174","0.0-341.0","3GA6AFUKOPAI6JM4FATMXIMZRPTH3E","A3CH1Z6J9R38G9","32XN26MTXZ5MP383W6LZYTLBY7P0LI","","","img/flower4.png","74","1031","1","1","1","2","1,0,0,1,1,0,1,0,1","1,0,0,1,1,0,1,0,1","1",""
"null","","html-keyboard-response","342","327476","0.0-342.0","3GA6AFUKOPAI6JM4FATMXIMZRPTH3E","A3CH1Z6J9R38G9","32XN26MTXZ5MP383W6LZYTLBY7P0LI","","","<img src=""img/flower4.png"" style=""width:200px; border:14px solid green;"">","null","","","","","","","","",""
"257.70000000298023","","image-keyboard-response","343","327735","0.0-343.0","3GA6AFUKOPAI6JM4FATMXIMZRPTH3E","A3CH1Z6J9R38G9","32XN26MTXZ5MP383W6LZYTLBY7P0LI","","","img/flower4.png","74","258.40000000596046","1","1","1","2","1,0,0,1,1,0,1,0,1","1,0,0,1,1,0,1,0,1","1",""
"null","","html-keyboard-response","344","328036","0.0-344.0","3GA6AFUKOPAI6JM4FATMXIMZRPTH3E","A3CH1Z6J9R38G9","32XN26MTXZ5MP383W6LZYTLBY7P0LI","","","<img src=""img/flower4.png"" style=""width:200px; border:14px solid green;"">","null","","","","","","","","",""
"246.40000000596046","","image-keyboard-response","345","328283","0.0-345.0","3GA6AFUKOPAI6JM4FATMXIMZRPTH3E","A3CH1Z6J9R38G9","32XN26MTXZ5MP383W6LZYTLBY7P0LI","","","img/flower4.png","74","247.09999999403954","1","1","1","2","1,0,0,1,1,0,1,0,1","1,0,0,1,1,0,1,0,1","1",""
"null","","html-keyboard-response","346","328585","0.0-346.0","3GA6AFUKOPAI6JM4FATMXIMZRPTH3E","A3CH1Z6J9R38G9","32XN26MTXZ5MP383W6LZYTLBY7P0LI","","","<img src=""img/flower4.png"" style=""width:200px; border:14px solid green;"">","null","","","","","","","","",""
"542.5","","image-keyboard-response","347","329128","0.0-347.0","3GA6AFUKOPAI6JM4FATMXIMZRPTH3E","A3CH1Z6J9R38G9","32XN26MTXZ5MP383W6LZYTLBY7P0LI","","","img/flower6.png","76","543.2999999970198","3","1","3","2","1,0,0,1,1,0,1,0,1","1,0,0,1,1,0,1,0,1","1",""
"null","","html-keyboard-response","348","329430","0.0-348.0","3GA6AFUKOPAI6JM4FATMXIMZRPTH3E","A3CH1Z6J9R38G9","32XN26MTXZ5MP383W6LZYTLBY7P0LI","","","<img src=""img/flower6.png"" style=""width:200px; border:14px solid green;"">","null","","","","","","","","",""
"313.09999999403954","","image-keyboard-response","349","329743","0.0-349.0","3GA6AFUKOPAI6JM4FATMXIMZRPTH3E","A3CH1Z6J9R38G9","32XN26MTXZ5MP383W6LZYTLBY7P0LI","","","img/flower6.png","76","313.79999999701977","3","1","3","2","1,0,0,1,1,0,1,0,1","1,0,0,1,1,0,1,0,1","1",""
"null","","html-keyboard-response","350","330045","0.0-350.0","3GA6AFUKOPAI6JM4FATMXIMZRPTH3E","A3CH1Z6J9R38G9","32XN26MTXZ5MP383W6LZYTLBY7P0LI","","","<img src=""img/flower6.png"" style=""width:200px; border:14px solid green;"">","null","","","","","","","","",""
"204.39999999850988","","image-keyboard-response","351","330250","0.0-351.0","3GA6AFUKOPAI6JM4FATMXIMZRPTH3E","A3CH1Z6J9R38G9","32XN26MTXZ5MP383W6LZYTLBY7P0LI","","","img/flower2.png","76","205.09999999403954","3","0","2","2","1,0,0,1,1,0,1,0,1","1,0,0,1,1,0,1,0,1","1",""
"null","","html-keyboard-response","352","330552","0.0-352.0","3GA6AFUKOPAI6JM4FATMXIMZRPTH3E","A3CH1Z6J9R38G9","32XN26MTXZ5MP383W6LZYTLBY7P0LI","","","<img src=""img/flower2.png"" style=""width:200px;border:14px solid red;"">","null","","","","","","","","",""
"1110.5","","image-keyboard-response","353","331663","0.0-353.0","3GA6AFUKOPAI6JM4FATMXIMZRPTH3E","A3CH1Z6J9R38G9","32XN26MTXZ5MP383W6LZYTLBY7P0LI","","","img/flower4.png","74","1111.1000000014901","1","1","1","2","1,0,0,1,1,0,1,0,1","1,0,0,1,1,0,1,0,1","1",""
"null","","html-keyboard-response","354","331965","0.0-354.0","3GA6AFUKOPAI6JM4FATMXIMZRPTH3E","A3CH1Z6J9R38G9","32XN26MTXZ5MP383W6LZYTLBY7P0LI","","","<img src=""img/flower4.png"" style=""width:200px; border:14px solid green;"">","null","","","","","","","","",""
"630.6000000014901","","image-keyboard-response","355","332597","0.0-355.0","3GA6AFUKOPAI6JM4FATMXIMZRPTH3E","A3CH1Z6J9R38G9","32XN26MTXZ5MP383W6LZYTLBY7P0LI","","","img/flower2.png","75","631.6000000014901","2","1","2","2","1,0,0,1,1,0,1,0,1","1,0,0,1,1,0,1,0,1","1",""
"null","","html-keyboard-response","356","332899","0.0-356.0","3GA6AFUKOPAI6JM4FATMXIMZRPTH3E","A3CH1Z6J9R38G9","32XN26MTXZ5MP383W6LZYTLBY7P0LI","","","<img src=""img/flower2.png"" style=""width:200px; border:14px solid green;"">","null","","","","","","","","",""
"309.8999999985099","","image-keyboard-response","357","333210","0.0-357.0","3GA6AFUKOPAI6JM4FATMXIMZRPTH3E","A3CH1Z6J9R38G9","32XN26MTXZ5MP383W6LZYTLBY7P0LI","","","img/flower2.png","75","310.6000000014901","2","1","2","2","1,0,0,1,1,0,1,0,1","1,0,0,1,1,0,1,0,1","1",""
"null","","html-keyboard-response","358","333512","0.0-358.0","3GA6AFUKOPAI6JM4FATMXIMZRPTH3E","A3CH1Z6J9R38G9","32XN26MTXZ5MP383W6LZYTLBY7P0LI","","","<img src=""img/flower2.png"" style=""width:200px; border:14px solid green;"">","null","","","","","","","","",""
"576","","image-keyboard-response","359","334088","0.0-359.0","3GA6AFUKOPAI6JM4FATMXIMZRPTH3E","A3CH1Z6J9R38G9","32XN26MTXZ5MP383W6LZYTLBY7P0LI","","","img/flower6.png","76","576.5999999940395","3","1","3","2","1,0,0,1,1,0,1,0,1","1,0,0,1,1,0,1,0,1","1",""
"null","","html-keyboard-response","360","334389","0.0-360.0","3GA6AFUKOPAI6JM4FATMXIMZRPTH3E","A3CH1Z6J9R38G9","32XN26MTXZ5MP383W6LZYTLBY7P0LI","","","<img src=""img/flower6.png"" style=""width:200px; border:14px solid green;"">","null","","","","","","","","",""
"570.1000000014901","","image-keyboard-response","361","334960","0.0-361.0","3GA6AFUKOPAI6JM4FATMXIMZRPTH3E","A3CH1Z6J9R38G9","32XN26MTXZ5MP383W6LZYTLBY7P0LI","","","img/flower4.png","74","570.7999999970198","1","1","1","2","1,0,0,1,1,0,1,0,1","1,0,0,1,1,0,1,0,1","1",""
"null","","html-keyboard-response","362","335261","0.0-362.0","3GA6AFUKOPAI6JM4FATMXIMZRPTH3E","A3CH1Z6J9R38G9","32XN26MTXZ5MP383W6LZYTLBY7P0LI","","","<img src=""img/flower4.png"" style=""width:200px; border:14px solid green;"">","null","","","","","","","","",""
"638.2000000029802","","image-keyboard-response","363","335900","0.0-363.0","3GA6AFUKOPAI6JM4FATMXIMZRPTH3E","A3CH1Z6J9R38G9","32XN26MTXZ5MP383W6LZYTLBY7P0LI","","","img/flower6.png","76","638.8999999985099","3","1","3","2","1,0,0,1,1,0,1,0,1","1,0,0,1,1,0,1,0,1","1",""
"null","","html-keyboard-response","364","336202","0.0-364.0","3GA6AFUKOPAI6JM4FATMXIMZRPTH3E","A3CH1Z6J9R38G9","32XN26MTXZ5MP383W6LZYTLBY7P0LI","","","<img src=""img/flower6.png"" style=""width:200px; border:14px solid green;"">","null","","","","","","","","",""
"571.3000000044703","","image-keyboard-response","365","336774","0.0-365.0","3GA6AFUKOPAI6JM4FATMXIMZRPTH3E","A3CH1Z6J9R38G9","32XN26MTXZ5MP383W6LZYTLBY7P0LI","","","img/flower4.png","74","572","1","1","1","2","1,0,0,1,1,0,1,0,1","1,0,0,1,1,0,1,0,1","1",""
"null","","html-keyboard-response","366","337076","0.0-366.0","3GA6AFUKOPAI6JM4FATMXIMZRPTH3E","A3CH1Z6J9R38G9","32XN26MTXZ5MP383W6LZYTLBY7P0LI","","","<img src=""img/flower4.png"" style=""width:200px; border:14px solid green;"">","null","","","","","","","","",""
"280.5","","image-keyboard-response","367","337357","0.0-367.0","3GA6AFUKOPAI6JM4FATMXIMZRPTH3E","A3CH1Z6J9R38G9","32XN26MTXZ5MP383W6LZYTLBY7P0LI","","","img/flower4.png","74","281","1","1","1","2","1,0,0,1,1,0,1,0,1","1,0,0,1,1,0,1,0,1","1",""
