"success","trial_type","trial_index","time_elapsed","internal_node_id","assignmentID","mturkID","hitID","view_history","rt","stimulus","key_press","reactionTime","a","r","s","cond","reward_cond","reward_cond_actual","reward_matrix_idx","responses"
"true","fullscreen","0","23544","0.0-0.0","3Y5140Z9DY2P932BJQ8EAXQFXV7IPM","A3DG8M8G0L4DNZ","3566S7OX5D5NH74JOVOPTTMK8IR17K","","","","","","","","","","","","",""
"","instructions","1","32284","0.0-1.0","3Y5140Z9DY2P932BJQ8EAXQFXV7IPM","A3DG8M8G0L4DNZ","3566S7OX5D5NH74JOVOPTTMK8IR17K","[{""page_index"":0,""viewing_time"":922.6000000238419},{""page_index"":1,""viewing_time"":690.5},{""page_index"":2,""viewing_time"":656.1999999880791},{""page_index"":3,""viewing_time"":1389.699999988079},{""page_index"":4,""viewing_time"":1798.800000011921},{""page_index"":5,""viewing_time"":991.6999999880791},{""page_index"":6,""viewing_time"":813.3999999761581},{""page_index"":7,""viewing_time"":1475.9000000357628}]","8739.199999988079","","","","","","","","","","",""
"","image-keyboard-response","2","33063","0.0-2.0","3Y5140Z9DY2P932BJQ8EAXQFXV7IPM","A3DG8M8G0L4DNZ","3566S7OX5D5NH74JOVOPTTMK8IR17K","","778","img/flower2.png","74","778.8999999761581","1","1","1","1","1,0.333,0.333,0.333,1,0.333,0.333,0.333,1","1,0.333,0.333,0.333,1,0.333,0.333,0.333,1","1",""
"","html-keyboard-response","3","33365","0.0-3.0","3Y5140Z9DY2P932BJQ8EAXQFXV7IPM","A3DG8M8G0L4DNZ","3566S7OX5D5NH74JOVOPTTMK8IR17K","","null","<img src=""img/flower2.png"" style=""width:200px; border:14px solid green;"">","null","","","","","","","","",""
"","image-keyboard-response","4","33397","0.0-4.0","3Y5140Z9DY2P932BJQ8EAXQFXV7IPM","A3DG8M8G0L4DNZ","3566S7OX5D5NH74JOVOPTTMK8IR17K","","31","img/flower6.png","75","31.69999998807907","2","1","2","1","1,0.333,0.333,0.333,1,0.333,0.333,0.333,1","1,0.333,0.333,0.333,1,0.333,0.333,0.333,1","1",""
"","html-keyboard-response","5","33698","0.0-5.0","3Y5140Z9DY2P932BJQ8EAXQFXV7IPM","A3DG8M8G0L4DNZ","3566S7OX5D5NH74JOVOPTTMK8IR17K","","null","<img src=""img/flower6.png"" style=""width:200px; border:14px solid green;"">","null","","","","","","","","",""
"","image-keyboard-response","6","33745","0.0-6.0","3Y5140Z9DY2P932BJQ8EAXQFXV7IPM","A3DG8M8G0L4DNZ","3566S7OX5D5NH74JOVOPTTMK8IR17K","","45.69999998807907","img/flower2.png","76","46.80000001192093","3","1","1","1","1,0.333,0.333,0.333,1,0.333,0.333,0.333,1","1,0.333,0.333,0.333,1,0.333,0.333,0.333,1","1",""
"","html-keyboard-response","7","34047","0.0-7.0","3Y5140Z9DY2P932BJQ8EAXQFXV7IPM","A3DG8M8G0L4DNZ","3566S7OX5D5NH74JOVOPTTMK8IR17K","","null","<img src=""img/flower2.png"" style=""width:200px; border:14px solid green;"">","null","","","","","","","","",""
"","image-keyboard-response","8","34093","0.0-8.0","3Y5140Z9DY2P932BJQ8EAXQFXV7IPM","A3DG8M8G0L4DNZ","3566S7OX5D5NH74JOVOPTTMK8IR17K","","44.69999998807907","img/flower2.png","74","45.39999997615814","1","1","1","1","1,0.333,0.333,0.333,1,0.333,0.333,0.333,1","1,0.333,0.333,0.333,1,0.333,0.333,0.333,1","1",""
"","html-keyboard-response","9","34394","0.0-9.0","3Y5140Z9DY2P932BJQ8EAXQFXV7IPM","A3DG8M8G0L4DNZ","3566S7OX5D5NH74JOVOPTTMK8IR17K","","null","<img src=""img/flower2.png"" style=""width:200px; border:14px solid green;"">","null","","","","","","","","",""
"","image-keyboard-response","10","34465","0.0-10.0","3Y5140Z9DY2P932BJQ8EAXQFXV7IPM","A3DG8M8G0L4DNZ","3566S7OX5D5NH74JOVOPTTMK8IR17K","","70.29999995231628","img/flower4.png","75","71","2","1","3","1","1,0.333,0.333,0.333,1,0.333,0.333,0.333,1","1,0.333,0.333,0.333,1,0.333,0.333,0.333,1","1",""
"","html-keyboard-response","11","34767","0.0-11.0","3Y5140Z9DY2P932BJQ8EAXQFXV7IPM","A3DG8M8G0L4DNZ","3566S7OX5D5NH74JOVOPTTMK8IR17K","","null","<img src=""img/flower4.png"" style=""width:200px; border:14px solid green;"">","null","","","","","","","","",""
"","image-keyboard-response","12","34783","0.0-12.0","3Y5140Z9DY2P932BJQ8EAXQFXV7IPM","A3DG8M8G0L4DNZ","3566S7OX5D5NH74JOVOPTTMK8IR17K","","15","img/flower4.png","74","15.599999964237213","1","0","3","1","1,0.333,0.333,0.333,1,0.333,0.333,0.333,1","1,0.333,0.333,0.333,1,0.333,0.333,0.333,1","1",""
"","html-keyboard-response","13","35084","0.0-13.0","3Y5140Z9DY2P932BJQ8EAXQFXV7IPM","A3DG8M8G0L4DNZ","3566S7OX5D5NH74JOVOPTTMK8IR17K","","null","<img src=""img/flower4.png"" style=""width:200px;border:14px solid red;"">","null","","","","","","","","",""
"","image-keyboard-response","14","35156","0.0-14.0","3Y5140Z9DY2P932BJQ8EAXQFXV7IPM","A3DG8M8G0L4DNZ","3566S7OX5D5NH74JOVOPTTMK8IR17K","","71.30000001192093","img/flower2.png","74","72.19999998807907","1","1","1","1","1,0.333,0.333,0.333,1,0.333,0.333,0.333,1","1,0.333,0.333,0.333,1,0.333,0.333,0.333,1","1",""
"","html-keyboard-response","15","35458","0.0-15.0","3Y5140Z9DY2P932BJQ8EAXQFXV7IPM","A3DG8M8G0L4DNZ","3566S7OX5D5NH74JOVOPTTMK8IR17K","","null","<img src=""img/flower2.png"" style=""width:200px; border:14px solid green;"">","null","","","","","","","","",""
"","image-keyboard-response","16","35539","0.0-16.0","3Y5140Z9DY2P932BJQ8EAXQFXV7IPM","A3DG8M8G0L4DNZ","3566S7OX5D5NH74JOVOPTTMK8IR17K","","80.40000003576279","img/flower6.png","74","81.10000002384186","1","1","2","1","1,0.333,0.333,0.333,1,0.333,0.333,0.333,1","1,0.333,0.333,0.333,1,0.333,0.333,0.333,1","1",""
"","html-keyboard-response","17","35840","0.0-17.0","3Y5140Z9DY2P932BJQ8EAXQFXV7IPM","A3DG8M8G0L4DNZ","3566S7OX5D5NH74JOVOPTTMK8IR17K","","null","<img src=""img/flower6.png"" style=""width:200px; border:14px solid green;"">","null","","","","","","","","",""
"","image-keyboard-response","18","35983","0.0-18.0","3Y5140Z9DY2P932BJQ8EAXQFXV7IPM","A3DG8M8G0L4DNZ","3566S7OX5D5NH74JOVOPTTMK8IR17K","","141.39999997615814","img/flower2.png","74","142.30000001192093","1","1","1","1","1,0.333,0.333,0.333,1,0.333,0.333,0.333,1","1,0.333,0.333,0.333,1,0.333,0.333,0.333,1","1",""
"","html-keyboard-response","19","36284","0.0-19.0","3Y5140Z9DY2P932BJQ8EAXQFXV7IPM","A3DG8M8G0L4DNZ","3566S7OX5D5NH74JOVOPTTMK8IR17K","","null","<img src=""img/flower2.png"" style=""width:200px; border:14px solid green;"">","null","","","","","","","","",""
"","image-keyboard-response","20","36296","0.0-20.0","3Y5140Z9DY2P932BJQ8EAXQFXV7IPM","A3DG8M8G0L4DNZ","3566S7OX5D5NH74JOVOPTTMK8IR17K","","10.799999952316284","img/flower6.png","75","11.399999976158142","2","1","2","1","1,0.333,0.333,0.333,1,0.333,0.333,0.333,1","1,0.333,0.333,0.333,1,0.333,0.333,0.333,1","1",""
"","html-keyboard-response","21","36597","0.0-21.0","3Y5140Z9DY2P932BJQ8EAXQFXV7IPM","A3DG8M8G0L4DNZ","3566S7OX5D5NH74JOVOPTTMK8IR17K","","null","<img src=""img/flower6.png"" style=""width:200px; border:14px solid green;"">","null","","","","","","","","",""
"","image-keyboard-response","22","36688","0.0-22.0","3Y5140Z9DY2P932BJQ8EAXQFXV7IPM","A3DG8M8G0L4DNZ","3566S7OX5D5NH74JOVOPTTMK8IR17K","","89.19999998807907","img/flower6.png","75","90.10000002384186","2","1","2","1","1,0.333,0.333,0.333,1,0.333,0.333,0.333,1","1,0.333,0.333,0.333,1,0.333,0.333,0.333,1","1",""
"","html-keyboard-response","23","36989","0.0-23.0","3Y5140Z9DY2P932BJQ8EAXQFXV7IPM","A3DG8M8G0L4DNZ","3566S7OX5D5NH74JOVOPTTMK8IR17K","","null","<img src=""img/flower6.png"" style=""width:200px; border:14px solid green;"">","null","","","","","","","","",""
"","image-keyboard-response","24","37073","0.0-24.0","3Y5140Z9DY2P932BJQ8EAXQFXV7IPM","A3DG8M8G0L4DNZ","3566S7OX5D5NH74JOVOPTTMK8IR17K","","83.40000003576279","img/flower4.png","76","84.09999996423721","3","1","3","1","1,0.333,0.333,0.333,1,0.333,0.333,0.333,1","1,0.333,0.333,0.333,1,0.333,0.333,0.333,1","1",""
"","html-keyboard-response","25","37374","0.0-25.0","3Y5140Z9DY2P932BJQ8EAXQFXV7IPM","A3DG8M8G0L4DNZ","3566S7OX5D5NH74JOVOPTTMK8IR17K","","null","<img src=""img/flower4.png"" style=""width:200px; border:14px solid green;"">","null","","","","","","","","",""
"","image-keyboard-response","26","37421","0.0-26.0","3Y5140Z9DY2P932BJQ8EAXQFXV7IPM","A3DG8M8G0L4DNZ","3566S7OX5D5NH74JOVOPTTMK8IR17K","","45.90000003576279","img/flower6.png","74","46.60000002384186","1","1","2","1","1,0.333,0.333,0.333,1,0.333,0.333,0.333,1","1,0.333,0.333,0.333,1,0.333,0.333,0.333,1","1",""
"","html-keyboard-response","27","37724","0.0-27.0","3Y5140Z9DY2P932BJQ8EAXQFXV7IPM","A3DG8M8G0L4DNZ","3566S7OX5D5NH74JOVOPTTMK8IR17K","","null","<img src=""img/flower6.png"" style=""width:200px; border:14px solid green;"">","null","","","","","","","","",""
"","image-keyboard-response","28","37767","0.0-28.0","3Y5140Z9DY2P932BJQ8EAXQFXV7IPM","A3DG8M8G0L4DNZ","3566S7OX5D5NH74JOVOPTTMK8IR17K","","42.59999996423721","img/flower4.png","75","43.39999997615814","2","1","3","1","1,0.333,0.333,0.333,1,0.333,0.333,0.333,1","1,0.333,0.333,0.333,1,0.333,0.333,0.333,1","1",""
"","html-keyboard-response","29","38070","0.0-29.0","3Y5140Z9DY2P932BJQ8EAXQFXV7IPM","A3DG8M8G0L4DNZ","3566S7OX5D5NH74JOVOPTTMK8IR17K","","null","<img src=""img/flower4.png"" style=""width:200px; border:14px solid green;"">","null","","","","","","","","",""
"","image-keyboard-response","30","38073","0.0-30.0","3Y5140Z9DY2P932BJQ8EAXQFXV7IPM","A3DG8M8G0L4DNZ","3566S7OX5D5NH74JOVOPTTMK8IR17K","","2.5","img/flower2.png","74","3.299999952316284","1","1","1","1","1,0.333,0.333,0.333,1,0.333,0.333,0.333,1","1,0.333,0.333,0.333,1,0.333,0.333,0.333,1","1",""
"","html-keyboard-response","31","38375","0.0-31.0","3Y5140Z9DY2P932BJQ8EAXQFXV7IPM","A3DG8M8G0L4DNZ","3566S7OX5D5NH74JOVOPTTMK8IR17K","","null","<img src=""img/flower2.png"" style=""width:200px; border:14px solid green;"">","null","","","","","","","","",""
"","image-keyboard-response","32","38387","0.0-32.0","3Y5140Z9DY2P932BJQ8EAXQFXV7IPM","A3DG8M8G0L4DNZ","3566S7OX5D5NH74JOVOPTTMK8IR17K","","11.600000023841858","img/flower6.png","75","12.300000011920929","2","1","2","1","1,0.333,0.333,0.333,1,0.333,0.333,0.333,1","1,0.333,0.333,0.333,1,0.333,0.333,0.333,1","1",""
"","html-keyboard-response","33","38689","0.0-33.0","3Y5140Z9DY2P932BJQ8EAXQFXV7IPM","A3DG8M8G0L4DNZ","3566S7OX5D5NH74JOVOPTTMK8IR17K","","null","<img src=""img/flower6.png"" style=""width:200px; border:14px solid green;"">","null","","","","","","","","",""
"","image-keyboard-response","34","38783","0.0-34.0","3Y5140Z9DY2P932BJQ8EAXQFXV7IPM","A3DG8M8G0L4DNZ","3566S7OX5D5NH74JOVOPTTMK8IR17K","","93.10000002384186","img/flower2.png","76","93.89999997615814","3","0","1","1","1,0.333,0.333,0.333,1,0.333,0.333,0.333,1","1,0.333,0.333,0.333,1,0.333,0.333,0.333,1","1",""
"","html-keyboard-response","35","39084","0.0-35.0","3Y5140Z9DY2P932BJQ8EAXQFXV7IPM","A3DG8M8G0L4DNZ","3566S7OX5D5NH74JOVOPTTMK8IR17K","","null","<img src=""img/flower2.png"" style=""width:200px;border:14px solid red;"">","null","","","","","","","","",""
"","image-keyboard-response","36","39094","0.0-36.0","3Y5140Z9DY2P932BJQ8EAXQFXV7IPM","A3DG8M8G0L4DNZ","3566S7OX5D5NH74JOVOPTTMK8IR17K","","8.800000011920929","img/flower4.png","74","9.5","1","0","3","1","1,0.333,0.333,0.333,1,0.333,0.333,0.333,1","1,0.333,0.333,0.333,1,0.333,0.333,0.333,1","1",""
"","html-keyboard-response","37","39395","0.0-37.0","3Y5140Z9DY2P932BJQ8EAXQFXV7IPM","A3DG8M8G0L4DNZ","3566S7OX5D5NH74JOVOPTTMK8IR17K","","null","<img src=""img/flower4.png"" style=""width:200px;border:14px solid red;"">","null","","","","","","","","",""
"","image-keyboard-response","38","39419","0.0-38.0","3Y5140Z9DY2P932BJQ8EAXQFXV7IPM","A3DG8M8G0L4DNZ","3566S7OX5D5NH74JOVOPTTMK8IR17K","","22.5","img/flower4.png","75","23.5","2","0","3","1","1,0.333,0.333,0.333,1,0.333,0.333,0.333,1","1,0.333,0.333,0.333,1,0.333,0.333,0.333,1","1",""
"","html-keyboard-response","39","39721","0.0-39.0","3Y5140Z9DY2P932BJQ8EAXQFXV7IPM","A3DG8M8G0L4DNZ","3566S7OX5D5NH74JOVOPTTMK8IR17K","","null","<img src=""img/flower4.png"" style=""width:200px;border:14px solid red;"">","null","","","","","","","","",""
"","image-keyboard-response","40","39755","0.0-40.0","3Y5140Z9DY2P932BJQ8EAXQFXV7IPM","A3DG8M8G0L4DNZ","3566S7OX5D5NH74JOVOPTTMK8IR17K","","33.40000003576279","img/flower4.png","76","33.89999997615814","3","1","3","1","1,0.333,0.333,0.333,1,0.333,0.333,0.333,1","1,0.333,0.333,0.333,1,0.333,0.333,0.333,1","1",""
"","html-keyboard-response","41","40057","0.0-41.0","3Y5140Z9DY2P932BJQ8EAXQFXV7IPM","A3DG8M8G0L4DNZ","3566S7OX5D5NH74JOVOPTTMK8IR17K","","null","<img src=""img/flower4.png"" style=""width:200px; border:14px solid green;"">","null","","","","","","","","",""
"","image-keyboard-response","42","40125","0.0-42.0","3Y5140Z9DY2P932BJQ8EAXQFXV7IPM","A3DG8M8G0L4DNZ","3566S7OX5D5NH74JOVOPTTMK8IR17K","","67.59999996423721","img/flower6.png","76","68.40000003576279","3","0","2","1","1,0.333,0.333,0.333,1,0.333,0.333,0.333,1","1,0.333,0.333,0.333,1,0.333,0.333,0.333,1","1",""
"","html-keyboard-response","43","40426","0.0-43.0","3Y5140Z9DY2P932BJQ8EAXQFXV7IPM","A3DG8M8G0L4DNZ","3566S7OX5D5NH74JOVOPTTMK8IR17K","","null","<img src=""img/flower6.png"" style=""width:200px;border:14px solid red;"">","null","","","","","","","","",""
"","image-keyboard-response","44","40500","0.0-44.0","3Y5140Z9DY2P932BJQ8EAXQFXV7IPM","A3DG8M8G0L4DNZ","3566S7OX5D5NH74JOVOPTTMK8IR17K","","72.19999998807907","img/flower6.png","76","73.10000002384186","3","0","2","1","1,0.333,0.333,0.333,1,0.333,0.333,0.333,1","1,0.333,0.333,0.333,1,0.333,0.333,0.333,1","1",""
"","html-keyboard-response","45","40801","0.0-45.0","3Y5140Z9DY2P932BJQ8EAXQFXV7IPM","A3DG8M8G0L4DNZ","3566S7OX5D5NH74JOVOPTTMK8IR17K","","null","<img src=""img/flower6.png"" style=""width:200px;border:14px solid red;"">","null","","","","","","","","",""
"","image-keyboard-response","46","40861","0.0-46.0","3Y5140Z9DY2P932BJQ8EAXQFXV7IPM","A3DG8M8G0L4DNZ","3566S7OX5D5NH74JOVOPTTMK8IR17K","","59.10000002384186","img/flower4.png","74","60","1","0","3","1","1,0.333,0.333,0.333,1,0.333,0.333,0.333,1","1,0.333,0.333,0.333,1,0.333,0.333,0.333,1","1",""
"","html-keyboard-response","47","41163","0.0-47.0","3Y5140Z9DY2P932BJQ8EAXQFXV7IPM","A3DG8M8G0L4DNZ","3566S7OX5D5NH74JOVOPTTMK8IR17K","","null","<img src=""img/flower4.png"" style=""width:200px;border:14px solid red;"">","null","","","","","","","","",""
"","image-keyboard-response","48","41177","0.0-48.0","3Y5140Z9DY2P932BJQ8EAXQFXV7IPM","A3DG8M8G0L4DNZ","3566S7OX5D5NH74JOVOPTTMK8IR17K","","12.099999964237213","img/flower2.png","75","12.899999976158142","2","1","1","1","1,0.333,0.333,0.333,1,0.333,0.333,0.333,1","1,0.333,0.333,0.333,1,0.333,0.333,0.333,1","1",""
"","html-keyboard-response","49","41479","0.0-49.0","3Y5140Z9DY2P932BJQ8EAXQFXV7IPM","A3DG8M8G0L4DNZ","3566S7OX5D5NH74JOVOPTTMK8IR17K","","null","<img src=""img/flower2.png"" style=""width:200px; border:14px solid green;"">","null","","","","","","","","",""
"","image-keyboard-response","50","41515","0.0-50.0","3Y5140Z9DY2P932BJQ8EAXQFXV7IPM","A3DG8M8G0L4DNZ","3566S7OX5D5NH74JOVOPTTMK8IR17K","","35.39999997615814","img/flower6.png","76","36","3","0","2","1","1,0.333,0.333,0.333,1,0.333,0.333,0.333,1","1,0.333,0.333,0.333,1,0.333,0.333,0.333,1","1",""
"","html-keyboard-response","51","41817","0.0-51.0","3Y5140Z9DY2P932BJQ8EAXQFXV7IPM","A3DG8M8G0L4DNZ","3566S7OX5D5NH74JOVOPTTMK8IR17K","","null","<img src=""img/flower6.png"" style=""width:200px;border:14px solid red;"">","null","","","","","","","","",""
"","image-keyboard-response","52","41862","0.0-52.0","3Y5140Z9DY2P932BJQ8EAXQFXV7IPM","A3DG8M8G0L4DNZ","3566S7OX5D5NH74JOVOPTTMK8IR17K","","43.90000003576279","img/flower6.png","74","44.80000001192093","1","1","2","1","1,0.333,0.333,0.333,1,0.333,0.333,0.333,1","1,0.333,0.333,0.333,1,0.333,0.333,0.333,1","1",""
"","html-keyboard-response","53","42163","0.0-53.0","3Y5140Z9DY2P932BJQ8EAXQFXV7IPM","A3DG8M8G0L4DNZ","3566S7OX5D5NH74JOVOPTTMK8IR17K","","null","<img src=""img/flower6.png"" style=""width:200px; border:14px solid green;"">","null","","","","","","","","",""
"","image-keyboard-response","54","42165","0.0-54.0","3Y5140Z9DY2P932BJQ8EAXQFXV7IPM","A3DG8M8G0L4DNZ","3566S7OX5D5NH74JOVOPTTMK8IR17K","","2","img/flower2.png","75","2.699999988079071","2","0","1","1","1,0.333,0.333,0.333,1,0.333,0.333,0.333,1","1,0.333,0.333,0.333,1,0.333,0.333,0.333,1","1",""
"","html-keyboard-response","55","42467","0.0-55.0","3Y5140Z9DY2P932BJQ8EAXQFXV7IPM","A3DG8M8G0L4DNZ","3566S7OX5D5NH74JOVOPTTMK8IR17K","","null","<img src=""img/flower2.png"" style=""width:200px;border:14px solid red;"">","null","","","","","","","","",""
"","image-keyboard-response","56","42506","0.0-56.0","3Y5140Z9DY2P932BJQ8EAXQFXV7IPM","A3DG8M8G0L4DNZ","3566S7OX5D5NH74JOVOPTTMK8IR17K","","37.69999998807907","img/flower4.png","76","38.40000003576279","3","1","3","1","1,0.333,0.333,0.333,1,0.333,0.333,0.333,1","1,0.333,0.333,0.333,1,0.333,0.333,0.333,1","1",""
"","html-keyboard-response","57","42807","0.0-57.0","3Y5140Z9DY2P932BJQ8EAXQFXV7IPM","A3DG8M8G0L4DNZ","3566S7OX5D5NH74JOVOPTTMK8IR17K","","null","<img src=""img/flower4.png"" style=""width:200px; border:14px solid green;"">","null","","","","","","","","",""
"","image-keyboard-response","58","42908","0.0-58.0","3Y5140Z9DY2P932BJQ8EAXQFXV7IPM","A3DG8M8G0L4DNZ","3566S7OX5D5NH74JOVOPTTMK8IR17K","","99.90000003576279","img/flower4.png","76","101","3","1","3","1","1,0.333,0.333,0.333,1,0.333,0.333,0.333,1","1,0.333,0.333,0.333,1,0.333,0.333,0.333,1","1",""
"","html-keyboard-response","59","43210","0.0-59.0","3Y5140Z9DY2P932BJQ8EAXQFXV7IPM","A3DG8M8G0L4DNZ","3566S7OX5D5NH74JOVOPTTMK8IR17K","","null","<img src=""img/flower4.png"" style=""width:200px; border:14px solid green;"">","null","","","","","","","","",""
"","image-keyboard-response","60","43256","0.0-60.0","3Y5140Z9DY2P932BJQ8EAXQFXV7IPM","A3DG8M8G0L4DNZ","3566S7OX5D5NH74JOVOPTTMK8IR17K","","46","img/flower4.png","75","46.799999952316284","2","0","3","1","1,0.333,0.333,0.333,1,0.333,0.333,0.333,1","1,0.333,0.333,0.333,1,0.333,0.333,0.333,1","1",""
"","html-keyboard-response","61","43558","0.0-61.0","3Y5140Z9DY2P932BJQ8EAXQFXV7IPM","A3DG8M8G0L4DNZ","3566S7OX5D5NH74JOVOPTTMK8IR17K","","null","<img src=""img/flower4.png"" style=""width:200px;border:14px solid red;"">","null","","","","","","","","",""
"","image-keyboard-response","62","43563","0.0-62.0","3Y5140Z9DY2P932BJQ8EAXQFXV7IPM","A3DG8M8G0L4DNZ","3566S7OX5D5NH74JOVOPTTMK8IR17K","","4.300000011920929","img/flower6.png","74","4.899999976158142","1","1","2","1","1,0.333,0.333,0.333,1,0.333,0.333,0.333,1","1,0.333,0.333,0.333,1,0.333,0.333,0.333,1","1",""
"","html-keyboard-response","63","43866","0.0-63.0","3Y5140Z9DY2P932BJQ8EAXQFXV7IPM","A3DG8M8G0L4DNZ","3566S7OX5D5NH74JOVOPTTMK8IR17K","","null","<img src=""img/flower6.png"" style=""width:200px; border:14px solid green;"">","null","","","","","","","","",""
"","image-keyboard-response","64","43897","0.0-64.0","3Y5140Z9DY2P932BJQ8EAXQFXV7IPM","A3DG8M8G0L4DNZ","3566S7OX5D5NH74JOVOPTTMK8IR17K","","30.80000001192093","img/flower6.png","75","31.399999976158142","2","1","2","1","1,0.333,0.333,0.333,1,0.333,0.333,0.333,1","1,0.333,0.333,0.333,1,0.333,0.333,0.333,1","1",""
"","html-keyboard-response","65","44199","0.0-65.0","3Y5140Z9DY2P932BJQ8EAXQFXV7IPM","A3DG8M8G0L4DNZ","3566S7OX5D5NH74JOVOPTTMK8IR17K","","null","<img src=""img/flower6.png"" style=""width:200px; border:14px solid green;"">","null","","","","","","","","",""
"","image-keyboard-response","66","44205","0.0-66.0","3Y5140Z9DY2P932BJQ8EAXQFXV7IPM","A3DG8M8G0L4DNZ","3566S7OX5D5NH74JOVOPTTMK8IR17K","","5.599999964237213","img/flower6.png","74","6.199999988079071","1","0","2","1","1,0.333,0.333,0.333,1,0.333,0.333,0.333,1","1,0.333,0.333,0.333,1,0.333,0.333,0.333,1","1",""
"","html-keyboard-response","67","44507","0.0-67.0","3Y5140Z9DY2P932BJQ8EAXQFXV7IPM","A3DG8M8G0L4DNZ","3566S7OX5D5NH74JOVOPTTMK8IR17K","","null","<img src=""img/flower6.png"" style=""width:200px;border:14px solid red;"">","null","","","","","","","","",""
"","image-keyboard-response","68","44508","0.0-68.0","3Y5140Z9DY2P932BJQ8EAXQFXV7IPM","A3DG8M8G0L4DNZ","3566S7OX5D5NH74JOVOPTTMK8IR17K","","0.30000001192092896","img/flower2.png","76","0.8999999761581421","3","1","1","1","1,0.333,0.333,0.333,1,0.333,0.333,0.333,1","1,0.333,0.333,0.333,1,0.333,0.333,0.333,1","1",""
"","html-keyboard-response","69","44809","0.0-69.0","3Y5140Z9DY2P932BJQ8EAXQFXV7IPM","A3DG8M8G0L4DNZ","3566S7OX5D5NH74JOVOPTTMK8IR17K","","null","<img src=""img/flower2.png"" style=""width:200px; border:14px solid green;"">","null","","","","","","","","",""
"","image-keyboard-response","70","44850","0.0-70.0","3Y5140Z9DY2P932BJQ8EAXQFXV7IPM","A3DG8M8G0L4DNZ","3566S7OX5D5NH74JOVOPTTMK8IR17K","","40.10000002384186","img/flower4.png","74","40.69999998807907","1","0","3","1","1,0.333,0.333,0.333,1,0.333,0.333,0.333,1","1,0.333,0.333,0.333,1,0.333,0.333,0.333,1","1",""
"","html-keyboard-response","71","45151","0.0-71.0","3Y5140Z9DY2P932BJQ8EAXQFXV7IPM","A3DG8M8G0L4DNZ","3566S7OX5D5NH74JOVOPTTMK8IR17K","","null","<img src=""img/flower4.png"" style=""width:200px;border:14px solid red;"">","null","","","","","","","","",""
"","image-keyboard-response","72","45173","0.0-72.0","3Y5140Z9DY2P932BJQ8EAXQFXV7IPM","A3DG8M8G0L4DNZ","3566S7OX5D5NH74JOVOPTTMK8IR17K","","21.100000023841858","img/flower2.png","75","21.900000035762787","2","1","1","1","1,0.333,0.333,0.333,1,0.333,0.333,0.333,1","1,0.333,0.333,0.333,1,0.333,0.333,0.333,1","1",""
"","html-keyboard-response","73","45474","0.0-73.0","3Y5140Z9DY2P932BJQ8EAXQFXV7IPM","A3DG8M8G0L4DNZ","3566S7OX5D5NH74JOVOPTTMK8IR17K","","null","<img src=""img/flower2.png"" style=""width:200px; border:14px solid green;"">","null","","","","","","","","",""
"","image-keyboard-response","74","45493","0.0-74.0","3Y5140Z9DY2P932BJQ8EAXQFXV7IPM","A3DG8M8G0L4DNZ","3566S7OX5D5NH74JOVOPTTMK8IR17K","","17.799999952316284","img/flower2.png","76","18.600000023841858","3","0","1","1","1,0.333,0.333,0.333,1,0.333,0.333,0.333,1","1,0.333,0.333,0.333,1,0.333,0.333,0.333,1","1",""
"","html-keyboard-response","75","45795","0.0-75.0","3Y5140Z9DY2P932BJQ8EAXQFXV7IPM","A3DG8M8G0L4DNZ","3566S7OX5D5NH74JOVOPTTMK8IR17K","","null","<img src=""img/flower2.png"" style=""width:200px;border:14px solid red;"">","null","","","","","","","","",""
"","image-keyboard-response","76","45854","0.0-76.0","3Y5140Z9DY2P932BJQ8EAXQFXV7IPM","A3DG8M8G0L4DNZ","3566S7OX5D5NH74JOVOPTTMK8IR17K","","57.19999998807907","img/flower4.png","75","58","2","0","3","1","1,0.333,0.333,0.333,1,0.333,0.333,0.333,1","1,0.333,0.333,0.333,1,0.333,0.333,0.333,1","1",""
"","html-keyboard-response","77","46155","0.0-77.0","3Y5140Z9DY2P932BJQ8EAXQFXV7IPM","A3DG8M8G0L4DNZ","3566S7OX5D5NH74JOVOPTTMK8IR17K","","null","<img src=""img/flower4.png"" style=""width:200px;border:14px solid red;"">","null","","","","","","","","",""
"","image-keyboard-response","78","46202","0.0-78.0","3Y5140Z9DY2P932BJQ8EAXQFXV7IPM","A3DG8M8G0L4DNZ","3566S7OX5D5NH74JOVOPTTMK8IR17K","","45.90000003576279","img/flower6.png","74","46.59999996423721","1","1","2","1","1,0.333,0.333,0.333,1,0.333,0.333,0.333,1","1,0.333,0.333,0.333,1,0.333,0.333,0.333,1","1",""
"","html-keyboard-response","79","46503","0.0-79.0","3Y5140Z9DY2P932BJQ8EAXQFXV7IPM","A3DG8M8G0L4DNZ","3566S7OX5D5NH74JOVOPTTMK8IR17K","","null","<img src=""img/flower6.png"" style=""width:200px; border:14px solid green;"">","null","","","","","","","","",""
"","image-keyboard-response","80","46507","0.0-80.0","3Y5140Z9DY2P932BJQ8EAXQFXV7IPM","A3DG8M8G0L4DNZ","3566S7OX5D5NH74JOVOPTTMK8IR17K","","3.699999988079071","img/flower2.png","76","4.300000011920929","3","1","1","1","1,0.333,0.333,0.333,1,0.333,0.333,0.333,1","1,0.333,0.333,0.333,1,0.333,0.333,0.333,1","1",""
"","html-keyboard-response","81","46809","0.0-81.0","3Y5140Z9DY2P932BJQ8EAXQFXV7IPM","A3DG8M8G0L4DNZ","3566S7OX5D5NH74JOVOPTTMK8IR17K","","null","<img src=""img/flower2.png"" style=""width:200px; border:14px solid green;"">","null","","","","","","","","",""
"","image-keyboard-response","82","46872","0.0-82.0","3Y5140Z9DY2P932BJQ8EAXQFXV7IPM","A3DG8M8G0L4DNZ","3566S7OX5D5NH74JOVOPTTMK8IR17K","","62","img/flower4.png","74","63.09999996423721","1","0","3","1","1,0.333,0.333,0.333,1,0.333,0.333,0.333,1","1,0.333,0.333,0.333,1,0.333,0.333,0.333,1","1",""
"","html-keyboard-response","83","47174","0.0-83.0","3Y5140Z9DY2P932BJQ8EAXQFXV7IPM","A3DG8M8G0L4DNZ","3566S7OX5D5NH74JOVOPTTMK8IR17K","","null","<img src=""img/flower4.png"" style=""width:200px;border:14px solid red;"">","null","","","","","","","","",""
"","image-keyboard-response","84","47199","0.0-84.0","3Y5140Z9DY2P932BJQ8EAXQFXV7IPM","A3DG8M8G0L4DNZ","3566S7OX5D5NH74JOVOPTTMK8IR17K","","24.5","img/flower6.png","75","25.399999976158142","2","1","2","1","1,0.333,0.333,0.333,1,0.333,0.333,0.333,1","1,0.333,0.333,0.333,1,0.333,0.333,0.333,1","1",""
"","html-keyboard-response","85","47500","0.0-85.0","3Y5140Z9DY2P932BJQ8EAXQFXV7IPM","A3DG8M8G0L4DNZ","3566S7OX5D5NH74JOVOPTTMK8IR17K","","null","<img src=""img/flower6.png"" style=""width:200px; border:14px solid green;"">","null","","","","","","","","",""
"","image-keyboard-response","86","47503","0.0-86.0","3Y5140Z9DY2P932BJQ8EAXQFXV7IPM","A3DG8M8G0L4DNZ","3566S7OX5D5NH74JOVOPTTMK8IR17K","","1.5","img/flower4.png","74","2.299999952316284","1","1","3","1","1,0.333,0.333,0.333,1,0.333,0.333,0.333,1","1,0.333,0.333,0.333,1,0.333,0.333,0.333,1","1",""
"","html-keyboard-response","87","47804","0.0-87.0","3Y5140Z9DY2P932BJQ8EAXQFXV7IPM","A3DG8M8G0L4DNZ","3566S7OX5D5NH74JOVOPTTMK8IR17K","","null","<img src=""img/flower4.png"" style=""width:200px; border:14px solid green;"">","null","","","","","","","","",""
"","image-keyboard-response","88","47823","0.0-88.0","3Y5140Z9DY2P932BJQ8EAXQFXV7IPM","A3DG8M8G0L4DNZ","3566S7OX5D5NH74JOVOPTTMK8IR17K","","17.799999952316284","img/flower2.png","75","18.5","2","0","1","1","1,0.333,0.333,0.333,1,0.333,0.333,0.333,1","1,0.333,0.333,0.333,1,0.333,0.333,0.333,1","1",""
"","html-keyboard-response","89","48125","0.0-89.0","3Y5140Z9DY2P932BJQ8EAXQFXV7IPM","A3DG8M8G0L4DNZ","3566S7OX5D5NH74JOVOPTTMK8IR17K","","null","<img src=""img/flower2.png"" style=""width:200px;border:14px solid red;"">","null","","","","","","","","",""
"","image-keyboard-response","90","48147","0.0-90.0","3Y5140Z9DY2P932BJQ8EAXQFXV7IPM","A3DG8M8G0L4DNZ","3566S7OX5D5NH74JOVOPTTMK8IR17K","","21","img/flower6.png","74","21.700000047683716","1","0","2","1","1,0.333,0.333,0.333,1,0.333,0.333,0.333,1","1,0.333,0.333,0.333,1,0.333,0.333,0.333,1","1",""
"","html-keyboard-response","91","48450","0.0-91.0","3Y5140Z9DY2P932BJQ8EAXQFXV7IPM","A3DG8M8G0L4DNZ","3566S7OX5D5NH74JOVOPTTMK8IR17K","","null","<img src=""img/flower6.png"" style=""width:200px;border:14px solid red;"">","null","","","","","","","","",""
"","image-keyboard-response","92","48494","0.0-92.0","3Y5140Z9DY2P932BJQ8EAXQFXV7IPM","A3DG8M8G0L4DNZ","3566S7OX5D5NH74JOVOPTTMK8IR17K","","43.69999998807907","img/flower2.png","75","44.30000001192093","2","0","1","1","1,0.333,0.333,0.333,1,0.333,0.333,0.333,1","1,0.333,0.333,0.333,1,0.333,0.333,0.333,1","1",""
"","html-keyboard-response","93","48795","0.0-93.0","3Y5140Z9DY2P932BJQ8EAXQFXV7IPM","A3DG8M8G0L4DNZ","3566S7OX5D5NH74JOVOPTTMK8IR17K","","null","<img src=""img/flower2.png"" style=""width:200px;border:14px solid red;"">","null","","","","","","","","",""
"","image-keyboard-response","94","48818","0.0-94.0","3Y5140Z9DY2P932BJQ8EAXQFXV7IPM","A3DG8M8G0L4DNZ","3566S7OX5D5NH74JOVOPTTMK8IR17K","","22","img/flower4.png","74","22.80000001192093","1","1","3","1","1,0.333,0.333,0.333,1,0.333,0.333,0.333,1","1,0.333,0.333,0.333,1,0.333,0.333,0.333,1","1",""
"","html-keyboard-response","95","49120","0.0-95.0","3Y5140Z9DY2P932BJQ8EAXQFXV7IPM","A3DG8M8G0L4DNZ","3566S7OX5D5NH74JOVOPTTMK8IR17K","","null","<img src=""img/flower4.png"" style=""width:200px; border:14px solid green;"">","null","","","","","","","","",""
"","image-keyboard-response","96","49151","0.0-96.0","3Y5140Z9DY2P932BJQ8EAXQFXV7IPM","A3DG8M8G0L4DNZ","3566S7OX5D5NH74JOVOPTTMK8IR17K","","29.899999976158142","img/flower2.png","76","30.80000001192093","3","0","1","1","1,0.333,0.333,0.333,1,0.333,0.333,0.333,1","1,0.333,0.333,0.333,1,0.333,0.333,0.333,1","1",""
"","html-keyboard-response","97","49453","0.0-97.0","3Y5140Z9DY2P932BJQ8EAXQFXV7IPM","A3DG8M8G0L4DNZ","3566S7OX5D5NH74JOVOPTTMK8IR17K","","null","<img src=""img/flower2.png"" style=""width:200px;border:14px solid red;"">","null","","","","","","","","",""
"","image-keyboard-response","98","49483","0.0-98.0","3Y5140Z9DY2P932BJQ8EAXQFXV7IPM","A3DG8M8G0L4DNZ","3566S7OX5D5NH74JOVOPTTMK8IR17K","","29.299999952316284","img/flower4.png","74","30.19999998807907","1","0","3","1","1,0.333,0.333,0.333,1,0.333,0.333,0.333,1","1,0.333,0.333,0.333,1,0.333,0.333,0.333,1","1",""
"","html-keyboard-response","99","49786","0.0-99.0","3Y5140Z9DY2P932BJQ8EAXQFXV7IPM","A3DG8M8G0L4DNZ","3566S7OX5D5NH74JOVOPTTMK8IR17K","","null","<img src=""img/flower4.png"" style=""width:200px;border:14px solid red;"">","null","","","","","","","","",""
"","image-keyboard-response","100","49823","0.0-100.0","3Y5140Z9DY2P932BJQ8EAXQFXV7IPM","A3DG8M8G0L4DNZ","3566S7OX5D5NH74JOVOPTTMK8IR17K","","36.299999952316284","img/flower6.png","75","37.200000047683716","2","1","2","1","1,0.333,0.333,0.333,1,0.333,0.333,0.333,1","1,0.333,0.333,0.333,1,0.333,0.333,0.333,1","1",""
"","html-keyboard-response","101","50124","0.0-101.0","3Y5140Z9DY2P932BJQ8EAXQFXV7IPM","A3DG8M8G0L4DNZ","3566S7OX5D5NH74JOVOPTTMK8IR17K","","null","<img src=""img/flower6.png"" style=""width:200px; border:14px solid green;"">","null","","","","","","","","",""
"","image-keyboard-response","102","50147","0.0-102.0","3Y5140Z9DY2P932BJQ8EAXQFXV7IPM","A3DG8M8G0L4DNZ","3566S7OX5D5NH74JOVOPTTMK8IR17K","","21.69999998807907","img/flower4.png","74","22.80000001192093","1","1","3","1","1,0.333,0.333,0.333,1,0.333,0.333,0.333,1","1,0.333,0.333,0.333,1,0.333,0.333,0.333,1","1",""
"","html-keyboard-response","103","50449","0.0-103.0","3Y5140Z9DY2P932BJQ8EAXQFXV7IPM","A3DG8M8G0L4DNZ","3566S7OX5D5NH74JOVOPTTMK8IR17K","","null","<img src=""img/flower4.png"" style=""width:200px; border:14px solid green;"">","null","","","","","","","","",""
"","image-keyboard-response","104","50476","0.0-104.0","3Y5140Z9DY2P932BJQ8EAXQFXV7IPM","A3DG8M8G0L4DNZ","3566S7OX5D5NH74JOVOPTTMK8IR17K","","26.30000001192093","img/flower6.png","75","27","2","1","2","1","1,0.333,0.333,0.333,1,0.333,0.333,0.333,1","1,0.333,0.333,0.333,1,0.333,0.333,0.333,1","1",""
"","html-keyboard-response","105","50777","0.0-105.0","3Y5140Z9DY2P932BJQ8EAXQFXV7IPM","A3DG8M8G0L4DNZ","3566S7OX5D5NH74JOVOPTTMK8IR17K","","null","<img src=""img/flower6.png"" style=""width:200px; border:14px solid green;"">","null","","","","","","","","",""
"","image-keyboard-response","106","50788","0.0-106.0","3Y5140Z9DY2P932BJQ8EAXQFXV7IPM","A3DG8M8G0L4DNZ","3566S7OX5D5NH74JOVOPTTMK8IR17K","","9.899999976158142","img/flower6.png","74","10.600000023841858","1","1","2","1","1,0.333,0.333,0.333,1,0.333,0.333,0.333,1","1,0.333,0.333,0.333,1,0.333,0.333,0.333,1","1",""
"","html-keyboard-response","107","51100","0.0-107.0","3Y5140Z9DY2P932BJQ8EAXQFXV7IPM","A3DG8M8G0L4DNZ","3566S7OX5D5NH74JOVOPTTMK8IR17K","","null","<img src=""img/flower6.png"" style=""width:200px; border:14px solid green;"">","null","","","","","","","","",""
"","image-keyboard-response","108","51121","0.0-108.0","3Y5140Z9DY2P932BJQ8EAXQFXV7IPM","A3DG8M8G0L4DNZ","3566S7OX5D5NH74JOVOPTTMK8IR17K","","20","img/flower4.png","75","20.700000047683716","2","0","3","1","1,0.333,0.333,0.333,1,0.333,0.333,0.333,1","1,0.333,0.333,0.333,1,0.333,0.333,0.333,1","1",""
"","html-keyboard-response","109","51422","0.0-109.0","3Y5140Z9DY2P932BJQ8EAXQFXV7IPM","A3DG8M8G0L4DNZ","3566S7OX5D5NH74JOVOPTTMK8IR17K","","null","<img src=""img/flower4.png"" style=""width:200px;border:14px solid red;"">","null","","","","","","","","",""
"","image-keyboard-response","110","51514","0.0-110.0","3Y5140Z9DY2P932BJQ8EAXQFXV7IPM","A3DG8M8G0L4DNZ","3566S7OX5D5NH74JOVOPTTMK8IR17K","","91.40000003576279","img/flower4.png","76","92.10000002384186","3","1","3","1","1,0.333,0.333,0.333,1,0.333,0.333,0.333,1","1,0.333,0.333,0.333,1,0.333,0.333,0.333,1","1",""
"","html-keyboard-response","111","51815","0.0-111.0","3Y5140Z9DY2P932BJQ8EAXQFXV7IPM","A3DG8M8G0L4DNZ","3566S7OX5D5NH74JOVOPTTMK8IR17K","","null","<img src=""img/flower4.png"" style=""width:200px; border:14px solid green;"">","null","","","","","","","","",""
"","image-keyboard-response","112","51847","0.0-112.0","3Y5140Z9DY2P932BJQ8EAXQFXV7IPM","A3DG8M8G0L4DNZ","3566S7OX5D5NH74JOVOPTTMK8IR17K","","31.80000001192093","img/flower4.png","74","32.30000001192093","1","1","3","1","1,0.333,0.333,0.333,1,0.333,0.333,0.333,1","1,0.333,0.333,0.333,1,0.333,0.333,0.333,1","1",""
"","html-keyboard-response","113","52149","0.0-113.0","3Y5140Z9DY2P932BJQ8EAXQFXV7IPM","A3DG8M8G0L4DNZ","3566S7OX5D5NH74JOVOPTTMK8IR17K","","null","<img src=""img/flower4.png"" style=""width:200px; border:14px solid green;"">","null","","","","","","","","",""
"","image-keyboard-response","114","52180","0.0-114.0","3Y5140Z9DY2P932BJQ8EAXQFXV7IPM","A3DG8M8G0L4DNZ","3566S7OX5D5NH74JOVOPTTMK8IR17K","","29.900000035762787","img/flower2.png","75","30.600000023841858","2","0","1","1","1,0.333,0.333,0.333,1,0.333,0.333,0.333,1","1,0.333,0.333,0.333,1,0.333,0.333,0.333,1","1",""
"","html-keyboard-response","115","52481","0.0-115.0","3Y5140Z9DY2P932BJQ8EAXQFXV7IPM","A3DG8M8G0L4DNZ","3566S7OX5D5NH74JOVOPTTMK8IR17K","","null","<img src=""img/flower2.png"" style=""width:200px;border:14px solid red;"">","null","","","","","","","","",""
"","image-keyboard-response","116","52500","0.0-116.0","3Y5140Z9DY2P932BJQ8EAXQFXV7IPM","A3DG8M8G0L4DNZ","3566S7OX5D5NH74JOVOPTTMK8IR17K","","17.5","img/flower2.png","74","18.200000047683716","1","1","1","1","1,0.333,0.333,0.333,1,0.333,0.333,0.333,1","1,0.333,0.333,0.333,1,0.333,0.333,0.333,1","1",""
"","html-keyboard-response","117","52801","0.0-117.0","3Y5140Z9DY2P932BJQ8EAXQFXV7IPM","A3DG8M8G0L4DNZ","3566S7OX5D5NH74JOVOPTTMK8IR17K","","null","<img src=""img/flower2.png"" style=""width:200px; border:14px solid green;"">","null","","","","","","","","",""
"","image-keyboard-response","118","52848","0.0-118.0","3Y5140Z9DY2P932BJQ8EAXQFXV7IPM","A3DG8M8G0L4DNZ","3566S7OX5D5NH74JOVOPTTMK8IR17K","","45.90000003576279","img/flower6.png","75","46.69999998807907","2","1","2","1","1,0.333,0.333,0.333,1,0.333,0.333,0.333,1","1,0.333,0.333,0.333,1,0.333,0.333,0.333,1","1",""
"","html-keyboard-response","119","53157","0.0-119.0","3Y5140Z9DY2P932BJQ8EAXQFXV7IPM","A3DG8M8G0L4DNZ","3566S7OX5D5NH74JOVOPTTMK8IR17K","","null","<img src=""img/flower6.png"" style=""width:200px; border:14px solid green;"">","null","","","","","","","","",""
"","image-keyboard-response","120","53186","0.0-120.0","3Y5140Z9DY2P932BJQ8EAXQFXV7IPM","A3DG8M8G0L4DNZ","3566S7OX5D5NH74JOVOPTTMK8IR17K","","28.30000001192093","img/flower2.png","74","28.900000035762787","1","1","1","1","1,0.333,0.333,0.333,1,0.333,0.333,0.333,1","1,0.333,0.333,0.333,1,0.333,0.333,0.333,1","1",""
"","html-keyboard-response","121","53487","0.0-121.0","3Y5140Z9DY2P932BJQ8EAXQFXV7IPM","A3DG8M8G0L4DNZ","3566S7OX5D5NH74JOVOPTTMK8IR17K","","null","<img src=""img/flower2.png"" style=""width:200px; border:14px solid green;"">","null","","","","","","","","",""
"","image-keyboard-response","122","53521","0.0-122.0","3Y5140Z9DY2P932BJQ8EAXQFXV7IPM","A3DG8M8G0L4DNZ","3566S7OX5D5NH74JOVOPTTMK8IR17K","","33.200000047683716","img/flower6.png","75","33.90000003576279","2","1","2","1","1,0.333,0.333,0.333,1,0.333,0.333,0.333,1","1,0.333,0.333,0.333,1,0.333,0.333,0.333,1","1",""
"","html-keyboard-response","123","53823","0.0-123.0","3Y5140Z9DY2P932BJQ8EAXQFXV7IPM","A3DG8M8G0L4DNZ","3566S7OX5D5NH74JOVOPTTMK8IR17K","","null","<img src=""img/flower6.png"" style=""width:200px; border:14px solid green;"">","null","","","","","","","","",""
"","image-keyboard-response","124","53824","0.0-124.0","3Y5140Z9DY2P932BJQ8EAXQFXV7IPM","A3DG8M8G0L4DNZ","3566S7OX5D5NH74JOVOPTTMK8IR17K","","0.3999999761581421","img/flower4.png","74","0.9000000357627869","1","0","3","1","1,0.333,0.333,0.333,1,0.333,0.333,0.333,1","1,0.333,0.333,0.333,1,0.333,0.333,0.333,1","1",""
"","html-keyboard-response","125","54126","0.0-125.0","3Y5140Z9DY2P932BJQ8EAXQFXV7IPM","A3DG8M8G0L4DNZ","3566S7OX5D5NH74JOVOPTTMK8IR17K","","null","<img src=""img/flower4.png"" style=""width:200px;border:14px solid red;"">","null","","","","","","","","",""
"","image-keyboard-response","126","54159","0.0-126.0","3Y5140Z9DY2P932BJQ8EAXQFXV7IPM","A3DG8M8G0L4DNZ","3566S7OX5D5NH74JOVOPTTMK8IR17K","","31.69999998807907","img/flower2.png","75","32.5","2","0","1","1","1,0.333,0.333,0.333,1,0.333,0.333,0.333,1","1,0.333,0.333,0.333,1,0.333,0.333,0.333,1","1",""
"","html-keyboard-response","127","54460","0.0-127.0","3Y5140Z9DY2P932BJQ8EAXQFXV7IPM","A3DG8M8G0L4DNZ","3566S7OX5D5NH74JOVOPTTMK8IR17K","","null","<img src=""img/flower2.png"" style=""width:200px;border:14px solid red;"">","null","","","","","","","","",""
"","image-keyboard-response","128","54470","0.0-128.0","3Y5140Z9DY2P932BJQ8EAXQFXV7IPM","A3DG8M8G0L4DNZ","3566S7OX5D5NH74JOVOPTTMK8IR17K","","8.5","img/flower2.png","74","9.099999964237213","1","1","1","1","1,0.333,0.333,0.333,1,0.333,0.333,0.333,1","1,0.333,0.333,0.333,1,0.333,0.333,0.333,1","1",""
"","html-keyboard-response","129","54771","0.0-129.0","3Y5140Z9DY2P932BJQ8EAXQFXV7IPM","A3DG8M8G0L4DNZ","3566S7OX5D5NH74JOVOPTTMK8IR17K","","null","<img src=""img/flower2.png"" style=""width:200px; border:14px solid green;"">","null","","","","","","","","",""
"","image-keyboard-response","130","54796","0.0-130.0","3Y5140Z9DY2P932BJQ8EAXQFXV7IPM","A3DG8M8G0L4DNZ","3566S7OX5D5NH74JOVOPTTMK8IR17K","","23.30000001192093","img/flower6.png","76","24","3","0","2","1","1,0.333,0.333,0.333,1,0.333,0.333,0.333,1","1,0.333,0.333,0.333,1,0.333,0.333,0.333,1","1",""
"","html-keyboard-response","131","55098","0.0-131.0","3Y5140Z9DY2P932BJQ8EAXQFXV7IPM","A3DG8M8G0L4DNZ","3566S7OX5D5NH74JOVOPTTMK8IR17K","","null","<img src=""img/flower6.png"" style=""width:200px;border:14px solid red;"">","null","","","","","","","","",""
"","image-keyboard-response","132","55128","0.0-132.0","3Y5140Z9DY2P932BJQ8EAXQFXV7IPM","A3DG8M8G0L4DNZ","3566S7OX5D5NH74JOVOPTTMK8IR17K","","29.099999964237213","img/flower4.png","74","30","1","0","3","1","1,0.333,0.333,0.333,1,0.333,0.333,0.333,1","1,0.333,0.333,0.333,1,0.333,0.333,0.333,1","1",""
"","html-keyboard-response","133","55430","0.0-133.0","3Y5140Z9DY2P932BJQ8EAXQFXV7IPM","A3DG8M8G0L4DNZ","3566S7OX5D5NH74JOVOPTTMK8IR17K","","null","<img src=""img/flower4.png"" style=""width:200px;border:14px solid red;"">","null","","","","","","","","",""
"","image-keyboard-response","134","55470","0.0-134.0","3Y5140Z9DY2P932BJQ8EAXQFXV7IPM","A3DG8M8G0L4DNZ","3566S7OX5D5NH74JOVOPTTMK8IR17K","","38.60000002384186","img/flower6.png","75","39.40000003576279","2","1","2","1","1,0.333,0.333,0.333,1,0.333,0.333,0.333,1","1,0.333,0.333,0.333,1,0.333,0.333,0.333,1","1",""
"","html-keyboard-response","135","55772","0.0-135.0","3Y5140Z9DY2P932BJQ8EAXQFXV7IPM","A3DG8M8G0L4DNZ","3566S7OX5D5NH74JOVOPTTMK8IR17K","","null","<img src=""img/flower6.png"" style=""width:200px; border:14px solid green;"">","null","","","","","","","","",""
"","image-keyboard-response","136","55789","0.0-136.0","3Y5140Z9DY2P932BJQ8EAXQFXV7IPM","A3DG8M8G0L4DNZ","3566S7OX5D5NH74JOVOPTTMK8IR17K","","16.400000035762787","img/flower6.png","74","17","1","0","2","1","1,0.333,0.333,0.333,1,0.333,0.333,0.333,1","1,0.333,0.333,0.333,1,0.333,0.333,0.333,1","1",""
"","html-keyboard-response","137","56091","0.0-137.0","3Y5140Z9DY2P932BJQ8EAXQFXV7IPM","A3DG8M8G0L4DNZ","3566S7OX5D5NH74JOVOPTTMK8IR17K","","null","<img src=""img/flower6.png"" style=""width:200px;border:14px solid red;"">","null","","","","","","","","",""
"","image-keyboard-response","138","56142","0.0-138.0","3Y5140Z9DY2P932BJQ8EAXQFXV7IPM","A3DG8M8G0L4DNZ","3566S7OX5D5NH74JOVOPTTMK8IR17K","","50.299999952316284","img/flower6.png","76","51.30000001192093","3","1","2","1","1,0.333,0.333,0.333,1,0.333,0.333,0.333,1","1,0.333,0.333,0.333,1,0.333,0.333,0.333,1","1",""
"","html-keyboard-response","139","56444","0.0-139.0","3Y5140Z9DY2P932BJQ8EAXQFXV7IPM","A3DG8M8G0L4DNZ","3566S7OX5D5NH74JOVOPTTMK8IR17K","","null","<img src=""img/flower6.png"" style=""width:200px; border:14px solid green;"">","null","","","","","","","","",""
"","image-keyboard-response","140","56472","0.0-140.0","3Y5140Z9DY2P932BJQ8EAXQFXV7IPM","A3DG8M8G0L4DNZ","3566S7OX5D5NH74JOVOPTTMK8IR17K","","27.400000035762787","img/flower2.png","74","28.099999964237213","1","1","1","1","1,0.333,0.333,0.333,1,0.333,0.333,0.333,1","1,0.333,0.333,0.333,1,0.333,0.333,0.333,1","1",""
"","html-keyboard-response","141","56774","0.0-141.0","3Y5140Z9DY2P932BJQ8EAXQFXV7IPM","A3DG8M8G0L4DNZ","3566S7OX5D5NH74JOVOPTTMK8IR17K","","null","<img src=""img/flower2.png"" style=""width:200px; border:14px solid green;"">","null","","","","","","","","",""
"","image-keyboard-response","142","56832","0.0-142.0","3Y5140Z9DY2P932BJQ8EAXQFXV7IPM","A3DG8M8G0L4DNZ","3566S7OX5D5NH74JOVOPTTMK8IR17K","","56.89999997615814","img/flower6.png","75","57.5","2","1","2","1","1,0.333,0.333,0.333,1,0.333,0.333,0.333,1","1,0.333,0.333,0.333,1,0.333,0.333,0.333,1","1",""
"","html-keyboard-response","143","57133","0.0-143.0","3Y5140Z9DY2P932BJQ8EAXQFXV7IPM","A3DG8M8G0L4DNZ","3566S7OX5D5NH74JOVOPTTMK8IR17K","","null","<img src=""img/flower6.png"" style=""width:200px; border:14px solid green;"">","null","","","","","","","","",""
"","image-keyboard-response","144","57134","0.0-144.0","3Y5140Z9DY2P932BJQ8EAXQFXV7IPM","A3DG8M8G0L4DNZ","3566S7OX5D5NH74JOVOPTTMK8IR17K","","0.30000001192092896","img/flower2.png","76","0.800000011920929","3","0","1","1","1,0.333,0.333,0.333,1,0.333,0.333,0.333,1","1,0.333,0.333,0.333,1,0.333,0.333,0.333,1","1",""
"","html-keyboard-response","145","57437","0.0-145.0","3Y5140Z9DY2P932BJQ8EAXQFXV7IPM","A3DG8M8G0L4DNZ","3566S7OX5D5NH74JOVOPTTMK8IR17K","","null","<img src=""img/flower2.png"" style=""width:200px;border:14px solid red;"">","null","","","","","","","","",""
"","image-keyboard-response","146","57508","0.0-146.0","3Y5140Z9DY2P932BJQ8EAXQFXV7IPM","A3DG8M8G0L4DNZ","3566S7OX5D5NH74JOVOPTTMK8IR17K","","70.5","img/flower2.png","76","71.19999998807907","3","0","1","1","1,0.333,0.333,0.333,1,0.333,0.333,0.333,1","1,0.333,0.333,0.333,1,0.333,0.333,0.333,1","1",""
"","html-keyboard-response","147","57810","0.0-147.0","3Y5140Z9DY2P932BJQ8EAXQFXV7IPM","A3DG8M8G0L4DNZ","3566S7OX5D5NH74JOVOPTTMK8IR17K","","null","<img src=""img/flower2.png"" style=""width:200px;border:14px solid red;"">","null","","","","","","","","",""
"","image-keyboard-response","148","57847","0.0-148.0","3Y5140Z9DY2P932BJQ8EAXQFXV7IPM","A3DG8M8G0L4DNZ","3566S7OX5D5NH74JOVOPTTMK8IR17K","","36.10000002384186","img/flower4.png","74","37.09999996423721","1","1","3","1","1,0.333,0.333,0.333,1,0.333,0.333,0.333,1","1,0.333,0.333,0.333,1,0.333,0.333,0.333,1","1",""
"","html-keyboard-response","149","58150","0.0-149.0","3Y5140Z9DY2P932BJQ8EAXQFXV7IPM","A3DG8M8G0L4DNZ","3566S7OX5D5NH74JOVOPTTMK8IR17K","","null","<img src=""img/flower4.png"" style=""width:200px; border:14px solid green;"">","null","","","","","","","","",""
"","image-keyboard-response","150","58205","0.0-150.0","3Y5140Z9DY2P932BJQ8EAXQFXV7IPM","A3DG8M8G0L4DNZ","3566S7OX5D5NH74JOVOPTTMK8IR17K","","55","img/flower2.png","75","55.80000001192093","2","1","1","1","1,0.333,0.333,0.333,1,0.333,0.333,0.333,1","1,0.333,0.333,0.333,1,0.333,0.333,0.333,1","1",""
"","html-keyboard-response","151","58508","0.0-151.0","3Y5140Z9DY2P932BJQ8EAXQFXV7IPM","A3DG8M8G0L4DNZ","3566S7OX5D5NH74JOVOPTTMK8IR17K","","null","<img src=""img/flower2.png"" style=""width:200px; border:14px solid green;"">","null","","","","","","","","",""
"","image-keyboard-response","152","58513","0.0-152.0","3Y5140Z9DY2P932BJQ8EAXQFXV7IPM","A3DG8M8G0L4DNZ","3566S7OX5D5NH74JOVOPTTMK8IR17K","","4.5","img/flower4.png","74","5.399999976158142","1","0","3","1","1,0.333,0.333,0.333,1,0.333,0.333,0.333,1","1,0.333,0.333,0.333,1,0.333,0.333,0.333,1","1",""
"","html-keyboard-response","153","58815","0.0-153.0","3Y5140Z9DY2P932BJQ8EAXQFXV7IPM","A3DG8M8G0L4DNZ","3566S7OX5D5NH74JOVOPTTMK8IR17K","","null","<img src=""img/flower4.png"" style=""width:200px;border:14px solid red;"">","null","","","","","","","","",""
"","image-keyboard-response","154","58865","0.0-154.0","3Y5140Z9DY2P932BJQ8EAXQFXV7IPM","A3DG8M8G0L4DNZ","3566S7OX5D5NH74JOVOPTTMK8IR17K","","49.89999997615814","img/flower4.png","75","50.5","2","0","3","1","1,0.333,0.333,0.333,1,0.333,0.333,0.333,1","1,0.333,0.333,0.333,1,0.333,0.333,0.333,1","1",""
"","html-keyboard-response","155","59167","0.0-155.0","3Y5140Z9DY2P932BJQ8EAXQFXV7IPM","A3DG8M8G0L4DNZ","3566S7OX5D5NH74JOVOPTTMK8IR17K","","null","<img src=""img/flower4.png"" style=""width:200px;border:14px solid red;"">","null","","","","","","","","",""
"","image-keyboard-response","156","59189","0.0-156.0","3Y5140Z9DY2P932BJQ8EAXQFXV7IPM","A3DG8M8G0L4DNZ","3566S7OX5D5NH74JOVOPTTMK8IR17K","","21.399999976158142","img/flower4.png","74","22.5","1","0","3","1","1,0.333,0.333,0.333,1,0.333,0.333,0.333,1","1,0.333,0.333,0.333,1,0.333,0.333,0.333,1","1",""
"","html-keyboard-response","157","59491","0.0-157.0","3Y5140Z9DY2P932BJQ8EAXQFXV7IPM","A3DG8M8G0L4DNZ","3566S7OX5D5NH74JOVOPTTMK8IR17K","","null","<img src=""img/flower4.png"" style=""width:200px;border:14px solid red;"">","null","","","","","","","","",""
"","image-keyboard-response","158","59526","0.0-158.0","3Y5140Z9DY2P932BJQ8EAXQFXV7IPM","A3DG8M8G0L4DNZ","3566S7OX5D5NH74JOVOPTTMK8IR17K","","34.59999996423721","img/flower2.png","76","35.200000047683716","3","0","1","1","1,0.333,0.333,0.333,1,0.333,0.333,0.333,1","1,0.333,0.333,0.333,1,0.333,0.333,0.333,1","1",""
"","html-keyboard-response","159","59828","0.0-159.0","3Y5140Z9DY2P932BJQ8EAXQFXV7IPM","A3DG8M8G0L4DNZ","3566S7OX5D5NH74JOVOPTTMK8IR17K","","null","<img src=""img/flower2.png"" style=""width:200px;border:14px solid red;"">","null","","","","","","","","",""
"","image-keyboard-response","160","59855","0.0-160.0","3Y5140Z9DY2P932BJQ8EAXQFXV7IPM","A3DG8M8G0L4DNZ","3566S7OX5D5NH74JOVOPTTMK8IR17K","","27","img/flower2.png","74","27.599999964237213","1","1","1","1","1,0.333,0.333,0.333,1,0.333,0.333,0.333,1","1,0.333,0.333,0.333,1,0.333,0.333,0.333,1","1",""
"","html-keyboard-response","161","60157","0.0-161.0","3Y5140Z9DY2P932BJQ8EAXQFXV7IPM","A3DG8M8G0L4DNZ","3566S7OX5D5NH74JOVOPTTMK8IR17K","","null","<img src=""img/flower2.png"" style=""width:200px; border:14px solid green;"">","null","","","","","","","","",""
"","image-keyboard-response","162","60160","0.0-162.0","3Y5140Z9DY2P932BJQ8EAXQFXV7IPM","A3DG8M8G0L4DNZ","3566S7OX5D5NH74JOVOPTTMK8IR17K","","1.899999976158142","img/flower6.png","76","3","3","0","2","1","1,0.333,0.333,0.333,1,0.333,0.333,0.333,1","1,0.333,0.333,0.333,1,0.333,0.333,0.333,1","1",""
"","html-keyboard-response","163","60462","0.0-163.0","3Y5140Z9DY2P932BJQ8EAXQFXV7IPM","A3DG8M8G0L4DNZ","3566S7OX5D5NH74JOVOPTTMK8IR17K","","null","<img src=""img/flower6.png"" style=""width:200px;border:14px solid red;"">","null","","","","","","","","",""
"","image-keyboard-response","164","60548","0.0-164.0","3Y5140Z9DY2P932BJQ8EAXQFXV7IPM","A3DG8M8G0L4DNZ","3566S7OX5D5NH74JOVOPTTMK8IR17K","","85.19999998807907","img/flower2.png","74","86.30000001192093","1","1","1","1","1,0.333,0.333,0.333,1,0.333,0.333,0.333,1","1,0.333,0.333,0.333,1,0.333,0.333,0.333,1","1",""
"","html-keyboard-response","165","60849","0.0-165.0","3Y5140Z9DY2P932BJQ8EAXQFXV7IPM","A3DG8M8G0L4DNZ","3566S7OX5D5NH74JOVOPTTMK8IR17K","","null","<img src=""img/flower2.png"" style=""width:200px; border:14px solid green;"">","null","","","","","","","","",""
"","image-keyboard-response","166","60934","0.0-166.0","3Y5140Z9DY2P932BJQ8EAXQFXV7IPM","A3DG8M8G0L4DNZ","3566S7OX5D5NH74JOVOPTTMK8IR17K","","83.39999997615814","img/flower2.png","75","84.5","2","0","1","1","1,0.333,0.333,0.333,1,0.333,0.333,0.333,1","1,0.333,0.333,0.333,1,0.333,0.333,0.333,1","1",""
"","html-keyboard-response","167","61236","0.0-167.0","3Y5140Z9DY2P932BJQ8EAXQFXV7IPM","A3DG8M8G0L4DNZ","3566S7OX5D5NH74JOVOPTTMK8IR17K","","null","<img src=""img/flower2.png"" style=""width:200px;border:14px solid red;"">","null","","","","","","","","",""
"","image-keyboard-response","168","61262","0.0-168.0","3Y5140Z9DY2P932BJQ8EAXQFXV7IPM","A3DG8M8G0L4DNZ","3566S7OX5D5NH74JOVOPTTMK8IR17K","","25.80000001192093","img/flower2.png","74","26.5","1","1","1","1","1,0.333,0.333,0.333,1,0.333,0.333,0.333,1","1,0.333,0.333,0.333,1,0.333,0.333,0.333,1","1",""
"","html-keyboard-response","169","61565","0.0-169.0","3Y5140Z9DY2P932BJQ8EAXQFXV7IPM","A3DG8M8G0L4DNZ","3566S7OX5D5NH74JOVOPTTMK8IR17K","","null","<img src=""img/flower2.png"" style=""width:200px; border:14px solid green;"">","null","","","","","","","","",""
"","image-keyboard-response","170","61584","0.0-170.0","3Y5140Z9DY2P932BJQ8EAXQFXV7IPM","A3DG8M8G0L4DNZ","3566S7OX5D5NH74JOVOPTTMK8IR17K","","18.19999998807907","img/flower4.png","76","19","3","1","3","1","1,0.333,0.333,0.333,1,0.333,0.333,0.333,1","1,0.333,0.333,0.333,1,0.333,0.333,0.333,1","1",""
"","html-keyboard-response","171","61885","0.0-171.0","3Y5140Z9DY2P932BJQ8EAXQFXV7IPM","A3DG8M8G0L4DNZ","3566S7OX5D5NH74JOVOPTTMK8IR17K","","null","<img src=""img/flower4.png"" style=""width:200px; border:14px solid green;"">","null","","","","","","","","",""
"","image-keyboard-response","172","61932","0.0-172.0","3Y5140Z9DY2P932BJQ8EAXQFXV7IPM","A3DG8M8G0L4DNZ","3566S7OX5D5NH74JOVOPTTMK8IR17K","","46.30000001192093","img/flower6.png","74","47","1","1","2","1","1,0.333,0.333,0.333,1,0.333,0.333,0.333,1","1,0.333,0.333,0.333,1,0.333,0.333,0.333,1","1",""
"","html-keyboard-response","173","62234","0.0-173.0","3Y5140Z9DY2P932BJQ8EAXQFXV7IPM","A3DG8M8G0L4DNZ","3566S7OX5D5NH74JOVOPTTMK8IR17K","","null","<img src=""img/flower6.png"" style=""width:200px; border:14px solid green;"">","null","","","","","","","","",""
"","image-keyboard-response","174","62280","0.0-174.0","3Y5140Z9DY2P932BJQ8EAXQFXV7IPM","A3DG8M8G0L4DNZ","3566S7OX5D5NH74JOVOPTTMK8IR17K","","45.19999998807907","img/flower6.png","75","46.10000002384186","2","1","2","1","1,0.333,0.333,0.333,1,0.333,0.333,0.333,1","1,0.333,0.333,0.333,1,0.333,0.333,0.333,1","1",""
"","html-keyboard-response","175","62582","0.0-175.0","3Y5140Z9DY2P932BJQ8EAXQFXV7IPM","A3DG8M8G0L4DNZ","3566S7OX5D5NH74JOVOPTTMK8IR17K","","null","<img src=""img/flower6.png"" style=""width:200px; border:14px solid green;"">","null","","","","","","","","",""
"","image-keyboard-response","176","62606","0.0-176.0","3Y5140Z9DY2P932BJQ8EAXQFXV7IPM","A3DG8M8G0L4DNZ","3566S7OX5D5NH74JOVOPTTMK8IR17K","","22.900000035762787","img/flower6.png","74","23.399999976158142","1","0","2","1","1,0.333,0.333,0.333,1,0.333,0.333,0.333,1","1,0.333,0.333,0.333,1,0.333,0.333,0.333,1","1",""
"","html-keyboard-response","177","62908","0.0-177.0","3Y5140Z9DY2P932BJQ8EAXQFXV7IPM","A3DG8M8G0L4DNZ","3566S7OX5D5NH74JOVOPTTMK8IR17K","","null","<img src=""img/flower6.png"" style=""width:200px;border:14px solid red;"">","null","","","","","","","","",""
"","image-keyboard-response","178","62952","0.0-178.0","3Y5140Z9DY2P932BJQ8EAXQFXV7IPM","A3DG8M8G0L4DNZ","3566S7OX5D5NH74JOVOPTTMK8IR17K","","42.90000003576279","img/flower4.png","75","43.69999998807907","2","1","3","1","1,0.333,0.333,0.333,1,0.333,0.333,0.333,1","1,0.333,0.333,0.333,1,0.333,0.333,0.333,1","1",""
"","html-keyboard-response","179","63254","0.0-179.0","3Y5140Z9DY2P932BJQ8EAXQFXV7IPM","A3DG8M8G0L4DNZ","3566S7OX5D5NH74JOVOPTTMK8IR17K","","null","<img src=""img/flower4.png"" style=""width:200px; border:14px solid green;"">","null","","","","","","","","",""
"","image-keyboard-response","180","63278","0.0-180.0","3Y5140Z9DY2P932BJQ8EAXQFXV7IPM","A3DG8M8G0L4DNZ","3566S7OX5D5NH74JOVOPTTMK8IR17K","","22.899999976158142","img/flower4.png","74","24","1","0","3","1","1,0.333,0.333,0.333,1,0.333,0.333,0.333,1","1,0.333,0.333,0.333,1,0.333,0.333,0.333,1","1",""
"","html-keyboard-response","181","63587","0.0-181.0","3Y5140Z9DY2P932BJQ8EAXQFXV7IPM","A3DG8M8G0L4DNZ","3566S7OX5D5NH74JOVOPTTMK8IR17K","","null","<img src=""img/flower4.png"" style=""width:200px;border:14px solid red;"">","null","","","","","","","","",""
"","html-keyboard-response","182","65212","0.0-182.0","3Y5140Z9DY2P932BJQ8EAXQFXV7IPM","A3DG8M8G0L4DNZ","3566S7OX5D5NH74JOVOPTTMK8IR17K","","","","","","","","","","","","",""
"","image-keyboard-response","183","65280","0.0-183.0","3Y5140Z9DY2P932BJQ8EAXQFXV7IPM","A3DG8M8G0L4DNZ","3566S7OX5D5NH74JOVOPTTMK8IR17K","","66.89999997615814","img/flower3.png","74","68","1","0","1","2","1,0,0,1,1,0,1,0,1","0,0,1,1,0,1,0,1,1","2",""
"","html-keyboard-response","184","65582","0.0-184.0","3Y5140Z9DY2P932BJQ8EAXQFXV7IPM","A3DG8M8G0L4DNZ","3566S7OX5D5NH74JOVOPTTMK8IR17K","","null","<img src=""img/flower3.png"" style=""width:200px;border:14px solid red;"">","null","","","","","","","","",""
"","image-keyboard-response","185","65619","0.0-185.0","3Y5140Z9DY2P932BJQ8EAXQFXV7IPM","A3DG8M8G0L4DNZ","3566S7OX5D5NH74JOVOPTTMK8IR17K","","35.69999998807907","img/flower1.png","76","36.40000003576279","3","1","3","2","1,0,0,1,1,0,1,0,1","0,0,1,1,0,1,0,1,1","2",""
"","html-keyboard-response","186","65921","0.0-186.0","3Y5140Z9DY2P932BJQ8EAXQFXV7IPM","A3DG8M8G0L4DNZ","3566S7OX5D5NH74JOVOPTTMK8IR17K","","null","<img src=""img/flower1.png"" style=""width:200px; border:14px solid green;"">","null","","","","","","","","",""
"","image-keyboard-response","187","65956","0.0-187.0","3Y5140Z9DY2P932BJQ8EAXQFXV7IPM","A3DG8M8G0L4DNZ","3566S7OX5D5NH74JOVOPTTMK8IR17K","","34.10000002384186","img/flower5.png","75","34.799999952316284","2","0","2","2","1,0,0,1,1,0,1,0,1","0,0,1,1,0,1,0,1,1","2",""
"","html-keyboard-response","188","66258","0.0-188.0","3Y5140Z9DY2P932BJQ8EAXQFXV7IPM","A3DG8M8G0L4DNZ","3566S7OX5D5NH74JOVOPTTMK8IR17K","","null","<img src=""img/flower5.png"" style=""width:200px;border:14px solid red;"">","null","","","","","","","","",""
"","image-keyboard-response","189","66416","0.0-189.0","3Y5140Z9DY2P932BJQ8EAXQFXV7IPM","A3DG8M8G0L4DNZ","3566S7OX5D5NH74JOVOPTTMK8IR17K","","156.5","img/flower5.png","75","157.39999997615814","2","0","2","2","1,0,0,1,1,0,1,0,1","0,0,1,1,0,1,0,1,1","2",""
"","html-keyboard-response","190","66717","0.0-190.0","3Y5140Z9DY2P932BJQ8EAXQFXV7IPM","A3DG8M8G0L4DNZ","3566S7OX5D5NH74JOVOPTTMK8IR17K","","null","<img src=""img/flower5.png"" style=""width:200px;border:14px solid red;"">","null","","","","","","","","",""
"","image-keyboard-response","191","66762","0.0-191.0","3Y5140Z9DY2P932BJQ8EAXQFXV7IPM","A3DG8M8G0L4DNZ","3566S7OX5D5NH74JOVOPTTMK8IR17K","","44.19999998807907","img/flower5.png","74","44.89999997615814","1","1","2","2","1,0,0,1,1,0,1,0,1","0,0,1,1,0,1,0,1,1","2",""
"","html-keyboard-response","192","67063","0.0-192.0","3Y5140Z9DY2P932BJQ8EAXQFXV7IPM","A3DG8M8G0L4DNZ","3566S7OX5D5NH74JOVOPTTMK8IR17K","","null","<img src=""img/flower5.png"" style=""width:200px; border:14px solid green;"">","null","","","","","","","","",""
"","image-keyboard-response","193","67152","0.0-193.0","3Y5140Z9DY2P932BJQ8EAXQFXV7IPM","A3DG8M8G0L4DNZ","3566S7OX5D5NH74JOVOPTTMK8IR17K","","87.69999998807907","img/flower1.png","74","88.80000001192093","1","0","3","2","1,0,0,1,1,0,1,0,1","0,0,1,1,0,1,0,1,1","2",""
"","html-keyboard-response","194","67454","0.0-194.0","3Y5140Z9DY2P932BJQ8EAXQFXV7IPM","A3DG8M8G0L4DNZ","3566S7OX5D5NH74JOVOPTTMK8IR17K","","null","<img src=""img/flower1.png"" style=""width:200px;border:14px solid red;"">","null","","","","","","","","",""
"","image-keyboard-response","195","67468","0.0-195.0","3Y5140Z9DY2P932BJQ8EAXQFXV7IPM","A3DG8M8G0L4DNZ","3566S7OX5D5NH74JOVOPTTMK8IR17K","","13.300000011920929","img/flower5.png","76","13.799999952316284","3","1","2","2","1,0,0,1,1,0,1,0,1","0,0,1,1,0,1,0,1,1","2",""
"","html-keyboard-response","196","67770","0.0-196.0","3Y5140Z9DY2P932BJQ8EAXQFXV7IPM","A3DG8M8G0L4DNZ","3566S7OX5D5NH74JOVOPTTMK8IR17K","","null","<img src=""img/flower5.png"" style=""width:200px; border:14px solid green;"">","null","","","","","","","","",""
"","image-keyboard-response","197","67796","0.0-197.0","3Y5140Z9DY2P932BJQ8EAXQFXV7IPM","A3DG8M8G0L4DNZ","3566S7OX5D5NH74JOVOPTTMK8IR17K","","25.399999976158142","img/flower1.png","74","26.400000035762787","1","0","3","2","1,0,0,1,1,0,1,0,1","0,0,1,1,0,1,0,1,1","2",""
"","html-keyboard-response","198","68099","0.0-198.0","3Y5140Z9DY2P932BJQ8EAXQFXV7IPM","A3DG8M8G0L4DNZ","3566S7OX5D5NH74JOVOPTTMK8IR17K","","null","<img src=""img/flower1.png"" style=""width:200px;border:14px solid red;"">","null","","","","","","","","",""
"","image-keyboard-response","199","68200","0.0-199.0","3Y5140Z9DY2P932BJQ8EAXQFXV7IPM","A3DG8M8G0L4DNZ","3566S7OX5D5NH74JOVOPTTMK8IR17K","","100.10000002384186","img/flower1.png","74","100.80000001192093","1","0","3","2","1,0,0,1,1,0,1,0,1","0,0,1,1,0,1,0,1,1","2",""
"","html-keyboard-response","200","68501","0.0-200.0","3Y5140Z9DY2P932BJQ8EAXQFXV7IPM","A3DG8M8G0L4DNZ","3566S7OX5D5NH74JOVOPTTMK8IR17K","","null","<img src=""img/flower1.png"" style=""width:200px;border:14px solid red;"">","null","","","","","","","","",""
"","image-keyboard-response","201","68558","0.0-201.0","3Y5140Z9DY2P932BJQ8EAXQFXV7IPM","A3DG8M8G0L4DNZ","3566S7OX5D5NH74JOVOPTTMK8IR17K","","56","img/flower3.png","76","56.80000001192093","3","1","1","2","1,0,0,1,1,0,1,0,1","0,0,1,1,0,1,0,1,1","2",""
"","html-keyboard-response","202","68860","0.0-202.0","3Y5140Z9DY2P932BJQ8EAXQFXV7IPM","A3DG8M8G0L4DNZ","3566S7OX5D5NH74JOVOPTTMK8IR17K","","null","<img src=""img/flower3.png"" style=""width:200px; border:14px solid green;"">","null","","","","","","","","",""
"","image-keyboard-response","203","68880","0.0-203.0","3Y5140Z9DY2P932BJQ8EAXQFXV7IPM","A3DG8M8G0L4DNZ","3566S7OX5D5NH74JOVOPTTMK8IR17K","","19.30000001192093","img/flower5.png","74","20.099999964237213","1","1","2","2","1,0,0,1,1,0,1,0,1","0,0,1,1,0,1,0,1,1","2",""
"","html-keyboard-response","204","69182","0.0-204.0","3Y5140Z9DY2P932BJQ8EAXQFXV7IPM","A3DG8M8G0L4DNZ","3566S7OX5D5NH74JOVOPTTMK8IR17K","","null","<img src=""img/flower5.png"" style=""width:200px; border:14px solid green;"">","null","","","","","","","","",""
"","image-keyboard-response","205","69256","0.0-205.0","3Y5140Z9DY2P932BJQ8EAXQFXV7IPM","A3DG8M8G0L4DNZ","3566S7OX5D5NH74JOVOPTTMK8IR17K","","73.60000002384186","img/flower5.png","75","74.29999995231628","2","0","2","2","1,0,0,1,1,0,1,0,1","0,0,1,1,0,1,0,1,1","2",""
"","html-keyboard-response","206","69558","0.0-206.0","3Y5140Z9DY2P932BJQ8EAXQFXV7IPM","A3DG8M8G0L4DNZ","3566S7OX5D5NH74JOVOPTTMK8IR17K","","null","<img src=""img/flower5.png"" style=""width:200px;border:14px solid red;"">","null","","","","","","","","",""
"","image-keyboard-response","207","69593","0.0-207.0","3Y5140Z9DY2P932BJQ8EAXQFXV7IPM","A3DG8M8G0L4DNZ","3566S7OX5D5NH74JOVOPTTMK8IR17K","","33.89999997615814","img/flower3.png","76","34.80000001192093","3","1","1","2","1,0,0,1,1,0,1,0,1","0,0,1,1,0,1,0,1,1","2",""
"","html-keyboard-response","208","69895","0.0-208.0","3Y5140Z9DY2P932BJQ8EAXQFXV7IPM","A3DG8M8G0L4DNZ","3566S7OX5D5NH74JOVOPTTMK8IR17K","","null","<img src=""img/flower3.png"" style=""width:200px; border:14px solid green;"">","null","","","","","","","","",""
"","image-keyboard-response","209","69908","0.0-209.0","3Y5140Z9DY2P932BJQ8EAXQFXV7IPM","A3DG8M8G0L4DNZ","3566S7OX5D5NH74JOVOPTTMK8IR17K","","12","img/flower1.png","75","12.899999976158142","2","1","3","2","1,0,0,1,1,0,1,0,1","0,0,1,1,0,1,0,1,1","2",""
"","html-keyboard-response","210","70209","0.0-210.0","3Y5140Z9DY2P932BJQ8EAXQFXV7IPM","A3DG8M8G0L4DNZ","3566S7OX5D5NH74JOVOPTTMK8IR17K","","null","<img src=""img/flower1.png"" style=""width:200px; border:14px solid green;"">","null","","","","","","","","",""
"","image-keyboard-response","211","70312","0.0-211.0","3Y5140Z9DY2P932BJQ8EAXQFXV7IPM","A3DG8M8G0L4DNZ","3566S7OX5D5NH74JOVOPTTMK8IR17K","","101.69999998807907","img/flower3.png","76","102.90000003576279","3","1","1","2","1,0,0,1,1,0,1,0,1","0,0,1,1,0,1,0,1,1","2",""
"","html-keyboard-response","212","70613","0.0-212.0","3Y5140Z9DY2P932BJQ8EAXQFXV7IPM","A3DG8M8G0L4DNZ","3566S7OX5D5NH74JOVOPTTMK8IR17K","","null","<img src=""img/flower3.png"" style=""width:200px; border:14px solid green;"">","null","","","","","","","","",""
"","image-keyboard-response","213","70614","0.0-213.0","3Y5140Z9DY2P932BJQ8EAXQFXV7IPM","A3DG8M8G0L4DNZ","3566S7OX5D5NH74JOVOPTTMK8IR17K","","0.3999999761581421","img/flower3.png","74","0.9000000357627869","1","0","1","2","1,0,0,1,1,0,1,0,1","0,0,1,1,0,1,0,1,1","2",""
"","html-keyboard-response","214","70915","0.0-214.0","3Y5140Z9DY2P932BJQ8EAXQFXV7IPM","A3DG8M8G0L4DNZ","3566S7OX5D5NH74JOVOPTTMK8IR17K","","null","<img src=""img/flower3.png"" style=""width:200px;border:14px solid red;"">","null","","","","","","","","",""
"","image-keyboard-response","215","71027","0.0-215.0","3Y5140Z9DY2P932BJQ8EAXQFXV7IPM","A3DG8M8G0L4DNZ","3566S7OX5D5NH74JOVOPTTMK8IR17K","","110.5","img/flower1.png","76","111.30000001192093","3","1","3","2","1,0,0,1,1,0,1,0,1","0,0,1,1,0,1,0,1,1","2",""
"","html-keyboard-response","216","71328","0.0-216.0","3Y5140Z9DY2P932BJQ8EAXQFXV7IPM","A3DG8M8G0L4DNZ","3566S7OX5D5NH74JOVOPTTMK8IR17K","","null","<img src=""img/flower1.png"" style=""width:200px; border:14px solid green;"">","null","","","","","","","","",""
"","image-keyboard-response","217","71331","0.0-217.0","3Y5140Z9DY2P932BJQ8EAXQFXV7IPM","A3DG8M8G0L4DNZ","3566S7OX5D5NH74JOVOPTTMK8IR17K","","1.199999988079071","img/flower3.png","74","2.399999976158142","1","0","1","2","1,0,0,1,1,0,1,0,1","0,0,1,1,0,1,0,1,1","2",""
"","html-keyboard-response","218","71633","0.0-218.0","3Y5140Z9DY2P932BJQ8EAXQFXV7IPM","A3DG8M8G0L4DNZ","3566S7OX5D5NH74JOVOPTTMK8IR17K","","null","<img src=""img/flower3.png"" style=""width:200px;border:14px solid red;"">","null","","","","","","","","",""
"","image-keyboard-response","219","71648","0.0-219.0","3Y5140Z9DY2P932BJQ8EAXQFXV7IPM","A3DG8M8G0L4DNZ","3566S7OX5D5NH74JOVOPTTMK8IR17K","","14.200000047683716","img/flower1.png","76","14.800000011920929","3","1","3","2","1,0,0,1,1,0,1,0,1","0,0,1,1,0,1,0,1,1","2",""
"","html-keyboard-response","220","71950","0.0-220.0","3Y5140Z9DY2P932BJQ8EAXQFXV7IPM","A3DG8M8G0L4DNZ","3566S7OX5D5NH74JOVOPTTMK8IR17K","","null","<img src=""img/flower1.png"" style=""width:200px; border:14px solid green;"">","null","","","","","","","","",""
"","image-keyboard-response","221","71991","0.0-221.0","3Y5140Z9DY2P932BJQ8EAXQFXV7IPM","A3DG8M8G0L4DNZ","3566S7OX5D5NH74JOVOPTTMK8IR17K","","39.59999996423721","img/flower1.png","74","40.60000002384186","1","0","3","2","1,0,0,1,1,0,1,0,1","0,0,1,1,0,1,0,1,1","2",""
"","html-keyboard-response","222","72292","0.0-222.0","3Y5140Z9DY2P932BJQ8EAXQFXV7IPM","A3DG8M8G0L4DNZ","3566S7OX5D5NH74JOVOPTTMK8IR17K","","null","<img src=""img/flower1.png"" style=""width:200px;border:14px solid red;"">","null","","","","","","","","",""
"","image-keyboard-response","223","72310","0.0-223.0","3Y5140Z9DY2P932BJQ8EAXQFXV7IPM","A3DG8M8G0L4DNZ","3566S7OX5D5NH74JOVOPTTMK8IR17K","","16.80000001192093","img/flower1.png","76","17.80000001192093","3","1","3","2","1,0,0,1,1,0,1,0,1","0,0,1,1,0,1,0,1,1","2",""
"","html-keyboard-response","224","72611","0.0-224.0","3Y5140Z9DY2P932BJQ8EAXQFXV7IPM","A3DG8M8G0L4DNZ","3566S7OX5D5NH74JOVOPTTMK8IR17K","","null","<img src=""img/flower1.png"" style=""width:200px; border:14px solid green;"">","null","","","","","","","","",""
"","image-keyboard-response","225","72719","0.0-225.0","3Y5140Z9DY2P932BJQ8EAXQFXV7IPM","A3DG8M8G0L4DNZ","3566S7OX5D5NH74JOVOPTTMK8IR17K","","107","img/flower3.png","76","107.89999997615814","3","1","1","2","1,0,0,1,1,0,1,0,1","0,0,1,1,0,1,0,1,1","2",""
"","html-keyboard-response","226","73021","0.0-226.0","3Y5140Z9DY2P932BJQ8EAXQFXV7IPM","A3DG8M8G0L4DNZ","3566S7OX5D5NH74JOVOPTTMK8IR17K","","null","<img src=""img/flower3.png"" style=""width:200px; border:14px solid green;"">","null","","","","","","","","",""
"","image-keyboard-response","227","73098","0.0-227.0","3Y5140Z9DY2P932BJQ8EAXQFXV7IPM","A3DG8M8G0L4DNZ","3566S7OX5D5NH74JOVOPTTMK8IR17K","","76","img/flower3.png","76","76.69999998807907","3","1","1","2","1,0,0,1,1,0,1,0,1","0,0,1,1,0,1,0,1,1","2",""
"","html-keyboard-response","228","73400","0.0-228.0","3Y5140Z9DY2P932BJQ8EAXQFXV7IPM","A3DG8M8G0L4DNZ","3566S7OX5D5NH74JOVOPTTMK8IR17K","","null","<img src=""img/flower3.png"" style=""width:200px; border:14px solid green;"">","null","","","","","","","","",""
"","image-keyboard-response","229","73401","0.0-229.0","3Y5140Z9DY2P932BJQ8EAXQFXV7IPM","A3DG8M8G0L4DNZ","3566S7OX5D5NH74JOVOPTTMK8IR17K","","0.3999999761581421","img/flower1.png","74","1.0999999642372131","1","0","3","2","1,0,0,1,1,0,1,0,1","0,0,1,1,0,1,0,1,1","2",""
"","html-keyboard-response","230","73704","0.0-230.0","3Y5140Z9DY2P932BJQ8EAXQFXV7IPM","A3DG8M8G0L4DNZ","3566S7OX5D5NH74JOVOPTTMK8IR17K","","null","<img src=""img/flower1.png"" style=""width:200px;border:14px solid red;"">","null","","","","","","","","",""
"","image-keyboard-response","231","73752","0.0-231.0","3Y5140Z9DY2P932BJQ8EAXQFXV7IPM","A3DG8M8G0L4DNZ","3566S7OX5D5NH74JOVOPTTMK8IR17K","","47.69999998807907","img/flower5.png","76","48.40000003576279","3","1","2","2","1,0,0,1,1,0,1,0,1","0,0,1,1,0,1,0,1,1","2",""
"","html-keyboard-response","232","74055","0.0-232.0","3Y5140Z9DY2P932BJQ8EAXQFXV7IPM","A3DG8M8G0L4DNZ","3566S7OX5D5NH74JOVOPTTMK8IR17K","","null","<img src=""img/flower5.png"" style=""width:200px; border:14px solid green;"">","null","","","","","","","","",""
"","image-keyboard-response","233","74112","0.0-233.0","3Y5140Z9DY2P932BJQ8EAXQFXV7IPM","A3DG8M8G0L4DNZ","3566S7OX5D5NH74JOVOPTTMK8IR17K","","56.10000002384186","img/flower3.png","75","57","2","0","1","2","1,0,0,1,1,0,1,0,1","0,0,1,1,0,1,0,1,1","2",""
"","html-keyboard-response","234","74414","0.0-234.0","3Y5140Z9DY2P932BJQ8EAXQFXV7IPM","A3DG8M8G0L4DNZ","3566S7OX5D5NH74JOVOPTTMK8IR17K","","null","<img src=""img/flower3.png"" style=""width:200px;border:14px solid red;"">","null","","","","","","","","",""
"","image-keyboard-response","235","74424","0.0-235.0","3Y5140Z9DY2P932BJQ8EAXQFXV7IPM","A3DG8M8G0L4DNZ","3566S7OX5D5NH74JOVOPTTMK8IR17K","","9.300000011920929","img/flower3.png","76","10.099999964237213","3","1","1","2","1,0,0,1,1,0,1,0,1","0,0,1,1,0,1,0,1,1","2",""
"","html-keyboard-response","236","74725","0.0-236.0","3Y5140Z9DY2P932BJQ8EAXQFXV7IPM","A3DG8M8G0L4DNZ","3566S7OX5D5NH74JOVOPTTMK8IR17K","","null","<img src=""img/flower3.png"" style=""width:200px; border:14px solid green;"">","null","","","","","","","","",""
"","image-keyboard-response","237","74741","0.0-237.0","3Y5140Z9DY2P932BJQ8EAXQFXV7IPM","A3DG8M8G0L4DNZ","3566S7OX5D5NH74JOVOPTTMK8IR17K","","14.299999952316284","img/flower5.png","74","14.900000035762787","1","1","2","2","1,0,0,1,1,0,1,0,1","0,0,1,1,0,1,0,1,1","2",""
"","html-keyboard-response","238","75043","0.0-238.0","3Y5140Z9DY2P932BJQ8EAXQFXV7IPM","A3DG8M8G0L4DNZ","3566S7OX5D5NH74JOVOPTTMK8IR17K","","null","<img src=""img/flower5.png"" style=""width:200px; border:14px solid green;"">","null","","","","","","","","",""
"","image-keyboard-response","239","75058","0.0-239.0","3Y5140Z9DY2P932BJQ8EAXQFXV7IPM","A3DG8M8G0L4DNZ","3566S7OX5D5NH74JOVOPTTMK8IR17K","","14.199999988079071","img/flower5.png","76","15.200000047683716","3","1","2","2","1,0,0,1,1,0,1,0,1","0,0,1,1,0,1,0,1,1","2",""
"","html-keyboard-response","240","75360","0.0-240.0","3Y5140Z9DY2P932BJQ8EAXQFXV7IPM","A3DG8M8G0L4DNZ","3566S7OX5D5NH74JOVOPTTMK8IR17K","","null","<img src=""img/flower5.png"" style=""width:200px; border:14px solid green;"">","null","","","","","","","","",""
"","image-keyboard-response","241","75429","0.0-241.0","3Y5140Z9DY2P932BJQ8EAXQFXV7IPM","A3DG8M8G0L4DNZ","3566S7OX5D5NH74JOVOPTTMK8IR17K","","67.5","img/flower3.png","74","68.09999996423721","1","0","1","2","1,0,0,1,1,0,1,0,1","0,0,1,1,0,1,0,1,1","2",""
"","html-keyboard-response","242","75731","0.0-242.0","3Y5140Z9DY2P932BJQ8EAXQFXV7IPM","A3DG8M8G0L4DNZ","3566S7OX5D5NH74JOVOPTTMK8IR17K","","null","<img src=""img/flower3.png"" style=""width:200px;border:14px solid red;"">","null","","","","","","","","",""
"","image-keyboard-response","243","75768","0.0-243.0","3Y5140Z9DY2P932BJQ8EAXQFXV7IPM","A3DG8M8G0L4DNZ","3566S7OX5D5NH74JOVOPTTMK8IR17K","","36.69999998807907","img/flower1.png","76","37.5","3","1","3","2","1,0,0,1,1,0,1,0,1","0,0,1,1,0,1,0,1,1","2",""
"","html-keyboard-response","244","76070","0.0-244.0","3Y5140Z9DY2P932BJQ8EAXQFXV7IPM","A3DG8M8G0L4DNZ","3566S7OX5D5NH74JOVOPTTMK8IR17K","","null","<img src=""img/flower1.png"" style=""width:200px; border:14px solid green;"">","null","","","","","","","","",""
"","image-keyboard-response","245","76098","0.0-245.0","3Y5140Z9DY2P932BJQ8EAXQFXV7IPM","A3DG8M8G0L4DNZ","3566S7OX5D5NH74JOVOPTTMK8IR17K","","26.69999998807907","img/flower1.png","74","27.599999964237213","1","0","3","2","1,0,0,1,1,0,1,0,1","0,0,1,1,0,1,0,1,1","2",""
"","html-keyboard-response","246","76400","0.0-246.0","3Y5140Z9DY2P932BJQ8EAXQFXV7IPM","A3DG8M8G0L4DNZ","3566S7OX5D5NH74JOVOPTTMK8IR17K","","null","<img src=""img/flower1.png"" style=""width:200px;border:14px solid red;"">","null","","","","","","","","",""
"","image-keyboard-response","247","76412","0.0-247.0","3Y5140Z9DY2P932BJQ8EAXQFXV7IPM","A3DG8M8G0L4DNZ","3566S7OX5D5NH74JOVOPTTMK8IR17K","","10.899999976158142","img/flower5.png","76","11.800000011920929","3","1","2","2","1,0,0,1,1,0,1,0,1","0,0,1,1,0,1,0,1,1","2",""
"","html-keyboard-response","248","76713","0.0-248.0","3Y5140Z9DY2P932BJQ8EAXQFXV7IPM","A3DG8M8G0L4DNZ","3566S7OX5D5NH74JOVOPTTMK8IR17K","","null","<img src=""img/flower5.png"" style=""width:200px; border:14px solid green;"">","null","","","","","","","","",""
"","image-keyboard-response","249","76727","0.0-249.0","3Y5140Z9DY2P932BJQ8EAXQFXV7IPM","A3DG8M8G0L4DNZ","3566S7OX5D5NH74JOVOPTTMK8IR17K","","12.299999952316284","img/flower5.png","74","12.900000035762787","1","1","2","2","1,0,0,1,1,0,1,0,1","0,0,1,1,0,1,0,1,1","2",""
"","html-keyboard-response","250","77029","0.0-250.0","3Y5140Z9DY2P932BJQ8EAXQFXV7IPM","A3DG8M8G0L4DNZ","3566S7OX5D5NH74JOVOPTTMK8IR17K","","null","<img src=""img/flower5.png"" style=""width:200px; border:14px solid green;"">","null","","","","","","","","",""
"","image-keyboard-response","251","77087","0.0-251.0","3Y5140Z9DY2P932BJQ8EAXQFXV7IPM","A3DG8M8G0L4DNZ","3566S7OX5D5NH74JOVOPTTMK8IR17K","","56.40000003576279","img/flower1.png","75","57.39999997615814","2","1","3","2","1,0,0,1,1,0,1,0,1","0,0,1,1,0,1,0,1,1","2",""
"","html-keyboard-response","252","77388","0.0-252.0","3Y5140Z9DY2P932BJQ8EAXQFXV7IPM","A3DG8M8G0L4DNZ","3566S7OX5D5NH74JOVOPTTMK8IR17K","","null","<img src=""img/flower1.png"" style=""width:200px; border:14px solid green;"">","null","","","","","","","","",""
"","image-keyboard-response","253","77499","0.0-253.0","3Y5140Z9DY2P932BJQ8EAXQFXV7IPM","A3DG8M8G0L4DNZ","3566S7OX5D5NH74JOVOPTTMK8IR17K","","110.19999998807907","img/flower1.png","74","111","1","0","3","2","1,0,0,1,1,0,1,0,1","0,0,1,1,0,1,0,1,1","2",""
"","html-keyboard-response","254","77801","0.0-254.0","3Y5140Z9DY2P932BJQ8EAXQFXV7IPM","A3DG8M8G0L4DNZ","3566S7OX5D5NH74JOVOPTTMK8IR17K","","null","<img src=""img/flower1.png"" style=""width:200px;border:14px solid red;"">","null","","","","","","","","",""
"","image-keyboard-response","255","77812","0.0-255.0","3Y5140Z9DY2P932BJQ8EAXQFXV7IPM","A3DG8M8G0L4DNZ","3566S7OX5D5NH74JOVOPTTMK8IR17K","","10.5","img/flower1.png","76","11.300000011920929","3","1","3","2","1,0,0,1,1,0,1,0,1","0,0,1,1,0,1,0,1,1","2",""
"","html-keyboard-response","256","78114","0.0-256.0","3Y5140Z9DY2P932BJQ8EAXQFXV7IPM","A3DG8M8G0L4DNZ","3566S7OX5D5NH74JOVOPTTMK8IR17K","","null","<img src=""img/flower1.png"" style=""width:200px; border:14px solid green;"">","null","","","","","","","","",""
"","image-keyboard-response","257","78166","0.0-257.0","3Y5140Z9DY2P932BJQ8EAXQFXV7IPM","A3DG8M8G0L4DNZ","3566S7OX5D5NH74JOVOPTTMK8IR17K","","51.30000001192093","img/flower1.png","74","52.10000002384186","1","0","3","2","1,0,0,1,1,0,1,0,1","0,0,1,1,0,1,0,1,1","2",""
"","html-keyboard-response","258","78468","0.0-258.0","3Y5140Z9DY2P932BJQ8EAXQFXV7IPM","A3DG8M8G0L4DNZ","3566S7OX5D5NH74JOVOPTTMK8IR17K","","null","<img src=""img/flower1.png"" style=""width:200px;border:14px solid red;"">","null","","","","","","","","",""
"","image-keyboard-response","259","78508","0.0-259.0","3Y5140Z9DY2P932BJQ8EAXQFXV7IPM","A3DG8M8G0L4DNZ","3566S7OX5D5NH74JOVOPTTMK8IR17K","","38.89999997615814","img/flower5.png","76","39.59999996423721","3","1","2","2","1,0,0,1,1,0,1,0,1","0,0,1,1,0,1,0,1,1","2",""
"","html-keyboard-response","260","78809","0.0-260.0","3Y5140Z9DY2P932BJQ8EAXQFXV7IPM","A3DG8M8G0L4DNZ","3566S7OX5D5NH74JOVOPTTMK8IR17K","","null","<img src=""img/flower5.png"" style=""width:200px; border:14px solid green;"">","null","","","","","","","","",""
"","image-keyboard-response","261","78881","0.0-261.0","3Y5140Z9DY2P932BJQ8EAXQFXV7IPM","A3DG8M8G0L4DNZ","3566S7OX5D5NH74JOVOPTTMK8IR17K","","71","img/flower5.png","74","71.60000002384186","1","1","2","2","1,0,0,1,1,0,1,0,1","0,0,1,1,0,1,0,1,1","2",""
"","html-keyboard-response","262","79183","0.0-262.0","3Y5140Z9DY2P932BJQ8EAXQFXV7IPM","A3DG8M8G0L4DNZ","3566S7OX5D5NH74JOVOPTTMK8IR17K","","null","<img src=""img/flower5.png"" style=""width:200px; border:14px solid green;"">","null","","","","","","","","",""
"","image-keyboard-response","263","79190","0.0-263.0","3Y5140Z9DY2P932BJQ8EAXQFXV7IPM","A3DG8M8G0L4DNZ","3566S7OX5D5NH74JOVOPTTMK8IR17K","","6.5","img/flower3.png","75","7.199999988079071","2","0","1","2","1,0,0,1,1,0,1,0,1","0,0,1,1,0,1,0,1,1","2",""
"","html-keyboard-response","264","79492","0.0-264.0","3Y5140Z9DY2P932BJQ8EAXQFXV7IPM","A3DG8M8G0L4DNZ","3566S7OX5D5NH74JOVOPTTMK8IR17K","","null","<img src=""img/flower3.png"" style=""width:200px;border:14px solid red;"">","null","","","","","","","","",""
"","image-keyboard-response","265","79516","0.0-265.0","3Y5140Z9DY2P932BJQ8EAXQFXV7IPM","A3DG8M8G0L4DNZ","3566S7OX5D5NH74JOVOPTTMK8IR17K","","23.5","img/flower3.png","76","24.100000023841858","3","1","1","2","1,0,0,1,1,0,1,0,1","0,0,1,1,0,1,0,1,1","2",""
"","html-keyboard-response","266","79818","0.0-266.0","3Y5140Z9DY2P932BJQ8EAXQFXV7IPM","A3DG8M8G0L4DNZ","3566S7OX5D5NH74JOVOPTTMK8IR17K","","null","<img src=""img/flower3.png"" style=""width:200px; border:14px solid green;"">","null","","","","","","","","",""
"","image-keyboard-response","267","79832","0.0-267.0","3Y5140Z9DY2P932BJQ8EAXQFXV7IPM","A3DG8M8G0L4DNZ","3566S7OX5D5NH74JOVOPTTMK8IR17K","","13.900000035762787","img/flower1.png","76","14.599999964237213","3","1","3","2","1,0,0,1,1,0,1,0,1","0,0,1,1,0,1,0,1,1","2",""
"","html-keyboard-response","268","80135","0.0-268.0","3Y5140Z9DY2P932BJQ8EAXQFXV7IPM","A3DG8M8G0L4DNZ","3566S7OX5D5NH74JOVOPTTMK8IR17K","","null","<img src=""img/flower1.png"" style=""width:200px; border:14px solid green;"">","null","","","","","","","","",""
"","image-keyboard-response","269","80167","0.0-269.0","3Y5140Z9DY2P932BJQ8EAXQFXV7IPM","A3DG8M8G0L4DNZ","3566S7OX5D5NH74JOVOPTTMK8IR17K","","30.5","img/flower1.png","74","31.899999976158142","1","0","3","2","1,0,0,1,1,0,1,0,1","0,0,1,1,0,1,0,1,1","2",""
"","html-keyboard-response","270","80469","0.0-270.0","3Y5140Z9DY2P932BJQ8EAXQFXV7IPM","A3DG8M8G0L4DNZ","3566S7OX5D5NH74JOVOPTTMK8IR17K","","null","<img src=""img/flower1.png"" style=""width:200px;border:14px solid red;"">","null","","","","","","","","",""
"","image-keyboard-response","271","80484","0.0-271.0","3Y5140Z9DY2P932BJQ8EAXQFXV7IPM","A3DG8M8G0L4DNZ","3566S7OX5D5NH74JOVOPTTMK8IR17K","","14.599999964237213","img/flower1.png","75","15.5","2","1","3","2","1,0,0,1,1,0,1,0,1","0,0,1,1,0,1,0,1,1","2",""
"","html-keyboard-response","272","80787","0.0-272.0","3Y5140Z9DY2P932BJQ8EAXQFXV7IPM","A3DG8M8G0L4DNZ","3566S7OX5D5NH74JOVOPTTMK8IR17K","","null","<img src=""img/flower1.png"" style=""width:200px; border:14px solid green;"">","null","","","","","","","","",""
"","image-keyboard-response","273","80835","0.0-273.0","3Y5140Z9DY2P932BJQ8EAXQFXV7IPM","A3DG8M8G0L4DNZ","3566S7OX5D5NH74JOVOPTTMK8IR17K","","46.59999996423721","img/flower1.png","76","47.5","3","1","3","2","1,0,0,1,1,0,1,0,1","0,0,1,1,0,1,0,1,1","2",""
"","html-keyboard-response","274","81137","0.0-274.0","3Y5140Z9DY2P932BJQ8EAXQFXV7IPM","A3DG8M8G0L4DNZ","3566S7OX5D5NH74JOVOPTTMK8IR17K","","null","<img src=""img/flower1.png"" style=""width:200px; border:14px solid green;"">","null","","","","","","","","",""
"","image-keyboard-response","275","81276","0.0-275.0","3Y5140Z9DY2P932BJQ8EAXQFXV7IPM","A3DG8M8G0L4DNZ","3566S7OX5D5NH74JOVOPTTMK8IR17K","","138.5","img/flower3.png","74","139.19999998807907","1","0","1","2","1,0,0,1,1,0,1,0,1","0,0,1,1,0,1,0,1,1","2",""
"","html-keyboard-response","276","81578","0.0-276.0","3Y5140Z9DY2P932BJQ8EAXQFXV7IPM","A3DG8M8G0L4DNZ","3566S7OX5D5NH74JOVOPTTMK8IR17K","","null","<img src=""img/flower3.png"" style=""width:200px;border:14px solid red;"">","null","","","","","","","","",""
"","image-keyboard-response","277","81666","0.0-277.0","3Y5140Z9DY2P932BJQ8EAXQFXV7IPM","A3DG8M8G0L4DNZ","3566S7OX5D5NH74JOVOPTTMK8IR17K","","87.39999997615814","img/flower5.png","76","88.09999996423721","3","1","2","2","1,0,0,1,1,0,1,0,1","0,0,1,1,0,1,0,1,1","2",""
"","html-keyboard-response","278","81968","0.0-278.0","3Y5140Z9DY2P932BJQ8EAXQFXV7IPM","A3DG8M8G0L4DNZ","3566S7OX5D5NH74JOVOPTTMK8IR17K","","null","<img src=""img/flower5.png"" style=""width:200px; border:14px solid green;"">","null","","","","","","","","",""
"","image-keyboard-response","279","82006","0.0-279.0","3Y5140Z9DY2P932BJQ8EAXQFXV7IPM","A3DG8M8G0L4DNZ","3566S7OX5D5NH74JOVOPTTMK8IR17K","","37.30000001192093","img/flower3.png","74","38.40000003576279","1","0","1","2","1,0,0,1,1,0,1,0,1","0,0,1,1,0,1,0,1,1","2",""
"","html-keyboard-response","280","82307","0.0-280.0","3Y5140Z9DY2P932BJQ8EAXQFXV7IPM","A3DG8M8G0L4DNZ","3566S7OX5D5NH74JOVOPTTMK8IR17K","","null","<img src=""img/flower3.png"" style=""width:200px;border:14px solid red;"">","null","","","","","","","","",""
"","image-keyboard-response","281","82354","0.0-281.0","3Y5140Z9DY2P932BJQ8EAXQFXV7IPM","A3DG8M8G0L4DNZ","3566S7OX5D5NH74JOVOPTTMK8IR17K","","45.89999997615814","img/flower5.png","76","46.80000001192093","3","1","2","2","1,0,0,1,1,0,1,0,1","0,0,1,1,0,1,0,1,1","2",""
"","html-keyboard-response","282","82656","0.0-282.0","3Y5140Z9DY2P932BJQ8EAXQFXV7IPM","A3DG8M8G0L4DNZ","3566S7OX5D5NH74JOVOPTTMK8IR17K","","null","<img src=""img/flower5.png"" style=""width:200px; border:14px solid green;"">","null","","","","","","","","",""
"","image-keyboard-response","283","82667","0.0-283.0","3Y5140Z9DY2P932BJQ8EAXQFXV7IPM","A3DG8M8G0L4DNZ","3566S7OX5D5NH74JOVOPTTMK8IR17K","","10","img/flower5.png","74","10.899999976158142","1","1","2","2","1,0,0,1,1,0,1,0,1","0,0,1,1,0,1,0,1,1","2",""
"","html-keyboard-response","284","82968","0.0-284.0","3Y5140Z9DY2P932BJQ8EAXQFXV7IPM","A3DG8M8G0L4DNZ","3566S7OX5D5NH74JOVOPTTMK8IR17K","","null","<img src=""img/flower5.png"" style=""width:200px; border:14px solid green;"">","null","","","","","","","","",""
"","image-keyboard-response","285","83014","0.0-285.0","3Y5140Z9DY2P932BJQ8EAXQFXV7IPM","A3DG8M8G0L4DNZ","3566S7OX5D5NH74JOVOPTTMK8IR17K","","45.09999996423721","img/flower1.png","74","45.90000003576279","1","0","3","2","1,0,0,1,1,0,1,0,1","0,0,1,1,0,1,0,1,1","2",""
"","html-keyboard-response","286","83315","0.0-286.0","3Y5140Z9DY2P932BJQ8EAXQFXV7IPM","A3DG8M8G0L4DNZ","3566S7OX5D5NH74JOVOPTTMK8IR17K","","null","<img src=""img/flower1.png"" style=""width:200px;border:14px solid red;"">","null","","","","","","","","",""
"","image-keyboard-response","287","83426","0.0-287.0","3Y5140Z9DY2P932BJQ8EAXQFXV7IPM","A3DG8M8G0L4DNZ","3566S7OX5D5NH74JOVOPTTMK8IR17K","","110.69999998807907","img/flower1.png","74","111.5","1","0","3","2","1,0,0,1,1,0,1,0,1","0,0,1,1,0,1,0,1,1","2",""
"","html-keyboard-response","288","83728","0.0-288.0","3Y5140Z9DY2P932BJQ8EAXQFXV7IPM","A3DG8M8G0L4DNZ","3566S7OX5D5NH74JOVOPTTMK8IR17K","","null","<img src=""img/flower1.png"" style=""width:200px;border:14px solid red;"">","null","","","","","","","","",""
"","image-keyboard-response","289","83748","0.0-289.0","3Y5140Z9DY2P932BJQ8EAXQFXV7IPM","A3DG8M8G0L4DNZ","3566S7OX5D5NH74JOVOPTTMK8IR17K","","19.399999976158142","img/flower3.png","76","20.099999964237213","3","1","1","2","1,0,0,1,1,0,1,0,1","0,0,1,1,0,1,0,1,1","2",""
"","html-keyboard-response","290","84051","0.0-290.0","3Y5140Z9DY2P932BJQ8EAXQFXV7IPM","A3DG8M8G0L4DNZ","3566S7OX5D5NH74JOVOPTTMK8IR17K","","null","<img src=""img/flower3.png"" style=""width:200px; border:14px solid green;"">","null","","","","","","","","",""
"","image-keyboard-response","291","84079","0.0-291.0","3Y5140Z9DY2P932BJQ8EAXQFXV7IPM","A3DG8M8G0L4DNZ","3566S7OX5D5NH74JOVOPTTMK8IR17K","","27.80000001192093","img/flower3.png","74","28.69999998807907","1","0","1","2","1,0,0,1,1,0,1,0,1","0,0,1,1,0,1,0,1,1","2",""
"","html-keyboard-response","292","84382","0.0-292.0","3Y5140Z9DY2P932BJQ8EAXQFXV7IPM","A3DG8M8G0L4DNZ","3566S7OX5D5NH74JOVOPTTMK8IR17K","","null","<img src=""img/flower3.png"" style=""width:200px;border:14px solid red;"">","null","","","","","","","","",""
"","image-keyboard-response","293","84432","0.0-293.0","3Y5140Z9DY2P932BJQ8EAXQFXV7IPM","A3DG8M8G0L4DNZ","3566S7OX5D5NH74JOVOPTTMK8IR17K","","49.89999997615814","img/flower3.png","76","50.40000003576279","3","1","1","2","1,0,0,1,1,0,1,0,1","0,0,1,1,0,1,0,1,1","2",""
"","html-keyboard-response","294","84733","0.0-294.0","3Y5140Z9DY2P932BJQ8EAXQFXV7IPM","A3DG8M8G0L4DNZ","3566S7OX5D5NH74JOVOPTTMK8IR17K","","null","<img src=""img/flower3.png"" style=""width:200px; border:14px solid green;"">","null","","","","","","","","",""
"","image-keyboard-response","295","84751","0.0-295.0","3Y5140Z9DY2P932BJQ8EAXQFXV7IPM","A3DG8M8G0L4DNZ","3566S7OX5D5NH74JOVOPTTMK8IR17K","","17","img/flower3.png","75","17.80000001192093","2","0","1","2","1,0,0,1,1,0,1,0,1","0,0,1,1,0,1,0,1,1","2",""
"","html-keyboard-response","296","85054","0.0-296.0","3Y5140Z9DY2P932BJQ8EAXQFXV7IPM","A3DG8M8G0L4DNZ","3566S7OX5D5NH74JOVOPTTMK8IR17K","","null","<img src=""img/flower3.png"" style=""width:200px;border:14px solid red;"">","null","","","","","","","","",""
"","image-keyboard-response","297","85058","0.0-297.0","3Y5140Z9DY2P932BJQ8EAXQFXV7IPM","A3DG8M8G0L4DNZ","3566S7OX5D5NH74JOVOPTTMK8IR17K","","3.5","img/flower5.png","76","4.300000011920929","3","1","2","2","1,0,0,1,1,0,1,0,1","0,0,1,1,0,1,0,1,1","2",""
"","html-keyboard-response","298","85359","0.0-298.0","3Y5140Z9DY2P932BJQ8EAXQFXV7IPM","A3DG8M8G0L4DNZ","3566S7OX5D5NH74JOVOPTTMK8IR17K","","null","<img src=""img/flower5.png"" style=""width:200px; border:14px solid green;"">","null","","","","","","","","",""
"","image-keyboard-response","299","85391","0.0-299.0","3Y5140Z9DY2P932BJQ8EAXQFXV7IPM","A3DG8M8G0L4DNZ","3566S7OX5D5NH74JOVOPTTMK8IR17K","","30.299999952316284","img/flower5.png","74","31","1","1","2","2","1,0,0,1,1,0,1,0,1","0,0,1,1,0,1,0,1,1","2",""
"","html-keyboard-response","300","85691","0.0-300.0","3Y5140Z9DY2P932BJQ8EAXQFXV7IPM","A3DG8M8G0L4DNZ","3566S7OX5D5NH74JOVOPTTMK8IR17K","","null","<img src=""img/flower5.png"" style=""width:200px; border:14px solid green;"">","null","","","","","","","","",""
"","image-keyboard-response","301","85744","0.0-301.0","3Y5140Z9DY2P932BJQ8EAXQFXV7IPM","A3DG8M8G0L4DNZ","3566S7OX5D5NH74JOVOPTTMK8IR17K","","52.10000002384186","img/flower1.png","75","52.90000003576279","2","1","3","2","1,0,0,1,1,0,1,0,1","0,0,1,1,0,1,0,1,1","2",""
"","html-keyboard-response","302","86046","0.0-302.0","3Y5140Z9DY2P932BJQ8EAXQFXV7IPM","A3DG8M8G0L4DNZ","3566S7OX5D5NH74JOVOPTTMK8IR17K","","null","<img src=""img/flower1.png"" style=""width:200px; border:14px solid green;"">","null","","","","","","","","",""
"","image-keyboard-response","303","86155","0.0-303.0","3Y5140Z9DY2P932BJQ8EAXQFXV7IPM","A3DG8M8G0L4DNZ","3566S7OX5D5NH74JOVOPTTMK8IR17K","","107.39999997615814","img/flower3.png","74","108.10000002384186","1","0","1","2","1,0,0,1,1,0,1,0,1","0,0,1,1,0,1,0,1,1","2",""
"","html-keyboard-response","304","86457","0.0-304.0","3Y5140Z9DY2P932BJQ8EAXQFXV7IPM","A3DG8M8G0L4DNZ","3566S7OX5D5NH74JOVOPTTMK8IR17K","","null","<img src=""img/flower3.png"" style=""width:200px;border:14px solid red;"">","null","","","","","","","","",""
"","image-keyboard-response","305","86471","0.0-305.0","3Y5140Z9DY2P932BJQ8EAXQFXV7IPM","A3DG8M8G0L4DNZ","3566S7OX5D5NH74JOVOPTTMK8IR17K","","13.400000035762787","img/flower5.png","75","14.300000011920929","2","0","2","2","1,0,0,1,1,0,1,0,1","0,0,1,1,0,1,0,1,1","2",""
"","html-keyboard-response","306","86774","0.0-306.0","3Y5140Z9DY2P932BJQ8EAXQFXV7IPM","A3DG8M8G0L4DNZ","3566S7OX5D5NH74JOVOPTTMK8IR17K","","null","<img src=""img/flower5.png"" style=""width:200px;border:14px solid red;"">","null","","","","","","","","",""
"","image-keyboard-response","307","86851","0.0-307.0","3Y5140Z9DY2P932BJQ8EAXQFXV7IPM","A3DG8M8G0L4DNZ","3566S7OX5D5NH74JOVOPTTMK8IR17K","","76.20000004768372","img/flower5.png","74","77.09999996423721","1","1","2","2","1,0,0,1,1,0,1,0,1","0,0,1,1,0,1,0,1,1","2",""
"","html-keyboard-response","308","87153","0.0-308.0","3Y5140Z9DY2P932BJQ8EAXQFXV7IPM","A3DG8M8G0L4DNZ","3566S7OX5D5NH74JOVOPTTMK8IR17K","","null","<img src=""img/flower5.png"" style=""width:200px; border:14px solid green;"">","null","","","","","","","","",""
"","image-keyboard-response","309","87209","0.0-309.0","3Y5140Z9DY2P932BJQ8EAXQFXV7IPM","A3DG8M8G0L4DNZ","3566S7OX5D5NH74JOVOPTTMK8IR17K","","54.80000001192093","img/flower5.png","76","55.69999998807907","3","1","2","2","1,0,0,1,1,0,1,0,1","0,0,1,1,0,1,0,1,1","2",""
"","html-keyboard-response","310","87510","0.0-310.0","3Y5140Z9DY2P932BJQ8EAXQFXV7IPM","A3DG8M8G0L4DNZ","3566S7OX5D5NH74JOVOPTTMK8IR17K","","null","<img src=""img/flower5.png"" style=""width:200px; border:14px solid green;"">","null","","","","","","","","",""
"","image-keyboard-response","311","87624","0.0-311.0","3Y5140Z9DY2P932BJQ8EAXQFXV7IPM","A3DG8M8G0L4DNZ","3566S7OX5D5NH74JOVOPTTMK8IR17K","","113.09999996423721","img/flower3.png","76","114.19999998807907","3","1","1","2","1,0,0,1,1,0,1,0,1","0,0,1,1,0,1,0,1,1","2",""
"","html-keyboard-response","312","87926","0.0-312.0","3Y5140Z9DY2P932BJQ8EAXQFXV7IPM","A3DG8M8G0L4DNZ","3566S7OX5D5NH74JOVOPTTMK8IR17K","","null","<img src=""img/flower3.png"" style=""width:200px; border:14px solid green;"">","null","","","","","","","","",""
"","image-keyboard-response","313","87953","0.0-313.0","3Y5140Z9DY2P932BJQ8EAXQFXV7IPM","A3DG8M8G0L4DNZ","3566S7OX5D5NH74JOVOPTTMK8IR17K","","25.399999976158142","img/flower5.png","74","26.600000023841858","1","1","2","2","1,0,0,1,1,0,1,0,1","0,0,1,1,0,1,0,1,1","2",""
"","html-keyboard-response","314","88254","0.0-314.0","3Y5140Z9DY2P932BJQ8EAXQFXV7IPM","A3DG8M8G0L4DNZ","3566S7OX5D5NH74JOVOPTTMK8IR17K","","null","<img src=""img/flower5.png"" style=""width:200px; border:14px solid green;"">","null","","","","","","","","",""
"","image-keyboard-response","315","88301","0.0-315.0","3Y5140Z9DY2P932BJQ8EAXQFXV7IPM","A3DG8M8G0L4DNZ","3566S7OX5D5NH74JOVOPTTMK8IR17K","","45.80000001192093","img/flower3.png","76","46.69999998807907","3","1","1","2","1,0,0,1,1,0,1,0,1","0,0,1,1,0,1,0,1,1","2",""
"","html-keyboard-response","316","88603","0.0-316.0","3Y5140Z9DY2P932BJQ8EAXQFXV7IPM","A3DG8M8G0L4DNZ","3566S7OX5D5NH74JOVOPTTMK8IR17K","","null","<img src=""img/flower3.png"" style=""width:200px; border:14px solid green;"">","null","","","","","","","","",""
"","image-keyboard-response","317","88645","0.0-317.0","3Y5140Z9DY2P932BJQ8EAXQFXV7IPM","A3DG8M8G0L4DNZ","3566S7OX5D5NH74JOVOPTTMK8IR17K","","40.5","img/flower1.png","74","41.60000002384186","1","0","3","2","1,0,0,1,1,0,1,0,1","0,0,1,1,0,1,0,1,1","2",""
"","html-keyboard-response","318","88947","0.0-318.0","3Y5140Z9DY2P932BJQ8EAXQFXV7IPM","A3DG8M8G0L4DNZ","3566S7OX5D5NH74JOVOPTTMK8IR17K","","null","<img src=""img/flower1.png"" style=""width:200px;border:14px solid red;"">","null","","","","","","","","",""
"","image-keyboard-response","319","89033","0.0-319.0","3Y5140Z9DY2P932BJQ8EAXQFXV7IPM","A3DG8M8G0L4DNZ","3566S7OX5D5NH74JOVOPTTMK8IR17K","","84.40000003576279","img/flower5.png","76","85.40000003576279","3","1","2","2","1,0,0,1,1,0,1,0,1","0,0,1,1,0,1,0,1,1","2",""
"","html-keyboard-response","320","89335","0.0-320.0","3Y5140Z9DY2P932BJQ8EAXQFXV7IPM","A3DG8M8G0L4DNZ","3566S7OX5D5NH74JOVOPTTMK8IR17K","","null","<img src=""img/flower5.png"" style=""width:200px; border:14px solid green;"">","null","","","","","","","","",""
"","image-keyboard-response","321","89430","0.0-321.0","3Y5140Z9DY2P932BJQ8EAXQFXV7IPM","A3DG8M8G0L4DNZ","3566S7OX5D5NH74JOVOPTTMK8IR17K","","94.5","img/flower3.png","74","95.30000001192093","1","0","1","2","1,0,0,1,1,0,1,0,1","0,0,1,1,0,1,0,1,1","2",""
"","html-keyboard-response","322","89733","0.0-322.0","3Y5140Z9DY2P932BJQ8EAXQFXV7IPM","A3DG8M8G0L4DNZ","3566S7OX5D5NH74JOVOPTTMK8IR17K","","null","<img src=""img/flower3.png"" style=""width:200px;border:14px solid red;"">","null","","","","","","","","",""
"","image-keyboard-response","323","89751","0.0-323.0","3Y5140Z9DY2P932BJQ8EAXQFXV7IPM","A3DG8M8G0L4DNZ","3566S7OX5D5NH74JOVOPTTMK8IR17K","","17.19999998807907","img/flower1.png","76","18","3","1","3","2","1,0,0,1,1,0,1,0,1","0,0,1,1,0,1,0,1,1","2",""
"","html-keyboard-response","324","90053","0.0-324.0","3Y5140Z9DY2P932BJQ8EAXQFXV7IPM","A3DG8M8G0L4DNZ","3566S7OX5D5NH74JOVOPTTMK8IR17K","","null","<img src=""img/flower1.png"" style=""width:200px; border:14px solid green;"">","null","","","","","","","","",""
"","image-keyboard-response","325","90065","0.0-325.0","3Y5140Z9DY2P932BJQ8EAXQFXV7IPM","A3DG8M8G0L4DNZ","3566S7OX5D5NH74JOVOPTTMK8IR17K","","11.100000023841858","img/flower3.png","74","11.800000011920929","1","0","1","2","1,0,0,1,1,0,1,0,1","0,0,1,1,0,1,0,1,1","2",""
"","html-keyboard-response","326","90367","0.0-326.0","3Y5140Z9DY2P932BJQ8EAXQFXV7IPM","A3DG8M8G0L4DNZ","3566S7OX5D5NH74JOVOPTTMK8IR17K","","null","<img src=""img/flower3.png"" style=""width:200px;border:14px solid red;"">","null","","","","","","","","",""
"","image-keyboard-response","327","90396","0.0-327.0","3Y5140Z9DY2P932BJQ8EAXQFXV7IPM","A3DG8M8G0L4DNZ","3566S7OX5D5NH74JOVOPTTMK8IR17K","","28.900000035762787","img/flower3.png","76","29.600000023841858","3","1","1","2","1,0,0,1,1,0,1,0,1","0,0,1,1,0,1,0,1,1","2",""
"","html-keyboard-response","328","90698","0.0-328.0","3Y5140Z9DY2P932BJQ8EAXQFXV7IPM","A3DG8M8G0L4DNZ","3566S7OX5D5NH74JOVOPTTMK8IR17K","","null","<img src=""img/flower3.png"" style=""width:200px; border:14px solid green;"">","null","","","","","","","","",""
"","image-keyboard-response","329","90755","0.0-329.0","3Y5140Z9DY2P932BJQ8EAXQFXV7IPM","A3DG8M8G0L4DNZ","3566S7OX5D5NH74JOVOPTTMK8IR17K","","56.5","img/flower3.png","74","57.30000001192093","1","0","1","2","1,0,0,1,1,0,1,0,1","0,0,1,1,0,1,0,1,1","2",""
"","html-keyboard-response","330","91057","0.0-330.0","3Y5140Z9DY2P932BJQ8EAXQFXV7IPM","A3DG8M8G0L4DNZ","3566S7OX5D5NH74JOVOPTTMK8IR17K","","null","<img src=""img/flower3.png"" style=""width:200px;border:14px solid red;"">","null","","","","","","","","",""
"","image-keyboard-response","331","91083","0.0-331.0","3Y5140Z9DY2P932BJQ8EAXQFXV7IPM","A3DG8M8G0L4DNZ","3566S7OX5D5NH74JOVOPTTMK8IR17K","","25.5","img/flower3.png","76","26.100000023841858","3","1","1","2","1,0,0,1,1,0,1,0,1","0,0,1,1,0,1,0,1,1","2",""
"","html-keyboard-response","332","91384","0.0-332.0","3Y5140Z9DY2P932BJQ8EAXQFXV7IPM","A3DG8M8G0L4DNZ","3566S7OX5D5NH74JOVOPTTMK8IR17K","","null","<img src=""img/flower3.png"" style=""width:200px; border:14px solid green;"">","null","","","","","","","","",""
"","image-keyboard-response","333","91449","0.0-333.0","3Y5140Z9DY2P932BJQ8EAXQFXV7IPM","A3DG8M8G0L4DNZ","3566S7OX5D5NH74JOVOPTTMK8IR17K","","63.30000001192093","img/flower1.png","75","64.09999996423721","2","1","3","2","1,0,0,1,1,0,1,0,1","0,0,1,1,0,1,0,1,1","2",""
"","html-keyboard-response","334","91751","0.0-334.0","3Y5140Z9DY2P932BJQ8EAXQFXV7IPM","A3DG8M8G0L4DNZ","3566S7OX5D5NH74JOVOPTTMK8IR17K","","null","<img src=""img/flower1.png"" style=""width:200px; border:14px solid green;"">","null","","","","","","","","",""
"","image-keyboard-response","335","91763","0.0-335.0","3Y5140Z9DY2P932BJQ8EAXQFXV7IPM","A3DG8M8G0L4DNZ","3566S7OX5D5NH74JOVOPTTMK8IR17K","","10.699999988079071","img/flower5.png","75","11.599999964237213","2","0","2","2","1,0,0,1,1,0,1,0,1","0,0,1,1,0,1,0,1,1","2",""
"","html-keyboard-response","336","92065","0.0-336.0","3Y5140Z9DY2P932BJQ8EAXQFXV7IPM","A3DG8M8G0L4DNZ","3566S7OX5D5NH74JOVOPTTMK8IR17K","","null","<img src=""img/flower5.png"" style=""width:200px;border:14px solid red;"">","null","","","","","","","","",""
"","image-keyboard-response","337","92101","0.0-337.0","3Y5140Z9DY2P932BJQ8EAXQFXV7IPM","A3DG8M8G0L4DNZ","3566S7OX5D5NH74JOVOPTTMK8IR17K","","34.60000002384186","img/flower1.png","76","35.69999998807907","3","1","3","2","1,0,0,1,1,0,1,0,1","0,0,1,1,0,1,0,1,1","2",""
"","html-keyboard-response","338","92403","0.0-338.0","3Y5140Z9DY2P932BJQ8EAXQFXV7IPM","A3DG8M8G0L4DNZ","3566S7OX5D5NH74JOVOPTTMK8IR17K","","null","<img src=""img/flower1.png"" style=""width:200px; border:14px solid green;"">","null","","","","","","","","",""
"","image-keyboard-response","339","92487","0.0-339.0","3Y5140Z9DY2P932BJQ8EAXQFXV7IPM","A3DG8M8G0L4DNZ","3566S7OX5D5NH74JOVOPTTMK8IR17K","","82.80000001192093","img/flower1.png","75","83.59999996423721","2","1","3","2","1,0,0,1,1,0,1,0,1","0,0,1,1,0,1,0,1,1","2",""
"","html-keyboard-response","340","92789","0.0-340.0","3Y5140Z9DY2P932BJQ8EAXQFXV7IPM","A3DG8M8G0L4DNZ","3566S7OX5D5NH74JOVOPTTMK8IR17K","","null","<img src=""img/flower1.png"" style=""width:200px; border:14px solid green;"">","null","","","","","","","","",""
"","image-keyboard-response","341","92851","0.0-341.0","3Y5140Z9DY2P932BJQ8EAXQFXV7IPM","A3DG8M8G0L4DNZ","3566S7OX5D5NH74JOVOPTTMK8IR17K","","60.80000001192093","img/flower1.png","76","61.80000001192093","3","1","3","2","1,0,0,1,1,0,1,0,1","0,0,1,1,0,1,0,1,1","2",""
"","html-keyboard-response","342","93153","0.0-342.0","3Y5140Z9DY2P932BJQ8EAXQFXV7IPM","A3DG8M8G0L4DNZ","3566S7OX5D5NH74JOVOPTTMK8IR17K","","null","<img src=""img/flower1.png"" style=""width:200px; border:14px solid green;"">","null","","","","","","","","",""
"","image-keyboard-response","343","93172","0.0-343.0","3Y5140Z9DY2P932BJQ8EAXQFXV7IPM","A3DG8M8G0L4DNZ","3566S7OX5D5NH74JOVOPTTMK8IR17K","","18.30000001192093","img/flower5.png","74","18.900000035762787","1","1","2","2","1,0,0,1,1,0,1,0,1","0,0,1,1,0,1,0,1,1","2",""
"","html-keyboard-response","344","93474","0.0-344.0","3Y5140Z9DY2P932BJQ8EAXQFXV7IPM","A3DG8M8G0L4DNZ","3566S7OX5D5NH74JOVOPTTMK8IR17K","","null","<img src=""img/flower5.png"" style=""width:200px; border:14px solid green;"">","null","","","","","","","","",""
"","image-keyboard-response","345","93545","0.0-345.0","3Y5140Z9DY2P932BJQ8EAXQFXV7IPM","A3DG8M8G0L4DNZ","3566S7OX5D5NH74JOVOPTTMK8IR17K","","69.5","img/flower3.png","76","70.20000004768372","3","1","1","2","1,0,0,1,1,0,1,0,1","0,0,1,1,0,1,0,1,1","2",""
"","html-keyboard-response","346","93845","0.0-346.0","3Y5140Z9DY2P932BJQ8EAXQFXV7IPM","A3DG8M8G0L4DNZ","3566S7OX5D5NH74JOVOPTTMK8IR17K","","null","<img src=""img/flower3.png"" style=""width:200px; border:14px solid green;"">","null","","","","","","","","",""
"","image-keyboard-response","347","93857","0.0-347.0","3Y5140Z9DY2P932BJQ8EAXQFXV7IPM","A3DG8M8G0L4DNZ","3566S7OX5D5NH74JOVOPTTMK8IR17K","","10.199999988079071","img/flower5.png","74","11","1","1","2","2","1,0,0,1,1,0,1,0,1","0,0,1,1,0,1,0,1,1","2",""
"","html-keyboard-response","348","94159","0.0-348.0","3Y5140Z9DY2P932BJQ8EAXQFXV7IPM","A3DG8M8G0L4DNZ","3566S7OX5D5NH74JOVOPTTMK8IR17K","","null","<img src=""img/flower5.png"" style=""width:200px; border:14px solid green;"">","null","","","","","","","","",""
"","image-keyboard-response","349","94169","0.0-349.0","3Y5140Z9DY2P932BJQ8EAXQFXV7IPM","A3DG8M8G0L4DNZ","3566S7OX5D5NH74JOVOPTTMK8IR17K","","9","img/flower5.png","75","9.900000035762787","2","0","2","2","1,0,0,1,1,0,1,0,1","0,0,1,1,0,1,0,1,1","2",""
"","html-keyboard-response","350","94471","0.0-350.0","3Y5140Z9DY2P932BJQ8EAXQFXV7IPM","A3DG8M8G0L4DNZ","3566S7OX5D5NH74JOVOPTTMK8IR17K","","null","<img src=""img/flower5.png"" style=""width:200px;border:14px solid red;"">","null","","","","","","","","",""
"","image-keyboard-response","351","94517","0.0-351.0","3Y5140Z9DY2P932BJQ8EAXQFXV7IPM","A3DG8M8G0L4DNZ","3566S7OX5D5NH74JOVOPTTMK8IR17K","","44.700000047683716","img/flower1.png","76","45.30000001192093","3","1","3","2","1,0,0,1,1,0,1,0,1","0,0,1,1,0,1,0,1,1","2",""
"","html-keyboard-response","352","94818","0.0-352.0","3Y5140Z9DY2P932BJQ8EAXQFXV7IPM","A3DG8M8G0L4DNZ","3566S7OX5D5NH74JOVOPTTMK8IR17K","","null","<img src=""img/flower1.png"" style=""width:200px; border:14px solid green;"">","null","","","","","","","","",""
"","image-keyboard-response","353","94884","0.0-353.0","3Y5140Z9DY2P932BJQ8EAXQFXV7IPM","A3DG8M8G0L4DNZ","3566S7OX5D5NH74JOVOPTTMK8IR17K","","64.90000003576279","img/flower5.png","74","65.69999998807907","1","1","2","2","1,0,0,1,1,0,1,0,1","0,0,1,1,0,1,0,1,1","2",""
"","html-keyboard-response","354","95186","0.0-354.0","3Y5140Z9DY2P932BJQ8EAXQFXV7IPM","A3DG8M8G0L4DNZ","3566S7OX5D5NH74JOVOPTTMK8IR17K","","null","<img src=""img/flower5.png"" style=""width:200px; border:14px solid green;"">","null","","","","","","","","",""
"","image-keyboard-response","355","95302","0.0-355.0","3Y5140Z9DY2P932BJQ8EAXQFXV7IPM","A3DG8M8G0L4DNZ","3566S7OX5D5NH74JOVOPTTMK8IR17K","","114.09999996423721","img/flower3.png","76","115","3","1","1","2","1,0,0,1,1,0,1,0,1","0,0,1,1,0,1,0,1,1","2",""
"","html-keyboard-response","356","95603","0.0-356.0","3Y5140Z9DY2P932BJQ8EAXQFXV7IPM","A3DG8M8G0L4DNZ","3566S7OX5D5NH74JOVOPTTMK8IR17K","","null","<img src=""img/flower3.png"" style=""width:200px; border:14px solid green;"">","null","","","","","","","","",""
"","image-keyboard-response","357","95649","0.0-357.0","3Y5140Z9DY2P932BJQ8EAXQFXV7IPM","A3DG8M8G0L4DNZ","3566S7OX5D5NH74JOVOPTTMK8IR17K","","45.10000002384186","img/flower3.png","74","46","1","0","1","2","1,0,0,1,1,0,1,0,1","0,0,1,1,0,1,0,1,1","2",""
"","html-keyboard-response","358","95951","0.0-358.0","3Y5140Z9DY2P932BJQ8EAXQFXV7IPM","A3DG8M8G0L4DNZ","3566S7OX5D5NH74JOVOPTTMK8IR17K","","null","<img src=""img/flower3.png"" style=""width:200px;border:14px solid red;"">","null","","","","","","","","",""
"","image-keyboard-response","359","95963","0.0-359.0","3Y5140Z9DY2P932BJQ8EAXQFXV7IPM","A3DG8M8G0L4DNZ","3566S7OX5D5NH74JOVOPTTMK8IR17K","","10.900000035762787","img/flower5.png","76","11.699999988079071","3","1","2","2","1,0,0,1,1,0,1,0,1","0,0,1,1,0,1,0,1,1","2",""
"","html-keyboard-response","360","96265","0.0-360.0","3Y5140Z9DY2P932BJQ8EAXQFXV7IPM","A3DG8M8G0L4DNZ","3566S7OX5D5NH74JOVOPTTMK8IR17K","","null","<img src=""img/flower5.png"" style=""width:200px; border:14px solid green;"">","null","","","","","","","","",""
"","image-keyboard-response","361","96279","0.0-361.0","3Y5140Z9DY2P932BJQ8EAXQFXV7IPM","A3DG8M8G0L4DNZ","3566S7OX5D5NH74JOVOPTTMK8IR17K","","13.399999976158142","img/flower5.png","74","14.099999964237213","1","1","2","2","1,0,0,1,1,0,1,0,1","0,0,1,1,0,1,0,1,1","2",""
"","html-keyboard-response","362","96580","0.0-362.0","3Y5140Z9DY2P932BJQ8EAXQFXV7IPM","A3DG8M8G0L4DNZ","3566S7OX5D5NH74JOVOPTTMK8IR17K","","null","<img src=""img/flower5.png"" style=""width:200px; border:14px solid green;"">","null","","","","","","","","",""
"","instructions","363","97870","0.0-363.0","3Y5140Z9DY2P932BJQ8EAXQFXV7IPM","A3DG8M8G0L4DNZ","3566S7OX5D5NH74JOVOPTTMK8IR17K","[{""page_index"":0,""viewing_time"":1288.6000000238419}]","1289","","","","","","","","","","",""
"","survey-text","364","103916","0.0-364.0","3Y5140Z9DY2P932BJQ8EAXQFXV7IPM","A3DG8M8G0L4DNZ","3566S7OX5D5NH74JOVOPTTMK8IR17K","","6042.300000011921","","","","","","","","","","","{""Q0"":""A3DG8M8G0L4DNZ""}"
