"success","trial_type","trial_index","time_elapsed","internal_node_id","assignmentID","mturkID","hitID","view_history","rt","stimulus","key_press","reactionTime","a","r","s","cond","reward_cond","reward_cond_actual","reward_matrix_idx","responses"
"true","fullscreen","0","2821","0.0-0.0","3X4JMASXCNVCYEKLWV1799LUUZ40BL","A3DKM1KM4C4G05","3UUIU9GZC5R93N292LT21FRJ9VS5TN","","","","","","","","","","","","",""
"","instructions","1","13683","0.0-1.0","3X4JMASXCNVCYEKLWV1799LUUZ40BL","A3DKM1KM4C4G05","3UUIU9GZC5R93N292LT21FRJ9VS5TN","[{""page_index"":0,""viewing_time"":1272},{""page_index"":1,""viewing_time"":860},{""page_index"":2,""viewing_time"":1736},{""page_index"":3,""viewing_time"":1158},{""page_index"":4,""viewing_time"":1697},{""page_index"":5,""viewing_time"":1593},{""page_index"":6,""viewing_time"":1243},{""page_index"":7,""viewing_time"":1298}]","10858","","","","","","","","","","",""
"","image-keyboard-response","2","15004","0.0-2.0","3X4JMASXCNVCYEKLWV1799LUUZ40BL","A3DKM1KM4C4G05","3UUIU9GZC5R93N292LT21FRJ9VS5TN","","1318.0000000000018","img/flower2.png","75","1319.9999999999982","2","1","1","1","1,0.333,0.333,0.333,1,0.333,0.333,0.333,1","1,0.333,0.333,0.333,1,0.333,0.333,0.333,1","1",""
"","html-keyboard-response","3","15308","0.0-3.0","3X4JMASXCNVCYEKLWV1799LUUZ40BL","A3DKM1KM4C4G05","3UUIU9GZC5R93N292LT21FRJ9VS5TN","","null","<img src=""img/flower2.png"" style=""width:200px; border:14px solid green;"">","null","","","","","","","","",""
"","image-keyboard-response","4","15614","0.0-4.0","3X4JMASXCNVCYEKLWV1799LUUZ40BL","A3DKM1KM4C4G05","3UUIU9GZC5R93N292LT21FRJ9VS5TN","","304","img/flower2.png","74","306","1","1","1","1","1,0.333,0.333,0.333,1,0.333,0.333,0.333,1","1,0.333,0.333,0.333,1,0.333,0.333,0.333,1","1",""
"","html-keyboard-response","5","15917","0.0-5.0","3X4JMASXCNVCYEKLWV1799LUUZ40BL","A3DKM1KM4C4G05","3UUIU9GZC5R93N292LT21FRJ9VS5TN","","null","<img src=""img/flower2.png"" style=""width:200px; border:14px solid green;"">","null","","","","","","","","",""
"","image-keyboard-response","6","16140","0.0-6.0","3X4JMASXCNVCYEKLWV1799LUUZ40BL","A3DKM1KM4C4G05","3UUIU9GZC5R93N292LT21FRJ9VS5TN","","220","img/flower2.png","74","223","1","1","1","1","1,0.333,0.333,0.333,1,0.333,0.333,0.333,1","1,0.333,0.333,0.333,1,0.333,0.333,0.333,1","1",""
"","html-keyboard-response","7","16444","0.0-7.0","3X4JMASXCNVCYEKLWV1799LUUZ40BL","A3DKM1KM4C4G05","3UUIU9GZC5R93N292LT21FRJ9VS5TN","","null","<img src=""img/flower2.png"" style=""width:200px; border:14px solid green;"">","null","","","","","","","","",""
"","image-keyboard-response","8","16557","0.0-8.0","3X4JMASXCNVCYEKLWV1799LUUZ40BL","A3DKM1KM4C4G05","3UUIU9GZC5R93N292LT21FRJ9VS5TN","","110","img/flower5.png","74","111.99999999999636","1","0","2","1","1,0.333,0.333,0.333,1,0.333,0.333,0.333,1","1,0.333,0.333,0.333,1,0.333,0.333,0.333,1","1",""
"","html-keyboard-response","9","16860","0.0-9.0","3X4JMASXCNVCYEKLWV1799LUUZ40BL","A3DKM1KM4C4G05","3UUIU9GZC5R93N292LT21FRJ9VS5TN","","null","<img src=""img/flower5.png"" style=""width:200px;border:14px solid red;"">","null","","","","","","","","",""
"","image-keyboard-response","10","17230","0.0-10.0","3X4JMASXCNVCYEKLWV1799LUUZ40BL","A3DKM1KM4C4G05","3UUIU9GZC5R93N292LT21FRJ9VS5TN","","368.00000000000364","img/flower5.png","75","370","2","1","2","1","1,0.333,0.333,0.333,1,0.333,0.333,0.333,1","1,0.333,0.333,0.333,1,0.333,0.333,0.333,1","1",""
"","html-keyboard-response","11","17533","0.0-11.0","3X4JMASXCNVCYEKLWV1799LUUZ40BL","A3DKM1KM4C4G05","3UUIU9GZC5R93N292LT21FRJ9VS5TN","","null","<img src=""img/flower5.png"" style=""width:200px; border:14px solid green;"">","null","","","","","","","","",""
"","image-keyboard-response","12","18456","0.0-12.0","3X4JMASXCNVCYEKLWV1799LUUZ40BL","A3DKM1KM4C4G05","3UUIU9GZC5R93N292LT21FRJ9VS5TN","","920.9999999999964","img/flower2.png","74","923","1","1","1","1","1,0.333,0.333,0.333,1,0.333,0.333,0.333,1","1,0.333,0.333,0.333,1,0.333,0.333,0.333,1","1",""
"","html-keyboard-response","13","18760","0.0-13.0","3X4JMASXCNVCYEKLWV1799LUUZ40BL","A3DKM1KM4C4G05","3UUIU9GZC5R93N292LT21FRJ9VS5TN","","null","<img src=""img/flower2.png"" style=""width:200px; border:14px solid green;"">","null","","","","","","","","",""
"","image-keyboard-response","14","18944","0.0-14.0","3X4JMASXCNVCYEKLWV1799LUUZ40BL","A3DKM1KM4C4G05","3UUIU9GZC5R93N292LT21FRJ9VS5TN","","181.99999999999636","img/flower1.png","74","184.00000000000364","1","1","3","1","1,0.333,0.333,0.333,1,0.333,0.333,0.333,1","1,0.333,0.333,0.333,1,0.333,0.333,0.333,1","1",""
"","html-keyboard-response","15","19248","0.0-15.0","3X4JMASXCNVCYEKLWV1799LUUZ40BL","A3DKM1KM4C4G05","3UUIU9GZC5R93N292LT21FRJ9VS5TN","","null","<img src=""img/flower1.png"" style=""width:200px; border:14px solid green;"">","null","","","","","","","","",""
"","image-keyboard-response","16","19417","0.0-16.0","3X4JMASXCNVCYEKLWV1799LUUZ40BL","A3DKM1KM4C4G05","3UUIU9GZC5R93N292LT21FRJ9VS5TN","","167.00000000000364","img/flower1.png","74","168","1","1","3","1","1,0.333,0.333,0.333,1,0.333,0.333,0.333,1","1,0.333,0.333,0.333,1,0.333,0.333,0.333,1","1",""
"","html-keyboard-response","17","19720","0.0-17.0","3X4JMASXCNVCYEKLWV1799LUUZ40BL","A3DKM1KM4C4G05","3UUIU9GZC5R93N292LT21FRJ9VS5TN","","null","<img src=""img/flower1.png"" style=""width:200px; border:14px solid green;"">","null","","","","","","","","",""
"","image-keyboard-response","18","19897","0.0-18.0","3X4JMASXCNVCYEKLWV1799LUUZ40BL","A3DKM1KM4C4G05","3UUIU9GZC5R93N292LT21FRJ9VS5TN","","175","img/flower1.png","74","177","1","0","3","1","1,0.333,0.333,0.333,1,0.333,0.333,0.333,1","1,0.333,0.333,0.333,1,0.333,0.333,0.333,1","1",""
"","html-keyboard-response","19","20200","0.0-19.0","3X4JMASXCNVCYEKLWV1799LUUZ40BL","A3DKM1KM4C4G05","3UUIU9GZC5R93N292LT21FRJ9VS5TN","","null","<img src=""img/flower1.png"" style=""width:200px;border:14px solid red;"">","null","","","","","","","","",""
"","image-keyboard-response","20","20610","0.0-20.0","3X4JMASXCNVCYEKLWV1799LUUZ40BL","A3DKM1KM4C4G05","3UUIU9GZC5R93N292LT21FRJ9VS5TN","","407","img/flower1.png","74","409","1","0","3","1","1,0.333,0.333,0.333,1,0.333,0.333,0.333,1","1,0.333,0.333,0.333,1,0.333,0.333,0.333,1","1",""
"","html-keyboard-response","21","20913","0.0-21.0","3X4JMASXCNVCYEKLWV1799LUUZ40BL","A3DKM1KM4C4G05","3UUIU9GZC5R93N292LT21FRJ9VS5TN","","null","<img src=""img/flower1.png"" style=""width:200px;border:14px solid red;"">","null","","","","","","","","",""
"","image-keyboard-response","22","21041","0.0-22.0","3X4JMASXCNVCYEKLWV1799LUUZ40BL","A3DKM1KM4C4G05","3UUIU9GZC5R93N292LT21FRJ9VS5TN","","126.00000000000364","img/flower1.png","75","127.00000000000364","2","0","3","1","1,0.333,0.333,0.333,1,0.333,0.333,0.333,1","1,0.333,0.333,0.333,1,0.333,0.333,0.333,1","1",""
"","html-keyboard-response","23","21344","0.0-23.0","3X4JMASXCNVCYEKLWV1799LUUZ40BL","A3DKM1KM4C4G05","3UUIU9GZC5R93N292LT21FRJ9VS5TN","","null","<img src=""img/flower1.png"" style=""width:200px;border:14px solid red;"">","null","","","","","","","","",""
"","image-keyboard-response","24","21480","0.0-24.0","3X4JMASXCNVCYEKLWV1799LUUZ40BL","A3DKM1KM4C4G05","3UUIU9GZC5R93N292LT21FRJ9VS5TN","","135.00000000000364","img/flower2.png","76","135.00000000000364","3","0","1","1","1,0.333,0.333,0.333,1,0.333,0.333,0.333,1","1,0.333,0.333,0.333,1,0.333,0.333,0.333,1","1",""
"","html-keyboard-response","25","21784","0.0-25.0","3X4JMASXCNVCYEKLWV1799LUUZ40BL","A3DKM1KM4C4G05","3UUIU9GZC5R93N292LT21FRJ9VS5TN","","null","<img src=""img/flower2.png"" style=""width:200px;border:14px solid red;"">","null","","","","","","","","",""
"","image-keyboard-response","26","22306","0.0-26.0","3X4JMASXCNVCYEKLWV1799LUUZ40BL","A3DKM1KM4C4G05","3UUIU9GZC5R93N292LT21FRJ9VS5TN","","519","img/flower5.png","75","520.9999999999964","2","1","2","1","1,0.333,0.333,0.333,1,0.333,0.333,0.333,1","1,0.333,0.333,0.333,1,0.333,0.333,0.333,1","1",""
"","html-keyboard-response","27","22608","0.0-27.0","3X4JMASXCNVCYEKLWV1799LUUZ40BL","A3DKM1KM4C4G05","3UUIU9GZC5R93N292LT21FRJ9VS5TN","","null","<img src=""img/flower5.png"" style=""width:200px; border:14px solid green;"">","null","","","","","","","","",""
"","image-keyboard-response","28","22853","0.0-28.0","3X4JMASXCNVCYEKLWV1799LUUZ40BL","A3DKM1KM4C4G05","3UUIU9GZC5R93N292LT21FRJ9VS5TN","","242","img/flower5.png","75","243","2","1","2","1","1,0.333,0.333,0.333,1,0.333,0.333,0.333,1","1,0.333,0.333,0.333,1,0.333,0.333,0.333,1","1",""
"","html-keyboard-response","29","23156","0.0-29.0","3X4JMASXCNVCYEKLWV1799LUUZ40BL","A3DKM1KM4C4G05","3UUIU9GZC5R93N292LT21FRJ9VS5TN","","null","<img src=""img/flower5.png"" style=""width:200px; border:14px solid green;"">","null","","","","","","","","",""
"","image-keyboard-response","30","23256","0.0-30.0","3X4JMASXCNVCYEKLWV1799LUUZ40BL","A3DKM1KM4C4G05","3UUIU9GZC5R93N292LT21FRJ9VS5TN","","98.00000000000364","img/flower5.png","75","100","2","1","2","1","1,0.333,0.333,0.333,1,0.333,0.333,0.333,1","1,0.333,0.333,0.333,1,0.333,0.333,0.333,1","1",""
"","html-keyboard-response","31","23560","0.0-31.0","3X4JMASXCNVCYEKLWV1799LUUZ40BL","A3DKM1KM4C4G05","3UUIU9GZC5R93N292LT21FRJ9VS5TN","","null","<img src=""img/flower5.png"" style=""width:200px; border:14px solid green;"">","null","","","","","","","","",""
"","image-keyboard-response","32","23690","0.0-32.0","3X4JMASXCNVCYEKLWV1799LUUZ40BL","A3DKM1KM4C4G05","3UUIU9GZC5R93N292LT21FRJ9VS5TN","","128","img/flower1.png","75","129","2","0","3","1","1,0.333,0.333,0.333,1,0.333,0.333,0.333,1","1,0.333,0.333,0.333,1,0.333,0.333,0.333,1","1",""
"","html-keyboard-response","33","23993","0.0-33.0","3X4JMASXCNVCYEKLWV1799LUUZ40BL","A3DKM1KM4C4G05","3UUIU9GZC5R93N292LT21FRJ9VS5TN","","null","<img src=""img/flower1.png"" style=""width:200px;border:14px solid red;"">","null","","","","","","","","",""
"","image-keyboard-response","34","24245","0.0-34.0","3X4JMASXCNVCYEKLWV1799LUUZ40BL","A3DKM1KM4C4G05","3UUIU9GZC5R93N292LT21FRJ9VS5TN","","249","img/flower1.png","74","251","1","0","3","1","1,0.333,0.333,0.333,1,0.333,0.333,0.333,1","1,0.333,0.333,0.333,1,0.333,0.333,0.333,1","1",""
"","html-keyboard-response","35","24548","0.0-35.0","3X4JMASXCNVCYEKLWV1799LUUZ40BL","A3DKM1KM4C4G05","3UUIU9GZC5R93N292LT21FRJ9VS5TN","","null","<img src=""img/flower1.png"" style=""width:200px;border:14px solid red;"">","null","","","","","","","","",""
"","image-keyboard-response","36","24903","0.0-36.0","3X4JMASXCNVCYEKLWV1799LUUZ40BL","A3DKM1KM4C4G05","3UUIU9GZC5R93N292LT21FRJ9VS5TN","","353","img/flower2.png","76","355","3","1","1","1","1,0.333,0.333,0.333,1,0.333,0.333,0.333,1","1,0.333,0.333,0.333,1,0.333,0.333,0.333,1","1",""
"","html-keyboard-response","37","25206","0.0-37.0","3X4JMASXCNVCYEKLWV1799LUUZ40BL","A3DKM1KM4C4G05","3UUIU9GZC5R93N292LT21FRJ9VS5TN","","null","<img src=""img/flower2.png"" style=""width:200px; border:14px solid green;"">","null","","","","","","","","",""
"","image-keyboard-response","38","25400","0.0-38.0","3X4JMASXCNVCYEKLWV1799LUUZ40BL","A3DKM1KM4C4G05","3UUIU9GZC5R93N292LT21FRJ9VS5TN","","193","img/flower2.png","76","193","3","1","1","1","1,0.333,0.333,0.333,1,0.333,0.333,0.333,1","1,0.333,0.333,0.333,1,0.333,0.333,0.333,1","1",""
"","html-keyboard-response","39","25706","0.0-39.0","3X4JMASXCNVCYEKLWV1799LUUZ40BL","A3DKM1KM4C4G05","3UUIU9GZC5R93N292LT21FRJ9VS5TN","","null","<img src=""img/flower2.png"" style=""width:200px; border:14px solid green;"">","null","","","","","","","","",""
"","image-keyboard-response","40","25827","0.0-40.0","3X4JMASXCNVCYEKLWV1799LUUZ40BL","A3DKM1KM4C4G05","3UUIU9GZC5R93N292LT21FRJ9VS5TN","","119","img/flower2.png","76","121","3","1","1","1","1,0.333,0.333,0.333,1,0.333,0.333,0.333,1","1,0.333,0.333,0.333,1,0.333,0.333,0.333,1","1",""
"","html-keyboard-response","41","26131","0.0-41.0","3X4JMASXCNVCYEKLWV1799LUUZ40BL","A3DKM1KM4C4G05","3UUIU9GZC5R93N292LT21FRJ9VS5TN","","null","<img src=""img/flower2.png"" style=""width:200px; border:14px solid green;"">","null","","","","","","","","",""
"","image-keyboard-response","42","26255","0.0-42.0","3X4JMASXCNVCYEKLWV1799LUUZ40BL","A3DKM1KM4C4G05","3UUIU9GZC5R93N292LT21FRJ9VS5TN","","120.99999999999636","img/flower2.png","76","122","3","1","1","1","1,0.333,0.333,0.333,1,0.333,0.333,0.333,1","1,0.333,0.333,0.333,1,0.333,0.333,0.333,1","1",""
"","html-keyboard-response","43","26558","0.0-43.0","3X4JMASXCNVCYEKLWV1799LUUZ40BL","A3DKM1KM4C4G05","3UUIU9GZC5R93N292LT21FRJ9VS5TN","","null","<img src=""img/flower2.png"" style=""width:200px; border:14px solid green;"">","null","","","","","","","","",""
"","image-keyboard-response","44","26664","0.0-44.0","3X4JMASXCNVCYEKLWV1799LUUZ40BL","A3DKM1KM4C4G05","3UUIU9GZC5R93N292LT21FRJ9VS5TN","","103.00000000000364","img/flower2.png","76","104","3","0","1","1","1,0.333,0.333,0.333,1,0.333,0.333,0.333,1","1,0.333,0.333,0.333,1,0.333,0.333,0.333,1","1",""
"","html-keyboard-response","45","26967","0.0-45.0","3X4JMASXCNVCYEKLWV1799LUUZ40BL","A3DKM1KM4C4G05","3UUIU9GZC5R93N292LT21FRJ9VS5TN","","null","<img src=""img/flower2.png"" style=""width:200px;border:14px solid red;"">","null","","","","","","","","",""
"","image-keyboard-response","46","27192","0.0-46.0","3X4JMASXCNVCYEKLWV1799LUUZ40BL","A3DKM1KM4C4G05","3UUIU9GZC5R93N292LT21FRJ9VS5TN","","223.00000000000364","img/flower1.png","75","225","2","0","3","1","1,0.333,0.333,0.333,1,0.333,0.333,0.333,1","1,0.333,0.333,0.333,1,0.333,0.333,0.333,1","1",""
"","html-keyboard-response","47","27495","0.0-47.0","3X4JMASXCNVCYEKLWV1799LUUZ40BL","A3DKM1KM4C4G05","3UUIU9GZC5R93N292LT21FRJ9VS5TN","","null","<img src=""img/flower1.png"" style=""width:200px;border:14px solid red;"">","null","","","","","","","","",""
"","image-keyboard-response","48","27803","0.0-48.0","3X4JMASXCNVCYEKLWV1799LUUZ40BL","A3DKM1KM4C4G05","3UUIU9GZC5R93N292LT21FRJ9VS5TN","","305","img/flower2.png","74","307","1","1","1","1","1,0.333,0.333,0.333,1,0.333,0.333,0.333,1","1,0.333,0.333,0.333,1,0.333,0.333,0.333,1","1",""
"","html-keyboard-response","49","28106","0.0-49.0","3X4JMASXCNVCYEKLWV1799LUUZ40BL","A3DKM1KM4C4G05","3UUIU9GZC5R93N292LT21FRJ9VS5TN","","null","<img src=""img/flower2.png"" style=""width:200px; border:14px solid green;"">","null","","","","","","","","",""
"","image-keyboard-response","50","28224","0.0-50.0","3X4JMASXCNVCYEKLWV1799LUUZ40BL","A3DKM1KM4C4G05","3UUIU9GZC5R93N292LT21FRJ9VS5TN","","117.00000000000364","img/flower2.png","74","118","1","1","1","1","1,0.333,0.333,0.333,1,0.333,0.333,0.333,1","1,0.333,0.333,0.333,1,0.333,0.333,0.333,1","1",""
"","html-keyboard-response","51","28528","0.0-51.0","3X4JMASXCNVCYEKLWV1799LUUZ40BL","A3DKM1KM4C4G05","3UUIU9GZC5R93N292LT21FRJ9VS5TN","","null","<img src=""img/flower2.png"" style=""width:200px; border:14px solid green;"">","null","","","","","","","","",""
"","image-keyboard-response","52","28616","0.0-52.0","3X4JMASXCNVCYEKLWV1799LUUZ40BL","A3DKM1KM4C4G05","3UUIU9GZC5R93N292LT21FRJ9VS5TN","","87","img/flower5.png","74","89","1","0","2","1","1,0.333,0.333,0.333,1,0.333,0.333,0.333,1","1,0.333,0.333,0.333,1,0.333,0.333,0.333,1","1",""
"","html-keyboard-response","53","28919","0.0-53.0","3X4JMASXCNVCYEKLWV1799LUUZ40BL","A3DKM1KM4C4G05","3UUIU9GZC5R93N292LT21FRJ9VS5TN","","null","<img src=""img/flower5.png"" style=""width:200px;border:14px solid red;"">","null","","","","","","","","",""
"","image-keyboard-response","54","29056","0.0-54.0","3X4JMASXCNVCYEKLWV1799LUUZ40BL","A3DKM1KM4C4G05","3UUIU9GZC5R93N292LT21FRJ9VS5TN","","135","img/flower1.png","75","137","2","1","3","1","1,0.333,0.333,0.333,1,0.333,0.333,0.333,1","1,0.333,0.333,0.333,1,0.333,0.333,0.333,1","1",""
"","html-keyboard-response","55","29359","0.0-55.0","3X4JMASXCNVCYEKLWV1799LUUZ40BL","A3DKM1KM4C4G05","3UUIU9GZC5R93N292LT21FRJ9VS5TN","","null","<img src=""img/flower1.png"" style=""width:200px; border:14px solid green;"">","null","","","","","","","","",""
"","image-keyboard-response","56","29542","0.0-56.0","3X4JMASXCNVCYEKLWV1799LUUZ40BL","A3DKM1KM4C4G05","3UUIU9GZC5R93N292LT21FRJ9VS5TN","","180.99999999999636","img/flower5.png","75","182","2","1","2","1","1,0.333,0.333,0.333,1,0.333,0.333,0.333,1","1,0.333,0.333,0.333,1,0.333,0.333,0.333,1","1",""
"","html-keyboard-response","57","29844","0.0-57.0","3X4JMASXCNVCYEKLWV1799LUUZ40BL","A3DKM1KM4C4G05","3UUIU9GZC5R93N292LT21FRJ9VS5TN","","null","<img src=""img/flower5.png"" style=""width:200px; border:14px solid green;"">","null","","","","","","","","",""
"","image-keyboard-response","58","29989","0.0-58.0","3X4JMASXCNVCYEKLWV1799LUUZ40BL","A3DKM1KM4C4G05","3UUIU9GZC5R93N292LT21FRJ9VS5TN","","143","img/flower1.png","75","144","2","0","3","1","1,0.333,0.333,0.333,1,0.333,0.333,0.333,1","1,0.333,0.333,0.333,1,0.333,0.333,0.333,1","1",""
"","html-keyboard-response","59","30292","0.0-59.0","3X4JMASXCNVCYEKLWV1799LUUZ40BL","A3DKM1KM4C4G05","3UUIU9GZC5R93N292LT21FRJ9VS5TN","","null","<img src=""img/flower1.png"" style=""width:200px;border:14px solid red;"">","null","","","","","","","","",""
"","image-keyboard-response","60","30387","0.0-60.0","3X4JMASXCNVCYEKLWV1799LUUZ40BL","A3DKM1KM4C4G05","3UUIU9GZC5R93N292LT21FRJ9VS5TN","","93","img/flower1.png","75","95","2","0","3","1","1,0.333,0.333,0.333,1,0.333,0.333,0.333,1","1,0.333,0.333,0.333,1,0.333,0.333,0.333,1","1",""
"","html-keyboard-response","61","30690","0.0-61.0","3X4JMASXCNVCYEKLWV1799LUUZ40BL","A3DKM1KM4C4G05","3UUIU9GZC5R93N292LT21FRJ9VS5TN","","null","<img src=""img/flower1.png"" style=""width:200px;border:14px solid red;"">","null","","","","","","","","",""
"","image-keyboard-response","62","31154","0.0-62.0","3X4JMASXCNVCYEKLWV1799LUUZ40BL","A3DKM1KM4C4G05","3UUIU9GZC5R93N292LT21FRJ9VS5TN","","463","img/flower5.png","76","465","3","0","2","1","1,0.333,0.333,0.333,1,0.333,0.333,0.333,1","1,0.333,0.333,0.333,1,0.333,0.333,0.333,1","1",""
"","html-keyboard-response","63","31457","0.0-63.0","3X4JMASXCNVCYEKLWV1799LUUZ40BL","A3DKM1KM4C4G05","3UUIU9GZC5R93N292LT21FRJ9VS5TN","","null","<img src=""img/flower5.png"" style=""width:200px;border:14px solid red;"">","null","","","","","","","","",""
"","image-keyboard-response","64","31670","0.0-64.0","3X4JMASXCNVCYEKLWV1799LUUZ40BL","A3DKM1KM4C4G05","3UUIU9GZC5R93N292LT21FRJ9VS5TN","","211","img/flower5.png","76","212.99999999999636","3","0","2","1","1,0.333,0.333,0.333,1,0.333,0.333,0.333,1","1,0.333,0.333,0.333,1,0.333,0.333,0.333,1","1",""
"","html-keyboard-response","65","31974","0.0-65.0","3X4JMASXCNVCYEKLWV1799LUUZ40BL","A3DKM1KM4C4G05","3UUIU9GZC5R93N292LT21FRJ9VS5TN","","null","<img src=""img/flower5.png"" style=""width:200px;border:14px solid red;"">","null","","","","","","","","",""
"","image-keyboard-response","66","32016","0.0-66.0","3X4JMASXCNVCYEKLWV1799LUUZ40BL","A3DKM1KM4C4G05","3UUIU9GZC5R93N292LT21FRJ9VS5TN","","41","img/flower1.png","75","43","2","0","3","1","1,0.333,0.333,0.333,1,0.333,0.333,0.333,1","1,0.333,0.333,0.333,1,0.333,0.333,0.333,1","1",""
"","html-keyboard-response","67","32319","0.0-67.0","3X4JMASXCNVCYEKLWV1799LUUZ40BL","A3DKM1KM4C4G05","3UUIU9GZC5R93N292LT21FRJ9VS5TN","","null","<img src=""img/flower1.png"" style=""width:200px;border:14px solid red;"">","null","","","","","","","","",""
"","image-keyboard-response","68","32395","0.0-68.0","3X4JMASXCNVCYEKLWV1799LUUZ40BL","A3DKM1KM4C4G05","3UUIU9GZC5R93N292LT21FRJ9VS5TN","","74","img/flower5.png","74","76","1","0","2","1","1,0.333,0.333,0.333,1,0.333,0.333,0.333,1","1,0.333,0.333,0.333,1,0.333,0.333,0.333,1","1",""
"","html-keyboard-response","69","32698","0.0-69.0","3X4JMASXCNVCYEKLWV1799LUUZ40BL","A3DKM1KM4C4G05","3UUIU9GZC5R93N292LT21FRJ9VS5TN","","null","<img src=""img/flower5.png"" style=""width:200px;border:14px solid red;"">","null","","","","","","","","",""
"","image-keyboard-response","70","32898","0.0-70.0","3X4JMASXCNVCYEKLWV1799LUUZ40BL","A3DKM1KM4C4G05","3UUIU9GZC5R93N292LT21FRJ9VS5TN","","197.00000000000728","img/flower2.png","74","199","1","1","1","1","1,0.333,0.333,0.333,1,0.333,0.333,0.333,1","1,0.333,0.333,0.333,1,0.333,0.333,0.333,1","1",""
"","html-keyboard-response","71","33201","0.0-71.0","3X4JMASXCNVCYEKLWV1799LUUZ40BL","A3DKM1KM4C4G05","3UUIU9GZC5R93N292LT21FRJ9VS5TN","","null","<img src=""img/flower2.png"" style=""width:200px; border:14px solid green;"">","null","","","","","","","","",""
"","image-keyboard-response","72","33561","0.0-72.0","3X4JMASXCNVCYEKLWV1799LUUZ40BL","A3DKM1KM4C4G05","3UUIU9GZC5R93N292LT21FRJ9VS5TN","","360","img/flower5.png","74","360","1","1","2","1","1,0.333,0.333,0.333,1,0.333,0.333,0.333,1","1,0.333,0.333,0.333,1,0.333,0.333,0.333,1","1",""
"","html-keyboard-response","73","33864","0.0-73.0","3X4JMASXCNVCYEKLWV1799LUUZ40BL","A3DKM1KM4C4G05","3UUIU9GZC5R93N292LT21FRJ9VS5TN","","null","<img src=""img/flower5.png"" style=""width:200px; border:14px solid green;"">","null","","","","","","","","",""
"","image-keyboard-response","74","33977","0.0-74.0","3X4JMASXCNVCYEKLWV1799LUUZ40BL","A3DKM1KM4C4G05","3UUIU9GZC5R93N292LT21FRJ9VS5TN","","109","img/flower5.png","74","112","1","1","2","1","1,0.333,0.333,0.333,1,0.333,0.333,0.333,1","1,0.333,0.333,0.333,1,0.333,0.333,0.333,1","1",""
"","html-keyboard-response","75","34281","0.0-75.0","3X4JMASXCNVCYEKLWV1799LUUZ40BL","A3DKM1KM4C4G05","3UUIU9GZC5R93N292LT21FRJ9VS5TN","","null","<img src=""img/flower5.png"" style=""width:200px; border:14px solid green;"">","null","","","","","","","","",""
"","image-keyboard-response","76","34383","0.0-76.0","3X4JMASXCNVCYEKLWV1799LUUZ40BL","A3DKM1KM4C4G05","3UUIU9GZC5R93N292LT21FRJ9VS5TN","","101","img/flower1.png","74","102","1","0","3","1","1,0.333,0.333,0.333,1,0.333,0.333,0.333,1","1,0.333,0.333,0.333,1,0.333,0.333,0.333,1","1",""
"","html-keyboard-response","77","34686","0.0-77.0","3X4JMASXCNVCYEKLWV1799LUUZ40BL","A3DKM1KM4C4G05","3UUIU9GZC5R93N292LT21FRJ9VS5TN","","null","<img src=""img/flower1.png"" style=""width:200px;border:14px solid red;"">","null","","","","","","","","",""
"","image-keyboard-response","78","34930","0.0-78.0","3X4JMASXCNVCYEKLWV1799LUUZ40BL","A3DKM1KM4C4G05","3UUIU9GZC5R93N292LT21FRJ9VS5TN","","241","img/flower5.png","75","244","2","1","2","1","1,0.333,0.333,0.333,1,0.333,0.333,0.333,1","1,0.333,0.333,0.333,1,0.333,0.333,0.333,1","1",""
"","html-keyboard-response","79","35234","0.0-79.0","3X4JMASXCNVCYEKLWV1799LUUZ40BL","A3DKM1KM4C4G05","3UUIU9GZC5R93N292LT21FRJ9VS5TN","","null","<img src=""img/flower5.png"" style=""width:200px; border:14px solid green;"">","null","","","","","","","","",""
"","image-keyboard-response","80","35383","0.0-80.0","3X4JMASXCNVCYEKLWV1799LUUZ40BL","A3DKM1KM4C4G05","3UUIU9GZC5R93N292LT21FRJ9VS5TN","","146","img/flower5.png","75","148","2","1","2","1","1,0.333,0.333,0.333,1,0.333,0.333,0.333,1","1,0.333,0.333,0.333,1,0.333,0.333,0.333,1","1",""
"","html-keyboard-response","81","35685","0.0-81.0","3X4JMASXCNVCYEKLWV1799LUUZ40BL","A3DKM1KM4C4G05","3UUIU9GZC5R93N292LT21FRJ9VS5TN","","null","<img src=""img/flower5.png"" style=""width:200px; border:14px solid green;"">","null","","","","","","","","",""
"","image-keyboard-response","82","35758","0.0-82.0","3X4JMASXCNVCYEKLWV1799LUUZ40BL","A3DKM1KM4C4G05","3UUIU9GZC5R93N292LT21FRJ9VS5TN","","71","img/flower1.png","75","73","2","1","3","1","1,0.333,0.333,0.333,1,0.333,0.333,0.333,1","1,0.333,0.333,0.333,1,0.333,0.333,0.333,1","1",""
"","html-keyboard-response","83","36061","0.0-83.0","3X4JMASXCNVCYEKLWV1799LUUZ40BL","A3DKM1KM4C4G05","3UUIU9GZC5R93N292LT21FRJ9VS5TN","","null","<img src=""img/flower1.png"" style=""width:200px; border:14px solid green;"">","null","","","","","","","","",""
"","image-keyboard-response","84","36238","0.0-84.0","3X4JMASXCNVCYEKLWV1799LUUZ40BL","A3DKM1KM4C4G05","3UUIU9GZC5R93N292LT21FRJ9VS5TN","","174","img/flower5.png","75","176","2","1","2","1","1,0.333,0.333,0.333,1,0.333,0.333,0.333,1","1,0.333,0.333,0.333,1,0.333,0.333,0.333,1","1",""
"","html-keyboard-response","85","36541","0.0-85.0","3X4JMASXCNVCYEKLWV1799LUUZ40BL","A3DKM1KM4C4G05","3UUIU9GZC5R93N292LT21FRJ9VS5TN","","null","<img src=""img/flower5.png"" style=""width:200px; border:14px solid green;"">","null","","","","","","","","",""
"","image-keyboard-response","86","36660","0.0-86.0","3X4JMASXCNVCYEKLWV1799LUUZ40BL","A3DKM1KM4C4G05","3UUIU9GZC5R93N292LT21FRJ9VS5TN","","117","img/flower5.png","75","119","2","1","2","1","1,0.333,0.333,0.333,1,0.333,0.333,0.333,1","1,0.333,0.333,0.333,1,0.333,0.333,0.333,1","1",""
"","html-keyboard-response","87","36963","0.0-87.0","3X4JMASXCNVCYEKLWV1799LUUZ40BL","A3DKM1KM4C4G05","3UUIU9GZC5R93N292LT21FRJ9VS5TN","","null","<img src=""img/flower5.png"" style=""width:200px; border:14px solid green;"">","null","","","","","","","","",""
"","image-keyboard-response","88","37023","0.0-88.0","3X4JMASXCNVCYEKLWV1799LUUZ40BL","A3DKM1KM4C4G05","3UUIU9GZC5R93N292LT21FRJ9VS5TN","","58","img/flower5.png","75","59.999999999992724","2","1","2","1","1,0.333,0.333,0.333,1,0.333,0.333,0.333,1","1,0.333,0.333,0.333,1,0.333,0.333,0.333,1","1",""
"","html-keyboard-response","89","37326","0.0-89.0","3X4JMASXCNVCYEKLWV1799LUUZ40BL","A3DKM1KM4C4G05","3UUIU9GZC5R93N292LT21FRJ9VS5TN","","null","<img src=""img/flower5.png"" style=""width:200px; border:14px solid green;"">","null","","","","","","","","",""
"","image-keyboard-response","90","37412","0.0-90.0","3X4JMASXCNVCYEKLWV1799LUUZ40BL","A3DKM1KM4C4G05","3UUIU9GZC5R93N292LT21FRJ9VS5TN","","84.00000000000728","img/flower5.png","75","86","2","1","2","1","1,0.333,0.333,0.333,1,0.333,0.333,0.333,1","1,0.333,0.333,0.333,1,0.333,0.333,0.333,1","1",""
"","html-keyboard-response","91","37715","0.0-91.0","3X4JMASXCNVCYEKLWV1799LUUZ40BL","A3DKM1KM4C4G05","3UUIU9GZC5R93N292LT21FRJ9VS5TN","","null","<img src=""img/flower5.png"" style=""width:200px; border:14px solid green;"">","null","","","","","","","","",""
"","image-keyboard-response","92","37812","0.0-92.0","3X4JMASXCNVCYEKLWV1799LUUZ40BL","A3DKM1KM4C4G05","3UUIU9GZC5R93N292LT21FRJ9VS5TN","","94.99999999999272","img/flower1.png","75","97","2","0","3","1","1,0.333,0.333,0.333,1,0.333,0.333,0.333,1","1,0.333,0.333,0.333,1,0.333,0.333,0.333,1","1",""
"","html-keyboard-response","93","38115","0.0-93.0","3X4JMASXCNVCYEKLWV1799LUUZ40BL","A3DKM1KM4C4G05","3UUIU9GZC5R93N292LT21FRJ9VS5TN","","null","<img src=""img/flower1.png"" style=""width:200px;border:14px solid red;"">","null","","","","","","","","",""
"","image-keyboard-response","94","38132","0.0-94.0","3X4JMASXCNVCYEKLWV1799LUUZ40BL","A3DKM1KM4C4G05","3UUIU9GZC5R93N292LT21FRJ9VS5TN","","13","img/flower5.png","75","17","2","1","2","1","1,0.333,0.333,0.333,1,0.333,0.333,0.333,1","1,0.333,0.333,0.333,1,0.333,0.333,0.333,1","1",""
"","html-keyboard-response","95","38435","0.0-95.0","3X4JMASXCNVCYEKLWV1799LUUZ40BL","A3DKM1KM4C4G05","3UUIU9GZC5R93N292LT21FRJ9VS5TN","","null","<img src=""img/flower5.png"" style=""width:200px; border:14px solid green;"">","null","","","","","","","","",""
"","image-keyboard-response","96","38566","0.0-96.0","3X4JMASXCNVCYEKLWV1799LUUZ40BL","A3DKM1KM4C4G05","3UUIU9GZC5R93N292LT21FRJ9VS5TN","","129","img/flower1.png","76","130","3","1","3","1","1,0.333,0.333,0.333,1,0.333,0.333,0.333,1","1,0.333,0.333,0.333,1,0.333,0.333,0.333,1","1",""
"","html-keyboard-response","97","38872","0.0-97.0","3X4JMASXCNVCYEKLWV1799LUUZ40BL","A3DKM1KM4C4G05","3UUIU9GZC5R93N292LT21FRJ9VS5TN","","null","<img src=""img/flower1.png"" style=""width:200px; border:14px solid green;"">","null","","","","","","","","",""
"","image-keyboard-response","98","39279","0.0-98.0","3X4JMASXCNVCYEKLWV1799LUUZ40BL","A3DKM1KM4C4G05","3UUIU9GZC5R93N292LT21FRJ9VS5TN","","405","img/flower5.png","76","407","3","0","2","1","1,0.333,0.333,0.333,1,0.333,0.333,0.333,1","1,0.333,0.333,0.333,1,0.333,0.333,0.333,1","1",""
"","html-keyboard-response","99","39582","0.0-99.0","3X4JMASXCNVCYEKLWV1799LUUZ40BL","A3DKM1KM4C4G05","3UUIU9GZC5R93N292LT21FRJ9VS5TN","","null","<img src=""img/flower5.png"" style=""width:200px;border:14px solid red;"">","null","","","","","","","","",""
"","image-keyboard-response","100","39736","0.0-100.0","3X4JMASXCNVCYEKLWV1799LUUZ40BL","A3DKM1KM4C4G05","3UUIU9GZC5R93N292LT21FRJ9VS5TN","","152","img/flower2.png","75","153.99999999999272","2","1","1","1","1,0.333,0.333,0.333,1,0.333,0.333,0.333,1","1,0.333,0.333,0.333,1,0.333,0.333,0.333,1","1",""
"","html-keyboard-response","101","40039","0.0-101.0","3X4JMASXCNVCYEKLWV1799LUUZ40BL","A3DKM1KM4C4G05","3UUIU9GZC5R93N292LT21FRJ9VS5TN","","null","<img src=""img/flower2.png"" style=""width:200px; border:14px solid green;"">","null","","","","","","","","",""
"","image-keyboard-response","102","40164","0.0-102.0","3X4JMASXCNVCYEKLWV1799LUUZ40BL","A3DKM1KM4C4G05","3UUIU9GZC5R93N292LT21FRJ9VS5TN","","123","img/flower1.png","75","125","2","1","3","1","1,0.333,0.333,0.333,1,0.333,0.333,0.333,1","1,0.333,0.333,0.333,1,0.333,0.333,0.333,1","1",""
"","html-keyboard-response","103","40468","0.0-103.0","3X4JMASXCNVCYEKLWV1799LUUZ40BL","A3DKM1KM4C4G05","3UUIU9GZC5R93N292LT21FRJ9VS5TN","","null","<img src=""img/flower1.png"" style=""width:200px; border:14px solid green;"">","null","","","","","","","","",""
"","image-keyboard-response","104","40555","0.0-104.0","3X4JMASXCNVCYEKLWV1799LUUZ40BL","A3DKM1KM4C4G05","3UUIU9GZC5R93N292LT21FRJ9VS5TN","","84.99999999999272","img/flower1.png","75","87","2","0","3","1","1,0.333,0.333,0.333,1,0.333,0.333,0.333,1","1,0.333,0.333,0.333,1,0.333,0.333,0.333,1","1",""
"","html-keyboard-response","105","40859","0.0-105.0","3X4JMASXCNVCYEKLWV1799LUUZ40BL","A3DKM1KM4C4G05","3UUIU9GZC5R93N292LT21FRJ9VS5TN","","null","<img src=""img/flower1.png"" style=""width:200px;border:14px solid red;"">","null","","","","","","","","",""
"","image-keyboard-response","106","40898","0.0-106.0","3X4JMASXCNVCYEKLWV1799LUUZ40BL","A3DKM1KM4C4G05","3UUIU9GZC5R93N292LT21FRJ9VS5TN","","37","img/flower2.png","75","39","2","0","1","1","1,0.333,0.333,0.333,1,0.333,0.333,0.333,1","1,0.333,0.333,0.333,1,0.333,0.333,0.333,1","1",""
"","html-keyboard-response","107","41201","0.0-107.0","3X4JMASXCNVCYEKLWV1799LUUZ40BL","A3DKM1KM4C4G05","3UUIU9GZC5R93N292LT21FRJ9VS5TN","","null","<img src=""img/flower2.png"" style=""width:200px;border:14px solid red;"">","null","","","","","","","","",""
"","image-keyboard-response","108","41246","0.0-108.0","3X4JMASXCNVCYEKLWV1799LUUZ40BL","A3DKM1KM4C4G05","3UUIU9GZC5R93N292LT21FRJ9VS5TN","","42","img/flower5.png","75","45","2","1","2","1","1,0.333,0.333,0.333,1,0.333,0.333,0.333,1","1,0.333,0.333,0.333,1,0.333,0.333,0.333,1","1",""
"","html-keyboard-response","109","41550","0.0-109.0","3X4JMASXCNVCYEKLWV1799LUUZ40BL","A3DKM1KM4C4G05","3UUIU9GZC5R93N292LT21FRJ9VS5TN","","null","<img src=""img/flower5.png"" style=""width:200px; border:14px solid green;"">","null","","","","","","","","",""
"","image-keyboard-response","110","41715","0.0-110.0","3X4JMASXCNVCYEKLWV1799LUUZ40BL","A3DKM1KM4C4G05","3UUIU9GZC5R93N292LT21FRJ9VS5TN","","163","img/flower2.png","75","165","2","1","1","1","1,0.333,0.333,0.333,1,0.333,0.333,0.333,1","1,0.333,0.333,0.333,1,0.333,0.333,0.333,1","1",""
"","html-keyboard-response","111","42018","0.0-111.0","3X4JMASXCNVCYEKLWV1799LUUZ40BL","A3DKM1KM4C4G05","3UUIU9GZC5R93N292LT21FRJ9VS5TN","","null","<img src=""img/flower2.png"" style=""width:200px; border:14px solid green;"">","null","","","","","","","","",""
"","image-keyboard-response","112","42116","0.0-112.0","3X4JMASXCNVCYEKLWV1799LUUZ40BL","A3DKM1KM4C4G05","3UUIU9GZC5R93N292LT21FRJ9VS5TN","","95","img/flower5.png","75","98","2","1","2","1","1,0.333,0.333,0.333,1,0.333,0.333,0.333,1","1,0.333,0.333,0.333,1,0.333,0.333,0.333,1","1",""
"","html-keyboard-response","113","42420","0.0-113.0","3X4JMASXCNVCYEKLWV1799LUUZ40BL","A3DKM1KM4C4G05","3UUIU9GZC5R93N292LT21FRJ9VS5TN","","null","<img src=""img/flower5.png"" style=""width:200px; border:14px solid green;"">","null","","","","","","","","",""
"","image-keyboard-response","114","42481","0.0-114.0","3X4JMASXCNVCYEKLWV1799LUUZ40BL","A3DKM1KM4C4G05","3UUIU9GZC5R93N292LT21FRJ9VS5TN","","59","img/flower5.png","75","62","2","1","2","1","1,0.333,0.333,0.333,1,0.333,0.333,0.333,1","1,0.333,0.333,0.333,1,0.333,0.333,0.333,1","1",""
"","html-keyboard-response","115","42784","0.0-115.0","3X4JMASXCNVCYEKLWV1799LUUZ40BL","A3DKM1KM4C4G05","3UUIU9GZC5R93N292LT21FRJ9VS5TN","","null","<img src=""img/flower5.png"" style=""width:200px; border:14px solid green;"">","null","","","","","","","","",""
"","image-keyboard-response","116","42828","0.0-116.0","3X4JMASXCNVCYEKLWV1799LUUZ40BL","A3DKM1KM4C4G05","3UUIU9GZC5R93N292LT21FRJ9VS5TN","","40.999999999992724","img/flower2.png","75","44","2","0","1","1","1,0.333,0.333,0.333,1,0.333,0.333,0.333,1","1,0.333,0.333,0.333,1,0.333,0.333,0.333,1","1",""
"","html-keyboard-response","117","43132","0.0-117.0","3X4JMASXCNVCYEKLWV1799LUUZ40BL","A3DKM1KM4C4G05","3UUIU9GZC5R93N292LT21FRJ9VS5TN","","null","<img src=""img/flower2.png"" style=""width:200px;border:14px solid red;"">","null","","","","","","","","",""
"","image-keyboard-response","118","43488","0.0-118.0","3X4JMASXCNVCYEKLWV1799LUUZ40BL","A3DKM1KM4C4G05","3UUIU9GZC5R93N292LT21FRJ9VS5TN","","354","img/flower5.png","74","355","1","0","2","1","1,0.333,0.333,0.333,1,0.333,0.333,0.333,1","1,0.333,0.333,0.333,1,0.333,0.333,0.333,1","1",""
"","html-keyboard-response","119","43791","0.0-119.0","3X4JMASXCNVCYEKLWV1799LUUZ40BL","A3DKM1KM4C4G05","3UUIU9GZC5R93N292LT21FRJ9VS5TN","","null","<img src=""img/flower5.png"" style=""width:200px;border:14px solid red;"">","null","","","","","","","","",""
"","image-keyboard-response","120","43973","0.0-120.0","3X4JMASXCNVCYEKLWV1799LUUZ40BL","A3DKM1KM4C4G05","3UUIU9GZC5R93N292LT21FRJ9VS5TN","","180.00000000000728","img/flower1.png","74","182","1","0","3","1","1,0.333,0.333,0.333,1,0.333,0.333,0.333,1","1,0.333,0.333,0.333,1,0.333,0.333,0.333,1","1",""
"","html-keyboard-response","121","44276","0.0-121.0","3X4JMASXCNVCYEKLWV1799LUUZ40BL","A3DKM1KM4C4G05","3UUIU9GZC5R93N292LT21FRJ9VS5TN","","null","<img src=""img/flower1.png"" style=""width:200px;border:14px solid red;"">","null","","","","","","","","",""
"","image-keyboard-response","122","44524","0.0-122.0","3X4JMASXCNVCYEKLWV1799LUUZ40BL","A3DKM1KM4C4G05","3UUIU9GZC5R93N292LT21FRJ9VS5TN","","245.99999999999272","img/flower2.png","75","248.00000000000728","2","1","1","1","1,0.333,0.333,0.333,1,0.333,0.333,0.333,1","1,0.333,0.333,0.333,1,0.333,0.333,0.333,1","1",""
"","html-keyboard-response","123","44827","0.0-123.0","3X4JMASXCNVCYEKLWV1799LUUZ40BL","A3DKM1KM4C4G05","3UUIU9GZC5R93N292LT21FRJ9VS5TN","","null","<img src=""img/flower2.png"" style=""width:200px; border:14px solid green;"">","null","","","","","","","","",""
"","image-keyboard-response","124","44987","0.0-124.0","3X4JMASXCNVCYEKLWV1799LUUZ40BL","A3DKM1KM4C4G05","3UUIU9GZC5R93N292LT21FRJ9VS5TN","","157","img/flower1.png","75","160","2","1","3","1","1,0.333,0.333,0.333,1,0.333,0.333,0.333,1","1,0.333,0.333,0.333,1,0.333,0.333,0.333,1","1",""
"","html-keyboard-response","125","45291","0.0-125.0","3X4JMASXCNVCYEKLWV1799LUUZ40BL","A3DKM1KM4C4G05","3UUIU9GZC5R93N292LT21FRJ9VS5TN","","null","<img src=""img/flower1.png"" style=""width:200px; border:14px solid green;"">","null","","","","","","","","",""
"","image-keyboard-response","126","45389","0.0-126.0","3X4JMASXCNVCYEKLWV1799LUUZ40BL","A3DKM1KM4C4G05","3UUIU9GZC5R93N292LT21FRJ9VS5TN","","95","img/flower2.png","75","98","2","0","1","1","1,0.333,0.333,0.333,1,0.333,0.333,0.333,1","1,0.333,0.333,0.333,1,0.333,0.333,0.333,1","1",""
"","html-keyboard-response","127","45692","0.0-127.0","3X4JMASXCNVCYEKLWV1799LUUZ40BL","A3DKM1KM4C4G05","3UUIU9GZC5R93N292LT21FRJ9VS5TN","","null","<img src=""img/flower2.png"" style=""width:200px;border:14px solid red;"">","null","","","","","","","","",""
"","image-keyboard-response","128","45739","0.0-128.0","3X4JMASXCNVCYEKLWV1799LUUZ40BL","A3DKM1KM4C4G05","3UUIU9GZC5R93N292LT21FRJ9VS5TN","","45","img/flower1.png","75","47","2","0","3","1","1,0.333,0.333,0.333,1,0.333,0.333,0.333,1","1,0.333,0.333,0.333,1,0.333,0.333,0.333,1","1",""
"","html-keyboard-response","129","46042","0.0-129.0","3X4JMASXCNVCYEKLWV1799LUUZ40BL","A3DKM1KM4C4G05","3UUIU9GZC5R93N292LT21FRJ9VS5TN","","null","<img src=""img/flower1.png"" style=""width:200px;border:14px solid red;"">","null","","","","","","","","",""
"","image-keyboard-response","130","46285","0.0-130.0","3X4JMASXCNVCYEKLWV1799LUUZ40BL","A3DKM1KM4C4G05","3UUIU9GZC5R93N292LT21FRJ9VS5TN","","238","img/flower2.png","75","242","2","0","1","1","1,0.333,0.333,0.333,1,0.333,0.333,0.333,1","1,0.333,0.333,0.333,1,0.333,0.333,0.333,1","1",""
"","html-keyboard-response","131","46589","0.0-131.0","3X4JMASXCNVCYEKLWV1799LUUZ40BL","A3DKM1KM4C4G05","3UUIU9GZC5R93N292LT21FRJ9VS5TN","","null","<img src=""img/flower2.png"" style=""width:200px;border:14px solid red;"">","null","","","","","","","","",""
"","image-keyboard-response","132","46615","0.0-132.0","3X4JMASXCNVCYEKLWV1799LUUZ40BL","A3DKM1KM4C4G05","3UUIU9GZC5R93N292LT21FRJ9VS5TN","","22.999999999992724","img/flower5.png","76","25","3","1","2","1","1,0.333,0.333,0.333,1,0.333,0.333,0.333,1","1,0.333,0.333,0.333,1,0.333,0.333,0.333,1","1",""
"","html-keyboard-response","133","46918","0.0-133.0","3X4JMASXCNVCYEKLWV1799LUUZ40BL","A3DKM1KM4C4G05","3UUIU9GZC5R93N292LT21FRJ9VS5TN","","null","<img src=""img/flower5.png"" style=""width:200px; border:14px solid green;"">","null","","","","","","","","",""
"","image-keyboard-response","134","46967","0.0-134.0","3X4JMASXCNVCYEKLWV1799LUUZ40BL","A3DKM1KM4C4G05","3UUIU9GZC5R93N292LT21FRJ9VS5TN","","46.000000000007276","img/flower2.png","76","47.000000000007276","3","1","1","1","1,0.333,0.333,0.333,1,0.333,0.333,0.333,1","1,0.333,0.333,0.333,1,0.333,0.333,0.333,1","1",""
"","html-keyboard-response","135","47270","0.0-135.0","3X4JMASXCNVCYEKLWV1799LUUZ40BL","A3DKM1KM4C4G05","3UUIU9GZC5R93N292LT21FRJ9VS5TN","","null","<img src=""img/flower2.png"" style=""width:200px; border:14px solid green;"">","null","","","","","","","","",""
"","image-keyboard-response","136","47383","0.0-136.0","3X4JMASXCNVCYEKLWV1799LUUZ40BL","A3DKM1KM4C4G05","3UUIU9GZC5R93N292LT21FRJ9VS5TN","","110.99999999999272","img/flower1.png","76","112","3","1","3","1","1,0.333,0.333,0.333,1,0.333,0.333,0.333,1","1,0.333,0.333,0.333,1,0.333,0.333,0.333,1","1",""
"","html-keyboard-response","137","47686","0.0-137.0","3X4JMASXCNVCYEKLWV1799LUUZ40BL","A3DKM1KM4C4G05","3UUIU9GZC5R93N292LT21FRJ9VS5TN","","null","<img src=""img/flower1.png"" style=""width:200px; border:14px solid green;"">","null","","","","","","","","",""
"","image-keyboard-response","138","47815","0.0-138.0","3X4JMASXCNVCYEKLWV1799LUUZ40BL","A3DKM1KM4C4G05","3UUIU9GZC5R93N292LT21FRJ9VS5TN","","126","img/flower2.png","76","128","3","1","1","1","1,0.333,0.333,0.333,1,0.333,0.333,0.333,1","1,0.333,0.333,0.333,1,0.333,0.333,0.333,1","1",""
"","html-keyboard-response","139","48118","0.0-139.0","3X4JMASXCNVCYEKLWV1799LUUZ40BL","A3DKM1KM4C4G05","3UUIU9GZC5R93N292LT21FRJ9VS5TN","","null","<img src=""img/flower2.png"" style=""width:200px; border:14px solid green;"">","null","","","","","","","","",""
"","image-keyboard-response","140","48207","0.0-140.0","3X4JMASXCNVCYEKLWV1799LUUZ40BL","A3DKM1KM4C4G05","3UUIU9GZC5R93N292LT21FRJ9VS5TN","","86","img/flower5.png","76","88.00000000000728","3","0","2","1","1,0.333,0.333,0.333,1,0.333,0.333,0.333,1","1,0.333,0.333,0.333,1,0.333,0.333,0.333,1","1",""
"","html-keyboard-response","141","48511","0.0-141.0","3X4JMASXCNVCYEKLWV1799LUUZ40BL","A3DKM1KM4C4G05","3UUIU9GZC5R93N292LT21FRJ9VS5TN","","null","<img src=""img/flower5.png"" style=""width:200px;border:14px solid red;"">","null","","","","","","","","",""
"","image-keyboard-response","142","48548","0.0-142.0","3X4JMASXCNVCYEKLWV1799LUUZ40BL","A3DKM1KM4C4G05","3UUIU9GZC5R93N292LT21FRJ9VS5TN","","35","img/flower5.png","76","37","3","1","2","1","1,0.333,0.333,0.333,1,0.333,0.333,0.333,1","1,0.333,0.333,0.333,1,0.333,0.333,0.333,1","1",""
"","html-keyboard-response","143","48851","0.0-143.0","3X4JMASXCNVCYEKLWV1799LUUZ40BL","A3DKM1KM4C4G05","3UUIU9GZC5R93N292LT21FRJ9VS5TN","","null","<img src=""img/flower5.png"" style=""width:200px; border:14px solid green;"">","null","","","","","","","","",""
"","image-keyboard-response","144","48892","0.0-144.0","3X4JMASXCNVCYEKLWV1799LUUZ40BL","A3DKM1KM4C4G05","3UUIU9GZC5R93N292LT21FRJ9VS5TN","","40","img/flower1.png","75","41","2","1","3","1","1,0.333,0.333,0.333,1,0.333,0.333,0.333,1","1,0.333,0.333,0.333,1,0.333,0.333,0.333,1","1",""
"","html-keyboard-response","145","49196","0.0-145.0","3X4JMASXCNVCYEKLWV1799LUUZ40BL","A3DKM1KM4C4G05","3UUIU9GZC5R93N292LT21FRJ9VS5TN","","null","<img src=""img/flower1.png"" style=""width:200px; border:14px solid green;"">","null","","","","","","","","",""
"","image-keyboard-response","146","49538","0.0-146.0","3X4JMASXCNVCYEKLWV1799LUUZ40BL","A3DKM1KM4C4G05","3UUIU9GZC5R93N292LT21FRJ9VS5TN","","340","img/flower2.png","76","342","3","0","1","1","1,0.333,0.333,0.333,1,0.333,0.333,0.333,1","1,0.333,0.333,0.333,1,0.333,0.333,0.333,1","1",""
"","html-keyboard-response","147","49841","0.0-147.0","3X4JMASXCNVCYEKLWV1799LUUZ40BL","A3DKM1KM4C4G05","3UUIU9GZC5R93N292LT21FRJ9VS5TN","","null","<img src=""img/flower2.png"" style=""width:200px;border:14px solid red;"">","null","","","","","","","","",""
"","image-keyboard-response","148","49882","0.0-148.0","3X4JMASXCNVCYEKLWV1799LUUZ40BL","A3DKM1KM4C4G05","3UUIU9GZC5R93N292LT21FRJ9VS5TN","","39","img/flower2.png","76","40.999999999992724","3","0","1","1","1,0.333,0.333,0.333,1,0.333,0.333,0.333,1","1,0.333,0.333,0.333,1,0.333,0.333,0.333,1","1",""
"","html-keyboard-response","149","50184","0.0-149.0","3X4JMASXCNVCYEKLWV1799LUUZ40BL","A3DKM1KM4C4G05","3UUIU9GZC5R93N292LT21FRJ9VS5TN","","null","<img src=""img/flower2.png"" style=""width:200px;border:14px solid red;"">","null","","","","","","","","",""
"","image-keyboard-response","150","50582","0.0-150.0","3X4JMASXCNVCYEKLWV1799LUUZ40BL","A3DKM1KM4C4G05","3UUIU9GZC5R93N292LT21FRJ9VS5TN","","397","img/flower5.png","75","398","2","1","2","1","1,0.333,0.333,0.333,1,0.333,0.333,0.333,1","1,0.333,0.333,0.333,1,0.333,0.333,0.333,1","1",""
"","html-keyboard-response","151","50883","0.0-151.0","3X4JMASXCNVCYEKLWV1799LUUZ40BL","A3DKM1KM4C4G05","3UUIU9GZC5R93N292LT21FRJ9VS5TN","","null","<img src=""img/flower5.png"" style=""width:200px; border:14px solid green;"">","null","","","","","","","","",""
"","image-keyboard-response","152","50955","0.0-152.0","3X4JMASXCNVCYEKLWV1799LUUZ40BL","A3DKM1KM4C4G05","3UUIU9GZC5R93N292LT21FRJ9VS5TN","","69","img/flower1.png","75","70","2","1","3","1","1,0.333,0.333,0.333,1,0.333,0.333,0.333,1","1,0.333,0.333,0.333,1,0.333,0.333,0.333,1","1",""
"","html-keyboard-response","153","51257","0.0-153.0","3X4JMASXCNVCYEKLWV1799LUUZ40BL","A3DKM1KM4C4G05","3UUIU9GZC5R93N292LT21FRJ9VS5TN","","null","<img src=""img/flower1.png"" style=""width:200px; border:14px solid green;"">","null","","","","","","","","",""
"","image-keyboard-response","154","51297","0.0-154.0","3X4JMASXCNVCYEKLWV1799LUUZ40BL","A3DKM1KM4C4G05","3UUIU9GZC5R93N292LT21FRJ9VS5TN","","38","img/flower1.png","75","40","2","0","3","1","1,0.333,0.333,0.333,1,0.333,0.333,0.333,1","1,0.333,0.333,0.333,1,0.333,0.333,0.333,1","1",""
"","html-keyboard-response","155","51600","0.0-155.0","3X4JMASXCNVCYEKLWV1799LUUZ40BL","A3DKM1KM4C4G05","3UUIU9GZC5R93N292LT21FRJ9VS5TN","","null","<img src=""img/flower1.png"" style=""width:200px;border:14px solid red;"">","null","","","","","","","","",""
"","image-keyboard-response","156","51728","0.0-156.0","3X4JMASXCNVCYEKLWV1799LUUZ40BL","A3DKM1KM4C4G05","3UUIU9GZC5R93N292LT21FRJ9VS5TN","","123.99999999999272","img/flower2.png","75","126.00000000000728","2","0","1","1","1,0.333,0.333,0.333,1,0.333,0.333,0.333,1","1,0.333,0.333,0.333,1,0.333,0.333,0.333,1","1",""
"","html-keyboard-response","157","52031","0.0-157.0","3X4JMASXCNVCYEKLWV1799LUUZ40BL","A3DKM1KM4C4G05","3UUIU9GZC5R93N292LT21FRJ9VS5TN","","null","<img src=""img/flower2.png"" style=""width:200px;border:14px solid red;"">","null","","","","","","","","",""
"","image-keyboard-response","158","52185","0.0-158.0","3X4JMASXCNVCYEKLWV1799LUUZ40BL","A3DKM1KM4C4G05","3UUIU9GZC5R93N292LT21FRJ9VS5TN","","150.99999999999272","img/flower5.png","74","153","1","0","2","1","1,0.333,0.333,0.333,1,0.333,0.333,0.333,1","1,0.333,0.333,0.333,1,0.333,0.333,0.333,1","1",""
"","html-keyboard-response","159","52488","0.0-159.0","3X4JMASXCNVCYEKLWV1799LUUZ40BL","A3DKM1KM4C4G05","3UUIU9GZC5R93N292LT21FRJ9VS5TN","","null","<img src=""img/flower5.png"" style=""width:200px;border:14px solid red;"">","null","","","","","","","","",""
"","image-keyboard-response","160","52578","0.0-160.0","3X4JMASXCNVCYEKLWV1799LUUZ40BL","A3DKM1KM4C4G05","3UUIU9GZC5R93N292LT21FRJ9VS5TN","","87","img/flower1.png","74","89","1","0","3","1","1,0.333,0.333,0.333,1,0.333,0.333,0.333,1","1,0.333,0.333,0.333,1,0.333,0.333,0.333,1","1",""
"","html-keyboard-response","161","52881","0.0-161.0","3X4JMASXCNVCYEKLWV1799LUUZ40BL","A3DKM1KM4C4G05","3UUIU9GZC5R93N292LT21FRJ9VS5TN","","null","<img src=""img/flower1.png"" style=""width:200px;border:14px solid red;"">","null","","","","","","","","",""
"","image-keyboard-response","162","53233","0.0-162.0","3X4JMASXCNVCYEKLWV1799LUUZ40BL","A3DKM1KM4C4G05","3UUIU9GZC5R93N292LT21FRJ9VS5TN","","349","img/flower2.png","75","352","2","1","1","1","1,0.333,0.333,0.333,1,0.333,0.333,0.333,1","1,0.333,0.333,0.333,1,0.333,0.333,0.333,1","1",""
"","html-keyboard-response","163","53537","0.0-163.0","3X4JMASXCNVCYEKLWV1799LUUZ40BL","A3DKM1KM4C4G05","3UUIU9GZC5R93N292LT21FRJ9VS5TN","","null","<img src=""img/flower2.png"" style=""width:200px; border:14px solid green;"">","null","","","","","","","","",""
"","image-keyboard-response","164","53645","0.0-164.0","3X4JMASXCNVCYEKLWV1799LUUZ40BL","A3DKM1KM4C4G05","3UUIU9GZC5R93N292LT21FRJ9VS5TN","","106","img/flower2.png","75","107","2","1","1","1","1,0.333,0.333,0.333,1,0.333,0.333,0.333,1","1,0.333,0.333,0.333,1,0.333,0.333,0.333,1","1",""
"","html-keyboard-response","165","53948","0.0-165.0","3X4JMASXCNVCYEKLWV1799LUUZ40BL","A3DKM1KM4C4G05","3UUIU9GZC5R93N292LT21FRJ9VS5TN","","null","<img src=""img/flower2.png"" style=""width:200px; border:14px solid green;"">","null","","","","","","","","",""
"","image-keyboard-response","166","54024","0.0-166.0","3X4JMASXCNVCYEKLWV1799LUUZ40BL","A3DKM1KM4C4G05","3UUIU9GZC5R93N292LT21FRJ9VS5TN","","74","img/flower1.png","75","75","2","0","3","1","1,0.333,0.333,0.333,1,0.333,0.333,0.333,1","1,0.333,0.333,0.333,1,0.333,0.333,0.333,1","1",""
"","html-keyboard-response","167","54327","0.0-167.0","3X4JMASXCNVCYEKLWV1799LUUZ40BL","A3DKM1KM4C4G05","3UUIU9GZC5R93N292LT21FRJ9VS5TN","","null","<img src=""img/flower1.png"" style=""width:200px;border:14px solid red;"">","null","","","","","","","","",""
"","image-keyboard-response","168","54461","0.0-168.0","3X4JMASXCNVCYEKLWV1799LUUZ40BL","A3DKM1KM4C4G05","3UUIU9GZC5R93N292LT21FRJ9VS5TN","","132.00000000000728","img/flower2.png","75","134","2","0","1","1","1,0.333,0.333,0.333,1,0.333,0.333,0.333,1","1,0.333,0.333,0.333,1,0.333,0.333,0.333,1","1",""
"","html-keyboard-response","169","54764","0.0-169.0","3X4JMASXCNVCYEKLWV1799LUUZ40BL","A3DKM1KM4C4G05","3UUIU9GZC5R93N292LT21FRJ9VS5TN","","null","<img src=""img/flower2.png"" style=""width:200px;border:14px solid red;"">","null","","","","","","","","",""
"","image-keyboard-response","170","54823","0.0-170.0","3X4JMASXCNVCYEKLWV1799LUUZ40BL","A3DKM1KM4C4G05","3UUIU9GZC5R93N292LT21FRJ9VS5TN","","56","img/flower2.png","76","57","3","0","1","1","1,0.333,0.333,0.333,1,0.333,0.333,0.333,1","1,0.333,0.333,0.333,1,0.333,0.333,0.333,1","1",""
"","html-keyboard-response","171","55126","0.0-171.0","3X4JMASXCNVCYEKLWV1799LUUZ40BL","A3DKM1KM4C4G05","3UUIU9GZC5R93N292LT21FRJ9VS5TN","","null","<img src=""img/flower2.png"" style=""width:200px;border:14px solid red;"">","null","","","","","","","","",""
"","image-keyboard-response","172","55189","0.0-172.0","3X4JMASXCNVCYEKLWV1799LUUZ40BL","A3DKM1KM4C4G05","3UUIU9GZC5R93N292LT21FRJ9VS5TN","","61","img/flower1.png","76","62","3","1","3","1","1,0.333,0.333,0.333,1,0.333,0.333,0.333,1","1,0.333,0.333,0.333,1,0.333,0.333,0.333,1","1",""
"","html-keyboard-response","173","55492","0.0-173.0","3X4JMASXCNVCYEKLWV1799LUUZ40BL","A3DKM1KM4C4G05","3UUIU9GZC5R93N292LT21FRJ9VS5TN","","null","<img src=""img/flower1.png"" style=""width:200px; border:14px solid green;"">","null","","","","","","","","",""
"","image-keyboard-response","174","55739","0.0-174.0","3X4JMASXCNVCYEKLWV1799LUUZ40BL","A3DKM1KM4C4G05","3UUIU9GZC5R93N292LT21FRJ9VS5TN","","246","img/flower1.png","76","247","3","1","3","1","1,0.333,0.333,0.333,1,0.333,0.333,0.333,1","1,0.333,0.333,0.333,1,0.333,0.333,0.333,1","1",""
"","html-keyboard-response","175","56042","0.0-175.0","3X4JMASXCNVCYEKLWV1799LUUZ40BL","A3DKM1KM4C4G05","3UUIU9GZC5R93N292LT21FRJ9VS5TN","","null","<img src=""img/flower1.png"" style=""width:200px; border:14px solid green;"">","null","","","","","","","","",""
"","image-keyboard-response","176","56067","0.0-176.0","3X4JMASXCNVCYEKLWV1799LUUZ40BL","A3DKM1KM4C4G05","3UUIU9GZC5R93N292LT21FRJ9VS5TN","","22","img/flower2.png","76","24.999999999992724","3","0","1","1","1,0.333,0.333,0.333,1,0.333,0.333,0.333,1","1,0.333,0.333,0.333,1,0.333,0.333,0.333,1","1",""
"","html-keyboard-response","177","56371","0.0-177.0","3X4JMASXCNVCYEKLWV1799LUUZ40BL","A3DKM1KM4C4G05","3UUIU9GZC5R93N292LT21FRJ9VS5TN","","null","<img src=""img/flower2.png"" style=""width:200px;border:14px solid red;"">","null","","","","","","","","",""
"","image-keyboard-response","178","56479","0.0-178.0","3X4JMASXCNVCYEKLWV1799LUUZ40BL","A3DKM1KM4C4G05","3UUIU9GZC5R93N292LT21FRJ9VS5TN","","107","img/flower1.png","76","108","3","1","3","1","1,0.333,0.333,0.333,1,0.333,0.333,0.333,1","1,0.333,0.333,0.333,1,0.333,0.333,0.333,1","1",""
"","html-keyboard-response","179","56782","0.0-179.0","3X4JMASXCNVCYEKLWV1799LUUZ40BL","A3DKM1KM4C4G05","3UUIU9GZC5R93N292LT21FRJ9VS5TN","","null","<img src=""img/flower1.png"" style=""width:200px; border:14px solid green;"">","null","","","","","","","","",""
"","image-keyboard-response","180","57034","0.0-180.0","3X4JMASXCNVCYEKLWV1799LUUZ40BL","A3DKM1KM4C4G05","3UUIU9GZC5R93N292LT21FRJ9VS5TN","","250","img/flower5.png","76","252","3","0","2","1","1,0.333,0.333,0.333,1,0.333,0.333,0.333,1","1,0.333,0.333,0.333,1,0.333,0.333,0.333,1","1",""
"","html-keyboard-response","181","57337","0.0-181.0","3X4JMASXCNVCYEKLWV1799LUUZ40BL","A3DKM1KM4C4G05","3UUIU9GZC5R93N292LT21FRJ9VS5TN","","null","<img src=""img/flower5.png"" style=""width:200px;border:14px solid red;"">","null","","","","","","","","",""
"","html-keyboard-response","182","59584","0.0-182.0","3X4JMASXCNVCYEKLWV1799LUUZ40BL","A3DKM1KM4C4G05","3UUIU9GZC5R93N292LT21FRJ9VS5TN","","","","","","","","","","","","",""
"","image-keyboard-response","183","61381","0.0-183.0","3X4JMASXCNVCYEKLWV1799LUUZ40BL","A3DKM1KM4C4G05","3UUIU9GZC5R93N292LT21FRJ9VS5TN","","1794.9999999999927","img/flower6.png","74","1797","1","1","3","2","1,0,0,1,1,0,1,0,1","1,0,0,1,1,0,1,0,1","1",""
"","html-keyboard-response","184","61684","0.0-184.0","3X4JMASXCNVCYEKLWV1799LUUZ40BL","A3DKM1KM4C4G05","3UUIU9GZC5R93N292LT21FRJ9VS5TN","","null","<img src=""img/flower6.png"" style=""width:200px; border:14px solid green;"">","null","","","","","","","","",""
"","image-keyboard-response","185","61844","0.0-185.0","3X4JMASXCNVCYEKLWV1799LUUZ40BL","A3DKM1KM4C4G05","3UUIU9GZC5R93N292LT21FRJ9VS5TN","","158.00000000000728","img/flower6.png","74","159.00000000000728","1","1","3","2","1,0,0,1,1,0,1,0,1","1,0,0,1,1,0,1,0,1","1",""
"","html-keyboard-response","186","62148","0.0-186.0","3X4JMASXCNVCYEKLWV1799LUUZ40BL","A3DKM1KM4C4G05","3UUIU9GZC5R93N292LT21FRJ9VS5TN","","null","<img src=""img/flower6.png"" style=""width:200px; border:14px solid green;"">","null","","","","","","","","",""
"","image-keyboard-response","187","62202","0.0-187.0","3X4JMASXCNVCYEKLWV1799LUUZ40BL","A3DKM1KM4C4G05","3UUIU9GZC5R93N292LT21FRJ9VS5TN","","52","img/flower3.png","74","54","1","1","2","2","1,0,0,1,1,0,1,0,1","1,0,0,1,1,0,1,0,1","1",""
"","html-keyboard-response","188","62506","0.0-188.0","3X4JMASXCNVCYEKLWV1799LUUZ40BL","A3DKM1KM4C4G05","3UUIU9GZC5R93N292LT21FRJ9VS5TN","","null","<img src=""img/flower3.png"" style=""width:200px; border:14px solid green;"">","null","","","","","","","","",""
"","image-keyboard-response","189","62775","0.0-189.0","3X4JMASXCNVCYEKLWV1799LUUZ40BL","A3DKM1KM4C4G05","3UUIU9GZC5R93N292LT21FRJ9VS5TN","","265.0000000000073","img/flower3.png","74","268","1","1","2","2","1,0,0,1,1,0,1,0,1","1,0,0,1,1,0,1,0,1","1",""
"","html-keyboard-response","190","63078","0.0-190.0","3X4JMASXCNVCYEKLWV1799LUUZ40BL","A3DKM1KM4C4G05","3UUIU9GZC5R93N292LT21FRJ9VS5TN","","null","<img src=""img/flower3.png"" style=""width:200px; border:14px solid green;"">","null","","","","","","","","",""
"","image-keyboard-response","191","63117","0.0-191.0","3X4JMASXCNVCYEKLWV1799LUUZ40BL","A3DKM1KM4C4G05","3UUIU9GZC5R93N292LT21FRJ9VS5TN","","38.000000000007276","img/flower3.png","74","39","1","1","2","2","1,0,0,1,1,0,1,0,1","1,0,0,1,1,0,1,0,1","1",""
"","html-keyboard-response","192","63420","0.0-192.0","3X4JMASXCNVCYEKLWV1799LUUZ40BL","A3DKM1KM4C4G05","3UUIU9GZC5R93N292LT21FRJ9VS5TN","","null","<img src=""img/flower3.png"" style=""width:200px; border:14px solid green;"">","null","","","","","","","","",""
"","image-keyboard-response","193","63450","0.0-193.0","3X4JMASXCNVCYEKLWV1799LUUZ40BL","A3DKM1KM4C4G05","3UUIU9GZC5R93N292LT21FRJ9VS5TN","","28.000000000007276","img/flower3.png","74","30","1","1","2","2","1,0,0,1,1,0,1,0,1","1,0,0,1,1,0,1,0,1","1",""
"","html-keyboard-response","194","63752","0.0-194.0","3X4JMASXCNVCYEKLWV1799LUUZ40BL","A3DKM1KM4C4G05","3UUIU9GZC5R93N292LT21FRJ9VS5TN","","null","<img src=""img/flower3.png"" style=""width:200px; border:14px solid green;"">","null","","","","","","","","",""
"","image-keyboard-response","195","64076","0.0-195.0","3X4JMASXCNVCYEKLWV1799LUUZ40BL","A3DKM1KM4C4G05","3UUIU9GZC5R93N292LT21FRJ9VS5TN","","321","img/flower4.png","74","323","1","1","1","2","1,0,0,1,1,0,1,0,1","1,0,0,1,1,0,1,0,1","1",""
"","html-keyboard-response","196","64379","0.0-196.0","3X4JMASXCNVCYEKLWV1799LUUZ40BL","A3DKM1KM4C4G05","3UUIU9GZC5R93N292LT21FRJ9VS5TN","","null","<img src=""img/flower4.png"" style=""width:200px; border:14px solid green;"">","null","","","","","","","","",""
"","image-keyboard-response","197","64467","0.0-197.0","3X4JMASXCNVCYEKLWV1799LUUZ40BL","A3DKM1KM4C4G05","3UUIU9GZC5R93N292LT21FRJ9VS5TN","","85","img/flower3.png","74","86","1","1","2","2","1,0,0,1,1,0,1,0,1","1,0,0,1,1,0,1,0,1","1",""
"","html-keyboard-response","198","64770","0.0-198.0","3X4JMASXCNVCYEKLWV1799LUUZ40BL","A3DKM1KM4C4G05","3UUIU9GZC5R93N292LT21FRJ9VS5TN","","null","<img src=""img/flower3.png"" style=""width:200px; border:14px solid green;"">","null","","","","","","","","",""
"","image-keyboard-response","199","64781","0.0-199.0","3X4JMASXCNVCYEKLWV1799LUUZ40BL","A3DKM1KM4C4G05","3UUIU9GZC5R93N292LT21FRJ9VS5TN","","8","img/flower4.png","74","11","1","1","1","2","1,0,0,1,1,0,1,0,1","1,0,0,1,1,0,1,0,1","1",""
"","html-keyboard-response","200","65084","0.0-200.0","3X4JMASXCNVCYEKLWV1799LUUZ40BL","A3DKM1KM4C4G05","3UUIU9GZC5R93N292LT21FRJ9VS5TN","","null","<img src=""img/flower4.png"" style=""width:200px; border:14px solid green;"">","null","","","","","","","","",""
"","image-keyboard-response","201","65134","0.0-201.0","3X4JMASXCNVCYEKLWV1799LUUZ40BL","A3DKM1KM4C4G05","3UUIU9GZC5R93N292LT21FRJ9VS5TN","","48","img/flower3.png","74","49","1","1","2","2","1,0,0,1,1,0,1,0,1","1,0,0,1,1,0,1,0,1","1",""
"","html-keyboard-response","202","65438","0.0-202.0","3X4JMASXCNVCYEKLWV1799LUUZ40BL","A3DKM1KM4C4G05","3UUIU9GZC5R93N292LT21FRJ9VS5TN","","null","<img src=""img/flower3.png"" style=""width:200px; border:14px solid green;"">","null","","","","","","","","",""
"","image-keyboard-response","203","65494","0.0-203.0","3X4JMASXCNVCYEKLWV1799LUUZ40BL","A3DKM1KM4C4G05","3UUIU9GZC5R93N292LT21FRJ9VS5TN","","53","img/flower3.png","74","55","1","1","2","2","1,0,0,1,1,0,1,0,1","1,0,0,1,1,0,1,0,1","1",""
"","html-keyboard-response","204","65797","0.0-204.0","3X4JMASXCNVCYEKLWV1799LUUZ40BL","A3DKM1KM4C4G05","3UUIU9GZC5R93N292LT21FRJ9VS5TN","","null","<img src=""img/flower3.png"" style=""width:200px; border:14px solid green;"">","null","","","","","","","","",""
"","image-keyboard-response","205","65822","0.0-205.0","3X4JMASXCNVCYEKLWV1799LUUZ40BL","A3DKM1KM4C4G05","3UUIU9GZC5R93N292LT21FRJ9VS5TN","","24","img/flower6.png","74","24","1","1","3","2","1,0,0,1,1,0,1,0,1","1,0,0,1,1,0,1,0,1","1",""
"","html-keyboard-response","206","66125","0.0-206.0","3X4JMASXCNVCYEKLWV1799LUUZ40BL","A3DKM1KM4C4G05","3UUIU9GZC5R93N292LT21FRJ9VS5TN","","null","<img src=""img/flower6.png"" style=""width:200px; border:14px solid green;"">","null","","","","","","","","",""
"","image-keyboard-response","207","66193","0.0-207.0","3X4JMASXCNVCYEKLWV1799LUUZ40BL","A3DKM1KM4C4G05","3UUIU9GZC5R93N292LT21FRJ9VS5TN","","65","img/flower3.png","74","66.99999999998545","1","1","2","2","1,0,0,1,1,0,1,0,1","1,0,0,1,1,0,1,0,1","1",""
"","html-keyboard-response","208","66497","0.0-208.0","3X4JMASXCNVCYEKLWV1799LUUZ40BL","A3DKM1KM4C4G05","3UUIU9GZC5R93N292LT21FRJ9VS5TN","","null","<img src=""img/flower3.png"" style=""width:200px; border:14px solid green;"">","null","","","","","","","","",""
"","image-keyboard-response","209","66512","0.0-209.0","3X4JMASXCNVCYEKLWV1799LUUZ40BL","A3DKM1KM4C4G05","3UUIU9GZC5R93N292LT21FRJ9VS5TN","","13.999999999985448","img/flower3.png","74","15","1","1","2","2","1,0,0,1,1,0,1,0,1","1,0,0,1,1,0,1,0,1","1",""
"","html-keyboard-response","210","66816","0.0-210.0","3X4JMASXCNVCYEKLWV1799LUUZ40BL","A3DKM1KM4C4G05","3UUIU9GZC5R93N292LT21FRJ9VS5TN","","null","<img src=""img/flower3.png"" style=""width:200px; border:14px solid green;"">","null","","","","","","","","",""
"","image-keyboard-response","211","66831","0.0-211.0","3X4JMASXCNVCYEKLWV1799LUUZ40BL","A3DKM1KM4C4G05","3UUIU9GZC5R93N292LT21FRJ9VS5TN","","12","img/flower4.png","74","15","1","1","1","2","1,0,0,1,1,0,1,0,1","1,0,0,1,1,0,1,0,1","1",""
"","html-keyboard-response","212","67133","0.0-212.0","3X4JMASXCNVCYEKLWV1799LUUZ40BL","A3DKM1KM4C4G05","3UUIU9GZC5R93N292LT21FRJ9VS5TN","","null","<img src=""img/flower4.png"" style=""width:200px; border:14px solid green;"">","null","","","","","","","","",""
"","image-keyboard-response","213","67148","0.0-213.0","3X4JMASXCNVCYEKLWV1799LUUZ40BL","A3DKM1KM4C4G05","3UUIU9GZC5R93N292LT21FRJ9VS5TN","","13.000000000014552","img/flower6.png","74","15","1","1","3","2","1,0,0,1,1,0,1,0,1","1,0,0,1,1,0,1,0,1","1",""
"","html-keyboard-response","214","67450","0.0-214.0","3X4JMASXCNVCYEKLWV1799LUUZ40BL","A3DKM1KM4C4G05","3UUIU9GZC5R93N292LT21FRJ9VS5TN","","null","<img src=""img/flower6.png"" style=""width:200px; border:14px solid green;"">","null","","","","","","","","",""
"","image-keyboard-response","215","67459","0.0-215.0","3X4JMASXCNVCYEKLWV1799LUUZ40BL","A3DKM1KM4C4G05","3UUIU9GZC5R93N292LT21FRJ9VS5TN","","8","img/flower3.png","74","9","1","1","2","2","1,0,0,1,1,0,1,0,1","1,0,0,1,1,0,1,0,1","1",""
"","html-keyboard-response","216","67761","0.0-216.0","3X4JMASXCNVCYEKLWV1799LUUZ40BL","A3DKM1KM4C4G05","3UUIU9GZC5R93N292LT21FRJ9VS5TN","","null","<img src=""img/flower3.png"" style=""width:200px; border:14px solid green;"">","null","","","","","","","","",""
"","image-keyboard-response","217","67767","0.0-217.0","3X4JMASXCNVCYEKLWV1799LUUZ40BL","A3DKM1KM4C4G05","3UUIU9GZC5R93N292LT21FRJ9VS5TN","","4.000000000014552","img/flower4.png","74","6","1","1","1","2","1,0,0,1,1,0,1,0,1","1,0,0,1,1,0,1,0,1","1",""
"","html-keyboard-response","218","68069","0.0-218.0","3X4JMASXCNVCYEKLWV1799LUUZ40BL","A3DKM1KM4C4G05","3UUIU9GZC5R93N292LT21FRJ9VS5TN","","null","<img src=""img/flower4.png"" style=""width:200px; border:14px solid green;"">","null","","","","","","","","",""
"","image-keyboard-response","219","68085","0.0-219.0","3X4JMASXCNVCYEKLWV1799LUUZ40BL","A3DKM1KM4C4G05","3UUIU9GZC5R93N292LT21FRJ9VS5TN","","14","img/flower3.png","74","16","1","1","2","2","1,0,0,1,1,0,1,0,1","1,0,0,1,1,0,1,0,1","1",""
"","html-keyboard-response","220","68387","0.0-220.0","3X4JMASXCNVCYEKLWV1799LUUZ40BL","A3DKM1KM4C4G05","3UUIU9GZC5R93N292LT21FRJ9VS5TN","","null","<img src=""img/flower3.png"" style=""width:200px; border:14px solid green;"">","null","","","","","","","","",""
"","image-keyboard-response","221","68401","0.0-221.0","3X4JMASXCNVCYEKLWV1799LUUZ40BL","A3DKM1KM4C4G05","3UUIU9GZC5R93N292LT21FRJ9VS5TN","","11","img/flower3.png","74","12.999999999985448","1","1","2","2","1,0,0,1,1,0,1,0,1","1,0,0,1,1,0,1,0,1","1",""
"","html-keyboard-response","222","68703","0.0-222.0","3X4JMASXCNVCYEKLWV1799LUUZ40BL","A3DKM1KM4C4G05","3UUIU9GZC5R93N292LT21FRJ9VS5TN","","null","<img src=""img/flower3.png"" style=""width:200px; border:14px solid green;"">","null","","","","","","","","",""
"","image-keyboard-response","223","68975","0.0-223.0","3X4JMASXCNVCYEKLWV1799LUUZ40BL","A3DKM1KM4C4G05","3UUIU9GZC5R93N292LT21FRJ9VS5TN","","269","img/flower4.png","74","271","1","1","1","2","1,0,0,1,1,0,1,0,1","1,0,0,1,1,0,1,0,1","1",""
"","html-keyboard-response","224","69279","0.0-224.0","3X4JMASXCNVCYEKLWV1799LUUZ40BL","A3DKM1KM4C4G05","3UUIU9GZC5R93N292LT21FRJ9VS5TN","","null","<img src=""img/flower4.png"" style=""width:200px; border:14px solid green;"">","null","","","","","","","","",""
"","image-keyboard-response","225","69571","0.0-225.0","3X4JMASXCNVCYEKLWV1799LUUZ40BL","A3DKM1KM4C4G05","3UUIU9GZC5R93N292LT21FRJ9VS5TN","","290","img/flower3.png","74","290","1","1","2","2","1,0,0,1,1,0,1,0,1","1,0,0,1,1,0,1,0,1","1",""
"","html-keyboard-response","226","69874","0.0-226.0","3X4JMASXCNVCYEKLWV1799LUUZ40BL","A3DKM1KM4C4G05","3UUIU9GZC5R93N292LT21FRJ9VS5TN","","null","<img src=""img/flower3.png"" style=""width:200px; border:14px solid green;"">","null","","","","","","","","",""
"","image-keyboard-response","227","70170","0.0-227.0","3X4JMASXCNVCYEKLWV1799LUUZ40BL","A3DKM1KM4C4G05","3UUIU9GZC5R93N292LT21FRJ9VS5TN","","294","img/flower6.png","74","296","1","1","3","2","1,0,0,1,1,0,1,0,1","1,0,0,1,1,0,1,0,1","1",""
"","html-keyboard-response","228","70472","0.0-228.0","3X4JMASXCNVCYEKLWV1799LUUZ40BL","A3DKM1KM4C4G05","3UUIU9GZC5R93N292LT21FRJ9VS5TN","","null","<img src=""img/flower6.png"" style=""width:200px; border:14px solid green;"">","null","","","","","","","","",""
"","image-keyboard-response","229","70523","0.0-229.0","3X4JMASXCNVCYEKLWV1799LUUZ40BL","A3DKM1KM4C4G05","3UUIU9GZC5R93N292LT21FRJ9VS5TN","","50","img/flower4.png","74","51","1","1","1","2","1,0,0,1,1,0,1,0,1","1,0,0,1,1,0,1,0,1","1",""
"","html-keyboard-response","230","70825","0.0-230.0","3X4JMASXCNVCYEKLWV1799LUUZ40BL","A3DKM1KM4C4G05","3UUIU9GZC5R93N292LT21FRJ9VS5TN","","null","<img src=""img/flower4.png"" style=""width:200px; border:14px solid green;"">","null","","","","","","","","",""
"","image-keyboard-response","231","70878","0.0-231.0","3X4JMASXCNVCYEKLWV1799LUUZ40BL","A3DKM1KM4C4G05","3UUIU9GZC5R93N292LT21FRJ9VS5TN","","51","img/flower4.png","74","52","1","1","1","2","1,0,0,1,1,0,1,0,1","1,0,0,1,1,0,1,0,1","1",""
"","html-keyboard-response","232","71181","0.0-232.0","3X4JMASXCNVCYEKLWV1799LUUZ40BL","A3DKM1KM4C4G05","3UUIU9GZC5R93N292LT21FRJ9VS5TN","","null","<img src=""img/flower4.png"" style=""width:200px; border:14px solid green;"">","null","","","","","","","","",""
"","image-keyboard-response","233","71208","0.0-233.0","3X4JMASXCNVCYEKLWV1799LUUZ40BL","A3DKM1KM4C4G05","3UUIU9GZC5R93N292LT21FRJ9VS5TN","","25","img/flower4.png","74","27","1","1","1","2","1,0,0,1,1,0,1,0,1","1,0,0,1,1,0,1,0,1","1",""
"","html-keyboard-response","234","71510","0.0-234.0","3X4JMASXCNVCYEKLWV1799LUUZ40BL","A3DKM1KM4C4G05","3UUIU9GZC5R93N292LT21FRJ9VS5TN","","null","<img src=""img/flower4.png"" style=""width:200px; border:14px solid green;"">","null","","","","","","","","",""
"","image-keyboard-response","235","71517","0.0-235.0","3X4JMASXCNVCYEKLWV1799LUUZ40BL","A3DKM1KM4C4G05","3UUIU9GZC5R93N292LT21FRJ9VS5TN","","5","img/flower6.png","74","6","1","1","3","2","1,0,0,1,1,0,1,0,1","1,0,0,1,1,0,1,0,1","1",""
"","html-keyboard-response","236","71819","0.0-236.0","3X4JMASXCNVCYEKLWV1799LUUZ40BL","A3DKM1KM4C4G05","3UUIU9GZC5R93N292LT21FRJ9VS5TN","","null","<img src=""img/flower6.png"" style=""width:200px; border:14px solid green;"">","null","","","","","","","","",""
"","image-keyboard-response","237","71853","0.0-237.0","3X4JMASXCNVCYEKLWV1799LUUZ40BL","A3DKM1KM4C4G05","3UUIU9GZC5R93N292LT21FRJ9VS5TN","","32","img/flower4.png","74","33","1","1","1","2","1,0,0,1,1,0,1,0,1","1,0,0,1,1,0,1,0,1","1",""
"","html-keyboard-response","238","72156","0.0-238.0","3X4JMASXCNVCYEKLWV1799LUUZ40BL","A3DKM1KM4C4G05","3UUIU9GZC5R93N292LT21FRJ9VS5TN","","null","<img src=""img/flower4.png"" style=""width:200px; border:14px solid green;"">","null","","","","","","","","",""
"","image-keyboard-response","239","72434","0.0-239.0","3X4JMASXCNVCYEKLWV1799LUUZ40BL","A3DKM1KM4C4G05","3UUIU9GZC5R93N292LT21FRJ9VS5TN","","276","img/flower6.png","74","278","1","1","3","2","1,0,0,1,1,0,1,0,1","1,0,0,1,1,0,1,0,1","1",""
"","html-keyboard-response","240","72737","0.0-240.0","3X4JMASXCNVCYEKLWV1799LUUZ40BL","A3DKM1KM4C4G05","3UUIU9GZC5R93N292LT21FRJ9VS5TN","","null","<img src=""img/flower6.png"" style=""width:200px; border:14px solid green;"">","null","","","","","","","","",""
"","image-keyboard-response","241","72758","0.0-241.0","3X4JMASXCNVCYEKLWV1799LUUZ40BL","A3DKM1KM4C4G05","3UUIU9GZC5R93N292LT21FRJ9VS5TN","","18","img/flower3.png","74","19","1","1","2","2","1,0,0,1,1,0,1,0,1","1,0,0,1,1,0,1,0,1","1",""
"","html-keyboard-response","242","73060","0.0-242.0","3X4JMASXCNVCYEKLWV1799LUUZ40BL","A3DKM1KM4C4G05","3UUIU9GZC5R93N292LT21FRJ9VS5TN","","null","<img src=""img/flower3.png"" style=""width:200px; border:14px solid green;"">","null","","","","","","","","",""
"","image-keyboard-response","243","73068","0.0-243.0","3X4JMASXCNVCYEKLWV1799LUUZ40BL","A3DKM1KM4C4G05","3UUIU9GZC5R93N292LT21FRJ9VS5TN","","7","img/flower4.png","74","8","1","1","1","2","1,0,0,1,1,0,1,0,1","1,0,0,1,1,0,1,0,1","1",""
"","html-keyboard-response","244","73369","0.0-244.0","3X4JMASXCNVCYEKLWV1799LUUZ40BL","A3DKM1KM4C4G05","3UUIU9GZC5R93N292LT21FRJ9VS5TN","","null","<img src=""img/flower4.png"" style=""width:200px; border:14px solid green;"">","null","","","","","","","","",""
"","image-keyboard-response","245","73376","0.0-245.0","3X4JMASXCNVCYEKLWV1799LUUZ40BL","A3DKM1KM4C4G05","3UUIU9GZC5R93N292LT21FRJ9VS5TN","","5.000000000014552","img/flower3.png","74","6","1","1","2","2","1,0,0,1,1,0,1,0,1","1,0,0,1,1,0,1,0,1","1",""
"","html-keyboard-response","246","73679","0.0-246.0","3X4JMASXCNVCYEKLWV1799LUUZ40BL","A3DKM1KM4C4G05","3UUIU9GZC5R93N292LT21FRJ9VS5TN","","null","<img src=""img/flower3.png"" style=""width:200px; border:14px solid green;"">","null","","","","","","","","",""
"","image-keyboard-response","247","73685","0.0-247.0","3X4JMASXCNVCYEKLWV1799LUUZ40BL","A3DKM1KM4C4G05","3UUIU9GZC5R93N292LT21FRJ9VS5TN","","4","img/flower4.png","74","6","1","1","1","2","1,0,0,1,1,0,1,0,1","1,0,0,1,1,0,1,0,1","1",""
"","html-keyboard-response","248","73986","0.0-248.0","3X4JMASXCNVCYEKLWV1799LUUZ40BL","A3DKM1KM4C4G05","3UUIU9GZC5R93N292LT21FRJ9VS5TN","","null","<img src=""img/flower4.png"" style=""width:200px; border:14px solid green;"">","null","","","","","","","","",""
"","image-keyboard-response","249","74008","0.0-249.0","3X4JMASXCNVCYEKLWV1799LUUZ40BL","A3DKM1KM4C4G05","3UUIU9GZC5R93N292LT21FRJ9VS5TN","","21","img/flower6.png","74","22","1","1","3","2","1,0,0,1,1,0,1,0,1","1,0,0,1,1,0,1,0,1","1",""
"","html-keyboard-response","250","74310","0.0-250.0","3X4JMASXCNVCYEKLWV1799LUUZ40BL","A3DKM1KM4C4G05","3UUIU9GZC5R93N292LT21FRJ9VS5TN","","null","<img src=""img/flower6.png"" style=""width:200px; border:14px solid green;"">","null","","","","","","","","",""
"","image-keyboard-response","251","74333","0.0-251.0","3X4JMASXCNVCYEKLWV1799LUUZ40BL","A3DKM1KM4C4G05","3UUIU9GZC5R93N292LT21FRJ9VS5TN","","21","img/flower3.png","74","23","1","1","2","2","1,0,0,1,1,0,1,0,1","1,0,0,1,1,0,1,0,1","1",""
"","html-keyboard-response","252","74636","0.0-252.0","3X4JMASXCNVCYEKLWV1799LUUZ40BL","A3DKM1KM4C4G05","3UUIU9GZC5R93N292LT21FRJ9VS5TN","","null","<img src=""img/flower3.png"" style=""width:200px; border:14px solid green;"">","null","","","","","","","","",""
"","image-keyboard-response","253","74652","0.0-253.0","3X4JMASXCNVCYEKLWV1799LUUZ40BL","A3DKM1KM4C4G05","3UUIU9GZC5R93N292LT21FRJ9VS5TN","","13.999999999985448","img/flower4.png","74","16","1","1","1","2","1,0,0,1,1,0,1,0,1","1,0,0,1,1,0,1,0,1","1",""
"","html-keyboard-response","254","74955","0.0-254.0","3X4JMASXCNVCYEKLWV1799LUUZ40BL","A3DKM1KM4C4G05","3UUIU9GZC5R93N292LT21FRJ9VS5TN","","null","<img src=""img/flower4.png"" style=""width:200px; border:14px solid green;"">","null","","","","","","","","",""
"","image-keyboard-response","255","75235","0.0-255.0","3X4JMASXCNVCYEKLWV1799LUUZ40BL","A3DKM1KM4C4G05","3UUIU9GZC5R93N292LT21FRJ9VS5TN","","279","img/flower6.png","74","282","1","1","3","2","1,0,0,1,1,0,1,0,1","1,0,0,1,1,0,1,0,1","1",""
"","html-keyboard-response","256","75540","0.0-256.0","3X4JMASXCNVCYEKLWV1799LUUZ40BL","A3DKM1KM4C4G05","3UUIU9GZC5R93N292LT21FRJ9VS5TN","","null","<img src=""img/flower6.png"" style=""width:200px; border:14px solid green;"">","null","","","","","","","","",""
"","image-keyboard-response","257","75594","0.0-257.0","3X4JMASXCNVCYEKLWV1799LUUZ40BL","A3DKM1KM4C4G05","3UUIU9GZC5R93N292LT21FRJ9VS5TN","","51","img/flower3.png","74","53","1","1","2","2","1,0,0,1,1,0,1,0,1","1,0,0,1,1,0,1,0,1","1",""
"","html-keyboard-response","258","75895","0.0-258.0","3X4JMASXCNVCYEKLWV1799LUUZ40BL","A3DKM1KM4C4G05","3UUIU9GZC5R93N292LT21FRJ9VS5TN","","null","<img src=""img/flower3.png"" style=""width:200px; border:14px solid green;"">","null","","","","","","","","",""
"","image-keyboard-response","259","76178","0.0-259.0","3X4JMASXCNVCYEKLWV1799LUUZ40BL","A3DKM1KM4C4G05","3UUIU9GZC5R93N292LT21FRJ9VS5TN","","279.99999999998545","img/flower6.png","74","282","1","1","3","2","1,0,0,1,1,0,1,0,1","1,0,0,1,1,0,1,0,1","1",""
"","html-keyboard-response","260","76480","0.0-260.0","3X4JMASXCNVCYEKLWV1799LUUZ40BL","A3DKM1KM4C4G05","3UUIU9GZC5R93N292LT21FRJ9VS5TN","","null","<img src=""img/flower6.png"" style=""width:200px; border:14px solid green;"">","null","","","","","","","","",""
"","image-keyboard-response","261","76486","0.0-261.0","3X4JMASXCNVCYEKLWV1799LUUZ40BL","A3DKM1KM4C4G05","3UUIU9GZC5R93N292LT21FRJ9VS5TN","","4","img/flower3.png","74","5","1","1","2","2","1,0,0,1,1,0,1,0,1","1,0,0,1,1,0,1,0,1","1",""
"","html-keyboard-response","262","76788","0.0-262.0","3X4JMASXCNVCYEKLWV1799LUUZ40BL","A3DKM1KM4C4G05","3UUIU9GZC5R93N292LT21FRJ9VS5TN","","null","<img src=""img/flower3.png"" style=""width:200px; border:14px solid green;"">","null","","","","","","","","",""
"","image-keyboard-response","263","76790","0.0-263.0","3X4JMASXCNVCYEKLWV1799LUUZ40BL","A3DKM1KM4C4G05","3UUIU9GZC5R93N292LT21FRJ9VS5TN","","0","img/flower6.png","74","2","1","1","3","2","1,0,0,1,1,0,1,0,1","1,0,0,1,1,0,1,0,1","1",""
"","html-keyboard-response","264","77092","0.0-264.0","3X4JMASXCNVCYEKLWV1799LUUZ40BL","A3DKM1KM4C4G05","3UUIU9GZC5R93N292LT21FRJ9VS5TN","","null","<img src=""img/flower6.png"" style=""width:200px; border:14px solid green;"">","null","","","","","","","","",""
"","image-keyboard-response","265","77108","0.0-265.0","3X4JMASXCNVCYEKLWV1799LUUZ40BL","A3DKM1KM4C4G05","3UUIU9GZC5R93N292LT21FRJ9VS5TN","","14","img/flower3.png","74","16","1","1","2","2","1,0,0,1,1,0,1,0,1","1,0,0,1,1,0,1,0,1","1",""
"","html-keyboard-response","266","77410","0.0-266.0","3X4JMASXCNVCYEKLWV1799LUUZ40BL","A3DKM1KM4C4G05","3UUIU9GZC5R93N292LT21FRJ9VS5TN","","null","<img src=""img/flower3.png"" style=""width:200px; border:14px solid green;"">","null","","","","","","","","",""
"","image-keyboard-response","267","77439","0.0-267.0","3X4JMASXCNVCYEKLWV1799LUUZ40BL","A3DKM1KM4C4G05","3UUIU9GZC5R93N292LT21FRJ9VS5TN","","26","img/flower6.png","74","28","1","1","3","2","1,0,0,1,1,0,1,0,1","1,0,0,1,1,0,1,0,1","1",""
"","html-keyboard-response","268","77742","0.0-268.0","3X4JMASXCNVCYEKLWV1799LUUZ40BL","A3DKM1KM4C4G05","3UUIU9GZC5R93N292LT21FRJ9VS5TN","","null","<img src=""img/flower6.png"" style=""width:200px; border:14px solid green;"">","null","","","","","","","","",""
"","image-keyboard-response","269","77746","0.0-269.0","3X4JMASXCNVCYEKLWV1799LUUZ40BL","A3DKM1KM4C4G05","3UUIU9GZC5R93N292LT21FRJ9VS5TN","","2.000000000014552","img/flower3.png","74","3.999999999985448","1","1","2","2","1,0,0,1,1,0,1,0,1","1,0,0,1,1,0,1,0,1","1",""
"","html-keyboard-response","270","78048","0.0-270.0","3X4JMASXCNVCYEKLWV1799LUUZ40BL","A3DKM1KM4C4G05","3UUIU9GZC5R93N292LT21FRJ9VS5TN","","null","<img src=""img/flower3.png"" style=""width:200px; border:14px solid green;"">","null","","","","","","","","",""
"","image-keyboard-response","271","78055","0.0-271.0","3X4JMASXCNVCYEKLWV1799LUUZ40BL","A3DKM1KM4C4G05","3UUIU9GZC5R93N292LT21FRJ9VS5TN","","5","img/flower3.png","74","6","1","1","2","2","1,0,0,1,1,0,1,0,1","1,0,0,1,1,0,1,0,1","1",""
"","html-keyboard-response","272","78358","0.0-272.0","3X4JMASXCNVCYEKLWV1799LUUZ40BL","A3DKM1KM4C4G05","3UUIU9GZC5R93N292LT21FRJ9VS5TN","","null","<img src=""img/flower3.png"" style=""width:200px; border:14px solid green;"">","null","","","","","","","","",""
"","image-keyboard-response","273","78392","0.0-273.0","3X4JMASXCNVCYEKLWV1799LUUZ40BL","A3DKM1KM4C4G05","3UUIU9GZC5R93N292LT21FRJ9VS5TN","","33","img/flower4.png","74","34","1","1","1","2","1,0,0,1,1,0,1,0,1","1,0,0,1,1,0,1,0,1","1",""
"","html-keyboard-response","274","78693","0.0-274.0","3X4JMASXCNVCYEKLWV1799LUUZ40BL","A3DKM1KM4C4G05","3UUIU9GZC5R93N292LT21FRJ9VS5TN","","null","<img src=""img/flower4.png"" style=""width:200px; border:14px solid green;"">","null","","","","","","","","",""
"","image-keyboard-response","275","79029","0.0-275.0","3X4JMASXCNVCYEKLWV1799LUUZ40BL","A3DKM1KM4C4G05","3UUIU9GZC5R93N292LT21FRJ9VS5TN","","334.00000000001455","img/flower4.png","74","336","1","1","1","2","1,0,0,1,1,0,1,0,1","1,0,0,1,1,0,1,0,1","1",""
"","html-keyboard-response","276","79332","0.0-276.0","3X4JMASXCNVCYEKLWV1799LUUZ40BL","A3DKM1KM4C4G05","3UUIU9GZC5R93N292LT21FRJ9VS5TN","","null","<img src=""img/flower4.png"" style=""width:200px; border:14px solid green;"">","null","","","","","","","","",""
"","image-keyboard-response","277","79345","0.0-277.0","3X4JMASXCNVCYEKLWV1799LUUZ40BL","A3DKM1KM4C4G05","3UUIU9GZC5R93N292LT21FRJ9VS5TN","","10","img/flower4.png","74","14","1","1","1","2","1,0,0,1,1,0,1,0,1","1,0,0,1,1,0,1,0,1","1",""
"","html-keyboard-response","278","79648","0.0-278.0","3X4JMASXCNVCYEKLWV1799LUUZ40BL","A3DKM1KM4C4G05","3UUIU9GZC5R93N292LT21FRJ9VS5TN","","null","<img src=""img/flower4.png"" style=""width:200px; border:14px solid green;"">","null","","","","","","","","",""
"","image-keyboard-response","279","79656","0.0-279.0","3X4JMASXCNVCYEKLWV1799LUUZ40BL","A3DKM1KM4C4G05","3UUIU9GZC5R93N292LT21FRJ9VS5TN","","7","img/flower4.png","74","7","1","1","1","2","1,0,0,1,1,0,1,0,1","1,0,0,1,1,0,1,0,1","1",""
"","html-keyboard-response","280","79958","0.0-280.0","3X4JMASXCNVCYEKLWV1799LUUZ40BL","A3DKM1KM4C4G05","3UUIU9GZC5R93N292LT21FRJ9VS5TN","","null","<img src=""img/flower4.png"" style=""width:200px; border:14px solid green;"">","null","","","","","","","","",""
"","image-keyboard-response","281","80277","0.0-281.0","3X4JMASXCNVCYEKLWV1799LUUZ40BL","A3DKM1KM4C4G05","3UUIU9GZC5R93N292LT21FRJ9VS5TN","","317","img/flower6.png","74","318","1","1","3","2","1,0,0,1,1,0,1,0,1","1,0,0,1,1,0,1,0,1","1",""
"","html-keyboard-response","282","80580","0.0-282.0","3X4JMASXCNVCYEKLWV1799LUUZ40BL","A3DKM1KM4C4G05","3UUIU9GZC5R93N292LT21FRJ9VS5TN","","null","<img src=""img/flower6.png"" style=""width:200px; border:14px solid green;"">","null","","","","","","","","",""
"","image-keyboard-response","283","80628","0.0-283.0","3X4JMASXCNVCYEKLWV1799LUUZ40BL","A3DKM1KM4C4G05","3UUIU9GZC5R93N292LT21FRJ9VS5TN","","45","img/flower4.png","74","46","1","1","1","2","1,0,0,1,1,0,1,0,1","1,0,0,1,1,0,1,0,1","1",""
"","html-keyboard-response","284","80932","0.0-284.0","3X4JMASXCNVCYEKLWV1799LUUZ40BL","A3DKM1KM4C4G05","3UUIU9GZC5R93N292LT21FRJ9VS5TN","","null","<img src=""img/flower4.png"" style=""width:200px; border:14px solid green;"">","null","","","","","","","","",""
"","image-keyboard-response","285","80939","0.0-285.0","3X4JMASXCNVCYEKLWV1799LUUZ40BL","A3DKM1KM4C4G05","3UUIU9GZC5R93N292LT21FRJ9VS5TN","","6","img/flower6.png","74","7","1","1","3","2","1,0,0,1,1,0,1,0,1","1,0,0,1,1,0,1,0,1","1",""
"","html-keyboard-response","286","81241","0.0-286.0","3X4JMASXCNVCYEKLWV1799LUUZ40BL","A3DKM1KM4C4G05","3UUIU9GZC5R93N292LT21FRJ9VS5TN","","null","<img src=""img/flower6.png"" style=""width:200px; border:14px solid green;"">","null","","","","","","","","",""
"","image-keyboard-response","287","81266","0.0-287.0","3X4JMASXCNVCYEKLWV1799LUUZ40BL","A3DKM1KM4C4G05","3UUIU9GZC5R93N292LT21FRJ9VS5TN","","22","img/flower6.png","74","24","1","1","3","2","1,0,0,1,1,0,1,0,1","1,0,0,1,1,0,1,0,1","1",""
"","html-keyboard-response","288","81569","0.0-288.0","3X4JMASXCNVCYEKLWV1799LUUZ40BL","A3DKM1KM4C4G05","3UUIU9GZC5R93N292LT21FRJ9VS5TN","","null","<img src=""img/flower6.png"" style=""width:200px; border:14px solid green;"">","null","","","","","","","","",""
"","image-keyboard-response","289","81592","0.0-289.0","3X4JMASXCNVCYEKLWV1799LUUZ40BL","A3DKM1KM4C4G05","3UUIU9GZC5R93N292LT21FRJ9VS5TN","","20","img/flower6.png","74","22","1","1","3","2","1,0,0,1,1,0,1,0,1","1,0,0,1,1,0,1,0,1","1",""
"","html-keyboard-response","290","81895","0.0-290.0","3X4JMASXCNVCYEKLWV1799LUUZ40BL","A3DKM1KM4C4G05","3UUIU9GZC5R93N292LT21FRJ9VS5TN","","null","<img src=""img/flower6.png"" style=""width:200px; border:14px solid green;"">","null","","","","","","","","",""
"","image-keyboard-response","291","81917","0.0-291.0","3X4JMASXCNVCYEKLWV1799LUUZ40BL","A3DKM1KM4C4G05","3UUIU9GZC5R93N292LT21FRJ9VS5TN","","21","img/flower3.png","74","22","1","1","2","2","1,0,0,1,1,0,1,0,1","1,0,0,1,1,0,1,0,1","1",""
"","html-keyboard-response","292","82220","0.0-292.0","3X4JMASXCNVCYEKLWV1799LUUZ40BL","A3DKM1KM4C4G05","3UUIU9GZC5R93N292LT21FRJ9VS5TN","","null","<img src=""img/flower3.png"" style=""width:200px; border:14px solid green;"">","null","","","","","","","","",""
"","image-keyboard-response","293","82226","0.0-293.0","3X4JMASXCNVCYEKLWV1799LUUZ40BL","A3DKM1KM4C4G05","3UUIU9GZC5R93N292LT21FRJ9VS5TN","","3","img/flower3.png","74","5","1","1","2","2","1,0,0,1,1,0,1,0,1","1,0,0,1,1,0,1,0,1","1",""
"","html-keyboard-response","294","82527","0.0-294.0","3X4JMASXCNVCYEKLWV1799LUUZ40BL","A3DKM1KM4C4G05","3UUIU9GZC5R93N292LT21FRJ9VS5TN","","null","<img src=""img/flower3.png"" style=""width:200px; border:14px solid green;"">","null","","","","","","","","",""
"","image-keyboard-response","295","82550","0.0-295.0","3X4JMASXCNVCYEKLWV1799LUUZ40BL","A3DKM1KM4C4G05","3UUIU9GZC5R93N292LT21FRJ9VS5TN","","21.999999999985448","img/flower4.png","74","23","1","1","1","2","1,0,0,1,1,0,1,0,1","1,0,0,1,1,0,1,0,1","1",""
"","html-keyboard-response","296","82851","0.0-296.0","3X4JMASXCNVCYEKLWV1799LUUZ40BL","A3DKM1KM4C4G05","3UUIU9GZC5R93N292LT21FRJ9VS5TN","","null","<img src=""img/flower4.png"" style=""width:200px; border:14px solid green;"">","null","","","","","","","","",""
"","image-keyboard-response","297","82874","0.0-297.0","3X4JMASXCNVCYEKLWV1799LUUZ40BL","A3DKM1KM4C4G05","3UUIU9GZC5R93N292LT21FRJ9VS5TN","","22","img/flower6.png","74","22","1","1","3","2","1,0,0,1,1,0,1,0,1","1,0,0,1,1,0,1,0,1","1",""
"","html-keyboard-response","298","83176","0.0-298.0","3X4JMASXCNVCYEKLWV1799LUUZ40BL","A3DKM1KM4C4G05","3UUIU9GZC5R93N292LT21FRJ9VS5TN","","null","<img src=""img/flower6.png"" style=""width:200px; border:14px solid green;"">","null","","","","","","","","",""
"","image-keyboard-response","299","83182","0.0-299.0","3X4JMASXCNVCYEKLWV1799LUUZ40BL","A3DKM1KM4C4G05","3UUIU9GZC5R93N292LT21FRJ9VS5TN","","4","img/flower4.png","74","6","1","1","1","2","1,0,0,1,1,0,1,0,1","1,0,0,1,1,0,1,0,1","1",""
"","html-keyboard-response","300","83484","0.0-300.0","3X4JMASXCNVCYEKLWV1799LUUZ40BL","A3DKM1KM4C4G05","3UUIU9GZC5R93N292LT21FRJ9VS5TN","","null","<img src=""img/flower4.png"" style=""width:200px; border:14px solid green;"">","null","","","","","","","","",""
"","image-keyboard-response","301","83514","0.0-301.0","3X4JMASXCNVCYEKLWV1799LUUZ40BL","A3DKM1KM4C4G05","3UUIU9GZC5R93N292LT21FRJ9VS5TN","","28","img/flower6.png","74","31.000000000014552","1","1","3","2","1,0,0,1,1,0,1,0,1","1,0,0,1,1,0,1,0,1","1",""
"","html-keyboard-response","302","83820","0.0-302.0","3X4JMASXCNVCYEKLWV1799LUUZ40BL","A3DKM1KM4C4G05","3UUIU9GZC5R93N292LT21FRJ9VS5TN","","null","<img src=""img/flower6.png"" style=""width:200px; border:14px solid green;"">","null","","","","","","","","",""
"","image-keyboard-response","303","83825","0.0-303.0","3X4JMASXCNVCYEKLWV1799LUUZ40BL","A3DKM1KM4C4G05","3UUIU9GZC5R93N292LT21FRJ9VS5TN","","3","img/flower4.png","74","4","1","1","1","2","1,0,0,1,1,0,1,0,1","1,0,0,1,1,0,1,0,1","1",""
"","html-keyboard-response","304","84127","0.0-304.0","3X4JMASXCNVCYEKLWV1799LUUZ40BL","A3DKM1KM4C4G05","3UUIU9GZC5R93N292LT21FRJ9VS5TN","","null","<img src=""img/flower4.png"" style=""width:200px; border:14px solid green;"">","null","","","","","","","","",""
"","image-keyboard-response","305","84136","0.0-305.0","3X4JMASXCNVCYEKLWV1799LUUZ40BL","A3DKM1KM4C4G05","3UUIU9GZC5R93N292LT21FRJ9VS5TN","","6.999999999985448","img/flower4.png","74","8","1","1","1","2","1,0,0,1,1,0,1,0,1","1,0,0,1,1,0,1,0,1","1",""
"","html-keyboard-response","306","84438","0.0-306.0","3X4JMASXCNVCYEKLWV1799LUUZ40BL","A3DKM1KM4C4G05","3UUIU9GZC5R93N292LT21FRJ9VS5TN","","null","<img src=""img/flower4.png"" style=""width:200px; border:14px solid green;"">","null","","","","","","","","",""
"","image-keyboard-response","307","84439","0.0-307.0","3X4JMASXCNVCYEKLWV1799LUUZ40BL","A3DKM1KM4C4G05","3UUIU9GZC5R93N292LT21FRJ9VS5TN","","0","img/flower6.png","74","1","1","1","3","2","1,0,0,1,1,0,1,0,1","1,0,0,1,1,0,1,0,1","1",""
"","html-keyboard-response","308","84741","0.0-308.0","3X4JMASXCNVCYEKLWV1799LUUZ40BL","A3DKM1KM4C4G05","3UUIU9GZC5R93N292LT21FRJ9VS5TN","","null","<img src=""img/flower6.png"" style=""width:200px; border:14px solid green;"">","null","","","","","","","","",""
"","image-keyboard-response","309","85007","0.0-309.0","3X4JMASXCNVCYEKLWV1799LUUZ40BL","A3DKM1KM4C4G05","3UUIU9GZC5R93N292LT21FRJ9VS5TN","","263","img/flower6.png","74","265","1","1","3","2","1,0,0,1,1,0,1,0,1","1,0,0,1,1,0,1,0,1","1",""
"","html-keyboard-response","310","85310","0.0-310.0","3X4JMASXCNVCYEKLWV1799LUUZ40BL","A3DKM1KM4C4G05","3UUIU9GZC5R93N292LT21FRJ9VS5TN","","null","<img src=""img/flower6.png"" style=""width:200px; border:14px solid green;"">","null","","","","","","","","",""
"","image-keyboard-response","311","85313","0.0-311.0","3X4JMASXCNVCYEKLWV1799LUUZ40BL","A3DKM1KM4C4G05","3UUIU9GZC5R93N292LT21FRJ9VS5TN","","1","img/flower3.png","74","3","1","1","2","2","1,0,0,1,1,0,1,0,1","1,0,0,1,1,0,1,0,1","1",""
"","html-keyboard-response","312","85614","0.0-312.0","3X4JMASXCNVCYEKLWV1799LUUZ40BL","A3DKM1KM4C4G05","3UUIU9GZC5R93N292LT21FRJ9VS5TN","","null","<img src=""img/flower3.png"" style=""width:200px; border:14px solid green;"">","null","","","","","","","","",""
"","image-keyboard-response","313","85918","0.0-313.0","3X4JMASXCNVCYEKLWV1799LUUZ40BL","A3DKM1KM4C4G05","3UUIU9GZC5R93N292LT21FRJ9VS5TN","","302","img/flower6.png","74","303","1","1","3","2","1,0,0,1,1,0,1,0,1","1,0,0,1,1,0,1,0,1","1",""
"","html-keyboard-response","314","86220","0.0-314.0","3X4JMASXCNVCYEKLWV1799LUUZ40BL","A3DKM1KM4C4G05","3UUIU9GZC5R93N292LT21FRJ9VS5TN","","null","<img src=""img/flower6.png"" style=""width:200px; border:14px solid green;"">","null","","","","","","","","",""
"","image-keyboard-response","315","86241","0.0-315.0","3X4JMASXCNVCYEKLWV1799LUUZ40BL","A3DKM1KM4C4G05","3UUIU9GZC5R93N292LT21FRJ9VS5TN","","19","img/flower6.png","74","20","1","1","3","2","1,0,0,1,1,0,1,0,1","1,0,0,1,1,0,1,0,1","1",""
"","html-keyboard-response","316","86545","0.0-316.0","3X4JMASXCNVCYEKLWV1799LUUZ40BL","A3DKM1KM4C4G05","3UUIU9GZC5R93N292LT21FRJ9VS5TN","","null","<img src=""img/flower6.png"" style=""width:200px; border:14px solid green;"">","null","","","","","","","","",""
"","image-keyboard-response","317","86548","0.0-317.0","3X4JMASXCNVCYEKLWV1799LUUZ40BL","A3DKM1KM4C4G05","3UUIU9GZC5R93N292LT21FRJ9VS5TN","","2","img/flower6.png","74","3","1","1","3","2","1,0,0,1,1,0,1,0,1","1,0,0,1,1,0,1,0,1","1",""
"","html-keyboard-response","318","86851","0.0-318.0","3X4JMASXCNVCYEKLWV1799LUUZ40BL","A3DKM1KM4C4G05","3UUIU9GZC5R93N292LT21FRJ9VS5TN","","null","<img src=""img/flower6.png"" style=""width:200px; border:14px solid green;"">","null","","","","","","","","",""
"","image-keyboard-response","319","87128","0.0-319.0","3X4JMASXCNVCYEKLWV1799LUUZ40BL","A3DKM1KM4C4G05","3UUIU9GZC5R93N292LT21FRJ9VS5TN","","273","img/flower4.png","74","277","1","1","1","2","1,0,0,1,1,0,1,0,1","1,0,0,1,1,0,1,0,1","1",""
"","html-keyboard-response","320","87431","0.0-320.0","3X4JMASXCNVCYEKLWV1799LUUZ40BL","A3DKM1KM4C4G05","3UUIU9GZC5R93N292LT21FRJ9VS5TN","","null","<img src=""img/flower4.png"" style=""width:200px; border:14px solid green;"">","null","","","","","","","","",""
"","image-keyboard-response","321","87436","0.0-321.0","3X4JMASXCNVCYEKLWV1799LUUZ40BL","A3DKM1KM4C4G05","3UUIU9GZC5R93N292LT21FRJ9VS5TN","","1","img/flower3.png","74","3","1","1","2","2","1,0,0,1,1,0,1,0,1","1,0,0,1,1,0,1,0,1","1",""
"","html-keyboard-response","322","87738","0.0-322.0","3X4JMASXCNVCYEKLWV1799LUUZ40BL","A3DKM1KM4C4G05","3UUIU9GZC5R93N292LT21FRJ9VS5TN","","null","<img src=""img/flower3.png"" style=""width:200px; border:14px solid green;"">","null","","","","","","","","",""
"","image-keyboard-response","323","87793","0.0-323.0","3X4JMASXCNVCYEKLWV1799LUUZ40BL","A3DKM1KM4C4G05","3UUIU9GZC5R93N292LT21FRJ9VS5TN","","52","img/flower3.png","74","54","1","1","2","2","1,0,0,1,1,0,1,0,1","1,0,0,1,1,0,1,0,1","1",""
"","html-keyboard-response","324","88096","0.0-324.0","3X4JMASXCNVCYEKLWV1799LUUZ40BL","A3DKM1KM4C4G05","3UUIU9GZC5R93N292LT21FRJ9VS5TN","","null","<img src=""img/flower3.png"" style=""width:200px; border:14px solid green;"">","null","","","","","","","","",""
"","image-keyboard-response","325","88102","0.0-325.0","3X4JMASXCNVCYEKLWV1799LUUZ40BL","A3DKM1KM4C4G05","3UUIU9GZC5R93N292LT21FRJ9VS5TN","","3","img/flower3.png","74","5","1","1","2","2","1,0,0,1,1,0,1,0,1","1,0,0,1,1,0,1,0,1","1",""
"","html-keyboard-response","326","88403","0.0-326.0","3X4JMASXCNVCYEKLWV1799LUUZ40BL","A3DKM1KM4C4G05","3UUIU9GZC5R93N292LT21FRJ9VS5TN","","null","<img src=""img/flower3.png"" style=""width:200px; border:14px solid green;"">","null","","","","","","","","",""
"","image-keyboard-response","327","88700","0.0-327.0","3X4JMASXCNVCYEKLWV1799LUUZ40BL","A3DKM1KM4C4G05","3UUIU9GZC5R93N292LT21FRJ9VS5TN","","296","img/flower6.png","74","296.99999999998545","1","1","3","2","1,0,0,1,1,0,1,0,1","1,0,0,1,1,0,1,0,1","1",""
"","html-keyboard-response","328","89003","0.0-328.0","3X4JMASXCNVCYEKLWV1799LUUZ40BL","A3DKM1KM4C4G05","3UUIU9GZC5R93N292LT21FRJ9VS5TN","","null","<img src=""img/flower6.png"" style=""width:200px; border:14px solid green;"">","null","","","","","","","","",""
"","image-keyboard-response","329","89034","0.0-329.0","3X4JMASXCNVCYEKLWV1799LUUZ40BL","A3DKM1KM4C4G05","3UUIU9GZC5R93N292LT21FRJ9VS5TN","","29.000000000014552","img/flower6.png","74","30.999999999985448","1","1","3","2","1,0,0,1,1,0,1,0,1","1,0,0,1,1,0,1,0,1","1",""
"","html-keyboard-response","330","89338","0.0-330.0","3X4JMASXCNVCYEKLWV1799LUUZ40BL","A3DKM1KM4C4G05","3UUIU9GZC5R93N292LT21FRJ9VS5TN","","null","<img src=""img/flower6.png"" style=""width:200px; border:14px solid green;"">","null","","","","","","","","",""
"","image-keyboard-response","331","89355","0.0-331.0","3X4JMASXCNVCYEKLWV1799LUUZ40BL","A3DKM1KM4C4G05","3UUIU9GZC5R93N292LT21FRJ9VS5TN","","15","img/flower4.png","74","18","1","1","1","2","1,0,0,1,1,0,1,0,1","1,0,0,1,1,0,1,0,1","1",""
"","html-keyboard-response","332","89657","0.0-332.0","3X4JMASXCNVCYEKLWV1799LUUZ40BL","A3DKM1KM4C4G05","3UUIU9GZC5R93N292LT21FRJ9VS5TN","","null","<img src=""img/flower4.png"" style=""width:200px; border:14px solid green;"">","null","","","","","","","","",""
"","image-keyboard-response","333","89955","0.0-333.0","3X4JMASXCNVCYEKLWV1799LUUZ40BL","A3DKM1KM4C4G05","3UUIU9GZC5R93N292LT21FRJ9VS5TN","","297","img/flower4.png","74","298","1","1","1","2","1,0,0,1,1,0,1,0,1","1,0,0,1,1,0,1,0,1","1",""
"","html-keyboard-response","334","90259","0.0-334.0","3X4JMASXCNVCYEKLWV1799LUUZ40BL","A3DKM1KM4C4G05","3UUIU9GZC5R93N292LT21FRJ9VS5TN","","null","<img src=""img/flower4.png"" style=""width:200px; border:14px solid green;"">","null","","","","","","","","",""
"","image-keyboard-response","335","90294","0.0-335.0","3X4JMASXCNVCYEKLWV1799LUUZ40BL","A3DKM1KM4C4G05","3UUIU9GZC5R93N292LT21FRJ9VS5TN","","32","img/flower4.png","74","35","1","1","1","2","1,0,0,1,1,0,1,0,1","1,0,0,1,1,0,1,0,1","1",""
"","html-keyboard-response","336","90596","0.0-336.0","3X4JMASXCNVCYEKLWV1799LUUZ40BL","A3DKM1KM4C4G05","3UUIU9GZC5R93N292LT21FRJ9VS5TN","","null","<img src=""img/flower4.png"" style=""width:200px; border:14px solid green;"">","null","","","","","","","","",""
"","image-keyboard-response","337","90629","0.0-337.0","3X4JMASXCNVCYEKLWV1799LUUZ40BL","A3DKM1KM4C4G05","3UUIU9GZC5R93N292LT21FRJ9VS5TN","","31.000000000014552","img/flower3.png","74","33","1","1","2","2","1,0,0,1,1,0,1,0,1","1,0,0,1,1,0,1,0,1","1",""
"","html-keyboard-response","338","90932","0.0-338.0","3X4JMASXCNVCYEKLWV1799LUUZ40BL","A3DKM1KM4C4G05","3UUIU9GZC5R93N292LT21FRJ9VS5TN","","null","<img src=""img/flower3.png"" style=""width:200px; border:14px solid green;"">","null","","","","","","","","",""
"","image-keyboard-response","339","90935","0.0-339.0","3X4JMASXCNVCYEKLWV1799LUUZ40BL","A3DKM1KM4C4G05","3UUIU9GZC5R93N292LT21FRJ9VS5TN","","0","img/flower6.png","74","2","1","1","3","2","1,0,0,1,1,0,1,0,1","1,0,0,1,1,0,1,0,1","1",""
"","html-keyboard-response","340","91238","0.0-340.0","3X4JMASXCNVCYEKLWV1799LUUZ40BL","A3DKM1KM4C4G05","3UUIU9GZC5R93N292LT21FRJ9VS5TN","","null","<img src=""img/flower6.png"" style=""width:200px; border:14px solid green;"">","null","","","","","","","","",""
"","image-keyboard-response","341","91262","0.0-341.0","3X4JMASXCNVCYEKLWV1799LUUZ40BL","A3DKM1KM4C4G05","3UUIU9GZC5R93N292LT21FRJ9VS5TN","","22","img/flower4.png","74","24.000000000014552","1","1","1","2","1,0,0,1,1,0,1,0,1","1,0,0,1,1,0,1,0,1","1",""
"","html-keyboard-response","342","91566","0.0-342.0","3X4JMASXCNVCYEKLWV1799LUUZ40BL","A3DKM1KM4C4G05","3UUIU9GZC5R93N292LT21FRJ9VS5TN","","null","<img src=""img/flower4.png"" style=""width:200px; border:14px solid green;"">","null","","","","","","","","",""
"","image-keyboard-response","343","91587","0.0-343.0","3X4JMASXCNVCYEKLWV1799LUUZ40BL","A3DKM1KM4C4G05","3UUIU9GZC5R93N292LT21FRJ9VS5TN","","20","img/flower4.png","74","21","1","1","1","2","1,0,0,1,1,0,1,0,1","1,0,0,1,1,0,1,0,1","1",""
"","html-keyboard-response","344","91890","0.0-344.0","3X4JMASXCNVCYEKLWV1799LUUZ40BL","A3DKM1KM4C4G05","3UUIU9GZC5R93N292LT21FRJ9VS5TN","","null","<img src=""img/flower4.png"" style=""width:200px; border:14px solid green;"">","null","","","","","","","","",""
"","image-keyboard-response","345","91924","0.0-345.0","3X4JMASXCNVCYEKLWV1799LUUZ40BL","A3DKM1KM4C4G05","3UUIU9GZC5R93N292LT21FRJ9VS5TN","","32.99999999998545","img/flower6.png","74","35","1","1","3","2","1,0,0,1,1,0,1,0,1","1,0,0,1,1,0,1,0,1","1",""
"","html-keyboard-response","346","92228","0.0-346.0","3X4JMASXCNVCYEKLWV1799LUUZ40BL","A3DKM1KM4C4G05","3UUIU9GZC5R93N292LT21FRJ9VS5TN","","null","<img src=""img/flower6.png"" style=""width:200px; border:14px solid green;"">","null","","","","","","","","",""
"","image-keyboard-response","347","92317","0.0-347.0","3X4JMASXCNVCYEKLWV1799LUUZ40BL","A3DKM1KM4C4G05","3UUIU9GZC5R93N292LT21FRJ9VS5TN","","88","img/flower6.png","74","89","1","1","3","2","1,0,0,1,1,0,1,0,1","1,0,0,1,1,0,1,0,1","1",""
"","html-keyboard-response","348","92620","0.0-348.0","3X4JMASXCNVCYEKLWV1799LUUZ40BL","A3DKM1KM4C4G05","3UUIU9GZC5R93N292LT21FRJ9VS5TN","","null","<img src=""img/flower6.png"" style=""width:200px; border:14px solid green;"">","null","","","","","","","","",""
"","image-keyboard-response","349","92906","0.0-349.0","3X4JMASXCNVCYEKLWV1799LUUZ40BL","A3DKM1KM4C4G05","3UUIU9GZC5R93N292LT21FRJ9VS5TN","","284.00000000001455","img/flower3.png","74","285.00000000001455","1","1","2","2","1,0,0,1,1,0,1,0,1","1,0,0,1,1,0,1,0,1","1",""
"","html-keyboard-response","350","93209","0.0-350.0","3X4JMASXCNVCYEKLWV1799LUUZ40BL","A3DKM1KM4C4G05","3UUIU9GZC5R93N292LT21FRJ9VS5TN","","null","<img src=""img/flower3.png"" style=""width:200px; border:14px solid green;"">","null","","","","","","","","",""
"","image-keyboard-response","351","93236","0.0-351.0","3X4JMASXCNVCYEKLWV1799LUUZ40BL","A3DKM1KM4C4G05","3UUIU9GZC5R93N292LT21FRJ9VS5TN","","24","img/flower4.png","74","27","1","1","1","2","1,0,0,1,1,0,1,0,1","1,0,0,1,1,0,1,0,1","1",""
"","html-keyboard-response","352","93538","0.0-352.0","3X4JMASXCNVCYEKLWV1799LUUZ40BL","A3DKM1KM4C4G05","3UUIU9GZC5R93N292LT21FRJ9VS5TN","","null","<img src=""img/flower4.png"" style=""width:200px; border:14px solid green;"">","null","","","","","","","","",""
"","image-keyboard-response","353","93571","0.0-353.0","3X4JMASXCNVCYEKLWV1799LUUZ40BL","A3DKM1KM4C4G05","3UUIU9GZC5R93N292LT21FRJ9VS5TN","","30","img/flower6.png","74","32","1","1","3","2","1,0,0,1,1,0,1,0,1","1,0,0,1,1,0,1,0,1","1",""
"","html-keyboard-response","354","93875","0.0-354.0","3X4JMASXCNVCYEKLWV1799LUUZ40BL","A3DKM1KM4C4G05","3UUIU9GZC5R93N292LT21FRJ9VS5TN","","null","<img src=""img/flower6.png"" style=""width:200px; border:14px solid green;"">","null","","","","","","","","",""
"","image-keyboard-response","355","93912","0.0-355.0","3X4JMASXCNVCYEKLWV1799LUUZ40BL","A3DKM1KM4C4G05","3UUIU9GZC5R93N292LT21FRJ9VS5TN","","34.99999999998545","img/flower4.png","74","37","1","1","1","2","1,0,0,1,1,0,1,0,1","1,0,0,1,1,0,1,0,1","1",""
"","html-keyboard-response","356","94215","0.0-356.0","3X4JMASXCNVCYEKLWV1799LUUZ40BL","A3DKM1KM4C4G05","3UUIU9GZC5R93N292LT21FRJ9VS5TN","","null","<img src=""img/flower4.png"" style=""width:200px; border:14px solid green;"">","null","","","","","","","","",""
"","image-keyboard-response","357","94277","0.0-357.0","3X4JMASXCNVCYEKLWV1799LUUZ40BL","A3DKM1KM4C4G05","3UUIU9GZC5R93N292LT21FRJ9VS5TN","","61","img/flower3.png","74","62","1","1","2","2","1,0,0,1,1,0,1,0,1","1,0,0,1,1,0,1,0,1","1",""
"","html-keyboard-response","358","94579","0.0-358.0","3X4JMASXCNVCYEKLWV1799LUUZ40BL","A3DKM1KM4C4G05","3UUIU9GZC5R93N292LT21FRJ9VS5TN","","null","<img src=""img/flower3.png"" style=""width:200px; border:14px solid green;"">","null","","","","","","","","",""
"","image-keyboard-response","359","94664","0.0-359.0","3X4JMASXCNVCYEKLWV1799LUUZ40BL","A3DKM1KM4C4G05","3UUIU9GZC5R93N292LT21FRJ9VS5TN","","84","img/flower6.png","74","85","1","1","3","2","1,0,0,1,1,0,1,0,1","1,0,0,1,1,0,1,0,1","1",""
"","html-keyboard-response","360","94967","0.0-360.0","3X4JMASXCNVCYEKLWV1799LUUZ40BL","A3DKM1KM4C4G05","3UUIU9GZC5R93N292LT21FRJ9VS5TN","","null","<img src=""img/flower6.png"" style=""width:200px; border:14px solid green;"">","null","","","","","","","","",""
"","image-keyboard-response","361","95034","0.0-361.0","3X4JMASXCNVCYEKLWV1799LUUZ40BL","A3DKM1KM4C4G05","3UUIU9GZC5R93N292LT21FRJ9VS5TN","","65.00000000001455","img/flower4.png","74","67","1","1","1","2","1,0,0,1,1,0,1,0,1","1,0,0,1,1,0,1,0,1","1",""
"","html-keyboard-response","362","95337","0.0-362.0","3X4JMASXCNVCYEKLWV1799LUUZ40BL","A3DKM1KM4C4G05","3UUIU9GZC5R93N292LT21FRJ9VS5TN","","null","<img src=""img/flower4.png"" style=""width:200px; border:14px solid green;"">","null","","","","","","","","",""
"","instructions","363","97269","0.0-363.0","3X4JMASXCNVCYEKLWV1799LUUZ40BL","A3DKM1KM4C4G05","3UUIU9GZC5R93N292LT21FRJ9VS5TN","[{""page_index"":0,""viewing_time"":1930.0000000000146}]","1930.0000000000146","","","","","","","","","","",""
"","survey-text","364","103657","0.0-364.0","3X4JMASXCNVCYEKLWV1799LUUZ40BL","A3DKM1KM4C4G05","3UUIU9GZC5R93N292LT21FRJ9VS5TN","","6364","","","","","","","","","","","{""Q0"":""A3DKM1KM4C4G05""}"
