"success","trial_type","trial_index","time_elapsed","internal_node_id","assignmentID","mturkID","hitID","view_history","rt","stimulus","key_press","reactionTime","a","r","s","cond","reward_cond","reward_cond_actual","reward_matrix_idx","responses"
"true","fullscreen","0","5680","0.0-0.0","3A4TN5196L46JJIN834NQLQTY4MCHS","A3F51C49T9A34D","335VBRURDJMQFRMOFGHOE9WKSHX9E1","","","","","","","","","","","","",""
"","instructions","1","34451","0.0-1.0","3A4TN5196L46JJIN834NQLQTY4MCHS","A3F51C49T9A34D","335VBRURDJMQFRMOFGHOE9WKSHX9E1","[{""page_index"":0,""viewing_time"":4350.100000000093},{""page_index"":1,""viewing_time"":3244.7999999998137},{""page_index"":2,""viewing_time"":3489},{""page_index"":3,""viewing_time"":1699.9000000003725},{""page_index"":4,""viewing_time"":5497},{""page_index"":5,""viewing_time"":4149.899999999907},{""page_index"":6,""viewing_time"":3882},{""page_index"":7,""viewing_time"":2457}]","28770.399999999907","","","","","","","","","","",""
"","image-keyboard-response","2","35948","0.0-2.0","3A4TN5196L46JJIN834NQLQTY4MCHS","A3F51C49T9A34D","335VBRURDJMQFRMOFGHOE9WKSHX9E1","","1495.6000000000931","img/flower2.png","75","1496.7000000001863","2","1","2","2","1,0,0,1,1,0,1,0,1","0,1,0,0,1,1,1,1,0","3",""
"","html-keyboard-response","3","36256","0.0-3.0","3A4TN5196L46JJIN834NQLQTY4MCHS","A3F51C49T9A34D","335VBRURDJMQFRMOFGHOE9WKSHX9E1","","null","<img src=""img/flower2.png"" style=""width:200px; border:14px solid green;"">","null","","","","","","","","",""
"","image-keyboard-response","4","37228","0.0-4.0","3A4TN5196L46JJIN834NQLQTY4MCHS","A3F51C49T9A34D","335VBRURDJMQFRMOFGHOE9WKSHX9E1","","970.8999999999069","img/flower4.png","76","971.6000000000931","3","0","1","2","1,0,0,1,1,0,1,0,1","0,1,0,0,1,1,1,1,0","3",""
"","html-keyboard-response","5","37535","0.0-5.0","3A4TN5196L46JJIN834NQLQTY4MCHS","A3F51C49T9A34D","335VBRURDJMQFRMOFGHOE9WKSHX9E1","","null","<img src=""img/flower4.png"" style=""width:200px;border:14px solid red;"">","null","","","","","","","","",""
"","image-keyboard-response","6","38300","0.0-6.0","3A4TN5196L46JJIN834NQLQTY4MCHS","A3F51C49T9A34D","335VBRURDJMQFRMOFGHOE9WKSHX9E1","","763.7999999998137","img/flower1.png","74","764.6000000000931","1","1","3","2","1,0,0,1,1,0,1,0,1","0,1,0,0,1,1,1,1,0","3",""
"","html-keyboard-response","7","38607","0.0-7.0","3A4TN5196L46JJIN834NQLQTY4MCHS","A3F51C49T9A34D","335VBRURDJMQFRMOFGHOE9WKSHX9E1","","null","<img src=""img/flower1.png"" style=""width:200px; border:14px solid green;"">","null","","","","","","","","",""
"","image-keyboard-response","8","39196","0.0-8.0","3A4TN5196L46JJIN834NQLQTY4MCHS","A3F51C49T9A34D","335VBRURDJMQFRMOFGHOE9WKSHX9E1","","587.6999999997206","img/flower1.png","74","588.3999999999069","1","1","3","2","1,0,0,1,1,0,1,0,1","0,1,0,0,1,1,1,1,0","3",""
"","html-keyboard-response","9","39503","0.0-9.0","3A4TN5196L46JJIN834NQLQTY4MCHS","A3F51C49T9A34D","335VBRURDJMQFRMOFGHOE9WKSHX9E1","","null","<img src=""img/flower1.png"" style=""width:200px; border:14px solid green;"">","null","","","","","","","","",""
"","image-keyboard-response","10","40044","0.0-10.0","3A4TN5196L46JJIN834NQLQTY4MCHS","A3F51C49T9A34D","335VBRURDJMQFRMOFGHOE9WKSHX9E1","","539.7999999998137","img/flower2.png","75","540.7000000001863","2","1","2","2","1,0,0,1,1,0,1,0,1","0,1,0,0,1,1,1,1,0","3",""
"","html-keyboard-response","11","40351","0.0-11.0","3A4TN5196L46JJIN834NQLQTY4MCHS","A3F51C49T9A34D","335VBRURDJMQFRMOFGHOE9WKSHX9E1","","null","<img src=""img/flower2.png"" style=""width:200px; border:14px solid green;"">","null","","","","","","","","",""
"","image-keyboard-response","12","40764","0.0-12.0","3A4TN5196L46JJIN834NQLQTY4MCHS","A3F51C49T9A34D","335VBRURDJMQFRMOFGHOE9WKSHX9E1","","411.79999999981374","img/flower2.png","75","412.60000000009313","2","1","2","2","1,0,0,1,1,0,1,0,1","0,1,0,0,1,1,1,1,0","3",""
"","html-keyboard-response","13","41071","0.0-13.0","3A4TN5196L46JJIN834NQLQTY4MCHS","A3F51C49T9A34D","335VBRURDJMQFRMOFGHOE9WKSHX9E1","","null","<img src=""img/flower2.png"" style=""width:200px; border:14px solid green;"">","null","","","","","","","","",""
"","image-keyboard-response","14","41516","0.0-14.0","3A4TN5196L46JJIN834NQLQTY4MCHS","A3F51C49T9A34D","335VBRURDJMQFRMOFGHOE9WKSHX9E1","","443.70000000018626","img/flower2.png","75","444.5","2","1","2","2","1,0,0,1,1,0,1,0,1","0,1,0,0,1,1,1,1,0","3",""
"","html-keyboard-response","15","41823","0.0-15.0","3A4TN5196L46JJIN834NQLQTY4MCHS","A3F51C49T9A34D","335VBRURDJMQFRMOFGHOE9WKSHX9E1","","null","<img src=""img/flower2.png"" style=""width:200px; border:14px solid green;"">","null","","","","","","","","",""
"","image-keyboard-response","16","42492","0.0-16.0","3A4TN5196L46JJIN834NQLQTY4MCHS","A3F51C49T9A34D","335VBRURDJMQFRMOFGHOE9WKSHX9E1","","667.6000000000931","img/flower1.png","74","668.3999999999069","1","1","3","2","1,0,0,1,1,0,1,0,1","0,1,0,0,1,1,1,1,0","3",""
"","html-keyboard-response","17","42799","0.0-17.0","3A4TN5196L46JJIN834NQLQTY4MCHS","A3F51C49T9A34D","335VBRURDJMQFRMOFGHOE9WKSHX9E1","","null","<img src=""img/flower1.png"" style=""width:200px; border:14px solid green;"">","null","","","","","","","","",""
"","image-keyboard-response","18","43404","0.0-18.0","3A4TN5196L46JJIN834NQLQTY4MCHS","A3F51C49T9A34D","335VBRURDJMQFRMOFGHOE9WKSHX9E1","","603.6000000000931","img/flower4.png","76","604.3999999999069","3","0","1","2","1,0,0,1,1,0,1,0,1","0,1,0,0,1,1,1,1,0","3",""
"","html-keyboard-response","19","43711","0.0-19.0","3A4TN5196L46JJIN834NQLQTY4MCHS","A3F51C49T9A34D","335VBRURDJMQFRMOFGHOE9WKSHX9E1","","null","<img src=""img/flower4.png"" style=""width:200px;border:14px solid red;"">","null","","","","","","","","",""
"","image-keyboard-response","20","44220","0.0-20.0","3A4TN5196L46JJIN834NQLQTY4MCHS","A3F51C49T9A34D","335VBRURDJMQFRMOFGHOE9WKSHX9E1","","507.5","img/flower4.png","76","508.1999999997206","3","0","1","2","1,0,0,1,1,0,1,0,1","0,1,0,0,1,1,1,1,0","3",""
"","html-keyboard-response","21","44527","0.0-21.0","3A4TN5196L46JJIN834NQLQTY4MCHS","A3F51C49T9A34D","335VBRURDJMQFRMOFGHOE9WKSHX9E1","","null","<img src=""img/flower4.png"" style=""width:200px;border:14px solid red;"">","null","","","","","","","","",""
"","image-keyboard-response","22","44892","0.0-22.0","3A4TN5196L46JJIN834NQLQTY4MCHS","A3F51C49T9A34D","335VBRURDJMQFRMOFGHOE9WKSHX9E1","","363.79999999981374","img/flower4.png","76","364.5","3","0","1","2","1,0,0,1,1,0,1,0,1","0,1,0,0,1,1,1,1,0","3",""
"","html-keyboard-response","23","45199","0.0-23.0","3A4TN5196L46JJIN834NQLQTY4MCHS","A3F51C49T9A34D","335VBRURDJMQFRMOFGHOE9WKSHX9E1","","null","<img src=""img/flower4.png"" style=""width:200px;border:14px solid red;"">","null","","","","","","","","",""
"","image-keyboard-response","24","45916","0.0-24.0","3A4TN5196L46JJIN834NQLQTY4MCHS","A3F51C49T9A34D","335VBRURDJMQFRMOFGHOE9WKSHX9E1","","715.5","img/flower1.png","74","716.2999999998137","1","1","3","2","1,0,0,1,1,0,1,0,1","0,1,0,0,1,1,1,1,0","3",""
"","html-keyboard-response","25","46223","0.0-25.0","3A4TN5196L46JJIN834NQLQTY4MCHS","A3F51C49T9A34D","335VBRURDJMQFRMOFGHOE9WKSHX9E1","","null","<img src=""img/flower1.png"" style=""width:200px; border:14px solid green;"">","null","","","","","","","","",""
"","image-keyboard-response","26","46716","0.0-26.0","3A4TN5196L46JJIN834NQLQTY4MCHS","A3F51C49T9A34D","335VBRURDJMQFRMOFGHOE9WKSHX9E1","","491.39999999990687","img/flower2.png","75","492.10000000009313","2","1","2","2","1,0,0,1,1,0,1,0,1","0,1,0,0,1,1,1,1,0","3",""
"","html-keyboard-response","27","47023","0.0-27.0","3A4TN5196L46JJIN834NQLQTY4MCHS","A3F51C49T9A34D","335VBRURDJMQFRMOFGHOE9WKSHX9E1","","null","<img src=""img/flower2.png"" style=""width:200px; border:14px solid green;"">","null","","","","","","","","",""
"","image-keyboard-response","28","47820","0.0-28.0","3A4TN5196L46JJIN834NQLQTY4MCHS","A3F51C49T9A34D","335VBRURDJMQFRMOFGHOE9WKSHX9E1","","795.5999999996275","img/flower4.png","76","796.2000000001863","3","0","1","2","1,0,0,1,1,0,1,0,1","0,1,0,0,1,1,1,1,0","3",""
"","html-keyboard-response","29","48127","0.0-29.0","3A4TN5196L46JJIN834NQLQTY4MCHS","A3F51C49T9A34D","335VBRURDJMQFRMOFGHOE9WKSHX9E1","","null","<img src=""img/flower4.png"" style=""width:200px;border:14px solid red;"">","null","","","","","","","","",""
"","image-keyboard-response","30","48940","0.0-30.0","3A4TN5196L46JJIN834NQLQTY4MCHS","A3F51C49T9A34D","335VBRURDJMQFRMOFGHOE9WKSHX9E1","","811.4000000003725","img/flower4.png","75","812.1000000000931","2","1","1","2","1,0,0,1,1,0,1,0,1","0,1,0,0,1,1,1,1,0","3",""
"","html-keyboard-response","31","49247","0.0-31.0","3A4TN5196L46JJIN834NQLQTY4MCHS","A3F51C49T9A34D","335VBRURDJMQFRMOFGHOE9WKSHX9E1","","null","<img src=""img/flower4.png"" style=""width:200px; border:14px solid green;"">","null","","","","","","","","",""
"","image-keyboard-response","32","50220","0.0-32.0","3A4TN5196L46JJIN834NQLQTY4MCHS","A3F51C49T9A34D","335VBRURDJMQFRMOFGHOE9WKSHX9E1","","971.2000000001863","img/flower2.png","75","972","2","1","2","2","1,0,0,1,1,0,1,0,1","0,1,0,0,1,1,1,1,0","3",""
"","html-keyboard-response","33","50528","0.0-33.0","3A4TN5196L46JJIN834NQLQTY4MCHS","A3F51C49T9A34D","335VBRURDJMQFRMOFGHOE9WKSHX9E1","","null","<img src=""img/flower2.png"" style=""width:200px; border:14px solid green;"">","null","","","","","","","","",""
"","image-keyboard-response","34","51148","0.0-34.0","3A4TN5196L46JJIN834NQLQTY4MCHS","A3F51C49T9A34D","335VBRURDJMQFRMOFGHOE9WKSHX9E1","","619.2000000001863","img/flower4.png","75","620","2","1","1","2","1,0,0,1,1,0,1,0,1","0,1,0,0,1,1,1,1,0","3",""
"","html-keyboard-response","35","51456","0.0-35.0","3A4TN5196L46JJIN834NQLQTY4MCHS","A3F51C49T9A34D","335VBRURDJMQFRMOFGHOE9WKSHX9E1","","null","<img src=""img/flower4.png"" style=""width:200px; border:14px solid green;"">","null","","","","","","","","",""
"","image-keyboard-response","36","52011","0.0-36.0","3A4TN5196L46JJIN834NQLQTY4MCHS","A3F51C49T9A34D","335VBRURDJMQFRMOFGHOE9WKSHX9E1","","555.1000000000931","img/flower1.png","74","555.7999999998137","1","1","3","2","1,0,0,1,1,0,1,0,1","0,1,0,0,1,1,1,1,0","3",""
"","html-keyboard-response","37","52320","0.0-37.0","3A4TN5196L46JJIN834NQLQTY4MCHS","A3F51C49T9A34D","335VBRURDJMQFRMOFGHOE9WKSHX9E1","","null","<img src=""img/flower1.png"" style=""width:200px; border:14px solid green;"">","null","","","","","","","","",""
"","image-keyboard-response","38","52908","0.0-38.0","3A4TN5196L46JJIN834NQLQTY4MCHS","A3F51C49T9A34D","335VBRURDJMQFRMOFGHOE9WKSHX9E1","","587.1000000000931","img/flower1.png","74","587.7999999998137","1","1","3","2","1,0,0,1,1,0,1,0,1","0,1,0,0,1,1,1,1,0","3",""
"","html-keyboard-response","39","53216","0.0-39.0","3A4TN5196L46JJIN834NQLQTY4MCHS","A3F51C49T9A34D","335VBRURDJMQFRMOFGHOE9WKSHX9E1","","null","<img src=""img/flower1.png"" style=""width:200px; border:14px solid green;"">","null","","","","","","","","",""
"","image-keyboard-response","40","53755","0.0-40.0","3A4TN5196L46JJIN834NQLQTY4MCHS","A3F51C49T9A34D","335VBRURDJMQFRMOFGHOE9WKSHX9E1","","539","img/flower2.png","75","539.6999999997206","2","1","2","2","1,0,0,1,1,0,1,0,1","0,1,0,0,1,1,1,1,0","3",""
"","html-keyboard-response","41","54064","0.0-41.0","3A4TN5196L46JJIN834NQLQTY4MCHS","A3F51C49T9A34D","335VBRURDJMQFRMOFGHOE9WKSHX9E1","","null","<img src=""img/flower2.png"" style=""width:200px; border:14px solid green;"">","null","","","","","","","","",""
"","image-keyboard-response","42","54667","0.0-42.0","3A4TN5196L46JJIN834NQLQTY4MCHS","A3F51C49T9A34D","335VBRURDJMQFRMOFGHOE9WKSHX9E1","","603.1000000000931","img/flower4.png","75","603.6999999997206","2","1","1","2","1,0,0,1,1,0,1,0,1","0,1,0,0,1,1,1,1,0","3",""
"","html-keyboard-response","43","54976","0.0-43.0","3A4TN5196L46JJIN834NQLQTY4MCHS","A3F51C49T9A34D","335VBRURDJMQFRMOFGHOE9WKSHX9E1","","null","<img src=""img/flower4.png"" style=""width:200px; border:14px solid green;"">","null","","","","","","","","",""
"","image-keyboard-response","44","55629","0.0-44.0","3A4TN5196L46JJIN834NQLQTY4MCHS","A3F51C49T9A34D","335VBRURDJMQFRMOFGHOE9WKSHX9E1","","651.1999999997206","img/flower1.png","74","652","1","1","3","2","1,0,0,1,1,0,1,0,1","0,1,0,0,1,1,1,1,0","3",""
"","html-keyboard-response","45","55937","0.0-45.0","3A4TN5196L46JJIN834NQLQTY4MCHS","A3F51C49T9A34D","335VBRURDJMQFRMOFGHOE9WKSHX9E1","","null","<img src=""img/flower1.png"" style=""width:200px; border:14px solid green;"">","null","","","","","","","","",""
"","image-keyboard-response","46","56429","0.0-46.0","3A4TN5196L46JJIN834NQLQTY4MCHS","A3F51C49T9A34D","335VBRURDJMQFRMOFGHOE9WKSHX9E1","","490.89999999990687","img/flower4.png","75","491.59999999962747","2","1","1","2","1,0,0,1,1,0,1,0,1","0,1,0,0,1,1,1,1,0","3",""
"","html-keyboard-response","47","56737","0.0-47.0","3A4TN5196L46JJIN834NQLQTY4MCHS","A3F51C49T9A34D","335VBRURDJMQFRMOFGHOE9WKSHX9E1","","null","<img src=""img/flower4.png"" style=""width:200px; border:14px solid green;"">","null","","","","","","","","",""
"","image-keyboard-response","48","57101","0.0-48.0","3A4TN5196L46JJIN834NQLQTY4MCHS","A3F51C49T9A34D","335VBRURDJMQFRMOFGHOE9WKSHX9E1","","362.79999999981374","img/flower2.png","75","363.59999999962747","2","1","2","2","1,0,0,1,1,0,1,0,1","0,1,0,0,1,1,1,1,0","3",""
"","html-keyboard-response","49","57409","0.0-49.0","3A4TN5196L46JJIN834NQLQTY4MCHS","A3F51C49T9A34D","335VBRURDJMQFRMOFGHOE9WKSHX9E1","","null","<img src=""img/flower2.png"" style=""width:200px; border:14px solid green;"">","null","","","","","","","","",""
"","image-keyboard-response","50","57821","0.0-50.0","3A4TN5196L46JJIN834NQLQTY4MCHS","A3F51C49T9A34D","335VBRURDJMQFRMOFGHOE9WKSHX9E1","","410.89999999990687","img/flower2.png","75","411.5","2","1","2","2","1,0,0,1,1,0,1,0,1","0,1,0,0,1,1,1,1,0","3",""
"","html-keyboard-response","51","58129","0.0-51.0","3A4TN5196L46JJIN834NQLQTY4MCHS","A3F51C49T9A34D","335VBRURDJMQFRMOFGHOE9WKSHX9E1","","null","<img src=""img/flower2.png"" style=""width:200px; border:14px solid green;"">","null","","","","","","","","",""
"","image-keyboard-response","52","58509","0.0-52.0","3A4TN5196L46JJIN834NQLQTY4MCHS","A3F51C49T9A34D","335VBRURDJMQFRMOFGHOE9WKSHX9E1","","378.89999999990687","img/flower2.png","75","379.5","2","1","2","2","1,0,0,1,1,0,1,0,1","0,1,0,0,1,1,1,1,0","3",""
"","html-keyboard-response","53","58817","0.0-53.0","3A4TN5196L46JJIN834NQLQTY4MCHS","A3F51C49T9A34D","335VBRURDJMQFRMOFGHOE9WKSHX9E1","","null","<img src=""img/flower2.png"" style=""width:200px; border:14px solid green;"">","null","","","","","","","","",""
"","image-keyboard-response","54","59581","0.0-54.0","3A4TN5196L46JJIN834NQLQTY4MCHS","A3F51C49T9A34D","335VBRURDJMQFRMOFGHOE9WKSHX9E1","","762.7999999998137","img/flower4.png","75","763.3999999999069","2","1","1","2","1,0,0,1,1,0,1,0,1","0,1,0,0,1,1,1,1,0","3",""
"","html-keyboard-response","55","59889","0.0-55.0","3A4TN5196L46JJIN834NQLQTY4MCHS","A3F51C49T9A34D","335VBRURDJMQFRMOFGHOE9WKSHX9E1","","null","<img src=""img/flower4.png"" style=""width:200px; border:14px solid green;"">","null","","","","","","","","",""
"","image-keyboard-response","56","60380","0.0-56.0","3A4TN5196L46JJIN834NQLQTY4MCHS","A3F51C49T9A34D","335VBRURDJMQFRMOFGHOE9WKSHX9E1","","490.60000000009313","img/flower1.png","74","491.3000000002794","1","1","3","2","1,0,0,1,1,0,1,0,1","0,1,0,0,1,1,1,1,0","3",""
"","html-keyboard-response","57","60688","0.0-57.0","3A4TN5196L46JJIN834NQLQTY4MCHS","A3F51C49T9A34D","335VBRURDJMQFRMOFGHOE9WKSHX9E1","","null","<img src=""img/flower1.png"" style=""width:200px; border:14px solid green;"">","null","","","","","","","","",""
"","image-keyboard-response","58","61132","0.0-58.0","3A4TN5196L46JJIN834NQLQTY4MCHS","A3F51C49T9A34D","335VBRURDJMQFRMOFGHOE9WKSHX9E1","","443.60000000009313","img/flower2.png","75","444.3000000002794","2","1","2","2","1,0,0,1,1,0,1,0,1","0,1,0,0,1,1,1,1,0","3",""
"","html-keyboard-response","59","61440","0.0-59.0","3A4TN5196L46JJIN834NQLQTY4MCHS","A3F51C49T9A34D","335VBRURDJMQFRMOFGHOE9WKSHX9E1","","null","<img src=""img/flower2.png"" style=""width:200px; border:14px solid green;"">","null","","","","","","","","",""
"","image-keyboard-response","60","62060","0.0-60.0","3A4TN5196L46JJIN834NQLQTY4MCHS","A3F51C49T9A34D","335VBRURDJMQFRMOFGHOE9WKSHX9E1","","619.6000000000931","img/flower4.png","75","620.3000000002794","2","1","1","2","1,0,0,1,1,0,1,0,1","0,1,0,0,1,1,1,1,0","3",""
"","html-keyboard-response","61","62368","0.0-61.0","3A4TN5196L46JJIN834NQLQTY4MCHS","A3F51C49T9A34D","335VBRURDJMQFRMOFGHOE9WKSHX9E1","","null","<img src=""img/flower4.png"" style=""width:200px; border:14px solid green;"">","null","","","","","","","","",""
"","image-keyboard-response","62","62813","0.0-62.0","3A4TN5196L46JJIN834NQLQTY4MCHS","A3F51C49T9A34D","335VBRURDJMQFRMOFGHOE9WKSHX9E1","","443.60000000009313","img/flower4.png","75","444.39999999990687","2","1","1","2","1,0,0,1,1,0,1,0,1","0,1,0,0,1,1,1,1,0","3",""
"","html-keyboard-response","63","63120","0.0-63.0","3A4TN5196L46JJIN834NQLQTY4MCHS","A3F51C49T9A34D","335VBRURDJMQFRMOFGHOE9WKSHX9E1","","null","<img src=""img/flower4.png"" style=""width:200px; border:14px solid green;"">","null","","","","","","","","",""
"","image-keyboard-response","64","63660","0.0-64.0","3A4TN5196L46JJIN834NQLQTY4MCHS","A3F51C49T9A34D","335VBRURDJMQFRMOFGHOE9WKSHX9E1","","539.3999999999069","img/flower2.png","75","540.1000000000931","2","1","2","2","1,0,0,1,1,0,1,0,1","0,1,0,0,1,1,1,1,0","3",""
"","html-keyboard-response","65","63968","0.0-65.0","3A4TN5196L46JJIN834NQLQTY4MCHS","A3F51C49T9A34D","335VBRURDJMQFRMOFGHOE9WKSHX9E1","","null","<img src=""img/flower2.png"" style=""width:200px; border:14px solid green;"">","null","","","","","","","","",""
"","image-keyboard-response","66","64957","0.0-66.0","3A4TN5196L46JJIN834NQLQTY4MCHS","A3F51C49T9A34D","335VBRURDJMQFRMOFGHOE9WKSHX9E1","","987.5","img/flower1.png","74","988.2999999998137","1","1","3","2","1,0,0,1,1,0,1,0,1","0,1,0,0,1,1,1,1,0","3",""
"","html-keyboard-response","67","65264","0.0-67.0","3A4TN5196L46JJIN834NQLQTY4MCHS","A3F51C49T9A34D","335VBRURDJMQFRMOFGHOE9WKSHX9E1","","null","<img src=""img/flower1.png"" style=""width:200px; border:14px solid green;"">","null","","","","","","","","",""
"","image-keyboard-response","68","65677","0.0-68.0","3A4TN5196L46JJIN834NQLQTY4MCHS","A3F51C49T9A34D","335VBRURDJMQFRMOFGHOE9WKSHX9E1","","411.70000000018626","img/flower1.png","74","412.39999999990687","1","1","3","2","1,0,0,1,1,0,1,0,1","0,1,0,0,1,1,1,1,0","3",""
"","html-keyboard-response","69","65984","0.0-69.0","3A4TN5196L46JJIN834NQLQTY4MCHS","A3F51C49T9A34D","335VBRURDJMQFRMOFGHOE9WKSHX9E1","","null","<img src=""img/flower1.png"" style=""width:200px; border:14px solid green;"">","null","","","","","","","","",""
"","image-keyboard-response","70","66460","0.0-70.0","3A4TN5196L46JJIN834NQLQTY4MCHS","A3F51C49T9A34D","335VBRURDJMQFRMOFGHOE9WKSHX9E1","","475.29999999981374","img/flower4.png","75","476","2","1","1","2","1,0,0,1,1,0,1,0,1","0,1,0,0,1,1,1,1,0","3",""
"","html-keyboard-response","71","66768","0.0-71.0","3A4TN5196L46JJIN834NQLQTY4MCHS","A3F51C49T9A34D","335VBRURDJMQFRMOFGHOE9WKSHX9E1","","null","<img src=""img/flower4.png"" style=""width:200px; border:14px solid green;"">","null","","","","","","","","",""
"","image-keyboard-response","72","67116","0.0-72.0","3A4TN5196L46JJIN834NQLQTY4MCHS","A3F51C49T9A34D","335VBRURDJMQFRMOFGHOE9WKSHX9E1","","347.1999999997206","img/flower4.png","75","348","2","1","1","2","1,0,0,1,1,0,1,0,1","0,1,0,0,1,1,1,1,0","3",""
"","html-keyboard-response","73","67424","0.0-73.0","3A4TN5196L46JJIN834NQLQTY4MCHS","A3F51C49T9A34D","335VBRURDJMQFRMOFGHOE9WKSHX9E1","","null","<img src=""img/flower4.png"" style=""width:200px; border:14px solid green;"">","null","","","","","","","","",""
"","image-keyboard-response","74","67836","0.0-74.0","3A4TN5196L46JJIN834NQLQTY4MCHS","A3F51C49T9A34D","335VBRURDJMQFRMOFGHOE9WKSHX9E1","","411.29999999981374","img/flower4.png","75","411.89999999990687","2","1","1","2","1,0,0,1,1,0,1,0,1","0,1,0,0,1,1,1,1,0","3",""
"","html-keyboard-response","75","68144","0.0-75.0","3A4TN5196L46JJIN834NQLQTY4MCHS","A3F51C49T9A34D","335VBRURDJMQFRMOFGHOE9WKSHX9E1","","null","<img src=""img/flower4.png"" style=""width:200px; border:14px solid green;"">","null","","","","","","","","",""
"","image-keyboard-response","76","68748","0.0-76.0","3A4TN5196L46JJIN834NQLQTY4MCHS","A3F51C49T9A34D","335VBRURDJMQFRMOFGHOE9WKSHX9E1","","603.2999999998137","img/flower1.png","74","604","1","1","3","2","1,0,0,1,1,0,1,0,1","0,1,0,0,1,1,1,1,0","3",""
"","html-keyboard-response","77","69056","0.0-77.0","3A4TN5196L46JJIN834NQLQTY4MCHS","A3F51C49T9A34D","335VBRURDJMQFRMOFGHOE9WKSHX9E1","","null","<img src=""img/flower1.png"" style=""width:200px; border:14px solid green;"">","null","","","","","","","","",""
"","image-keyboard-response","78","69468","0.0-78.0","3A4TN5196L46JJIN834NQLQTY4MCHS","A3F51C49T9A34D","335VBRURDJMQFRMOFGHOE9WKSHX9E1","","411","img/flower1.png","74","411.8000000002794","1","1","3","2","1,0,0,1,1,0,1,0,1","0,1,0,0,1,1,1,1,0","3",""
"","html-keyboard-response","79","69776","0.0-79.0","3A4TN5196L46JJIN834NQLQTY4MCHS","A3F51C49T9A34D","335VBRURDJMQFRMOFGHOE9WKSHX9E1","","null","<img src=""img/flower1.png"" style=""width:200px; border:14px solid green;"">","null","","","","","","","","",""
"","image-keyboard-response","80","70268","0.0-80.0","3A4TN5196L46JJIN834NQLQTY4MCHS","A3F51C49T9A34D","335VBRURDJMQFRMOFGHOE9WKSHX9E1","","491.10000000009313","img/flower2.png","75","491.8000000002794","2","1","2","2","1,0,0,1,1,0,1,0,1","0,1,0,0,1,1,1,1,0","3",""
"","html-keyboard-response","81","70577","0.0-81.0","3A4TN5196L46JJIN834NQLQTY4MCHS","A3F51C49T9A34D","335VBRURDJMQFRMOFGHOE9WKSHX9E1","","null","<img src=""img/flower2.png"" style=""width:200px; border:14px solid green;"">","null","","","","","","","","",""
"","image-keyboard-response","82","71004","0.0-82.0","3A4TN5196L46JJIN834NQLQTY4MCHS","A3F51C49T9A34D","335VBRURDJMQFRMOFGHOE9WKSHX9E1","","427","img/flower2.png","75","427.90000000037253","2","1","2","2","1,0,0,1,1,0,1,0,1","0,1,0,0,1,1,1,1,0","3",""
"","html-keyboard-response","83","71313","0.0-83.0","3A4TN5196L46JJIN834NQLQTY4MCHS","A3F51C49T9A34D","335VBRURDJMQFRMOFGHOE9WKSHX9E1","","null","<img src=""img/flower2.png"" style=""width:200px; border:14px solid green;"">","null","","","","","","","","",""
"","image-keyboard-response","84","71740","0.0-84.0","3A4TN5196L46JJIN834NQLQTY4MCHS","A3F51C49T9A34D","335VBRURDJMQFRMOFGHOE9WKSHX9E1","","427","img/flower2.png","75","427.70000000018626","2","1","2","2","1,0,0,1,1,0,1,0,1","0,1,0,0,1,1,1,1,0","3",""
"","html-keyboard-response","85","72049","0.0-85.0","3A4TN5196L46JJIN834NQLQTY4MCHS","A3F51C49T9A34D","335VBRURDJMQFRMOFGHOE9WKSHX9E1","","null","<img src=""img/flower2.png"" style=""width:200px; border:14px solid green;"">","null","","","","","","","","",""
"","image-keyboard-response","86","72700","0.0-86.0","3A4TN5196L46JJIN834NQLQTY4MCHS","A3F51C49T9A34D","335VBRURDJMQFRMOFGHOE9WKSHX9E1","","651","img/flower4.png","75","651.7000000001863","2","1","1","2","1,0,0,1,1,0,1,0,1","0,1,0,0,1,1,1,1,0","3",""
"","html-keyboard-response","87","73009","0.0-87.0","3A4TN5196L46JJIN834NQLQTY4MCHS","A3F51C49T9A34D","335VBRURDJMQFRMOFGHOE9WKSHX9E1","","null","<img src=""img/flower4.png"" style=""width:200px; border:14px solid green;"">","null","","","","","","","","",""
"","image-keyboard-response","88","73612","0.0-88.0","3A4TN5196L46JJIN834NQLQTY4MCHS","A3F51C49T9A34D","335VBRURDJMQFRMOFGHOE9WKSHX9E1","","602.8999999999069","img/flower1.png","74","603.7000000001863","1","1","3","2","1,0,0,1,1,0,1,0,1","0,1,0,0,1,1,1,1,0","3",""
"","html-keyboard-response","89","73921","0.0-89.0","3A4TN5196L46JJIN834NQLQTY4MCHS","A3F51C49T9A34D","335VBRURDJMQFRMOFGHOE9WKSHX9E1","","null","<img src=""img/flower1.png"" style=""width:200px; border:14px solid green;"">","null","","","","","","","","",""
"","image-keyboard-response","90","74444","0.0-90.0","3A4TN5196L46JJIN834NQLQTY4MCHS","A3F51C49T9A34D","335VBRURDJMQFRMOFGHOE9WKSHX9E1","","522.7999999998137","img/flower4.png","75","523.6000000000931","2","1","1","2","1,0,0,1,1,0,1,0,1","0,1,0,0,1,1,1,1,0","3",""
"","html-keyboard-response","91","74753","0.0-91.0","3A4TN5196L46JJIN834NQLQTY4MCHS","A3F51C49T9A34D","335VBRURDJMQFRMOFGHOE9WKSHX9E1","","null","<img src=""img/flower4.png"" style=""width:200px; border:14px solid green;"">","null","","","","","","","","",""
"","image-keyboard-response","92","75196","0.0-92.0","3A4TN5196L46JJIN834NQLQTY4MCHS","A3F51C49T9A34D","335VBRURDJMQFRMOFGHOE9WKSHX9E1","","442.6999999997206","img/flower4.png","75","443.5","2","1","1","2","1,0,0,1,1,0,1,0,1","0,1,0,0,1,1,1,1,0","3",""
"","html-keyboard-response","93","75505","0.0-93.0","3A4TN5196L46JJIN834NQLQTY4MCHS","A3F51C49T9A34D","335VBRURDJMQFRMOFGHOE9WKSHX9E1","","null","<img src=""img/flower4.png"" style=""width:200px; border:14px solid green;"">","null","","","","","","","","",""
"","image-keyboard-response","94","76141","0.0-94.0","3A4TN5196L46JJIN834NQLQTY4MCHS","A3F51C49T9A34D","335VBRURDJMQFRMOFGHOE9WKSHX9E1","","635","img/flower1.png","74","635.7999999998137","1","1","3","2","1,0,0,1,1,0,1,0,1","0,1,0,0,1,1,1,1,0","3",""
"","html-keyboard-response","95","76449","0.0-95.0","3A4TN5196L46JJIN834NQLQTY4MCHS","A3F51C49T9A34D","335VBRURDJMQFRMOFGHOE9WKSHX9E1","","null","<img src=""img/flower1.png"" style=""width:200px; border:14px solid green;"">","null","","","","","","","","",""
"","image-keyboard-response","96","76892","0.0-96.0","3A4TN5196L46JJIN834NQLQTY4MCHS","A3F51C49T9A34D","335VBRURDJMQFRMOFGHOE9WKSHX9E1","","442.59999999962747","img/flower1.png","74","443.39999999990687","1","1","3","2","1,0,0,1,1,0,1,0,1","0,1,0,0,1,1,1,1,0","3",""
"","html-keyboard-response","97","77218","0.0-97.0","3A4TN5196L46JJIN834NQLQTY4MCHS","A3F51C49T9A34D","335VBRURDJMQFRMOFGHOE9WKSHX9E1","","null","<img src=""img/flower1.png"" style=""width:200px; border:14px solid green;"">","null","","","","","","","","",""
"","image-keyboard-response","98","77724","0.0-98.0","3A4TN5196L46JJIN834NQLQTY4MCHS","A3F51C49T9A34D","335VBRURDJMQFRMOFGHOE9WKSHX9E1","","504.89999999990687","img/flower2.png","75","505.70000000018626","2","1","2","2","1,0,0,1,1,0,1,0,1","0,1,0,0,1,1,1,1,0","3",""
"","html-keyboard-response","99","78033","0.0-99.0","3A4TN5196L46JJIN834NQLQTY4MCHS","A3F51C49T9A34D","335VBRURDJMQFRMOFGHOE9WKSHX9E1","","null","<img src=""img/flower2.png"" style=""width:200px; border:14px solid green;"">","null","","","","","","","","",""
"","image-keyboard-response","100","78396","0.0-100.0","3A4TN5196L46JJIN834NQLQTY4MCHS","A3F51C49T9A34D","335VBRURDJMQFRMOFGHOE9WKSHX9E1","","362.89999999990687","img/flower2.png","75","363.39999999990687","2","1","2","2","1,0,0,1,1,0,1,0,1","0,1,0,0,1,1,1,1,0","3",""
"","html-keyboard-response","101","78705","0.0-101.0","3A4TN5196L46JJIN834NQLQTY4MCHS","A3F51C49T9A34D","335VBRURDJMQFRMOFGHOE9WKSHX9E1","","null","<img src=""img/flower2.png"" style=""width:200px; border:14px solid green;"">","null","","","","","","","","",""
"","image-keyboard-response","102","79420","0.0-102.0","3A4TN5196L46JJIN834NQLQTY4MCHS","A3F51C49T9A34D","335VBRURDJMQFRMOFGHOE9WKSHX9E1","","714.5999999996275","img/flower4.png","75","715.3999999999069","2","1","1","2","1,0,0,1,1,0,1,0,1","0,1,0,0,1,1,1,1,0","3",""
"","html-keyboard-response","103","79729","0.0-103.0","3A4TN5196L46JJIN834NQLQTY4MCHS","A3F51C49T9A34D","335VBRURDJMQFRMOFGHOE9WKSHX9E1","","null","<img src=""img/flower4.png"" style=""width:200px; border:14px solid green;"">","null","","","","","","","","",""
"","image-keyboard-response","104","80236","0.0-104.0","3A4TN5196L46JJIN834NQLQTY4MCHS","A3F51C49T9A34D","335VBRURDJMQFRMOFGHOE9WKSHX9E1","","506.5","img/flower2.png","75","507.3000000002794","2","1","2","2","1,0,0,1,1,0,1,0,1","0,1,0,0,1,1,1,1,0","3",""
"","html-keyboard-response","105","80545","0.0-105.0","3A4TN5196L46JJIN834NQLQTY4MCHS","A3F51C49T9A34D","335VBRURDJMQFRMOFGHOE9WKSHX9E1","","null","<img src=""img/flower2.png"" style=""width:200px; border:14px solid green;"">","null","","","","","","","","",""
"","image-keyboard-response","106","80924","0.0-106.0","3A4TN5196L46JJIN834NQLQTY4MCHS","A3F51C49T9A34D","335VBRURDJMQFRMOFGHOE9WKSHX9E1","","378.40000000037253","img/flower2.png","75","379.10000000009313","2","1","2","2","1,0,0,1,1,0,1,0,1","0,1,0,0,1,1,1,1,0","3",""
"","html-keyboard-response","107","81233","0.0-107.0","3A4TN5196L46JJIN834NQLQTY4MCHS","A3F51C49T9A34D","335VBRURDJMQFRMOFGHOE9WKSHX9E1","","null","<img src=""img/flower2.png"" style=""width:200px; border:14px solid green;"">","null","","","","","","","","",""
"","image-keyboard-response","108","81820","0.0-108.0","3A4TN5196L46JJIN834NQLQTY4MCHS","A3F51C49T9A34D","335VBRURDJMQFRMOFGHOE9WKSHX9E1","","586.5","img/flower1.png","74","587.1000000000931","1","1","3","2","1,0,0,1,1,0,1,0,1","0,1,0,0,1,1,1,1,0","3",""
"","html-keyboard-response","109","82129","0.0-109.0","3A4TN5196L46JJIN834NQLQTY4MCHS","A3F51C49T9A34D","335VBRURDJMQFRMOFGHOE9WKSHX9E1","","null","<img src=""img/flower1.png"" style=""width:200px; border:14px solid green;"">","null","","","","","","","","",""
"","image-keyboard-response","110","82492","0.0-110.0","3A4TN5196L46JJIN834NQLQTY4MCHS","A3F51C49T9A34D","335VBRURDJMQFRMOFGHOE9WKSHX9E1","","362.5","img/flower1.png","74","363.20000000018626","1","1","3","2","1,0,0,1,1,0,1,0,1","0,1,0,0,1,1,1,1,0","3",""
"","html-keyboard-response","111","82800","0.0-111.0","3A4TN5196L46JJIN834NQLQTY4MCHS","A3F51C49T9A34D","335VBRURDJMQFRMOFGHOE9WKSHX9E1","","null","<img src=""img/flower1.png"" style=""width:200px; border:14px solid green;"">","null","","","","","","","","",""
"","image-keyboard-response","112","83260","0.0-112.0","3A4TN5196L46JJIN834NQLQTY4MCHS","A3F51C49T9A34D","335VBRURDJMQFRMOFGHOE9WKSHX9E1","","459.40000000037253","img/flower2.png","75","460.10000000009313","2","1","2","2","1,0,0,1,1,0,1,0,1","0,1,0,0,1,1,1,1,0","3",""
"","html-keyboard-response","113","83568","0.0-113.0","3A4TN5196L46JJIN834NQLQTY4MCHS","A3F51C49T9A34D","335VBRURDJMQFRMOFGHOE9WKSHX9E1","","null","<img src=""img/flower2.png"" style=""width:200px; border:14px solid green;"">","null","","","","","","","","",""
"","image-keyboard-response","114","83964","0.0-114.0","3A4TN5196L46JJIN834NQLQTY4MCHS","A3F51C49T9A34D","335VBRURDJMQFRMOFGHOE9WKSHX9E1","","395.3000000002794","img/flower2.png","75","396.10000000009313","2","1","2","2","1,0,0,1,1,0,1,0,1","0,1,0,0,1,1,1,1,0","3",""
"","html-keyboard-response","115","84272","0.0-115.0","3A4TN5196L46JJIN834NQLQTY4MCHS","A3F51C49T9A34D","335VBRURDJMQFRMOFGHOE9WKSHX9E1","","null","<img src=""img/flower2.png"" style=""width:200px; border:14px solid green;"">","null","","","","","","","","",""
"","image-keyboard-response","116","84812","0.0-116.0","3A4TN5196L46JJIN834NQLQTY4MCHS","A3F51C49T9A34D","335VBRURDJMQFRMOFGHOE9WKSHX9E1","","539.5","img/flower1.png","74","540","1","1","3","2","1,0,0,1,1,0,1,0,1","0,1,0,0,1,1,1,1,0","3",""
"","html-keyboard-response","117","85120","0.0-117.0","3A4TN5196L46JJIN834NQLQTY4MCHS","A3F51C49T9A34D","335VBRURDJMQFRMOFGHOE9WKSHX9E1","","null","<img src=""img/flower1.png"" style=""width:200px; border:14px solid green;"">","null","","","","","","","","",""
"","image-keyboard-response","118","85724","0.0-118.0","3A4TN5196L46JJIN834NQLQTY4MCHS","A3F51C49T9A34D","335VBRURDJMQFRMOFGHOE9WKSHX9E1","","603.2000000001863","img/flower4.png","75","603.8999999999069","2","1","1","2","1,0,0,1,1,0,1,0,1","0,1,0,0,1,1,1,1,0","3",""
"","html-keyboard-response","119","86032","0.0-119.0","3A4TN5196L46JJIN834NQLQTY4MCHS","A3F51C49T9A34D","335VBRURDJMQFRMOFGHOE9WKSHX9E1","","null","<img src=""img/flower4.png"" style=""width:200px; border:14px solid green;"">","null","","","","","","","","",""
"","image-keyboard-response","120","86572","0.0-120.0","3A4TN5196L46JJIN834NQLQTY4MCHS","A3F51C49T9A34D","335VBRURDJMQFRMOFGHOE9WKSHX9E1","","539.6000000000931","img/flower1.png","74","540.3000000002794","1","1","3","2","1,0,0,1,1,0,1,0,1","0,1,0,0,1,1,1,1,0","3",""
"","html-keyboard-response","121","86880","0.0-121.0","3A4TN5196L46JJIN834NQLQTY4MCHS","A3F51C49T9A34D","335VBRURDJMQFRMOFGHOE9WKSHX9E1","","null","<img src=""img/flower1.png"" style=""width:200px; border:14px solid green;"">","null","","","","","","","","",""
"","image-keyboard-response","122","87340","0.0-122.0","3A4TN5196L46JJIN834NQLQTY4MCHS","A3F51C49T9A34D","335VBRURDJMQFRMOFGHOE9WKSHX9E1","","459.40000000037253","img/flower1.png","74","459.79999999981374","1","1","3","2","1,0,0,1,1,0,1,0,1","0,1,0,0,1,1,1,1,0","3",""
"","html-keyboard-response","123","87648","0.0-123.0","3A4TN5196L46JJIN834NQLQTY4MCHS","A3F51C49T9A34D","335VBRURDJMQFRMOFGHOE9WKSHX9E1","","null","<img src=""img/flower1.png"" style=""width:200px; border:14px solid green;"">","null","","","","","","","","",""
"","image-keyboard-response","124","88172","0.0-124.0","3A4TN5196L46JJIN834NQLQTY4MCHS","A3F51C49T9A34D","335VBRURDJMQFRMOFGHOE9WKSHX9E1","","523.1000000000931","img/flower4.png","75","523.8999999999069","2","1","1","2","1,0,0,1,1,0,1,0,1","0,1,0,0,1,1,1,1,0","3",""
"","html-keyboard-response","125","88480","0.0-125.0","3A4TN5196L46JJIN834NQLQTY4MCHS","A3F51C49T9A34D","335VBRURDJMQFRMOFGHOE9WKSHX9E1","","null","<img src=""img/flower4.png"" style=""width:200px; border:14px solid green;"">","null","","","","","","","","",""
"","image-keyboard-response","126","89133","0.0-126.0","3A4TN5196L46JJIN834NQLQTY4MCHS","A3F51C49T9A34D","335VBRURDJMQFRMOFGHOE9WKSHX9E1","","651.8999999999069","img/flower1.png","74","652.5","1","1","3","2","1,0,0,1,1,0,1,0,1","0,1,0,0,1,1,1,1,0","3",""
"","html-keyboard-response","127","89440","0.0-127.0","3A4TN5196L46JJIN834NQLQTY4MCHS","A3F51C49T9A34D","335VBRURDJMQFRMOFGHOE9WKSHX9E1","","null","<img src=""img/flower1.png"" style=""width:200px; border:14px solid green;"">","null","","","","","","","","",""
"","image-keyboard-response","128","89884","0.0-128.0","3A4TN5196L46JJIN834NQLQTY4MCHS","A3F51C49T9A34D","335VBRURDJMQFRMOFGHOE9WKSHX9E1","","443.10000000009313","img/flower2.png","75","443.6999999997206","2","1","2","2","1,0,0,1,1,0,1,0,1","0,1,0,0,1,1,1,1,0","3",""
"","html-keyboard-response","129","90192","0.0-129.0","3A4TN5196L46JJIN834NQLQTY4MCHS","A3F51C49T9A34D","335VBRURDJMQFRMOFGHOE9WKSHX9E1","","null","<img src=""img/flower2.png"" style=""width:200px; border:14px solid green;"">","null","","","","","","","","",""
"","image-keyboard-response","130","90620","0.0-130.0","3A4TN5196L46JJIN834NQLQTY4MCHS","A3F51C49T9A34D","335VBRURDJMQFRMOFGHOE9WKSHX9E1","","427","img/flower2.png","75","427.59999999962747","2","1","2","2","1,0,0,1,1,0,1,0,1","0,1,0,0,1,1,1,1,0","3",""
"","html-keyboard-response","131","90928","0.0-131.0","3A4TN5196L46JJIN834NQLQTY4MCHS","A3F51C49T9A34D","335VBRURDJMQFRMOFGHOE9WKSHX9E1","","null","<img src=""img/flower2.png"" style=""width:200px; border:14px solid green;"">","null","","","","","","","","",""
"","image-keyboard-response","132","91676","0.0-132.0","3A4TN5196L46JJIN834NQLQTY4MCHS","A3F51C49T9A34D","335VBRURDJMQFRMOFGHOE9WKSHX9E1","","746.8999999999069","img/flower4.png","75","747.5999999996275","2","1","1","2","1,0,0,1,1,0,1,0,1","0,1,0,0,1,1,1,1,0","3",""
"","html-keyboard-response","133","91984","0.0-133.0","3A4TN5196L46JJIN834NQLQTY4MCHS","A3F51C49T9A34D","335VBRURDJMQFRMOFGHOE9WKSHX9E1","","null","<img src=""img/flower4.png"" style=""width:200px; border:14px solid green;"">","null","","","","","","","","",""
"","image-keyboard-response","134","92492","0.0-134.0","3A4TN5196L46JJIN834NQLQTY4MCHS","A3F51C49T9A34D","335VBRURDJMQFRMOFGHOE9WKSHX9E1","","507","img/flower1.png","75","507.59999999962747","2","1","3","2","1,0,0,1,1,0,1,0,1","0,1,0,0,1,1,1,1,0","3",""
"","html-keyboard-response","135","92800","0.0-135.0","3A4TN5196L46JJIN834NQLQTY4MCHS","A3F51C49T9A34D","335VBRURDJMQFRMOFGHOE9WKSHX9E1","","null","<img src=""img/flower1.png"" style=""width:200px; border:14px solid green;"">","null","","","","","","","","",""
"","image-keyboard-response","136","93756","0.0-136.0","3A4TN5196L46JJIN834NQLQTY4MCHS","A3F51C49T9A34D","335VBRURDJMQFRMOFGHOE9WKSHX9E1","","954.8999999999069","img/flower1.png","74","955.4000000003725","1","1","3","2","1,0,0,1,1,0,1,0,1","0,1,0,0,1,1,1,1,0","3",""
"","html-keyboard-response","137","94064","0.0-137.0","3A4TN5196L46JJIN834NQLQTY4MCHS","A3F51C49T9A34D","335VBRURDJMQFRMOFGHOE9WKSHX9E1","","null","<img src=""img/flower1.png"" style=""width:200px; border:14px solid green;"">","null","","","","","","","","",""
"","image-keyboard-response","138","94924","0.0-138.0","3A4TN5196L46JJIN834NQLQTY4MCHS","A3F51C49T9A34D","335VBRURDJMQFRMOFGHOE9WKSHX9E1","","858.9000000003725","img/flower2.png","75","859.5","2","1","2","2","1,0,0,1,1,0,1,0,1","0,1,0,0,1,1,1,1,0","3",""
"","html-keyboard-response","139","95233","0.0-139.0","3A4TN5196L46JJIN834NQLQTY4MCHS","A3F51C49T9A34D","335VBRURDJMQFRMOFGHOE9WKSHX9E1","","null","<img src=""img/flower2.png"" style=""width:200px; border:14px solid green;"">","null","","","","","","","","",""
"","image-keyboard-response","140","95996","0.0-140.0","3A4TN5196L46JJIN834NQLQTY4MCHS","A3F51C49T9A34D","335VBRURDJMQFRMOFGHOE9WKSHX9E1","","762.7000000001863","img/flower1.png","74","763.3999999999069","1","1","3","2","1,0,0,1,1,0,1,0,1","0,1,0,0,1,1,1,1,0","3",""
"","html-keyboard-response","141","96305","0.0-141.0","3A4TN5196L46JJIN834NQLQTY4MCHS","A3F51C49T9A34D","335VBRURDJMQFRMOFGHOE9WKSHX9E1","","null","<img src=""img/flower1.png"" style=""width:200px; border:14px solid green;"">","null","","","","","","","","",""
"","image-keyboard-response","142","96876","0.0-142.0","3A4TN5196L46JJIN834NQLQTY4MCHS","A3F51C49T9A34D","335VBRURDJMQFRMOFGHOE9WKSHX9E1","","571.1000000000931","img/flower2.png","75","571.5","2","1","2","2","1,0,0,1,1,0,1,0,1","0,1,0,0,1,1,1,1,0","3",""
"","html-keyboard-response","143","97185","0.0-143.0","3A4TN5196L46JJIN834NQLQTY4MCHS","A3F51C49T9A34D","335VBRURDJMQFRMOFGHOE9WKSHX9E1","","null","<img src=""img/flower2.png"" style=""width:200px; border:14px solid green;"">","null","","","","","","","","",""
"","image-keyboard-response","144","97548","0.0-144.0","3A4TN5196L46JJIN834NQLQTY4MCHS","A3F51C49T9A34D","335VBRURDJMQFRMOFGHOE9WKSHX9E1","","362.70000000018626","img/flower2.png","75","363.29999999981374","2","1","2","2","1,0,0,1,1,0,1,0,1","0,1,0,0,1,1,1,1,0","3",""
"","html-keyboard-response","145","97857","0.0-145.0","3A4TN5196L46JJIN834NQLQTY4MCHS","A3F51C49T9A34D","335VBRURDJMQFRMOFGHOE9WKSHX9E1","","null","<img src=""img/flower2.png"" style=""width:200px; border:14px solid green;"">","null","","","","","","","","",""
"","image-keyboard-response","146","98380","0.0-146.0","3A4TN5196L46JJIN834NQLQTY4MCHS","A3F51C49T9A34D","335VBRURDJMQFRMOFGHOE9WKSHX9E1","","522.5","img/flower4.png","75","523.1000000000931","2","1","1","2","1,0,0,1,1,0,1,0,1","0,1,0,0,1,1,1,1,0","3",""
"","html-keyboard-response","147","98689","0.0-147.0","3A4TN5196L46JJIN834NQLQTY4MCHS","A3F51C49T9A34D","335VBRURDJMQFRMOFGHOE9WKSHX9E1","","null","<img src=""img/flower4.png"" style=""width:200px; border:14px solid green;"">","null","","","","","","","","",""
"","image-keyboard-response","148","99084","0.0-148.0","3A4TN5196L46JJIN834NQLQTY4MCHS","A3F51C49T9A34D","335VBRURDJMQFRMOFGHOE9WKSHX9E1","","394.60000000009313","img/flower2.png","75","395.10000000009313","2","1","2","2","1,0,0,1,1,0,1,0,1","0,1,0,0,1,1,1,1,0","3",""
"","html-keyboard-response","149","99393","0.0-149.0","3A4TN5196L46JJIN834NQLQTY4MCHS","A3F51C49T9A34D","335VBRURDJMQFRMOFGHOE9WKSHX9E1","","null","<img src=""img/flower2.png"" style=""width:200px; border:14px solid green;"">","null","","","","","","","","",""
"","image-keyboard-response","150","99900","0.0-150.0","3A4TN5196L46JJIN834NQLQTY4MCHS","A3F51C49T9A34D","335VBRURDJMQFRMOFGHOE9WKSHX9E1","","506.5","img/flower4.png","75","507.10000000009313","2","1","1","2","1,0,0,1,1,0,1,0,1","0,1,0,0,1,1,1,1,0","3",""
"","html-keyboard-response","151","100209","0.0-151.0","3A4TN5196L46JJIN834NQLQTY4MCHS","A3F51C49T9A34D","335VBRURDJMQFRMOFGHOE9WKSHX9E1","","null","<img src=""img/flower4.png"" style=""width:200px; border:14px solid green;"">","null","","","","","","","","",""
"","image-keyboard-response","152","100652","0.0-152.0","3A4TN5196L46JJIN834NQLQTY4MCHS","A3F51C49T9A34D","335VBRURDJMQFRMOFGHOE9WKSHX9E1","","442.60000000009313","img/flower1.png","75","443.20000000018626","2","1","3","2","1,0,0,1,1,0,1,0,1","0,1,0,0,1,1,1,1,0","3",""
"","html-keyboard-response","153","100961","0.0-153.0","3A4TN5196L46JJIN834NQLQTY4MCHS","A3F51C49T9A34D","335VBRURDJMQFRMOFGHOE9WKSHX9E1","","null","<img src=""img/flower1.png"" style=""width:200px; border:14px solid green;"">","null","","","","","","","","",""
"","image-keyboard-response","154","101308","0.0-154.0","3A4TN5196L46JJIN834NQLQTY4MCHS","A3F51C49T9A34D","335VBRURDJMQFRMOFGHOE9WKSHX9E1","","346.39999999990687","img/flower4.png","75","347","2","1","1","2","1,0,0,1,1,0,1,0,1","0,1,0,0,1,1,1,1,0","3",""
"","html-keyboard-response","155","101617","0.0-155.0","3A4TN5196L46JJIN834NQLQTY4MCHS","A3F51C49T9A34D","335VBRURDJMQFRMOFGHOE9WKSHX9E1","","null","<img src=""img/flower4.png"" style=""width:200px; border:14px solid green;"">","null","","","","","","","","",""
"","image-keyboard-response","156","101964","0.0-156.0","3A4TN5196L46JJIN834NQLQTY4MCHS","A3F51C49T9A34D","335VBRURDJMQFRMOFGHOE9WKSHX9E1","","346.39999999990687","img/flower1.png","75","347.10000000009313","2","1","3","2","1,0,0,1,1,0,1,0,1","0,1,0,0,1,1,1,1,0","3",""
"","html-keyboard-response","157","102273","0.0-157.0","3A4TN5196L46JJIN834NQLQTY4MCHS","A3F51C49T9A34D","335VBRURDJMQFRMOFGHOE9WKSHX9E1","","null","<img src=""img/flower1.png"" style=""width:200px; border:14px solid green;"">","null","","","","","","","","",""
"","image-keyboard-response","158","102604","0.0-158.0","3A4TN5196L46JJIN834NQLQTY4MCHS","A3F51C49T9A34D","335VBRURDJMQFRMOFGHOE9WKSHX9E1","","330.29999999981374","img/flower1.png","75","331","2","1","3","2","1,0,0,1,1,0,1,0,1","0,1,0,0,1,1,1,1,0","3",""
"","html-keyboard-response","159","102913","0.0-159.0","3A4TN5196L46JJIN834NQLQTY4MCHS","A3F51C49T9A34D","335VBRURDJMQFRMOFGHOE9WKSHX9E1","","null","<img src=""img/flower1.png"" style=""width:200px; border:14px solid green;"">","null","","","","","","","","",""
"","image-keyboard-response","160","103244","0.0-160.0","3A4TN5196L46JJIN834NQLQTY4MCHS","A3F51C49T9A34D","335VBRURDJMQFRMOFGHOE9WKSHX9E1","","330.1999999997206","img/flower4.png","75","331","2","1","1","2","1,0,0,1,1,0,1,0,1","0,1,0,0,1,1,1,1,0","3",""
"","html-keyboard-response","161","103553","0.0-161.0","3A4TN5196L46JJIN834NQLQTY4MCHS","A3F51C49T9A34D","335VBRURDJMQFRMOFGHOE9WKSHX9E1","","null","<img src=""img/flower4.png"" style=""width:200px; border:14px solid green;"">","null","","","","","","","","",""
"","image-keyboard-response","162","103820","0.0-162.0","3A4TN5196L46JJIN834NQLQTY4MCHS","A3F51C49T9A34D","335VBRURDJMQFRMOFGHOE9WKSHX9E1","","266.20000000018626","img/flower4.png","75","266.8000000002794","2","1","1","2","1,0,0,1,1,0,1,0,1","0,1,0,0,1,1,1,1,0","3",""
"","html-keyboard-response","163","104129","0.0-163.0","3A4TN5196L46JJIN834NQLQTY4MCHS","A3F51C49T9A34D","335VBRURDJMQFRMOFGHOE9WKSHX9E1","","null","<img src=""img/flower4.png"" style=""width:200px; border:14px solid green;"">","null","","","","","","","","",""
"","image-keyboard-response","164","104444","0.0-164.0","3A4TN5196L46JJIN834NQLQTY4MCHS","A3F51C49T9A34D","335VBRURDJMQFRMOFGHOE9WKSHX9E1","","314.10000000009313","img/flower2.png","75","314.89999999990687","2","1","2","2","1,0,0,1,1,0,1,0,1","0,1,0,0,1,1,1,1,0","3",""
"","html-keyboard-response","165","104753","0.0-165.0","3A4TN5196L46JJIN834NQLQTY4MCHS","A3F51C49T9A34D","335VBRURDJMQFRMOFGHOE9WKSHX9E1","","null","<img src=""img/flower2.png"" style=""width:200px; border:14px solid green;"">","null","","","","","","","","",""
"","image-keyboard-response","166","105036","0.0-166.0","3A4TN5196L46JJIN834NQLQTY4MCHS","A3F51C49T9A34D","335VBRURDJMQFRMOFGHOE9WKSHX9E1","","282.29999999981374","img/flower2.png","75","282.90000000037253","2","1","2","2","1,0,0,1,1,0,1,0,1","0,1,0,0,1,1,1,1,0","3",""
"","html-keyboard-response","167","105344","0.0-167.0","3A4TN5196L46JJIN834NQLQTY4MCHS","A3F51C49T9A34D","335VBRURDJMQFRMOFGHOE9WKSHX9E1","","null","<img src=""img/flower2.png"" style=""width:200px; border:14px solid green;"">","null","","","","","","","","",""
"","image-keyboard-response","168","105548","0.0-168.0","3A4TN5196L46JJIN834NQLQTY4MCHS","A3F51C49T9A34D","335VBRURDJMQFRMOFGHOE9WKSHX9E1","","203.29999999981374","img/flower4.png","75","203.8000000002794","2","1","1","2","1,0,0,1,1,0,1,0,1","0,1,0,0,1,1,1,1,0","3",""
"","html-keyboard-response","169","105856","0.0-169.0","3A4TN5196L46JJIN834NQLQTY4MCHS","A3F51C49T9A34D","335VBRURDJMQFRMOFGHOE9WKSHX9E1","","null","<img src=""img/flower4.png"" style=""width:200px; border:14px solid green;"">","null","","","","","","","","",""
"","image-keyboard-response","170","106060","0.0-170.0","3A4TN5196L46JJIN834NQLQTY4MCHS","A3F51C49T9A34D","335VBRURDJMQFRMOFGHOE9WKSHX9E1","","203.10000000009313","img/flower2.png","75","203.70000000018626","2","1","2","2","1,0,0,1,1,0,1,0,1","0,1,0,0,1,1,1,1,0","3",""
"","html-keyboard-response","171","106368","0.0-171.0","3A4TN5196L46JJIN834NQLQTY4MCHS","A3F51C49T9A34D","335VBRURDJMQFRMOFGHOE9WKSHX9E1","","null","<img src=""img/flower2.png"" style=""width:200px; border:14px solid green;"">","null","","","","","","","","",""
"","image-keyboard-response","172","106508","0.0-172.0","3A4TN5196L46JJIN834NQLQTY4MCHS","A3F51C49T9A34D","335VBRURDJMQFRMOFGHOE9WKSHX9E1","","139.10000000009313","img/flower1.png","75","139.70000000018626","2","1","3","2","1,0,0,1,1,0,1,0,1","0,1,0,0,1,1,1,1,0","3",""
"","html-keyboard-response","173","106816","0.0-173.0","3A4TN5196L46JJIN834NQLQTY4MCHS","A3F51C49T9A34D","335VBRURDJMQFRMOFGHOE9WKSHX9E1","","null","<img src=""img/flower1.png"" style=""width:200px; border:14px solid green;"">","null","","","","","","","","",""
"","image-keyboard-response","174","106972","0.0-174.0","3A4TN5196L46JJIN834NQLQTY4MCHS","A3F51C49T9A34D","335VBRURDJMQFRMOFGHOE9WKSHX9E1","","155.3000000002794","img/flower4.png","75","156","2","1","1","2","1,0,0,1,1,0,1,0,1","0,1,0,0,1,1,1,1,0","3",""
"","html-keyboard-response","175","107280","0.0-175.0","3A4TN5196L46JJIN834NQLQTY4MCHS","A3F51C49T9A34D","335VBRURDJMQFRMOFGHOE9WKSHX9E1","","null","<img src=""img/flower4.png"" style=""width:200px; border:14px solid green;"">","null","","","","","","","","",""
"","image-keyboard-response","176","107388","0.0-176.0","3A4TN5196L46JJIN834NQLQTY4MCHS","A3F51C49T9A34D","335VBRURDJMQFRMOFGHOE9WKSHX9E1","","107","img/flower4.png","75","107.60000000009313","2","1","1","2","1,0,0,1,1,0,1,0,1","0,1,0,0,1,1,1,1,0","3",""
"","html-keyboard-response","177","107696","0.0-177.0","3A4TN5196L46JJIN834NQLQTY4MCHS","A3F51C49T9A34D","335VBRURDJMQFRMOFGHOE9WKSHX9E1","","null","<img src=""img/flower4.png"" style=""width:200px; border:14px solid green;"">","null","","","","","","","","",""
"","image-keyboard-response","178","107788","0.0-178.0","3A4TN5196L46JJIN834NQLQTY4MCHS","A3F51C49T9A34D","335VBRURDJMQFRMOFGHOE9WKSHX9E1","","90.79999999981374","img/flower1.png","75","91.70000000018626","2","1","3","2","1,0,0,1,1,0,1,0,1","0,1,0,0,1,1,1,1,0","3",""
"","html-keyboard-response","179","108096","0.0-179.0","3A4TN5196L46JJIN834NQLQTY4MCHS","A3F51C49T9A34D","335VBRURDJMQFRMOFGHOE9WKSHX9E1","","null","<img src=""img/flower1.png"" style=""width:200px; border:14px solid green;"">","null","","","","","","","","",""
"","image-keyboard-response","180","108108","0.0-180.0","3A4TN5196L46JJIN834NQLQTY4MCHS","A3F51C49T9A34D","335VBRURDJMQFRMOFGHOE9WKSHX9E1","","11","img/flower1.png","75","11.600000000093132","2","1","3","2","1,0,0,1,1,0,1,0,1","0,1,0,0,1,1,1,1,0","3",""
"","html-keyboard-response","181","108416","0.0-181.0","3A4TN5196L46JJIN834NQLQTY4MCHS","A3F51C49T9A34D","335VBRURDJMQFRMOFGHOE9WKSHX9E1","","null","<img src=""img/flower1.png"" style=""width:200px; border:14px solid green;"">","null","","","","","","","","",""
"","image-keyboard-response","182","108428","0.0-182.0","3A4TN5196L46JJIN834NQLQTY4MCHS","A3F51C49T9A34D","335VBRURDJMQFRMOFGHOE9WKSHX9E1","","10.899999999906868","img/flower3.png","75","11.600000000093132","2","1","1","1","1,0.333,0.333,0.333,1,0.333,0.333,0.333,1","1,0.333,0.333,0.333,1,0.333,0.333,0.333,1","1",""
"","html-keyboard-response","183","108736","0.0-183.0","3A4TN5196L46JJIN834NQLQTY4MCHS","A3F51C49T9A34D","335VBRURDJMQFRMOFGHOE9WKSHX9E1","","null","<img src=""img/flower3.png"" style=""width:200px; border:14px solid green;"">","null","","","","","","","","",""
"","image-keyboard-response","184","108764","0.0-184.0","3A4TN5196L46JJIN834NQLQTY4MCHS","A3F51C49T9A34D","335VBRURDJMQFRMOFGHOE9WKSHX9E1","","26.799999999813735","img/flower6.png","75","27.5","2","0","3","1","1,0.333,0.333,0.333,1,0.333,0.333,0.333,1","1,0.333,0.333,0.333,1,0.333,0.333,0.333,1","1",""
"","html-keyboard-response","185","109072","0.0-185.0","3A4TN5196L46JJIN834NQLQTY4MCHS","A3F51C49T9A34D","335VBRURDJMQFRMOFGHOE9WKSHX9E1","","null","<img src=""img/flower6.png"" style=""width:200px;border:14px solid red;"">","null","","","","","","","","",""
"","image-keyboard-response","186","109116","0.0-186.0","3A4TN5196L46JJIN834NQLQTY4MCHS","A3F51C49T9A34D","335VBRURDJMQFRMOFGHOE9WKSHX9E1","","43","img/flower6.png","75","43.5","2","1","3","1","1,0.333,0.333,0.333,1,0.333,0.333,0.333,1","1,0.333,0.333,0.333,1,0.333,0.333,0.333,1","1",""
"","html-keyboard-response","187","109424","0.0-187.0","3A4TN5196L46JJIN834NQLQTY4MCHS","A3F51C49T9A34D","335VBRURDJMQFRMOFGHOE9WKSHX9E1","","null","<img src=""img/flower6.png"" style=""width:200px; border:14px solid green;"">","null","","","","","","","","",""
"","image-keyboard-response","188","109436","0.0-188.0","3A4TN5196L46JJIN834NQLQTY4MCHS","A3F51C49T9A34D","335VBRURDJMQFRMOFGHOE9WKSHX9E1","","10.799999999813735","img/flower5.png","75","11.5","2","1","2","1","1,0.333,0.333,0.333,1,0.333,0.333,0.333,1","1,0.333,0.333,0.333,1,0.333,0.333,0.333,1","1",""
"","html-keyboard-response","189","109740","0.0-189.0","3A4TN5196L46JJIN834NQLQTY4MCHS","A3F51C49T9A34D","335VBRURDJMQFRMOFGHOE9WKSHX9E1","","null","<img src=""img/flower5.png"" style=""width:200px; border:14px solid green;"">","null","","","","","","","","",""
"","image-keyboard-response","190","109996","0.0-190.0","3A4TN5196L46JJIN834NQLQTY4MCHS","A3F51C49T9A34D","335VBRURDJMQFRMOFGHOE9WKSHX9E1","","254.90000000037253","img/flower6.png","75","255.6999999997206","2","1","3","1","1,0.333,0.333,0.333,1,0.333,0.333,0.333,1","1,0.333,0.333,0.333,1,0.333,0.333,0.333,1","1",""
"","html-keyboard-response","191","110304","0.0-191.0","3A4TN5196L46JJIN834NQLQTY4MCHS","A3F51C49T9A34D","335VBRURDJMQFRMOFGHOE9WKSHX9E1","","null","<img src=""img/flower6.png"" style=""width:200px; border:14px solid green;"">","null","","","","","","","","",""
"","image-keyboard-response","192","110508","0.0-192.0","3A4TN5196L46JJIN834NQLQTY4MCHS","A3F51C49T9A34D","335VBRURDJMQFRMOFGHOE9WKSHX9E1","","202.89999999990687","img/flower3.png","75","203.60000000009313","2","0","1","1","1,0.333,0.333,0.333,1,0.333,0.333,0.333,1","1,0.333,0.333,0.333,1,0.333,0.333,0.333,1","1",""
"","html-keyboard-response","193","110816","0.0-193.0","3A4TN5196L46JJIN834NQLQTY4MCHS","A3F51C49T9A34D","335VBRURDJMQFRMOFGHOE9WKSHX9E1","","null","<img src=""img/flower3.png"" style=""width:200px;border:14px solid red;"">","null","","","","","","","","",""
"","image-keyboard-response","194","111292","0.0-194.0","3A4TN5196L46JJIN834NQLQTY4MCHS","A3F51C49T9A34D","335VBRURDJMQFRMOFGHOE9WKSHX9E1","","474.79999999981374","img/flower5.png","75","475.5","2","1","2","1","1,0.333,0.333,0.333,1,0.333,0.333,0.333,1","1,0.333,0.333,0.333,1,0.333,0.333,0.333,1","1",""
"","html-keyboard-response","195","111600","0.0-195.0","3A4TN5196L46JJIN834NQLQTY4MCHS","A3F51C49T9A34D","335VBRURDJMQFRMOFGHOE9WKSHX9E1","","null","<img src=""img/flower5.png"" style=""width:200px; border:14px solid green;"">","null","","","","","","","","",""
"","image-keyboard-response","196","111644","0.0-196.0","3A4TN5196L46JJIN834NQLQTY4MCHS","A3F51C49T9A34D","335VBRURDJMQFRMOFGHOE9WKSHX9E1","","42.6999999997206","img/flower6.png","75","43.299999999813735","2","1","3","1","1,0.333,0.333,0.333,1,0.333,0.333,0.333,1","1,0.333,0.333,0.333,1,0.333,0.333,0.333,1","1",""
"","html-keyboard-response","197","111948","0.0-197.0","3A4TN5196L46JJIN834NQLQTY4MCHS","A3F51C49T9A34D","335VBRURDJMQFRMOFGHOE9WKSHX9E1","","null","<img src=""img/flower6.png"" style=""width:200px; border:14px solid green;"">","null","","","","","","","","",""
"","image-keyboard-response","198","112236","0.0-198.0","3A4TN5196L46JJIN834NQLQTY4MCHS","A3F51C49T9A34D","335VBRURDJMQFRMOFGHOE9WKSHX9E1","","287.1999999997206","img/flower3.png","75","287.6999999997206","2","1","1","1","1,0.333,0.333,0.333,1,0.333,0.333,0.333,1","1,0.333,0.333,0.333,1,0.333,0.333,0.333,1","1",""
"","html-keyboard-response","199","112544","0.0-199.0","3A4TN5196L46JJIN834NQLQTY4MCHS","A3F51C49T9A34D","335VBRURDJMQFRMOFGHOE9WKSHX9E1","","null","<img src=""img/flower3.png"" style=""width:200px; border:14px solid green;"">","null","","","","","","","","",""
"","image-keyboard-response","200","112764","0.0-200.0","3A4TN5196L46JJIN834NQLQTY4MCHS","A3F51C49T9A34D","335VBRURDJMQFRMOFGHOE9WKSHX9E1","","218.79999999981374","img/flower5.png","75","219.29999999981374","2","1","2","1","1,0.333,0.333,0.333,1,0.333,0.333,0.333,1","1,0.333,0.333,0.333,1,0.333,0.333,0.333,1","1",""
"","html-keyboard-response","201","113072","0.0-201.0","3A4TN5196L46JJIN834NQLQTY4MCHS","A3F51C49T9A34D","335VBRURDJMQFRMOFGHOE9WKSHX9E1","","null","<img src=""img/flower5.png"" style=""width:200px; border:14px solid green;"">","null","","","","","","","","",""
"","image-keyboard-response","202","113180","0.0-202.0","3A4TN5196L46JJIN834NQLQTY4MCHS","A3F51C49T9A34D","335VBRURDJMQFRMOFGHOE9WKSHX9E1","","106.6999999997206","img/flower5.png","75","107.39999999990687","2","1","2","1","1,0.333,0.333,0.333,1,0.333,0.333,0.333,1","1,0.333,0.333,0.333,1,0.333,0.333,0.333,1","1",""
"","html-keyboard-response","203","113488","0.0-203.0","3A4TN5196L46JJIN834NQLQTY4MCHS","A3F51C49T9A34D","335VBRURDJMQFRMOFGHOE9WKSHX9E1","","null","<img src=""img/flower5.png"" style=""width:200px; border:14px solid green;"">","null","","","","","","","","",""
"","image-keyboard-response","204","113580","0.0-204.0","3A4TN5196L46JJIN834NQLQTY4MCHS","A3F51C49T9A34D","335VBRURDJMQFRMOFGHOE9WKSHX9E1","","90.59999999962747","img/flower5.png","75","91.3000000002794","2","1","2","1","1,0.333,0.333,0.333,1,0.333,0.333,0.333,1","1,0.333,0.333,0.333,1,0.333,0.333,0.333,1","1",""
"","html-keyboard-response","205","113888","0.0-205.0","3A4TN5196L46JJIN834NQLQTY4MCHS","A3F51C49T9A34D","335VBRURDJMQFRMOFGHOE9WKSHX9E1","","null","<img src=""img/flower5.png"" style=""width:200px; border:14px solid green;"">","null","","","","","","","","",""
"","image-keyboard-response","206","113948","0.0-206.0","3A4TN5196L46JJIN834NQLQTY4MCHS","A3F51C49T9A34D","335VBRURDJMQFRMOFGHOE9WKSHX9E1","","58.59999999962747","img/flower6.png","75","59.200000000186265","2","1","3","1","1,0.333,0.333,0.333,1,0.333,0.333,0.333,1","1,0.333,0.333,0.333,1,0.333,0.333,0.333,1","1",""
"","html-keyboard-response","207","114256","0.0-207.0","3A4TN5196L46JJIN834NQLQTY4MCHS","A3F51C49T9A34D","335VBRURDJMQFRMOFGHOE9WKSHX9E1","","null","<img src=""img/flower6.png"" style=""width:200px; border:14px solid green;"">","null","","","","","","","","",""
"","image-keyboard-response","208","114316","0.0-208.0","3A4TN5196L46JJIN834NQLQTY4MCHS","A3F51C49T9A34D","335VBRURDJMQFRMOFGHOE9WKSHX9E1","","58.6999999997206","img/flower3.png","75","59.299999999813735","2","1","1","1","1,0.333,0.333,0.333,1,0.333,0.333,0.333,1","1,0.333,0.333,0.333,1,0.333,0.333,0.333,1","1",""
"","html-keyboard-response","209","114624","0.0-209.0","3A4TN5196L46JJIN834NQLQTY4MCHS","A3F51C49T9A34D","335VBRURDJMQFRMOFGHOE9WKSHX9E1","","null","<img src=""img/flower3.png"" style=""width:200px; border:14px solid green;"">","null","","","","","","","","",""
"","image-keyboard-response","210","114764","0.0-210.0","3A4TN5196L46JJIN834NQLQTY4MCHS","A3F51C49T9A34D","335VBRURDJMQFRMOFGHOE9WKSHX9E1","","138.5","img/flower3.png","75","139.20000000018626","2","1","1","1","1,0.333,0.333,0.333,1,0.333,0.333,0.333,1","1,0.333,0.333,0.333,1,0.333,0.333,0.333,1","1",""
"","html-keyboard-response","211","115072","0.0-211.0","3A4TN5196L46JJIN834NQLQTY4MCHS","A3F51C49T9A34D","335VBRURDJMQFRMOFGHOE9WKSHX9E1","","null","<img src=""img/flower3.png"" style=""width:200px; border:14px solid green;"">","null","","","","","","","","",""
"","image-keyboard-response","212","115148","0.0-212.0","3A4TN5196L46JJIN834NQLQTY4MCHS","A3F51C49T9A34D","335VBRURDJMQFRMOFGHOE9WKSHX9E1","","74.5","img/flower3.png","75","75.20000000018626","2","1","1","1","1,0.333,0.333,0.333,1,0.333,0.333,0.333,1","1,0.333,0.333,0.333,1,0.333,0.333,0.333,1","1",""
"","html-keyboard-response","213","115456","0.0-213.0","3A4TN5196L46JJIN834NQLQTY4MCHS","A3F51C49T9A34D","335VBRURDJMQFRMOFGHOE9WKSHX9E1","","null","<img src=""img/flower3.png"" style=""width:200px; border:14px solid green;"">","null","","","","","","","","",""
"","image-keyboard-response","214","115484","0.0-214.0","3A4TN5196L46JJIN834NQLQTY4MCHS","A3F51C49T9A34D","335VBRURDJMQFRMOFGHOE9WKSHX9E1","","26.59999999962747","img/flower5.png","75","27.200000000186265","2","1","2","1","1,0.333,0.333,0.333,1,0.333,0.333,0.333,1","1,0.333,0.333,0.333,1,0.333,0.333,0.333,1","1",""
"","html-keyboard-response","215","115793","0.0-215.0","3A4TN5196L46JJIN834NQLQTY4MCHS","A3F51C49T9A34D","335VBRURDJMQFRMOFGHOE9WKSHX9E1","","null","<img src=""img/flower5.png"" style=""width:200px; border:14px solid green;"">","null","","","","","","","","",""
"","image-keyboard-response","216","115901","0.0-216.0","3A4TN5196L46JJIN834NQLQTY4MCHS","A3F51C49T9A34D","335VBRURDJMQFRMOFGHOE9WKSHX9E1","","106.40000000037253","img/flower6.png","75","107.10000000009313","2","0","3","1","1,0.333,0.333,0.333,1,0.333,0.333,0.333,1","1,0.333,0.333,0.333,1,0.333,0.333,0.333,1","1",""
"","html-keyboard-response","217","116209","0.0-217.0","3A4TN5196L46JJIN834NQLQTY4MCHS","A3F51C49T9A34D","335VBRURDJMQFRMOFGHOE9WKSHX9E1","","null","<img src=""img/flower6.png"" style=""width:200px;border:14px solid red;"">","null","","","","","","","","",""
"","image-keyboard-response","218","116957","0.0-218.0","3A4TN5196L46JJIN834NQLQTY4MCHS","A3F51C49T9A34D","335VBRURDJMQFRMOFGHOE9WKSHX9E1","","746.6000000000931","img/flower6.png","75","747.1000000000931","2","0","3","1","1,0.333,0.333,0.333,1,0.333,0.333,0.333,1","1,0.333,0.333,0.333,1,0.333,0.333,0.333,1","1",""
"","html-keyboard-response","219","117266","0.0-219.0","3A4TN5196L46JJIN834NQLQTY4MCHS","A3F51C49T9A34D","335VBRURDJMQFRMOFGHOE9WKSHX9E1","","null","<img src=""img/flower6.png"" style=""width:200px;border:14px solid red;"">","null","","","","","","","","",""
"","image-keyboard-response","220","117581","0.0-220.0","3A4TN5196L46JJIN834NQLQTY4MCHS","A3F51C49T9A34D","335VBRURDJMQFRMOFGHOE9WKSHX9E1","","313.70000000018626","img/flower3.png","75","314.5","2","1","1","1","1,0.333,0.333,0.333,1,0.333,0.333,0.333,1","1,0.333,0.333,0.333,1,0.333,0.333,0.333,1","1",""
"","html-keyboard-response","221","117889","0.0-221.0","3A4TN5196L46JJIN834NQLQTY4MCHS","A3F51C49T9A34D","335VBRURDJMQFRMOFGHOE9WKSHX9E1","","null","<img src=""img/flower3.png"" style=""width:200px; border:14px solid green;"">","null","","","","","","","","",""
"","image-keyboard-response","222","117917","0.0-222.0","3A4TN5196L46JJIN834NQLQTY4MCHS","A3F51C49T9A34D","335VBRURDJMQFRMOFGHOE9WKSHX9E1","","26.300000000279397","img/flower5.png","75","27","2","1","2","1","1,0.333,0.333,0.333,1,0.333,0.333,0.333,1","1,0.333,0.333,0.333,1,0.333,0.333,0.333,1","1",""
"","html-keyboard-response","223","118225","0.0-223.0","3A4TN5196L46JJIN834NQLQTY4MCHS","A3F51C49T9A34D","335VBRURDJMQFRMOFGHOE9WKSHX9E1","","null","<img src=""img/flower5.png"" style=""width:200px; border:14px solid green;"">","null","","","","","","","","",""
"","image-keyboard-response","224","118269","0.0-224.0","3A4TN5196L46JJIN834NQLQTY4MCHS","A3F51C49T9A34D","335VBRURDJMQFRMOFGHOE9WKSHX9E1","","42.39999999990687","img/flower6.png","75","42.89999999990687","2","1","3","1","1,0.333,0.333,0.333,1,0.333,0.333,0.333,1","1,0.333,0.333,0.333,1,0.333,0.333,0.333,1","1",""
"","html-keyboard-response","225","118577","0.0-225.0","3A4TN5196L46JJIN834NQLQTY4MCHS","A3F51C49T9A34D","335VBRURDJMQFRMOFGHOE9WKSHX9E1","","null","<img src=""img/flower6.png"" style=""width:200px; border:14px solid green;"">","null","","","","","","","","",""
"","image-keyboard-response","226","119149","0.0-226.0","3A4TN5196L46JJIN834NQLQTY4MCHS","A3F51C49T9A34D","335VBRURDJMQFRMOFGHOE9WKSHX9E1","","570.3999999999069","img/flower3.png","75","571.1000000000931","2","0","1","1","1,0.333,0.333,0.333,1,0.333,0.333,0.333,1","1,0.333,0.333,0.333,1,0.333,0.333,0.333,1","1",""
"","html-keyboard-response","227","119458","0.0-227.0","3A4TN5196L46JJIN834NQLQTY4MCHS","A3F51C49T9A34D","335VBRURDJMQFRMOFGHOE9WKSHX9E1","","null","<img src=""img/flower3.png"" style=""width:200px;border:14px solid red;"">","null","","","","","","","","",""
"","image-keyboard-response","228","120157","0.0-228.0","3A4TN5196L46JJIN834NQLQTY4MCHS","A3F51C49T9A34D","335VBRURDJMQFRMOFGHOE9WKSHX9E1","","698.2000000001863","img/flower5.png","75","698.8999999999069","2","1","2","1","1,0.333,0.333,0.333,1,0.333,0.333,0.333,1","1,0.333,0.333,0.333,1,0.333,0.333,0.333,1","1",""
"","html-keyboard-response","229","120466","0.0-229.0","3A4TN5196L46JJIN834NQLQTY4MCHS","A3F51C49T9A34D","335VBRURDJMQFRMOFGHOE9WKSHX9E1","","null","<img src=""img/flower5.png"" style=""width:200px; border:14px solid green;"">","null","","","","","","","","",""
"","image-keyboard-response","230","120893","0.0-230.0","3A4TN5196L46JJIN834NQLQTY4MCHS","A3F51C49T9A34D","335VBRURDJMQFRMOFGHOE9WKSHX9E1","","426.29999999981374","img/flower5.png","75","426.89999999990687","2","1","2","1","1,0.333,0.333,0.333,1,0.333,0.333,0.333,1","1,0.333,0.333,0.333,1,0.333,0.333,0.333,1","1",""
"","html-keyboard-response","231","121202","0.0-231.0","3A4TN5196L46JJIN834NQLQTY4MCHS","A3F51C49T9A34D","335VBRURDJMQFRMOFGHOE9WKSHX9E1","","null","<img src=""img/flower5.png"" style=""width:200px; border:14px solid green;"">","null","","","","","","","","",""
"","image-keyboard-response","232","121741","0.0-232.0","3A4TN5196L46JJIN834NQLQTY4MCHS","A3F51C49T9A34D","335VBRURDJMQFRMOFGHOE9WKSHX9E1","","538.2999999998137","img/flower6.png","75","538.8999999999069","2","0","3","1","1,0.333,0.333,0.333,1,0.333,0.333,0.333,1","1,0.333,0.333,0.333,1,0.333,0.333,0.333,1","1",""
"","html-keyboard-response","233","122050","0.0-233.0","3A4TN5196L46JJIN834NQLQTY4MCHS","A3F51C49T9A34D","335VBRURDJMQFRMOFGHOE9WKSHX9E1","","null","<img src=""img/flower6.png"" style=""width:200px;border:14px solid red;"">","null","","","","","","","","",""
"","image-keyboard-response","234","122637","0.0-234.0","3A4TN5196L46JJIN834NQLQTY4MCHS","A3F51C49T9A34D","335VBRURDJMQFRMOFGHOE9WKSHX9E1","","586.2999999998137","img/flower5.png","75","586.8999999999069","2","1","2","1","1,0.333,0.333,0.333,1,0.333,0.333,0.333,1","1,0.333,0.333,0.333,1,0.333,0.333,0.333,1","1",""
"","html-keyboard-response","235","122946","0.0-235.0","3A4TN5196L46JJIN834NQLQTY4MCHS","A3F51C49T9A34D","335VBRURDJMQFRMOFGHOE9WKSHX9E1","","null","<img src=""img/flower5.png"" style=""width:200px; border:14px solid green;"">","null","","","","","","","","",""
"","image-keyboard-response","236","123565","0.0-236.0","3A4TN5196L46JJIN834NQLQTY4MCHS","A3F51C49T9A34D","335VBRURDJMQFRMOFGHOE9WKSHX9E1","","618","img/flower3.png","75","618.7999999998137","2","0","1","1","1,0.333,0.333,0.333,1,0.333,0.333,0.333,1","1,0.333,0.333,0.333,1,0.333,0.333,0.333,1","1",""
"","html-keyboard-response","237","123874","0.0-237.0","3A4TN5196L46JJIN834NQLQTY4MCHS","A3F51C49T9A34D","335VBRURDJMQFRMOFGHOE9WKSHX9E1","","null","<img src=""img/flower3.png"" style=""width:200px;border:14px solid red;"">","null","","","","","","","","",""
"","image-keyboard-response","238","124765","0.0-238.0","3A4TN5196L46JJIN834NQLQTY4MCHS","A3F51C49T9A34D","335VBRURDJMQFRMOFGHOE9WKSHX9E1","","890","img/flower6.png","74","890.7999999998137","1","0","3","1","1,0.333,0.333,0.333,1,0.333,0.333,0.333,1","1,0.333,0.333,0.333,1,0.333,0.333,0.333,1","1",""
"","html-keyboard-response","239","125074","0.0-239.0","3A4TN5196L46JJIN834NQLQTY4MCHS","A3F51C49T9A34D","335VBRURDJMQFRMOFGHOE9WKSHX9E1","","null","<img src=""img/flower6.png"" style=""width:200px;border:14px solid red;"">","null","","","","","","","","",""
"","image-keyboard-response","240","125693","0.0-240.0","3A4TN5196L46JJIN834NQLQTY4MCHS","A3F51C49T9A34D","335VBRURDJMQFRMOFGHOE9WKSHX9E1","","617.8999999999069","img/flower5.png","75","618.6000000000931","2","1","2","1","1,0.333,0.333,0.333,1,0.333,0.333,0.333,1","1,0.333,0.333,0.333,1,0.333,0.333,0.333,1","1",""
"","html-keyboard-response","241","126002","0.0-241.0","3A4TN5196L46JJIN834NQLQTY4MCHS","A3F51C49T9A34D","335VBRURDJMQFRMOFGHOE9WKSHX9E1","","null","<img src=""img/flower5.png"" style=""width:200px; border:14px solid green;"">","null","","","","","","","","",""
"","image-keyboard-response","242","126445","0.0-242.0","3A4TN5196L46JJIN834NQLQTY4MCHS","A3F51C49T9A34D","335VBRURDJMQFRMOFGHOE9WKSHX9E1","","442","img/flower3.png","75","442.60000000009313","2","0","1","1","1,0.333,0.333,0.333,1,0.333,0.333,0.333,1","1,0.333,0.333,0.333,1,0.333,0.333,0.333,1","1",""
"","html-keyboard-response","243","126754","0.0-243.0","3A4TN5196L46JJIN834NQLQTY4MCHS","A3F51C49T9A34D","335VBRURDJMQFRMOFGHOE9WKSHX9E1","","null","<img src=""img/flower3.png"" style=""width:200px;border:14px solid red;"">","null","","","","","","","","",""
"","image-keyboard-response","244","127325","0.0-244.0","3A4TN5196L46JJIN834NQLQTY4MCHS","A3F51C49T9A34D","335VBRURDJMQFRMOFGHOE9WKSHX9E1","","569.8999999999069","img/flower6.png","76","570.8000000002794","3","1","3","1","1,0.333,0.333,0.333,1,0.333,0.333,0.333,1","1,0.333,0.333,0.333,1,0.333,0.333,0.333,1","1",""
"","html-keyboard-response","245","127633","0.0-245.0","3A4TN5196L46JJIN834NQLQTY4MCHS","A3F51C49T9A34D","335VBRURDJMQFRMOFGHOE9WKSHX9E1","","null","<img src=""img/flower6.png"" style=""width:200px; border:14px solid green;"">","null","","","","","","","","",""
"","image-keyboard-response","246","128157","0.0-246.0","3A4TN5196L46JJIN834NQLQTY4MCHS","A3F51C49T9A34D","335VBRURDJMQFRMOFGHOE9WKSHX9E1","","523.2000000001863","img/flower6.png","75","523.8000000002794","2","1","3","1","1,0.333,0.333,0.333,1,0.333,0.333,0.333,1","1,0.333,0.333,0.333,1,0.333,0.333,0.333,1","1",""
"","html-keyboard-response","247","128465","0.0-247.0","3A4TN5196L46JJIN834NQLQTY4MCHS","A3F51C49T9A34D","335VBRURDJMQFRMOFGHOE9WKSHX9E1","","null","<img src=""img/flower6.png"" style=""width:200px; border:14px solid green;"">","null","","","","","","","","",""
"","image-keyboard-response","248","128956","0.0-248.0","3A4TN5196L46JJIN834NQLQTY4MCHS","A3F51C49T9A34D","335VBRURDJMQFRMOFGHOE9WKSHX9E1","","490.70000000018626","img/flower5.png","75","491.5","2","1","2","1","1,0.333,0.333,0.333,1,0.333,0.333,0.333,1","1,0.333,0.333,0.333,1,0.333,0.333,0.333,1","1",""
"","html-keyboard-response","249","129265","0.0-249.0","3A4TN5196L46JJIN834NQLQTY4MCHS","A3F51C49T9A34D","335VBRURDJMQFRMOFGHOE9WKSHX9E1","","null","<img src=""img/flower5.png"" style=""width:200px; border:14px solid green;"">","null","","","","","","","","",""
"","image-keyboard-response","250","129628","0.0-250.0","3A4TN5196L46JJIN834NQLQTY4MCHS","A3F51C49T9A34D","335VBRURDJMQFRMOFGHOE9WKSHX9E1","","362.60000000009313","img/flower5.png","75","363.39999999990687","2","1","2","1","1,0.333,0.333,0.333,1,0.333,0.333,0.333,1","1,0.333,0.333,0.333,1,0.333,0.333,0.333,1","1",""
"","html-keyboard-response","251","129937","0.0-251.0","3A4TN5196L46JJIN834NQLQTY4MCHS","A3F51C49T9A34D","335VBRURDJMQFRMOFGHOE9WKSHX9E1","","null","<img src=""img/flower5.png"" style=""width:200px; border:14px solid green;"">","null","","","","","","","","",""
"","image-keyboard-response","252","130108","0.0-252.0","3A4TN5196L46JJIN834NQLQTY4MCHS","A3F51C49T9A34D","335VBRURDJMQFRMOFGHOE9WKSHX9E1","","170.70000000018626","img/flower5.png","75","171.39999999990687","2","1","2","1","1,0.333,0.333,0.333,1,0.333,0.333,0.333,1","1,0.333,0.333,0.333,1,0.333,0.333,0.333,1","1",""
"","html-keyboard-response","253","130417","0.0-253.0","3A4TN5196L46JJIN834NQLQTY4MCHS","A3F51C49T9A34D","335VBRURDJMQFRMOFGHOE9WKSHX9E1","","null","<img src=""img/flower5.png"" style=""width:200px; border:14px solid green;"">","null","","","","","","","","",""
"","image-keyboard-response","254","130508","0.0-254.0","3A4TN5196L46JJIN834NQLQTY4MCHS","A3F51C49T9A34D","335VBRURDJMQFRMOFGHOE9WKSHX9E1","","90.70000000018626","img/flower6.png","75","91.39999999990687","2","0","3","1","1,0.333,0.333,0.333,1,0.333,0.333,0.333,1","1,0.333,0.333,0.333,1,0.333,0.333,0.333,1","1",""
"","html-keyboard-response","255","130817","0.0-255.0","3A4TN5196L46JJIN834NQLQTY4MCHS","A3F51C49T9A34D","335VBRURDJMQFRMOFGHOE9WKSHX9E1","","null","<img src=""img/flower6.png"" style=""width:200px;border:14px solid red;"">","null","","","","","","","","",""
"","image-keyboard-response","256","130972","0.0-256.0","3A4TN5196L46JJIN834NQLQTY4MCHS","A3F51C49T9A34D","335VBRURDJMQFRMOFGHOE9WKSHX9E1","","154.60000000009313","img/flower3.png","75","155.29999999981374","2","1","1","1","1,0.333,0.333,0.333,1,0.333,0.333,0.333,1","1,0.333,0.333,0.333,1,0.333,0.333,0.333,1","1",""
"","html-keyboard-response","257","131281","0.0-257.0","3A4TN5196L46JJIN834NQLQTY4MCHS","A3F51C49T9A34D","335VBRURDJMQFRMOFGHOE9WKSHX9E1","","null","<img src=""img/flower3.png"" style=""width:200px; border:14px solid green;"">","null","","","","","","","","",""
"","image-keyboard-response","258","131452","0.0-258.0","3A4TN5196L46JJIN834NQLQTY4MCHS","A3F51C49T9A34D","335VBRURDJMQFRMOFGHOE9WKSHX9E1","","170.5","img/flower3.png","75","171.29999999981374","2","1","1","1","1,0.333,0.333,0.333,1,0.333,0.333,0.333,1","1,0.333,0.333,0.333,1,0.333,0.333,0.333,1","1",""
"","html-keyboard-response","259","131761","0.0-259.0","3A4TN5196L46JJIN834NQLQTY4MCHS","A3F51C49T9A34D","335VBRURDJMQFRMOFGHOE9WKSHX9E1","","null","<img src=""img/flower3.png"" style=""width:200px; border:14px solid green;"">","null","","","","","","","","",""
"","image-keyboard-response","260","131900","0.0-260.0","3A4TN5196L46JJIN834NQLQTY4MCHS","A3F51C49T9A34D","335VBRURDJMQFRMOFGHOE9WKSHX9E1","","138.39999999990687","img/flower5.png","75","139.20000000018626","2","1","2","1","1,0.333,0.333,0.333,1,0.333,0.333,0.333,1","1,0.333,0.333,0.333,1,0.333,0.333,0.333,1","1",""
"","html-keyboard-response","261","132209","0.0-261.0","3A4TN5196L46JJIN834NQLQTY4MCHS","A3F51C49T9A34D","335VBRURDJMQFRMOFGHOE9WKSHX9E1","","null","<img src=""img/flower5.png"" style=""width:200px; border:14px solid green;"">","null","","","","","","","","",""
"","image-keyboard-response","262","132268","0.0-262.0","3A4TN5196L46JJIN834NQLQTY4MCHS","A3F51C49T9A34D","335VBRURDJMQFRMOFGHOE9WKSHX9E1","","58.5","img/flower6.png","75","59.299999999813735","2","0","3","1","1,0.333,0.333,0.333,1,0.333,0.333,0.333,1","1,0.333,0.333,0.333,1,0.333,0.333,0.333,1","1",""
"","html-keyboard-response","263","132577","0.0-263.0","3A4TN5196L46JJIN834NQLQTY4MCHS","A3F51C49T9A34D","335VBRURDJMQFRMOFGHOE9WKSHX9E1","","null","<img src=""img/flower6.png"" style=""width:200px;border:14px solid red;"">","null","","","","","","","","",""
"","image-keyboard-response","264","132604","0.0-264.0","3A4TN5196L46JJIN834NQLQTY4MCHS","A3F51C49T9A34D","335VBRURDJMQFRMOFGHOE9WKSHX9E1","","26.5","img/flower3.png","75","27.09999999962747","2","0","1","1","1,0.333,0.333,0.333,1,0.333,0.333,0.333,1","1,0.333,0.333,0.333,1,0.333,0.333,0.333,1","1",""
"","html-keyboard-response","265","132905","0.0-265.0","3A4TN5196L46JJIN834NQLQTY4MCHS","A3F51C49T9A34D","335VBRURDJMQFRMOFGHOE9WKSHX9E1","","null","<img src=""img/flower3.png"" style=""width:200px;border:14px solid red;"">","null","","","","","","","","",""
"","image-keyboard-response","266","133629","0.0-266.0","3A4TN5196L46JJIN834NQLQTY4MCHS","A3F51C49T9A34D","335VBRURDJMQFRMOFGHOE9WKSHX9E1","","722.3999999999069","img/flower5.png","75","723.1999999997206","2","1","2","1","1,0.333,0.333,0.333,1,0.333,0.333,0.333,1","1,0.333,0.333,0.333,1,0.333,0.333,0.333,1","1",""
"","html-keyboard-response","267","133937","0.0-267.0","3A4TN5196L46JJIN834NQLQTY4MCHS","A3F51C49T9A34D","335VBRURDJMQFRMOFGHOE9WKSHX9E1","","null","<img src=""img/flower5.png"" style=""width:200px; border:14px solid green;"">","null","","","","","","","","",""
"","image-keyboard-response","268","134413","0.0-268.0","3A4TN5196L46JJIN834NQLQTY4MCHS","A3F51C49T9A34D","335VBRURDJMQFRMOFGHOE9WKSHX9E1","","475","img/flower3.png","75","475.79999999981374","2","0","1","1","1,0.333,0.333,0.333,1,0.333,0.333,0.333,1","1,0.333,0.333,0.333,1,0.333,0.333,0.333,1","1",""
"","html-keyboard-response","269","134721","0.0-269.0","3A4TN5196L46JJIN834NQLQTY4MCHS","A3F51C49T9A34D","335VBRURDJMQFRMOFGHOE9WKSHX9E1","","null","<img src=""img/flower3.png"" style=""width:200px;border:14px solid red;"">","null","","","","","","","","",""
"","image-keyboard-response","270","135212","0.0-270.0","3A4TN5196L46JJIN834NQLQTY4MCHS","A3F51C49T9A34D","335VBRURDJMQFRMOFGHOE9WKSHX9E1","","490.3000000002794","img/flower5.png","75","491.09999999962747","2","1","2","1","1,0.333,0.333,0.333,1,0.333,0.333,0.333,1","1,0.333,0.333,0.333,1,0.333,0.333,0.333,1","1",""
"","html-keyboard-response","271","135521","0.0-271.0","3A4TN5196L46JJIN834NQLQTY4MCHS","A3F51C49T9A34D","335VBRURDJMQFRMOFGHOE9WKSHX9E1","","null","<img src=""img/flower5.png"" style=""width:200px; border:14px solid green;"">","null","","","","","","","","",""
"","image-keyboard-response","272","135964","0.0-272.0","3A4TN5196L46JJIN834NQLQTY4MCHS","A3F51C49T9A34D","335VBRURDJMQFRMOFGHOE9WKSHX9E1","","442.39999999990687","img/flower3.png","75","443.09999999962747","2","1","1","1","1,0.333,0.333,0.333,1,0.333,0.333,0.333,1","1,0.333,0.333,0.333,1,0.333,0.333,0.333,1","1",""
"","html-keyboard-response","273","136273","0.0-273.0","3A4TN5196L46JJIN834NQLQTY4MCHS","A3F51C49T9A34D","335VBRURDJMQFRMOFGHOE9WKSHX9E1","","null","<img src=""img/flower3.png"" style=""width:200px; border:14px solid green;"">","null","","","","","","","","",""
"","image-keyboard-response","274","136876","0.0-274.0","3A4TN5196L46JJIN834NQLQTY4MCHS","A3F51C49T9A34D","335VBRURDJMQFRMOFGHOE9WKSHX9E1","","602.3999999999069","img/flower6.png","76","603","3","1","3","1","1,0.333,0.333,0.333,1,0.333,0.333,0.333,1","1,0.333,0.333,0.333,1,0.333,0.333,0.333,1","1",""
"","html-keyboard-response","275","137185","0.0-275.0","3A4TN5196L46JJIN834NQLQTY4MCHS","A3F51C49T9A34D","335VBRURDJMQFRMOFGHOE9WKSHX9E1","","null","<img src=""img/flower6.png"" style=""width:200px; border:14px solid green;"">","null","","","","","","","","",""
"","image-keyboard-response","276","137852","0.0-276.0","3A4TN5196L46JJIN834NQLQTY4MCHS","A3F51C49T9A34D","335VBRURDJMQFRMOFGHOE9WKSHX9E1","","666.3000000002794","img/flower6.png","76","667","3","1","3","1","1,0.333,0.333,0.333,1,0.333,0.333,0.333,1","1,0.333,0.333,0.333,1,0.333,0.333,0.333,1","1",""
"","html-keyboard-response","277","138161","0.0-277.0","3A4TN5196L46JJIN834NQLQTY4MCHS","A3F51C49T9A34D","335VBRURDJMQFRMOFGHOE9WKSHX9E1","","null","<img src=""img/flower6.png"" style=""width:200px; border:14px solid green;"">","null","","","","","","","","",""
"","image-keyboard-response","278","138589","0.0-278.0","3A4TN5196L46JJIN834NQLQTY4MCHS","A3F51C49T9A34D","335VBRURDJMQFRMOFGHOE9WKSHX9E1","","426.39999999990687","img/flower6.png","76","427.10000000009313","3","1","3","1","1,0.333,0.333,0.333,1,0.333,0.333,0.333,1","1,0.333,0.333,0.333,1,0.333,0.333,0.333,1","1",""
"","html-keyboard-response","279","138897","0.0-279.0","3A4TN5196L46JJIN834NQLQTY4MCHS","A3F51C49T9A34D","335VBRURDJMQFRMOFGHOE9WKSHX9E1","","null","<img src=""img/flower6.png"" style=""width:200px; border:14px solid green;"">","null","","","","","","","","",""
"","image-keyboard-response","280","139356","0.0-280.0","3A4TN5196L46JJIN834NQLQTY4MCHS","A3F51C49T9A34D","335VBRURDJMQFRMOFGHOE9WKSHX9E1","","458.10000000009313","img/flower5.png","75","458.89999999990687","2","1","2","1","1,0.333,0.333,0.333,1,0.333,0.333,0.333,1","1,0.333,0.333,0.333,1,0.333,0.333,0.333,1","1",""
"","html-keyboard-response","281","139665","0.0-281.0","3A4TN5196L46JJIN834NQLQTY4MCHS","A3F51C49T9A34D","335VBRURDJMQFRMOFGHOE9WKSHX9E1","","null","<img src=""img/flower5.png"" style=""width:200px; border:14px solid green;"">","null","","","","","","","","",""
"","image-keyboard-response","282","139980","0.0-282.0","3A4TN5196L46JJIN834NQLQTY4MCHS","A3F51C49T9A34D","335VBRURDJMQFRMOFGHOE9WKSHX9E1","","314.10000000009313","img/flower5.png","75","314.90000000037253","2","1","2","1","1,0.333,0.333,0.333,1,0.333,0.333,0.333,1","1,0.333,0.333,0.333,1,0.333,0.333,0.333,1","1",""
"","html-keyboard-response","283","140289","0.0-283.0","3A4TN5196L46JJIN834NQLQTY4MCHS","A3F51C49T9A34D","335VBRURDJMQFRMOFGHOE9WKSHX9E1","","null","<img src=""img/flower5.png"" style=""width:200px; border:14px solid green;"">","null","","","","","","","","",""
"","image-keyboard-response","284","140956","0.0-284.0","3A4TN5196L46JJIN834NQLQTY4MCHS","A3F51C49T9A34D","335VBRURDJMQFRMOFGHOE9WKSHX9E1","","666","img/flower6.png","76","666.8000000002794","3","1","3","1","1,0.333,0.333,0.333,1,0.333,0.333,0.333,1","1,0.333,0.333,0.333,1,0.333,0.333,0.333,1","1",""
"","html-keyboard-response","285","141266","0.0-285.0","3A4TN5196L46JJIN834NQLQTY4MCHS","A3F51C49T9A34D","335VBRURDJMQFRMOFGHOE9WKSHX9E1","","null","<img src=""img/flower6.png"" style=""width:200px; border:14px solid green;"">","null","","","","","","","","",""
"","image-keyboard-response","286","141628","0.0-286.0","3A4TN5196L46JJIN834NQLQTY4MCHS","A3F51C49T9A34D","335VBRURDJMQFRMOFGHOE9WKSHX9E1","","362","img/flower6.png","76","362.79999999981374","3","1","3","1","1,0.333,0.333,0.333,1,0.333,0.333,0.333,1","1,0.333,0.333,0.333,1,0.333,0.333,0.333,1","1",""
"","html-keyboard-response","287","141938","0.0-287.0","3A4TN5196L46JJIN834NQLQTY4MCHS","A3F51C49T9A34D","335VBRURDJMQFRMOFGHOE9WKSHX9E1","","null","<img src=""img/flower6.png"" style=""width:200px; border:14px solid green;"">","null","","","","","","","","",""
"","image-keyboard-response","288","142604","0.0-288.0","3A4TN5196L46JJIN834NQLQTY4MCHS","A3F51C49T9A34D","335VBRURDJMQFRMOFGHOE9WKSHX9E1","","665.8999999999069","img/flower5.png","75","666.6000000000931","2","1","2","1","1,0.333,0.333,0.333,1,0.333,0.333,0.333,1","1,0.333,0.333,0.333,1,0.333,0.333,0.333,1","1",""
"","html-keyboard-response","289","142914","0.0-289.0","3A4TN5196L46JJIN834NQLQTY4MCHS","A3F51C49T9A34D","335VBRURDJMQFRMOFGHOE9WKSHX9E1","","null","<img src=""img/flower5.png"" style=""width:200px; border:14px solid green;"">","null","","","","","","","","",""
"","image-keyboard-response","290","143420","0.0-290.0","3A4TN5196L46JJIN834NQLQTY4MCHS","A3F51C49T9A34D","335VBRURDJMQFRMOFGHOE9WKSHX9E1","","505.89999999990687","img/flower3.png","75","506.6999999997206","2","0","1","1","1,0.333,0.333,0.333,1,0.333,0.333,0.333,1","1,0.333,0.333,0.333,1,0.333,0.333,0.333,1","1",""
"","html-keyboard-response","291","143730","0.0-291.0","3A4TN5196L46JJIN834NQLQTY4MCHS","A3F51C49T9A34D","335VBRURDJMQFRMOFGHOE9WKSHX9E1","","null","<img src=""img/flower3.png"" style=""width:200px;border:14px solid red;"">","null","","","","","","","","",""
"","image-keyboard-response","292","144252","0.0-292.0","3A4TN5196L46JJIN834NQLQTY4MCHS","A3F51C49T9A34D","335VBRURDJMQFRMOFGHOE9WKSHX9E1","","521.8999999999069","img/flower5.png","76","522.6999999997206","3","1","2","1","1,0.333,0.333,0.333,1,0.333,0.333,0.333,1","1,0.333,0.333,0.333,1,0.333,0.333,0.333,1","1",""
"","html-keyboard-response","293","144562","0.0-293.0","3A4TN5196L46JJIN834NQLQTY4MCHS","A3F51C49T9A34D","335VBRURDJMQFRMOFGHOE9WKSHX9E1","","null","<img src=""img/flower5.png"" style=""width:200px; border:14px solid green;"">","null","","","","","","","","",""
"","image-keyboard-response","294","145340","0.0-294.0","3A4TN5196L46JJIN834NQLQTY4MCHS","A3F51C49T9A34D","335VBRURDJMQFRMOFGHOE9WKSHX9E1","","777.8999999999069","img/flower3.png","74","778.5999999996275","1","1","1","1","1,0.333,0.333,0.333,1,0.333,0.333,0.333,1","1,0.333,0.333,0.333,1,0.333,0.333,0.333,1","1",""
"","html-keyboard-response","295","145650","0.0-295.0","3A4TN5196L46JJIN834NQLQTY4MCHS","A3F51C49T9A34D","335VBRURDJMQFRMOFGHOE9WKSHX9E1","","null","<img src=""img/flower3.png"" style=""width:200px; border:14px solid green;"">","null","","","","","","","","",""
"","image-keyboard-response","296","146268","0.0-296.0","3A4TN5196L46JJIN834NQLQTY4MCHS","A3F51C49T9A34D","335VBRURDJMQFRMOFGHOE9WKSHX9E1","","617.7999999998137","img/flower6.png","76","618.4000000003725","3","1","3","1","1,0.333,0.333,0.333,1,0.333,0.333,0.333,1","1,0.333,0.333,0.333,1,0.333,0.333,0.333,1","1",""
"","html-keyboard-response","297","146578","0.0-297.0","3A4TN5196L46JJIN834NQLQTY4MCHS","A3F51C49T9A34D","335VBRURDJMQFRMOFGHOE9WKSHX9E1","","null","<img src=""img/flower6.png"" style=""width:200px; border:14px solid green;"">","null","","","","","","","","",""
"","image-keyboard-response","298","146940","0.0-298.0","3A4TN5196L46JJIN834NQLQTY4MCHS","A3F51C49T9A34D","335VBRURDJMQFRMOFGHOE9WKSHX9E1","","361.60000000009313","img/flower6.png","76","362.40000000037253","3","1","3","1","1,0.333,0.333,0.333,1,0.333,0.333,0.333,1","1,0.333,0.333,0.333,1,0.333,0.333,0.333,1","1",""
"","html-keyboard-response","299","147250","0.0-299.0","3A4TN5196L46JJIN834NQLQTY4MCHS","A3F51C49T9A34D","335VBRURDJMQFRMOFGHOE9WKSHX9E1","","null","<img src=""img/flower6.png"" style=""width:200px; border:14px solid green;"">","null","","","","","","","","",""
"","image-keyboard-response","300","147868","0.0-300.0","3A4TN5196L46JJIN834NQLQTY4MCHS","A3F51C49T9A34D","335VBRURDJMQFRMOFGHOE9WKSHX9E1","","617.7000000001863","img/flower3.png","75","618.5","2","0","1","1","1,0.333,0.333,0.333,1,0.333,0.333,0.333,1","1,0.333,0.333,0.333,1,0.333,0.333,0.333,1","1",""
"","html-keyboard-response","301","148178","0.0-301.0","3A4TN5196L46JJIN834NQLQTY4MCHS","A3F51C49T9A34D","335VBRURDJMQFRMOFGHOE9WKSHX9E1","","null","<img src=""img/flower3.png"" style=""width:200px;border:14px solid red;"">","null","","","","","","","","",""
"","image-keyboard-response","302","148765","0.0-302.0","3A4TN5196L46JJIN834NQLQTY4MCHS","A3F51C49T9A34D","335VBRURDJMQFRMOFGHOE9WKSHX9E1","","586","img/flower3.png","76","586.7000000001863","3","0","1","1","1,0.333,0.333,0.333,1,0.333,0.333,0.333,1","1,0.333,0.333,0.333,1,0.333,0.333,0.333,1","1",""
"","html-keyboard-response","303","149074","0.0-303.0","3A4TN5196L46JJIN834NQLQTY4MCHS","A3F51C49T9A34D","335VBRURDJMQFRMOFGHOE9WKSHX9E1","","null","<img src=""img/flower3.png"" style=""width:200px;border:14px solid red;"">","null","","","","","","","","",""
"","image-keyboard-response","304","149740","0.0-304.0","3A4TN5196L46JJIN834NQLQTY4MCHS","A3F51C49T9A34D","335VBRURDJMQFRMOFGHOE9WKSHX9E1","","665.5","img/flower6.png","76","666.2000000001863","3","1","3","1","1,0.333,0.333,0.333,1,0.333,0.333,0.333,1","1,0.333,0.333,0.333,1,0.333,0.333,0.333,1","1",""
"","html-keyboard-response","305","150050","0.0-305.0","3A4TN5196L46JJIN834NQLQTY4MCHS","A3F51C49T9A34D","335VBRURDJMQFRMOFGHOE9WKSHX9E1","","null","<img src=""img/flower6.png"" style=""width:200px; border:14px solid green;"">","null","","","","","","","","",""
"","image-keyboard-response","306","150588","0.0-306.0","3A4TN5196L46JJIN834NQLQTY4MCHS","A3F51C49T9A34D","335VBRURDJMQFRMOFGHOE9WKSHX9E1","","537.6000000000931","img/flower5.png","75","538.2000000001863","2","1","2","1","1,0.333,0.333,0.333,1,0.333,0.333,0.333,1","1,0.333,0.333,0.333,1,0.333,0.333,0.333,1","1",""
"","html-keyboard-response","307","150897","0.0-307.0","3A4TN5196L46JJIN834NQLQTY4MCHS","A3F51C49T9A34D","335VBRURDJMQFRMOFGHOE9WKSHX9E1","","null","<img src=""img/flower5.png"" style=""width:200px; border:14px solid green;"">","null","","","","","","","","",""
"","image-keyboard-response","308","151708","0.0-308.0","3A4TN5196L46JJIN834NQLQTY4MCHS","A3F51C49T9A34D","335VBRURDJMQFRMOFGHOE9WKSHX9E1","","810.5","img/flower6.png","76","811.2000000001863","3","1","3","1","1,0.333,0.333,0.333,1,0.333,0.333,0.333,1","1,0.333,0.333,0.333,1,0.333,0.333,0.333,1","1",""
"","html-keyboard-response","309","152017","0.0-309.0","3A4TN5196L46JJIN834NQLQTY4MCHS","A3F51C49T9A34D","335VBRURDJMQFRMOFGHOE9WKSHX9E1","","null","<img src=""img/flower6.png"" style=""width:200px; border:14px solid green;"">","null","","","","","","","","",""
"","image-keyboard-response","310","152460","0.0-310.0","3A4TN5196L46JJIN834NQLQTY4MCHS","A3F51C49T9A34D","335VBRURDJMQFRMOFGHOE9WKSHX9E1","","442.39999999990687","img/flower5.png","76","443","3","0","2","1","1,0.333,0.333,0.333,1,0.333,0.333,0.333,1","1,0.333,0.333,0.333,1,0.333,0.333,0.333,1","1",""
"","html-keyboard-response","311","152769","0.0-311.0","3A4TN5196L46JJIN834NQLQTY4MCHS","A3F51C49T9A34D","335VBRURDJMQFRMOFGHOE9WKSHX9E1","","null","<img src=""img/flower5.png"" style=""width:200px;border:14px solid red;"">","null","","","","","","","","",""
"","image-keyboard-response","312","153612","0.0-312.0","3A4TN5196L46JJIN834NQLQTY4MCHS","A3F51C49T9A34D","335VBRURDJMQFRMOFGHOE9WKSHX9E1","","842.2999999998137","img/flower3.png","74","843.1000000000931","1","1","1","1","1,0.333,0.333,0.333,1,0.333,0.333,0.333,1","1,0.333,0.333,0.333,1,0.333,0.333,0.333,1","1",""
"","html-keyboard-response","313","153921","0.0-313.0","3A4TN5196L46JJIN834NQLQTY4MCHS","A3F51C49T9A34D","335VBRURDJMQFRMOFGHOE9WKSHX9E1","","null","<img src=""img/flower3.png"" style=""width:200px; border:14px solid green;"">","null","","","","","","","","",""
"","image-keyboard-response","314","154556","0.0-314.0","3A4TN5196L46JJIN834NQLQTY4MCHS","A3F51C49T9A34D","335VBRURDJMQFRMOFGHOE9WKSHX9E1","","634.1999999997206","img/flower6.png","76","635","3","1","3","1","1,0.333,0.333,0.333,1,0.333,0.333,0.333,1","1,0.333,0.333,0.333,1,0.333,0.333,0.333,1","1",""
"","html-keyboard-response","315","154865","0.0-315.0","3A4TN5196L46JJIN834NQLQTY4MCHS","A3F51C49T9A34D","335VBRURDJMQFRMOFGHOE9WKSHX9E1","","null","<img src=""img/flower6.png"" style=""width:200px; border:14px solid green;"">","null","","","","","","","","",""
"","image-keyboard-response","316","155324","0.0-316.0","3A4TN5196L46JJIN834NQLQTY4MCHS","A3F51C49T9A34D","335VBRURDJMQFRMOFGHOE9WKSHX9E1","","458.1999999997206","img/flower5.png","75","458.79999999981374","2","1","2","1","1,0.333,0.333,0.333,1,0.333,0.333,0.333,1","1,0.333,0.333,0.333,1,0.333,0.333,0.333,1","1",""
"","html-keyboard-response","317","155633","0.0-317.0","3A4TN5196L46JJIN834NQLQTY4MCHS","A3F51C49T9A34D","335VBRURDJMQFRMOFGHOE9WKSHX9E1","","null","<img src=""img/flower5.png"" style=""width:200px; border:14px solid green;"">","null","","","","","","","","",""
"","image-keyboard-response","318","156268","0.0-318.0","3A4TN5196L46JJIN834NQLQTY4MCHS","A3F51C49T9A34D","335VBRURDJMQFRMOFGHOE9WKSHX9E1","","634.1999999997206","img/flower3.png","74","635","1","1","1","1","1,0.333,0.333,0.333,1,0.333,0.333,0.333,1","1,0.333,0.333,0.333,1,0.333,0.333,0.333,1","1",""
"","html-keyboard-response","319","156577","0.0-319.0","3A4TN5196L46JJIN834NQLQTY4MCHS","A3F51C49T9A34D","335VBRURDJMQFRMOFGHOE9WKSHX9E1","","null","<img src=""img/flower3.png"" style=""width:200px; border:14px solid green;"">","null","","","","","","","","",""
"","image-keyboard-response","320","157132","0.0-320.0","3A4TN5196L46JJIN834NQLQTY4MCHS","A3F51C49T9A34D","335VBRURDJMQFRMOFGHOE9WKSHX9E1","","554.0999999996275","img/flower6.png","76","554.8999999999069","3","1","3","1","1,0.333,0.333,0.333,1,0.333,0.333,0.333,1","1,0.333,0.333,0.333,1,0.333,0.333,0.333,1","1",""
"","html-keyboard-response","321","157441","0.0-321.0","3A4TN5196L46JJIN834NQLQTY4MCHS","A3F51C49T9A34D","335VBRURDJMQFRMOFGHOE9WKSHX9E1","","null","<img src=""img/flower6.png"" style=""width:200px; border:14px solid green;"">","null","","","","","","","","",""
"","image-keyboard-response","322","158332","0.0-322.0","3A4TN5196L46JJIN834NQLQTY4MCHS","A3F51C49T9A34D","335VBRURDJMQFRMOFGHOE9WKSHX9E1","","890.0999999996275","img/flower3.png","74","890.7999999998137","1","1","1","1","1,0.333,0.333,0.333,1,0.333,0.333,0.333,1","1,0.333,0.333,0.333,1,0.333,0.333,0.333,1","1",""
"","html-keyboard-response","323","158641","0.0-323.0","3A4TN5196L46JJIN834NQLQTY4MCHS","A3F51C49T9A34D","335VBRURDJMQFRMOFGHOE9WKSHX9E1","","null","<img src=""img/flower3.png"" style=""width:200px; border:14px solid green;"">","null","","","","","","","","",""
"","image-keyboard-response","324","159196","0.0-324.0","3A4TN5196L46JJIN834NQLQTY4MCHS","A3F51C49T9A34D","335VBRURDJMQFRMOFGHOE9WKSHX9E1","","554.3000000002794","img/flower3.png","74","555","1","1","1","1","1,0.333,0.333,0.333,1,0.333,0.333,0.333,1","1,0.333,0.333,0.333,1,0.333,0.333,0.333,1","1",""
"","html-keyboard-response","325","159508","0.0-325.0","3A4TN5196L46JJIN834NQLQTY4MCHS","A3F51C49T9A34D","335VBRURDJMQFRMOFGHOE9WKSHX9E1","","null","<img src=""img/flower3.png"" style=""width:200px; border:14px solid green;"">","null","","","","","","","","",""
"","image-keyboard-response","326","159916","0.0-326.0","3A4TN5196L46JJIN834NQLQTY4MCHS","A3F51C49T9A34D","335VBRURDJMQFRMOFGHOE9WKSHX9E1","","407.59999999962747","img/flower3.png","74","408.5","1","1","1","1","1,0.333,0.333,0.333,1,0.333,0.333,0.333,1","1,0.333,0.333,0.333,1,0.333,0.333,0.333,1","1",""
"","html-keyboard-response","327","160225","0.0-327.0","3A4TN5196L46JJIN834NQLQTY4MCHS","A3F51C49T9A34D","335VBRURDJMQFRMOFGHOE9WKSHX9E1","","null","<img src=""img/flower3.png"" style=""width:200px; border:14px solid green;"">","null","","","","","","","","",""
"","image-keyboard-response","328","160940","0.0-328.0","3A4TN5196L46JJIN834NQLQTY4MCHS","A3F51C49T9A34D","335VBRURDJMQFRMOFGHOE9WKSHX9E1","","713.8000000002794","img/flower5.png","75","714.6000000000931","2","1","2","1","1,0.333,0.333,0.333,1,0.333,0.333,0.333,1","1,0.333,0.333,0.333,1,0.333,0.333,0.333,1","1",""
"","html-keyboard-response","329","161249","0.0-329.0","3A4TN5196L46JJIN834NQLQTY4MCHS","A3F51C49T9A34D","335VBRURDJMQFRMOFGHOE9WKSHX9E1","","null","<img src=""img/flower5.png"" style=""width:200px; border:14px solid green;"">","null","","","","","","","","",""
"","image-keyboard-response","330","162060","0.0-330.0","3A4TN5196L46JJIN834NQLQTY4MCHS","A3F51C49T9A34D","335VBRURDJMQFRMOFGHOE9WKSHX9E1","","809.8000000002794","img/flower3.png","74","810.7000000001863","1","1","1","1","1,0.333,0.333,0.333,1,0.333,0.333,0.333,1","1,0.333,0.333,0.333,1,0.333,0.333,0.333,1","1",""
"","html-keyboard-response","331","162369","0.0-331.0","3A4TN5196L46JJIN834NQLQTY4MCHS","A3F51C49T9A34D","335VBRURDJMQFRMOFGHOE9WKSHX9E1","","null","<img src=""img/flower3.png"" style=""width:200px; border:14px solid green;"">","null","","","","","","","","",""
"","image-keyboard-response","332","163036","0.0-332.0","3A4TN5196L46JJIN834NQLQTY4MCHS","A3F51C49T9A34D","335VBRURDJMQFRMOFGHOE9WKSHX9E1","","665.8999999999069","img/flower6.png","76","666.6000000000931","3","1","3","1","1,0.333,0.333,0.333,1,0.333,0.333,0.333,1","1,0.333,0.333,0.333,1,0.333,0.333,0.333,1","1",""
"","html-keyboard-response","333","163345","0.0-333.0","3A4TN5196L46JJIN834NQLQTY4MCHS","A3F51C49T9A34D","335VBRURDJMQFRMOFGHOE9WKSHX9E1","","null","<img src=""img/flower6.png"" style=""width:200px; border:14px solid green;"">","null","","","","","","","","",""
"","image-keyboard-response","334","164188","0.0-334.0","3A4TN5196L46JJIN834NQLQTY4MCHS","A3F51C49T9A34D","335VBRURDJMQFRMOFGHOE9WKSHX9E1","","841.7000000001863","img/flower3.png","74","842.5","1","1","1","1","1,0.333,0.333,0.333,1,0.333,0.333,0.333,1","1,0.333,0.333,0.333,1,0.333,0.333,0.333,1","1",""
"","html-keyboard-response","335","164498","0.0-335.0","3A4TN5196L46JJIN834NQLQTY4MCHS","A3F51C49T9A34D","335VBRURDJMQFRMOFGHOE9WKSHX9E1","","null","<img src=""img/flower3.png"" style=""width:200px; border:14px solid green;"">","null","","","","","","","","",""
"","image-keyboard-response","336","165116","0.0-336.0","3A4TN5196L46JJIN834NQLQTY4MCHS","A3F51C49T9A34D","335VBRURDJMQFRMOFGHOE9WKSHX9E1","","617.6000000000931","img/flower6.png","76","618.3999999999069","3","1","3","1","1,0.333,0.333,0.333,1,0.333,0.333,0.333,1","1,0.333,0.333,0.333,1,0.333,0.333,0.333,1","1",""
"","html-keyboard-response","337","165426","0.0-337.0","3A4TN5196L46JJIN834NQLQTY4MCHS","A3F51C49T9A34D","335VBRURDJMQFRMOFGHOE9WKSHX9E1","","null","<img src=""img/flower6.png"" style=""width:200px; border:14px solid green;"">","null","","","","","","","","",""
"","image-keyboard-response","338","165900","0.0-338.0","3A4TN5196L46JJIN834NQLQTY4MCHS","A3F51C49T9A34D","335VBRURDJMQFRMOFGHOE9WKSHX9E1","","473.70000000018626","img/flower6.png","76","474.39999999990687","3","1","3","1","1,0.333,0.333,0.333,1,0.333,0.333,0.333,1","1,0.333,0.333,0.333,1,0.333,0.333,0.333,1","1",""
"","html-keyboard-response","339","166210","0.0-339.0","3A4TN5196L46JJIN834NQLQTY4MCHS","A3F51C49T9A34D","335VBRURDJMQFRMOFGHOE9WKSHX9E1","","null","<img src=""img/flower6.png"" style=""width:200px; border:14px solid green;"">","null","","","","","","","","",""
"","image-keyboard-response","340","166908","0.0-340.0","3A4TN5196L46JJIN834NQLQTY4MCHS","A3F51C49T9A34D","335VBRURDJMQFRMOFGHOE9WKSHX9E1","","697.6000000000931","img/flower3.png","74","698.1999999997206","1","1","1","1","1,0.333,0.333,0.333,1,0.333,0.333,0.333,1","1,0.333,0.333,0.333,1,0.333,0.333,0.333,1","1",""
"","html-keyboard-response","341","167210","0.0-341.0","3A4TN5196L46JJIN834NQLQTY4MCHS","A3F51C49T9A34D","335VBRURDJMQFRMOFGHOE9WKSHX9E1","","null","<img src=""img/flower3.png"" style=""width:200px; border:14px solid green;"">","null","","","","","","","","",""
"","image-keyboard-response","342","167948","0.0-342.0","3A4TN5196L46JJIN834NQLQTY4MCHS","A3F51C49T9A34D","335VBRURDJMQFRMOFGHOE9WKSHX9E1","","737.5","img/flower6.png","76","738.3999999999069","3","1","3","1","1,0.333,0.333,0.333,1,0.333,0.333,0.333,1","1,0.333,0.333,0.333,1,0.333,0.333,0.333,1","1",""
"","html-keyboard-response","343","168258","0.0-343.0","3A4TN5196L46JJIN834NQLQTY4MCHS","A3F51C49T9A34D","335VBRURDJMQFRMOFGHOE9WKSHX9E1","","null","<img src=""img/flower6.png"" style=""width:200px; border:14px solid green;"">","null","","","","","","","","",""
"","image-keyboard-response","344","168668","0.0-344.0","3A4TN5196L46JJIN834NQLQTY4MCHS","A3F51C49T9A34D","335VBRURDJMQFRMOFGHOE9WKSHX9E1","","409.39999999990687","img/flower6.png","76","410.1999999997206","3","1","3","1","1,0.333,0.333,0.333,1,0.333,0.333,0.333,1","1,0.333,0.333,0.333,1,0.333,0.333,0.333,1","1",""
"","html-keyboard-response","345","168978","0.0-345.0","3A4TN5196L46JJIN834NQLQTY4MCHS","A3F51C49T9A34D","335VBRURDJMQFRMOFGHOE9WKSHX9E1","","null","<img src=""img/flower6.png"" style=""width:200px; border:14px solid green;"">","null","","","","","","","","",""
"","image-keyboard-response","346","169468","0.0-346.0","3A4TN5196L46JJIN834NQLQTY4MCHS","A3F51C49T9A34D","335VBRURDJMQFRMOFGHOE9WKSHX9E1","","489.5","img/flower3.png","74","490.5","1","1","1","1","1,0.333,0.333,0.333,1,0.333,0.333,0.333,1","1,0.333,0.333,0.333,1,0.333,0.333,0.333,1","1",""
"","html-keyboard-response","347","169778","0.0-347.0","3A4TN5196L46JJIN834NQLQTY4MCHS","A3F51C49T9A34D","335VBRURDJMQFRMOFGHOE9WKSHX9E1","","null","<img src=""img/flower3.png"" style=""width:200px; border:14px solid green;"">","null","","","","","","","","",""
"","image-keyboard-response","348","170508","0.0-348.0","3A4TN5196L46JJIN834NQLQTY4MCHS","A3F51C49T9A34D","335VBRURDJMQFRMOFGHOE9WKSHX9E1","","729.4000000003725","img/flower5.png","75","730.1000000000931","2","1","2","1","1,0.333,0.333,0.333,1,0.333,0.333,0.333,1","1,0.333,0.333,0.333,1,0.333,0.333,0.333,1","1",""
"","html-keyboard-response","349","170818","0.0-349.0","3A4TN5196L46JJIN834NQLQTY4MCHS","A3F51C49T9A34D","335VBRURDJMQFRMOFGHOE9WKSHX9E1","","null","<img src=""img/flower5.png"" style=""width:200px; border:14px solid green;"">","null","","","","","","","","",""
"","image-keyboard-response","350","171484","0.0-350.0","3A4TN5196L46JJIN834NQLQTY4MCHS","A3F51C49T9A34D","335VBRURDJMQFRMOFGHOE9WKSHX9E1","","665.3000000002794","img/flower3.png","74","666.1000000000931","1","1","1","1","1,0.333,0.333,0.333,1,0.333,0.333,0.333,1","1,0.333,0.333,0.333,1,0.333,0.333,0.333,1","1",""
"","html-keyboard-response","351","171794","0.0-351.0","3A4TN5196L46JJIN834NQLQTY4MCHS","A3F51C49T9A34D","335VBRURDJMQFRMOFGHOE9WKSHX9E1","","null","<img src=""img/flower3.png"" style=""width:200px; border:14px solid green;"">","null","","","","","","","","",""
"","image-keyboard-response","352","172508","0.0-352.0","3A4TN5196L46JJIN834NQLQTY4MCHS","A3F51C49T9A34D","335VBRURDJMQFRMOFGHOE9WKSHX9E1","","713.2000000001863","img/flower5.png","75","714","2","1","2","1","1,0.333,0.333,0.333,1,0.333,0.333,0.333,1","1,0.333,0.333,0.333,1,0.333,0.333,0.333,1","1",""
"","html-keyboard-response","353","172809","0.0-353.0","3A4TN5196L46JJIN834NQLQTY4MCHS","A3F51C49T9A34D","335VBRURDJMQFRMOFGHOE9WKSHX9E1","","null","<img src=""img/flower5.png"" style=""width:200px; border:14px solid green;"">","null","","","","","","","","",""
"","image-keyboard-response","354","173244","0.0-354.0","3A4TN5196L46JJIN834NQLQTY4MCHS","A3F51C49T9A34D","335VBRURDJMQFRMOFGHOE9WKSHX9E1","","434.20000000018626","img/flower5.png","75","435","2","1","2","1","1,0.333,0.333,0.333,1,0.333,0.333,0.333,1","1,0.333,0.333,0.333,1,0.333,0.333,0.333,1","1",""
"","html-keyboard-response","355","173545","0.0-355.0","3A4TN5196L46JJIN834NQLQTY4MCHS","A3F51C49T9A34D","335VBRURDJMQFRMOFGHOE9WKSHX9E1","","null","<img src=""img/flower5.png"" style=""width:200px; border:14px solid green;"">","null","","","","","","","","",""
"","image-keyboard-response","356","174188","0.0-356.0","3A4TN5196L46JJIN834NQLQTY4MCHS","A3F51C49T9A34D","335VBRURDJMQFRMOFGHOE9WKSHX9E1","","642.1000000000931","img/flower3.png","74","643","1","1","1","1","1,0.333,0.333,0.333,1,0.333,0.333,0.333,1","1,0.333,0.333,0.333,1,0.333,0.333,0.333,1","1",""
"","html-keyboard-response","357","174489","0.0-357.0","3A4TN5196L46JJIN834NQLQTY4MCHS","A3F51C49T9A34D","335VBRURDJMQFRMOFGHOE9WKSHX9E1","","null","<img src=""img/flower3.png"" style=""width:200px; border:14px solid green;"">","null","","","","","","","","",""
"","image-keyboard-response","358","175116","0.0-358.0","3A4TN5196L46JJIN834NQLQTY4MCHS","A3F51C49T9A34D","335VBRURDJMQFRMOFGHOE9WKSHX9E1","","626","img/flower5.png","75","626.7999999998137","2","1","2","1","1,0.333,0.333,0.333,1,0.333,0.333,0.333,1","1,0.333,0.333,0.333,1,0.333,0.333,0.333,1","1",""
"","html-keyboard-response","359","175417","0.0-359.0","3A4TN5196L46JJIN834NQLQTY4MCHS","A3F51C49T9A34D","335VBRURDJMQFRMOFGHOE9WKSHX9E1","","null","<img src=""img/flower5.png"" style=""width:200px; border:14px solid green;"">","null","","","","","","","","",""
"","image-keyboard-response","360","175772","0.0-360.0","3A4TN5196L46JJIN834NQLQTY4MCHS","A3F51C49T9A34D","335VBRURDJMQFRMOFGHOE9WKSHX9E1","","353.89999999990687","img/flower5.png","75","354.89999999990687","2","1","2","1","1,0.333,0.333,0.333,1,0.333,0.333,0.333,1","1,0.333,0.333,0.333,1,0.333,0.333,0.333,1","1",""
"","html-keyboard-response","361","176074","0.0-361.0","3A4TN5196L46JJIN834NQLQTY4MCHS","A3F51C49T9A34D","335VBRURDJMQFRMOFGHOE9WKSHX9E1","","null","<img src=""img/flower5.png"" style=""width:200px; border:14px solid green;"">","null","","","","","","","","",""
"","html-keyboard-response","362","182686","0.0-362.0","3A4TN5196L46JJIN834NQLQTY4MCHS","A3F51C49T9A34D","335VBRURDJMQFRMOFGHOE9WKSHX9E1","","","","","","","","","","","","",""
"","instructions","363","188429","0.0-363.0","3A4TN5196L46JJIN834NQLQTY4MCHS","A3F51C49T9A34D","335VBRURDJMQFRMOFGHOE9WKSHX9E1","[{""page_index"":0,""viewing_time"":5742}]","5742.299999999814","","","","","","","","","","",""
"","survey-text","364","204416","0.0-364.0","3A4TN5196L46JJIN834NQLQTY4MCHS","A3F51C49T9A34D","335VBRURDJMQFRMOFGHOE9WKSHX9E1","","15984","","","","","","","","","","","{""Q0"":""A3F51C49T9A34D""}"
