"success","trial_type","trial_index","time_elapsed","internal_node_id","assignmentID","mturkID","hitID","view_history","rt","stimulus","key_press","reactionTime","a","r","s","cond","reward_cond","reward_cond_actual","reward_matrix_idx","responses"
"true","fullscreen","0","2846","0.0-0.0","3R9WASFE202ZDG2R5R0VYYF1R4FFZA","A3HL2LL0LEPZT8","3UUIU9GZC5R93N292LT21FRJ9VS5TN","","","","","","","","","","","","",""
"","instructions","1","18882","0.0-1.0","3R9WASFE202ZDG2R5R0VYYF1R4FFZA","A3HL2LL0LEPZT8","3UUIU9GZC5R93N292LT21FRJ9VS5TN","[{""page_index"":0,""viewing_time"":4904.0999999940395},{""page_index"":1,""viewing_time"":1457.7999999970198},{""page_index"":2,""viewing_time"":582.1000000089407},{""page_index"":3,""viewing_time"":464.79999999701977},{""page_index"":4,""viewing_time"":2760},{""page_index"":5,""viewing_time"":1768.0999999940395},{""page_index"":6,""viewing_time"":2457.7000000029802},{""page_index"":7,""viewing_time"":1639.2999999970198}]","16034.39999999106","","","","","","","","","","",""
"","image-keyboard-response","2","19314","0.0-2.0","3R9WASFE202ZDG2R5R0VYYF1R4FFZA","A3HL2LL0LEPZT8","3UUIU9GZC5R93N292LT21FRJ9VS5TN","","430","img/flower6.png","74","431.3999999910593","1","1","2","2","1,0,0,1,1,0,1,0,1","1,0,0,1,1,0,1,0,1","1",""
"","html-keyboard-response","3","19630","0.0-3.0","3R9WASFE202ZDG2R5R0VYYF1R4FFZA","A3HL2LL0LEPZT8","3UUIU9GZC5R93N292LT21FRJ9VS5TN","","null","<img src=""img/flower6.png"" style=""width:200px; border:14px solid green;"">","null","","","","","","","","",""
"","image-keyboard-response","4","20307","0.0-4.0","3R9WASFE202ZDG2R5R0VYYF1R4FFZA","A3HL2LL0LEPZT8","3UUIU9GZC5R93N292LT21FRJ9VS5TN","","675.8000000119209","img/flower4.png","75","677","2","0","3","2","1,0,0,1,1,0,1,0,1","1,0,0,1,1,0,1,0,1","1",""
"","html-keyboard-response","5","20613","0.0-5.0","3R9WASFE202ZDG2R5R0VYYF1R4FFZA","A3HL2LL0LEPZT8","3UUIU9GZC5R93N292LT21FRJ9VS5TN","","null","<img src=""img/flower4.png"" style=""width:200px;border:14px solid red;"">","null","","","","","","","","",""
"","image-keyboard-response","6","21048","0.0-6.0","3R9WASFE202ZDG2R5R0VYYF1R4FFZA","A3HL2LL0LEPZT8","3UUIU9GZC5R93N292LT21FRJ9VS5TN","","434.5","img/flower4.png","76","435.5","3","1","3","2","1,0,0,1,1,0,1,0,1","1,0,0,1,1,0,1,0,1","1",""
"","html-keyboard-response","7","21350","0.0-7.0","3R9WASFE202ZDG2R5R0VYYF1R4FFZA","A3HL2LL0LEPZT8","3UUIU9GZC5R93N292LT21FRJ9VS5TN","","null","<img src=""img/flower4.png"" style=""width:200px; border:14px solid green;"">","null","","","","","","","","",""
"","image-keyboard-response","8","22306","0.0-8.0","3R9WASFE202ZDG2R5R0VYYF1R4FFZA","A3HL2LL0LEPZT8","3UUIU9GZC5R93N292LT21FRJ9VS5TN","","954.9000000059605","img/flower6.png","74","955.7000000029802","1","1","2","2","1,0,0,1,1,0,1,0,1","1,0,0,1,1,0,1,0,1","1",""
"","html-keyboard-response","9","22615","0.0-9.0","3R9WASFE202ZDG2R5R0VYYF1R4FFZA","A3HL2LL0LEPZT8","3UUIU9GZC5R93N292LT21FRJ9VS5TN","","null","<img src=""img/flower6.png"" style=""width:200px; border:14px solid green;"">","null","","","","","","","","",""
"","image-keyboard-response","10","22997","0.0-10.0","3R9WASFE202ZDG2R5R0VYYF1R4FFZA","A3HL2LL0LEPZT8","3UUIU9GZC5R93N292LT21FRJ9VS5TN","","381.20000000298023","img/flower4.png","76","382.30000001192093","3","1","3","2","1,0,0,1,1,0,1,0,1","1,0,0,1,1,0,1,0,1","1",""
"","html-keyboard-response","11","23303","0.0-11.0","3R9WASFE202ZDG2R5R0VYYF1R4FFZA","A3HL2LL0LEPZT8","3UUIU9GZC5R93N292LT21FRJ9VS5TN","","null","<img src=""img/flower4.png"" style=""width:200px; border:14px solid green;"">","null","","","","","","","","",""
"","image-keyboard-response","12","23947","0.0-12.0","3R9WASFE202ZDG2R5R0VYYF1R4FFZA","A3HL2LL0LEPZT8","3UUIU9GZC5R93N292LT21FRJ9VS5TN","","643.2999999970198","img/flower4.png","76","644.0999999940395","3","1","3","2","1,0,0,1,1,0,1,0,1","1,0,0,1,1,0,1,0,1","1",""
"","html-keyboard-response","13","24255","0.0-13.0","3R9WASFE202ZDG2R5R0VYYF1R4FFZA","A3HL2LL0LEPZT8","3UUIU9GZC5R93N292LT21FRJ9VS5TN","","null","<img src=""img/flower4.png"" style=""width:200px; border:14px solid green;"">","null","","","","","","","","",""
"","image-keyboard-response","14","24604","0.0-14.0","3R9WASFE202ZDG2R5R0VYYF1R4FFZA","A3HL2LL0LEPZT8","3UUIU9GZC5R93N292LT21FRJ9VS5TN","","348.3999999910593","img/flower4.png","76","349.19999998807907","3","1","3","2","1,0,0,1,1,0,1,0,1","1,0,0,1,1,0,1,0,1","1",""
"","html-keyboard-response","15","24912","0.0-15.0","3R9WASFE202ZDG2R5R0VYYF1R4FFZA","A3HL2LL0LEPZT8","3UUIU9GZC5R93N292LT21FRJ9VS5TN","","null","<img src=""img/flower4.png"" style=""width:200px; border:14px solid green;"">","null","","","","","","","","",""
"","image-keyboard-response","16","25559","0.0-16.0","3R9WASFE202ZDG2R5R0VYYF1R4FFZA","A3HL2LL0LEPZT8","3UUIU9GZC5R93N292LT21FRJ9VS5TN","","645.7000000029802","img/flower5.png","75","646.5","2","0","1","2","1,0,0,1,1,0,1,0,1","1,0,0,1,1,0,1,0,1","1",""
"","html-keyboard-response","17","25872","0.0-17.0","3R9WASFE202ZDG2R5R0VYYF1R4FFZA","A3HL2LL0LEPZT8","3UUIU9GZC5R93N292LT21FRJ9VS5TN","","null","<img src=""img/flower5.png"" style=""width:200px;border:14px solid red;"">","null","","","","","","","","",""
"","image-keyboard-response","18","26463","0.0-18.0","3R9WASFE202ZDG2R5R0VYYF1R4FFZA","A3HL2LL0LEPZT8","3UUIU9GZC5R93N292LT21FRJ9VS5TN","","590.3999999910593","img/flower6.png","74","591.4000000059605","1","1","2","2","1,0,0,1,1,0,1,0,1","1,0,0,1,1,0,1,0,1","1",""
"","html-keyboard-response","19","26777","0.0-19.0","3R9WASFE202ZDG2R5R0VYYF1R4FFZA","A3HL2LL0LEPZT8","3UUIU9GZC5R93N292LT21FRJ9VS5TN","","null","<img src=""img/flower6.png"" style=""width:200px; border:14px solid green;"">","null","","","","","","","","",""
"","image-keyboard-response","20","27390","0.0-20.0","3R9WASFE202ZDG2R5R0VYYF1R4FFZA","A3HL2LL0LEPZT8","3UUIU9GZC5R93N292LT21FRJ9VS5TN","","612.2999999970198","img/flower4.png","76","613.2999999970198","3","1","3","2","1,0,0,1,1,0,1,0,1","1,0,0,1,1,0,1,0,1","1",""
"","html-keyboard-response","21","27707","0.0-21.0","3R9WASFE202ZDG2R5R0VYYF1R4FFZA","A3HL2LL0LEPZT8","3UUIU9GZC5R93N292LT21FRJ9VS5TN","","null","<img src=""img/flower4.png"" style=""width:200px; border:14px solid green;"">","null","","","","","","","","",""
"","image-keyboard-response","22","27985","0.0-22.0","3R9WASFE202ZDG2R5R0VYYF1R4FFZA","A3HL2LL0LEPZT8","3UUIU9GZC5R93N292LT21FRJ9VS5TN","","272.70000000298023","img/flower4.png","76","278.1000000089407","3","1","3","2","1,0,0,1,1,0,1,0,1","1,0,0,1,1,0,1,0,1","1",""
"","html-keyboard-response","23","28287","0.0-23.0","3R9WASFE202ZDG2R5R0VYYF1R4FFZA","A3HL2LL0LEPZT8","3UUIU9GZC5R93N292LT21FRJ9VS5TN","","null","<img src=""img/flower4.png"" style=""width:200px; border:14px solid green;"">","null","","","","","","","","",""
"","image-keyboard-response","24","28523","0.0-24.0","3R9WASFE202ZDG2R5R0VYYF1R4FFZA","A3HL2LL0LEPZT8","3UUIU9GZC5R93N292LT21FRJ9VS5TN","","235.09999999403954","img/flower4.png","76","235.8999999910593","3","1","3","2","1,0,0,1,1,0,1,0,1","1,0,0,1,1,0,1,0,1","1",""
"","html-keyboard-response","25","28825","0.0-25.0","3R9WASFE202ZDG2R5R0VYYF1R4FFZA","A3HL2LL0LEPZT8","3UUIU9GZC5R93N292LT21FRJ9VS5TN","","null","<img src=""img/flower4.png"" style=""width:200px; border:14px solid green;"">","null","","","","","","","","",""
"","image-keyboard-response","26","29077","0.0-26.0","3R9WASFE202ZDG2R5R0VYYF1R4FFZA","A3HL2LL0LEPZT8","3UUIU9GZC5R93N292LT21FRJ9VS5TN","","251","img/flower4.png","76","251.70000000298023","3","1","3","2","1,0,0,1,1,0,1,0,1","1,0,0,1,1,0,1,0,1","1",""
"","html-keyboard-response","27","29379","0.0-27.0","3R9WASFE202ZDG2R5R0VYYF1R4FFZA","A3HL2LL0LEPZT8","3UUIU9GZC5R93N292LT21FRJ9VS5TN","","null","<img src=""img/flower4.png"" style=""width:200px; border:14px solid green;"">","null","","","","","","","","",""
"","image-keyboard-response","28","29623","0.0-28.0","3R9WASFE202ZDG2R5R0VYYF1R4FFZA","A3HL2LL0LEPZT8","3UUIU9GZC5R93N292LT21FRJ9VS5TN","","243.3999999910593","img/flower4.png","76","244.29999999701977","3","1","3","2","1,0,0,1,1,0,1,0,1","1,0,0,1,1,0,1,0,1","1",""
"","html-keyboard-response","29","29925","0.0-29.0","3R9WASFE202ZDG2R5R0VYYF1R4FFZA","A3HL2LL0LEPZT8","3UUIU9GZC5R93N292LT21FRJ9VS5TN","","null","<img src=""img/flower4.png"" style=""width:200px; border:14px solid green;"">","null","","","","","","","","",""
"","image-keyboard-response","30","30444","0.0-30.0","3R9WASFE202ZDG2R5R0VYYF1R4FFZA","A3HL2LL0LEPZT8","3UUIU9GZC5R93N292LT21FRJ9VS5TN","","518.3999999910593","img/flower5.png","76","519.1999999880791","3","0","1","2","1,0,0,1,1,0,1,0,1","1,0,0,1,1,0,1,0,1","1",""
"","html-keyboard-response","31","30746","0.0-31.0","3R9WASFE202ZDG2R5R0VYYF1R4FFZA","A3HL2LL0LEPZT8","3UUIU9GZC5R93N292LT21FRJ9VS5TN","","null","<img src=""img/flower5.png"" style=""width:200px;border:14px solid red;"">","null","","","","","","","","",""
"","image-keyboard-response","32","31079","0.0-32.0","3R9WASFE202ZDG2R5R0VYYF1R4FFZA","A3HL2LL0LEPZT8","3UUIU9GZC5R93N292LT21FRJ9VS5TN","","332.19999998807907","img/flower5.png","75","332.79999999701977","2","0","1","2","1,0,0,1,1,0,1,0,1","1,0,0,1,1,0,1,0,1","1",""
"","html-keyboard-response","33","31381","0.0-33.0","3R9WASFE202ZDG2R5R0VYYF1R4FFZA","A3HL2LL0LEPZT8","3UUIU9GZC5R93N292LT21FRJ9VS5TN","","null","<img src=""img/flower5.png"" style=""width:200px;border:14px solid red;"">","null","","","","","","","","",""
"","image-keyboard-response","34","31485","0.0-34.0","3R9WASFE202ZDG2R5R0VYYF1R4FFZA","A3HL2LL0LEPZT8","3UUIU9GZC5R93N292LT21FRJ9VS5TN","","102.70000000298023","img/flower5.png","74","103.59999999403954","1","1","1","2","1,0,0,1,1,0,1,0,1","1,0,0,1,1,0,1,0,1","1",""
"","html-keyboard-response","35","31787","0.0-35.0","3R9WASFE202ZDG2R5R0VYYF1R4FFZA","A3HL2LL0LEPZT8","3UUIU9GZC5R93N292LT21FRJ9VS5TN","","null","<img src=""img/flower5.png"" style=""width:200px; border:14px solid green;"">","null","","","","","","","","",""
"","image-keyboard-response","36","32459","0.0-36.0","3R9WASFE202ZDG2R5R0VYYF1R4FFZA","A3HL2LL0LEPZT8","3UUIU9GZC5R93N292LT21FRJ9VS5TN","","671.5","img/flower4.png","76","672.3000000119209","3","1","3","2","1,0,0,1,1,0,1,0,1","1,0,0,1,1,0,1,0,1","1",""
"","html-keyboard-response","37","32760","0.0-37.0","3R9WASFE202ZDG2R5R0VYYF1R4FFZA","A3HL2LL0LEPZT8","3UUIU9GZC5R93N292LT21FRJ9VS5TN","","null","<img src=""img/flower4.png"" style=""width:200px; border:14px solid green;"">","null","","","","","","","","",""
"","image-keyboard-response","38","33202","0.0-38.0","3R9WASFE202ZDG2R5R0VYYF1R4FFZA","A3HL2LL0LEPZT8","3UUIU9GZC5R93N292LT21FRJ9VS5TN","","440.09999999403954","img/flower6.png","74","440.79999999701977","1","1","2","2","1,0,0,1,1,0,1,0,1","1,0,0,1,1,0,1,0,1","1",""
"","html-keyboard-response","39","33504","0.0-39.0","3R9WASFE202ZDG2R5R0VYYF1R4FFZA","A3HL2LL0LEPZT8","3UUIU9GZC5R93N292LT21FRJ9VS5TN","","null","<img src=""img/flower6.png"" style=""width:200px; border:14px solid green;"">","null","","","","","","","","",""
"","image-keyboard-response","40","33918","0.0-40.0","3R9WASFE202ZDG2R5R0VYYF1R4FFZA","A3HL2LL0LEPZT8","3UUIU9GZC5R93N292LT21FRJ9VS5TN","","413.79999999701977","img/flower4.png","76","414.6000000089407","3","1","3","2","1,0,0,1,1,0,1,0,1","1,0,0,1,1,0,1,0,1","1",""
"","html-keyboard-response","41","34220","0.0-41.0","3R9WASFE202ZDG2R5R0VYYF1R4FFZA","A3HL2LL0LEPZT8","3UUIU9GZC5R93N292LT21FRJ9VS5TN","","null","<img src=""img/flower4.png"" style=""width:200px; border:14px solid green;"">","null","","","","","","","","",""
"","image-keyboard-response","42","34535","0.0-42.0","3R9WASFE202ZDG2R5R0VYYF1R4FFZA","A3HL2LL0LEPZT8","3UUIU9GZC5R93N292LT21FRJ9VS5TN","","314.59999999403954","img/flower4.png","76","315.29999999701977","3","1","3","2","1,0,0,1,1,0,1,0,1","1,0,0,1,1,0,1,0,1","1",""
"","html-keyboard-response","43","34838","0.0-43.0","3R9WASFE202ZDG2R5R0VYYF1R4FFZA","A3HL2LL0LEPZT8","3UUIU9GZC5R93N292LT21FRJ9VS5TN","","null","<img src=""img/flower4.png"" style=""width:200px; border:14px solid green;"">","null","","","","","","","","",""
"","image-keyboard-response","44","34995","0.0-44.0","3R9WASFE202ZDG2R5R0VYYF1R4FFZA","A3HL2LL0LEPZT8","3UUIU9GZC5R93N292LT21FRJ9VS5TN","","156.29999999701977","img/flower5.png","76","157","3","0","1","2","1,0,0,1,1,0,1,0,1","1,0,0,1,1,0,1,0,1","1",""
"","html-keyboard-response","45","35296","0.0-45.0","3R9WASFE202ZDG2R5R0VYYF1R4FFZA","A3HL2LL0LEPZT8","3UUIU9GZC5R93N292LT21FRJ9VS5TN","","null","<img src=""img/flower5.png"" style=""width:200px;border:14px solid red;"">","null","","","","","","","","",""
"","image-keyboard-response","46","35823","0.0-46.0","3R9WASFE202ZDG2R5R0VYYF1R4FFZA","A3HL2LL0LEPZT8","3UUIU9GZC5R93N292LT21FRJ9VS5TN","","525.6999999880791","img/flower4.png","74","526.7000000029802","1","1","3","2","1,0,0,1,1,0,1,0,1","1,0,0,1,1,0,1,0,1","1",""
"","html-keyboard-response","47","36125","0.0-47.0","3R9WASFE202ZDG2R5R0VYYF1R4FFZA","A3HL2LL0LEPZT8","3UUIU9GZC5R93N292LT21FRJ9VS5TN","","null","<img src=""img/flower4.png"" style=""width:200px; border:14px solid green;"">","null","","","","","","","","",""
"","image-keyboard-response","48","37014","0.0-48.0","3R9WASFE202ZDG2R5R0VYYF1R4FFZA","A3HL2LL0LEPZT8","3UUIU9GZC5R93N292LT21FRJ9VS5TN","","888.3999999910593","img/flower6.png","74","889.0999999940395","1","1","2","2","1,0,0,1,1,0,1,0,1","1,0,0,1,1,0,1,0,1","1",""
"","html-keyboard-response","49","37317","0.0-49.0","3R9WASFE202ZDG2R5R0VYYF1R4FFZA","A3HL2LL0LEPZT8","3UUIU9GZC5R93N292LT21FRJ9VS5TN","","null","<img src=""img/flower6.png"" style=""width:200px; border:14px solid green;"">","null","","","","","","","","",""
"","image-keyboard-response","50","37565","0.0-50.0","3R9WASFE202ZDG2R5R0VYYF1R4FFZA","A3HL2LL0LEPZT8","3UUIU9GZC5R93N292LT21FRJ9VS5TN","","247.1000000089407","img/flower6.png","74","247.59999999403954","1","1","2","2","1,0,0,1,1,0,1,0,1","1,0,0,1,1,0,1,0,1","1",""
"","html-keyboard-response","51","37867","0.0-51.0","3R9WASFE202ZDG2R5R0VYYF1R4FFZA","A3HL2LL0LEPZT8","3UUIU9GZC5R93N292LT21FRJ9VS5TN","","null","<img src=""img/flower6.png"" style=""width:200px; border:14px solid green;"">","null","","","","","","","","",""
"","image-keyboard-response","52","38063","0.0-52.0","3R9WASFE202ZDG2R5R0VYYF1R4FFZA","A3HL2LL0LEPZT8","3UUIU9GZC5R93N292LT21FRJ9VS5TN","","194.79999999701977","img/flower6.png","74","195.40000000596046","1","1","2","2","1,0,0,1,1,0,1,0,1","1,0,0,1,1,0,1,0,1","1",""
"","html-keyboard-response","53","38365","0.0-53.0","3R9WASFE202ZDG2R5R0VYYF1R4FFZA","A3HL2LL0LEPZT8","3UUIU9GZC5R93N292LT21FRJ9VS5TN","","null","<img src=""img/flower6.png"" style=""width:200px; border:14px solid green;"">","null","","","","","","","","",""
"","image-keyboard-response","54","38800","0.0-54.0","3R9WASFE202ZDG2R5R0VYYF1R4FFZA","A3HL2LL0LEPZT8","3UUIU9GZC5R93N292LT21FRJ9VS5TN","","433.59999999403954","img/flower4.png","74","434.5","1","1","3","2","1,0,0,1,1,0,1,0,1","1,0,0,1,1,0,1,0,1","1",""
"","html-keyboard-response","55","39101","0.0-55.0","3R9WASFE202ZDG2R5R0VYYF1R4FFZA","A3HL2LL0LEPZT8","3UUIU9GZC5R93N292LT21FRJ9VS5TN","","null","<img src=""img/flower4.png"" style=""width:200px; border:14px solid green;"">","null","","","","","","","","",""
"","image-keyboard-response","56","39238","0.0-56.0","3R9WASFE202ZDG2R5R0VYYF1R4FFZA","A3HL2LL0LEPZT8","3UUIU9GZC5R93N292LT21FRJ9VS5TN","","136.09999999403954","img/flower5.png","74","136.90000000596046","1","1","1","2","1,0,0,1,1,0,1,0,1","1,0,0,1,1,0,1,0,1","1",""
"","html-keyboard-response","57","39540","0.0-57.0","3R9WASFE202ZDG2R5R0VYYF1R4FFZA","A3HL2LL0LEPZT8","3UUIU9GZC5R93N292LT21FRJ9VS5TN","","null","<img src=""img/flower5.png"" style=""width:200px; border:14px solid green;"">","null","","","","","","","","",""
"","image-keyboard-response","58","39623","0.0-58.0","3R9WASFE202ZDG2R5R0VYYF1R4FFZA","A3HL2LL0LEPZT8","3UUIU9GZC5R93N292LT21FRJ9VS5TN","","81.59999999403954","img/flower6.png","74","82.40000000596046","1","1","2","2","1,0,0,1,1,0,1,0,1","1,0,0,1,1,0,1,0,1","1",""
"","html-keyboard-response","59","39925","0.0-59.0","3R9WASFE202ZDG2R5R0VYYF1R4FFZA","A3HL2LL0LEPZT8","3UUIU9GZC5R93N292LT21FRJ9VS5TN","","null","<img src=""img/flower6.png"" style=""width:200px; border:14px solid green;"">","null","","","","","","","","",""
"","image-keyboard-response","60","39970","0.0-60.0","3R9WASFE202ZDG2R5R0VYYF1R4FFZA","A3HL2LL0LEPZT8","3UUIU9GZC5R93N292LT21FRJ9VS5TN","","44.29999999701977","img/flower6.png","74","45","1","1","2","2","1,0,0,1,1,0,1,0,1","1,0,0,1,1,0,1,0,1","1",""
"","html-keyboard-response","61","40273","0.0-61.0","3R9WASFE202ZDG2R5R0VYYF1R4FFZA","A3HL2LL0LEPZT8","3UUIU9GZC5R93N292LT21FRJ9VS5TN","","null","<img src=""img/flower6.png"" style=""width:200px; border:14px solid green;"">","null","","","","","","","","",""
"","image-keyboard-response","62","40446","0.0-62.0","3R9WASFE202ZDG2R5R0VYYF1R4FFZA","A3HL2LL0LEPZT8","3UUIU9GZC5R93N292LT21FRJ9VS5TN","","172.70000000298023","img/flower6.png","74","173.29999999701977","1","1","2","2","1,0,0,1,1,0,1,0,1","1,0,0,1,1,0,1,0,1","1",""
"","html-keyboard-response","63","40749","0.0-63.0","3R9WASFE202ZDG2R5R0VYYF1R4FFZA","A3HL2LL0LEPZT8","3UUIU9GZC5R93N292LT21FRJ9VS5TN","","null","<img src=""img/flower6.png"" style=""width:200px; border:14px solid green;"">","null","","","","","","","","",""
"","image-keyboard-response","64","40876","0.0-64.0","3R9WASFE202ZDG2R5R0VYYF1R4FFZA","A3HL2LL0LEPZT8","3UUIU9GZC5R93N292LT21FRJ9VS5TN","","126.79999999701977","img/flower4.png","74","127.59999999403954","1","1","3","2","1,0,0,1,1,0,1,0,1","1,0,0,1,1,0,1,0,1","1",""
"","html-keyboard-response","65","41178","0.0-65.0","3R9WASFE202ZDG2R5R0VYYF1R4FFZA","A3HL2LL0LEPZT8","3UUIU9GZC5R93N292LT21FRJ9VS5TN","","null","<img src=""img/flower4.png"" style=""width:200px; border:14px solid green;"">","null","","","","","","","","",""
"","image-keyboard-response","66","41311","0.0-66.0","3R9WASFE202ZDG2R5R0VYYF1R4FFZA","A3HL2LL0LEPZT8","3UUIU9GZC5R93N292LT21FRJ9VS5TN","","131.8999999910593","img/flower4.png","74","132.79999999701977","1","1","3","2","1,0,0,1,1,0,1,0,1","1,0,0,1,1,0,1,0,1","1",""
"","html-keyboard-response","67","41612","0.0-67.0","3R9WASFE202ZDG2R5R0VYYF1R4FFZA","A3HL2LL0LEPZT8","3UUIU9GZC5R93N292LT21FRJ9VS5TN","","null","<img src=""img/flower4.png"" style=""width:200px; border:14px solid green;"">","null","","","","","","","","",""
"","image-keyboard-response","68","41718","0.0-68.0","3R9WASFE202ZDG2R5R0VYYF1R4FFZA","A3HL2LL0LEPZT8","3UUIU9GZC5R93N292LT21FRJ9VS5TN","","104.70000000298023","img/flower5.png","74","105.59999999403954","1","1","1","2","1,0,0,1,1,0,1,0,1","1,0,0,1,1,0,1,0,1","1",""
"","html-keyboard-response","69","42020","0.0-69.0","3R9WASFE202ZDG2R5R0VYYF1R4FFZA","A3HL2LL0LEPZT8","3UUIU9GZC5R93N292LT21FRJ9VS5TN","","null","<img src=""img/flower5.png"" style=""width:200px; border:14px solid green;"">","null","","","","","","","","",""
"","image-keyboard-response","70","42107","0.0-70.0","3R9WASFE202ZDG2R5R0VYYF1R4FFZA","A3HL2LL0LEPZT8","3UUIU9GZC5R93N292LT21FRJ9VS5TN","","85.3999999910593","img/flower5.png","74","86.09999999403954","1","1","1","2","1,0,0,1,1,0,1,0,1","1,0,0,1,1,0,1,0,1","1",""
"","html-keyboard-response","71","42408","0.0-71.0","3R9WASFE202ZDG2R5R0VYYF1R4FFZA","A3HL2LL0LEPZT8","3UUIU9GZC5R93N292LT21FRJ9VS5TN","","null","<img src=""img/flower5.png"" style=""width:200px; border:14px solid green;"">","null","","","","","","","","",""
"","image-keyboard-response","72","42476","0.0-72.0","3R9WASFE202ZDG2R5R0VYYF1R4FFZA","A3HL2LL0LEPZT8","3UUIU9GZC5R93N292LT21FRJ9VS5TN","","67.79999999701977","img/flower5.png","74","68.59999999403954","1","1","1","2","1,0,0,1,1,0,1,0,1","1,0,0,1,1,0,1,0,1","1",""
"","html-keyboard-response","73","42779","0.0-73.0","3R9WASFE202ZDG2R5R0VYYF1R4FFZA","A3HL2LL0LEPZT8","3UUIU9GZC5R93N292LT21FRJ9VS5TN","","null","<img src=""img/flower5.png"" style=""width:200px; border:14px solid green;"">","null","","","","","","","","",""
"","image-keyboard-response","74","42863","0.0-74.0","3R9WASFE202ZDG2R5R0VYYF1R4FFZA","A3HL2LL0LEPZT8","3UUIU9GZC5R93N292LT21FRJ9VS5TN","","83.40000000596046","img/flower5.png","74","84.19999998807907","1","1","1","2","1,0,0,1,1,0,1,0,1","1,0,0,1,1,0,1,0,1","1",""
"","html-keyboard-response","75","43164","0.0-75.0","3R9WASFE202ZDG2R5R0VYYF1R4FFZA","A3HL2LL0LEPZT8","3UUIU9GZC5R93N292LT21FRJ9VS5TN","","null","<img src=""img/flower5.png"" style=""width:200px; border:14px solid green;"">","null","","","","","","","","",""
"","image-keyboard-response","76","43240","0.0-76.0","3R9WASFE202ZDG2R5R0VYYF1R4FFZA","A3HL2LL0LEPZT8","3UUIU9GZC5R93N292LT21FRJ9VS5TN","","74.90000000596046","img/flower6.png","74","75.59999999403954","1","1","2","2","1,0,0,1,1,0,1,0,1","1,0,0,1,1,0,1,0,1","1",""
"","html-keyboard-response","77","43541","0.0-77.0","3R9WASFE202ZDG2R5R0VYYF1R4FFZA","A3HL2LL0LEPZT8","3UUIU9GZC5R93N292LT21FRJ9VS5TN","","null","<img src=""img/flower6.png"" style=""width:200px; border:14px solid green;"">","null","","","","","","","","",""
"","image-keyboard-response","78","43610","0.0-78.0","3R9WASFE202ZDG2R5R0VYYF1R4FFZA","A3HL2LL0LEPZT8","3UUIU9GZC5R93N292LT21FRJ9VS5TN","","68.6000000089407","img/flower5.png","74","69.40000000596046","1","1","1","2","1,0,0,1,1,0,1,0,1","1,0,0,1,1,0,1,0,1","1",""
"","html-keyboard-response","79","43912","0.0-79.0","3R9WASFE202ZDG2R5R0VYYF1R4FFZA","A3HL2LL0LEPZT8","3UUIU9GZC5R93N292LT21FRJ9VS5TN","","null","<img src=""img/flower5.png"" style=""width:200px; border:14px solid green;"">","null","","","","","","","","",""
"","image-keyboard-response","80","43980","0.0-80.0","3R9WASFE202ZDG2R5R0VYYF1R4FFZA","A3HL2LL0LEPZT8","3UUIU9GZC5R93N292LT21FRJ9VS5TN","","66.79999999701977","img/flower5.png","74","67.5","1","1","1","2","1,0,0,1,1,0,1,0,1","1,0,0,1,1,0,1,0,1","1",""
"","html-keyboard-response","81","44282","0.0-81.0","3R9WASFE202ZDG2R5R0VYYF1R4FFZA","A3HL2LL0LEPZT8","3UUIU9GZC5R93N292LT21FRJ9VS5TN","","null","<img src=""img/flower5.png"" style=""width:200px; border:14px solid green;"">","null","","","","","","","","",""
"","image-keyboard-response","82","44350","0.0-82.0","3R9WASFE202ZDG2R5R0VYYF1R4FFZA","A3HL2LL0LEPZT8","3UUIU9GZC5R93N292LT21FRJ9VS5TN","","66.5","img/flower5.png","74","67.59999999403954","1","1","1","2","1,0,0,1,1,0,1,0,1","1,0,0,1,1,0,1,0,1","1",""
"","html-keyboard-response","83","44652","0.0-83.0","3R9WASFE202ZDG2R5R0VYYF1R4FFZA","A3HL2LL0LEPZT8","3UUIU9GZC5R93N292LT21FRJ9VS5TN","","null","<img src=""img/flower5.png"" style=""width:200px; border:14px solid green;"">","null","","","","","","","","",""
"","image-keyboard-response","84","44714","0.0-84.0","3R9WASFE202ZDG2R5R0VYYF1R4FFZA","A3HL2LL0LEPZT8","3UUIU9GZC5R93N292LT21FRJ9VS5TN","","61.29999999701977","img/flower6.png","74","61.900000005960464","1","1","2","2","1,0,0,1,1,0,1,0,1","1,0,0,1,1,0,1,0,1","1",""
"","html-keyboard-response","85","45016","0.0-85.0","3R9WASFE202ZDG2R5R0VYYF1R4FFZA","A3HL2LL0LEPZT8","3UUIU9GZC5R93N292LT21FRJ9VS5TN","","null","<img src=""img/flower6.png"" style=""width:200px; border:14px solid green;"">","null","","","","","","","","",""
"","image-keyboard-response","86","45088","0.0-86.0","3R9WASFE202ZDG2R5R0VYYF1R4FFZA","A3HL2LL0LEPZT8","3UUIU9GZC5R93N292LT21FRJ9VS5TN","","71.29999999701977","img/flower6.png","74","72","1","1","2","2","1,0,0,1,1,0,1,0,1","1,0,0,1,1,0,1,0,1","1",""
"","html-keyboard-response","87","45389","0.0-87.0","3R9WASFE202ZDG2R5R0VYYF1R4FFZA","A3HL2LL0LEPZT8","3UUIU9GZC5R93N292LT21FRJ9VS5TN","","null","<img src=""img/flower6.png"" style=""width:200px; border:14px solid green;"">","null","","","","","","","","",""
"","image-keyboard-response","88","45463","0.0-88.0","3R9WASFE202ZDG2R5R0VYYF1R4FFZA","A3HL2LL0LEPZT8","3UUIU9GZC5R93N292LT21FRJ9VS5TN","","73.09999999403954","img/flower6.png","74","73.70000000298023","1","1","2","2","1,0,0,1,1,0,1,0,1","1,0,0,1,1,0,1,0,1","1",""
"","html-keyboard-response","89","45765","0.0-89.0","3R9WASFE202ZDG2R5R0VYYF1R4FFZA","A3HL2LL0LEPZT8","3UUIU9GZC5R93N292LT21FRJ9VS5TN","","null","<img src=""img/flower6.png"" style=""width:200px; border:14px solid green;"">","null","","","","","","","","",""
"","image-keyboard-response","90","45833","0.0-90.0","3R9WASFE202ZDG2R5R0VYYF1R4FFZA","A3HL2LL0LEPZT8","3UUIU9GZC5R93N292LT21FRJ9VS5TN","","66.70000000298023","img/flower5.png","74","67.5","1","1","1","2","1,0,0,1,1,0,1,0,1","1,0,0,1,1,0,1,0,1","1",""
"","html-keyboard-response","91","46135","0.0-91.0","3R9WASFE202ZDG2R5R0VYYF1R4FFZA","A3HL2LL0LEPZT8","3UUIU9GZC5R93N292LT21FRJ9VS5TN","","null","<img src=""img/flower5.png"" style=""width:200px; border:14px solid green;"">","null","","","","","","","","",""
"","image-keyboard-response","92","46171","0.0-92.0","3R9WASFE202ZDG2R5R0VYYF1R4FFZA","A3HL2LL0LEPZT8","3UUIU9GZC5R93N292LT21FRJ9VS5TN","","35.400000005960464","img/flower4.png","74","36.099999994039536","1","1","3","2","1,0,0,1,1,0,1,0,1","1,0,0,1,1,0,1,0,1","1",""
"","html-keyboard-response","93","46474","0.0-93.0","3R9WASFE202ZDG2R5R0VYYF1R4FFZA","A3HL2LL0LEPZT8","3UUIU9GZC5R93N292LT21FRJ9VS5TN","","null","<img src=""img/flower4.png"" style=""width:200px; border:14px solid green;"">","null","","","","","","","","",""
"","image-keyboard-response","94","46515","0.0-94.0","3R9WASFE202ZDG2R5R0VYYF1R4FFZA","A3HL2LL0LEPZT8","3UUIU9GZC5R93N292LT21FRJ9VS5TN","","40.6000000089407","img/flower6.png","74","41.400000005960464","1","1","2","2","1,0,0,1,1,0,1,0,1","1,0,0,1,1,0,1,0,1","1",""
"","html-keyboard-response","95","46818","0.0-95.0","3R9WASFE202ZDG2R5R0VYYF1R4FFZA","A3HL2LL0LEPZT8","3UUIU9GZC5R93N292LT21FRJ9VS5TN","","null","<img src=""img/flower6.png"" style=""width:200px; border:14px solid green;"">","null","","","","","","","","",""
"","image-keyboard-response","96","46868","0.0-96.0","3R9WASFE202ZDG2R5R0VYYF1R4FFZA","A3HL2LL0LEPZT8","3UUIU9GZC5R93N292LT21FRJ9VS5TN","","49.20000000298023","img/flower4.png","74","50.1000000089407","1","1","3","2","1,0,0,1,1,0,1,0,1","1,0,0,1,1,0,1,0,1","1",""
"","html-keyboard-response","97","47170","0.0-97.0","3R9WASFE202ZDG2R5R0VYYF1R4FFZA","A3HL2LL0LEPZT8","3UUIU9GZC5R93N292LT21FRJ9VS5TN","","null","<img src=""img/flower4.png"" style=""width:200px; border:14px solid green;"">","null","","","","","","","","",""
"","image-keyboard-response","98","47220","0.0-98.0","3R9WASFE202ZDG2R5R0VYYF1R4FFZA","A3HL2LL0LEPZT8","3UUIU9GZC5R93N292LT21FRJ9VS5TN","","48.79999999701977","img/flower5.png","74","49.5","1","1","1","2","1,0,0,1,1,0,1,0,1","1,0,0,1,1,0,1,0,1","1",""
"","html-keyboard-response","99","47522","0.0-99.0","3R9WASFE202ZDG2R5R0VYYF1R4FFZA","A3HL2LL0LEPZT8","3UUIU9GZC5R93N292LT21FRJ9VS5TN","","null","<img src=""img/flower5.png"" style=""width:200px; border:14px solid green;"">","null","","","","","","","","",""
"","image-keyboard-response","100","47586","0.0-100.0","3R9WASFE202ZDG2R5R0VYYF1R4FFZA","A3HL2LL0LEPZT8","3UUIU9GZC5R93N292LT21FRJ9VS5TN","","63","img/flower4.png","74","63.79999999701977","1","1","3","2","1,0,0,1,1,0,1,0,1","1,0,0,1,1,0,1,0,1","1",""
"","html-keyboard-response","101","47888","0.0-101.0","3R9WASFE202ZDG2R5R0VYYF1R4FFZA","A3HL2LL0LEPZT8","3UUIU9GZC5R93N292LT21FRJ9VS5TN","","null","<img src=""img/flower4.png"" style=""width:200px; border:14px solid green;"">","null","","","","","","","","",""
"","image-keyboard-response","102","47970","0.0-102.0","3R9WASFE202ZDG2R5R0VYYF1R4FFZA","A3HL2LL0LEPZT8","3UUIU9GZC5R93N292LT21FRJ9VS5TN","","81.6000000089407","img/flower5.png","74","82.29999999701977","1","1","1","2","1,0,0,1,1,0,1,0,1","1,0,0,1,1,0,1,0,1","1",""
"","html-keyboard-response","103","48273","0.0-103.0","3R9WASFE202ZDG2R5R0VYYF1R4FFZA","A3HL2LL0LEPZT8","3UUIU9GZC5R93N292LT21FRJ9VS5TN","","null","<img src=""img/flower5.png"" style=""width:200px; border:14px solid green;"">","null","","","","","","","","",""
"","image-keyboard-response","104","48381","0.0-104.0","3R9WASFE202ZDG2R5R0VYYF1R4FFZA","A3HL2LL0LEPZT8","3UUIU9GZC5R93N292LT21FRJ9VS5TN","","107.40000000596046","img/flower5.png","74","108.29999999701977","1","1","1","2","1,0,0,1,1,0,1,0,1","1,0,0,1,1,0,1,0,1","1",""
"","html-keyboard-response","105","48684","0.0-105.0","3R9WASFE202ZDG2R5R0VYYF1R4FFZA","A3HL2LL0LEPZT8","3UUIU9GZC5R93N292LT21FRJ9VS5TN","","null","<img src=""img/flower5.png"" style=""width:200px; border:14px solid green;"">","null","","","","","","","","",""
"","image-keyboard-response","106","48745","0.0-106.0","3R9WASFE202ZDG2R5R0VYYF1R4FFZA","A3HL2LL0LEPZT8","3UUIU9GZC5R93N292LT21FRJ9VS5TN","","60.19999998807907","img/flower6.png","74","60.8999999910593","1","1","2","2","1,0,0,1,1,0,1,0,1","1,0,0,1,1,0,1,0,1","1",""
"","html-keyboard-response","107","49047","0.0-107.0","3R9WASFE202ZDG2R5R0VYYF1R4FFZA","A3HL2LL0LEPZT8","3UUIU9GZC5R93N292LT21FRJ9VS5TN","","null","<img src=""img/flower6.png"" style=""width:200px; border:14px solid green;"">","null","","","","","","","","",""
"","image-keyboard-response","108","49089","0.0-108.0","3R9WASFE202ZDG2R5R0VYYF1R4FFZA","A3HL2LL0LEPZT8","3UUIU9GZC5R93N292LT21FRJ9VS5TN","","41","img/flower5.png","74","41.70000000298023","1","1","1","2","1,0,0,1,1,0,1,0,1","1,0,0,1,1,0,1,0,1","1",""
"","html-keyboard-response","109","49392","0.0-109.0","3R9WASFE202ZDG2R5R0VYYF1R4FFZA","A3HL2LL0LEPZT8","3UUIU9GZC5R93N292LT21FRJ9VS5TN","","null","<img src=""img/flower5.png"" style=""width:200px; border:14px solid green;"">","null","","","","","","","","",""
"","image-keyboard-response","110","49443","0.0-110.0","3R9WASFE202ZDG2R5R0VYYF1R4FFZA","A3HL2LL0LEPZT8","3UUIU9GZC5R93N292LT21FRJ9VS5TN","","49.8999999910593","img/flower5.png","74","50.8999999910593","1","1","1","2","1,0,0,1,1,0,1,0,1","1,0,0,1,1,0,1,0,1","1",""
"","html-keyboard-response","111","49745","0.0-111.0","3R9WASFE202ZDG2R5R0VYYF1R4FFZA","A3HL2LL0LEPZT8","3UUIU9GZC5R93N292LT21FRJ9VS5TN","","null","<img src=""img/flower5.png"" style=""width:200px; border:14px solid green;"">","null","","","","","","","","",""
"","image-keyboard-response","112","49793","0.0-112.0","3R9WASFE202ZDG2R5R0VYYF1R4FFZA","A3HL2LL0LEPZT8","3UUIU9GZC5R93N292LT21FRJ9VS5TN","","47.20000000298023","img/flower4.png","74","48","1","1","3","2","1,0,0,1,1,0,1,0,1","1,0,0,1,1,0,1,0,1","1",""
"","html-keyboard-response","113","50095","0.0-113.0","3R9WASFE202ZDG2R5R0VYYF1R4FFZA","A3HL2LL0LEPZT8","3UUIU9GZC5R93N292LT21FRJ9VS5TN","","null","<img src=""img/flower4.png"" style=""width:200px; border:14px solid green;"">","null","","","","","","","","",""
"","image-keyboard-response","114","50159","0.0-114.0","3R9WASFE202ZDG2R5R0VYYF1R4FFZA","A3HL2LL0LEPZT8","3UUIU9GZC5R93N292LT21FRJ9VS5TN","","63.400000005960464","img/flower6.png","74","64","1","1","2","2","1,0,0,1,1,0,1,0,1","1,0,0,1,1,0,1,0,1","1",""
"","html-keyboard-response","115","50462","0.0-115.0","3R9WASFE202ZDG2R5R0VYYF1R4FFZA","A3HL2LL0LEPZT8","3UUIU9GZC5R93N292LT21FRJ9VS5TN","","null","<img src=""img/flower6.png"" style=""width:200px; border:14px solid green;"">","null","","","","","","","","",""
"","image-keyboard-response","116","50512","0.0-116.0","3R9WASFE202ZDG2R5R0VYYF1R4FFZA","A3HL2LL0LEPZT8","3UUIU9GZC5R93N292LT21FRJ9VS5TN","","49.20000000298023","img/flower6.png","74","49.900000005960464","1","1","2","2","1,0,0,1,1,0,1,0,1","1,0,0,1,1,0,1,0,1","1",""
"","html-keyboard-response","117","50814","0.0-117.0","3R9WASFE202ZDG2R5R0VYYF1R4FFZA","A3HL2LL0LEPZT8","3UUIU9GZC5R93N292LT21FRJ9VS5TN","","null","<img src=""img/flower6.png"" style=""width:200px; border:14px solid green;"">","null","","","","","","","","",""
"","image-keyboard-response","118","50902","0.0-118.0","3R9WASFE202ZDG2R5R0VYYF1R4FFZA","A3HL2LL0LEPZT8","3UUIU9GZC5R93N292LT21FRJ9VS5TN","","87.20000000298023","img/flower4.png","74","88","1","1","3","2","1,0,0,1,1,0,1,0,1","1,0,0,1,1,0,1,0,1","1",""
"","html-keyboard-response","119","51204","0.0-119.0","3R9WASFE202ZDG2R5R0VYYF1R4FFZA","A3HL2LL0LEPZT8","3UUIU9GZC5R93N292LT21FRJ9VS5TN","","null","<img src=""img/flower4.png"" style=""width:200px; border:14px solid green;"">","null","","","","","","","","",""
"","image-keyboard-response","120","51289","0.0-120.0","3R9WASFE202ZDG2R5R0VYYF1R4FFZA","A3HL2LL0LEPZT8","3UUIU9GZC5R93N292LT21FRJ9VS5TN","","83.90000000596046","img/flower5.png","74","84.70000000298023","1","1","1","2","1,0,0,1,1,0,1,0,1","1,0,0,1,1,0,1,0,1","1",""
"","html-keyboard-response","121","51591","0.0-121.0","3R9WASFE202ZDG2R5R0VYYF1R4FFZA","A3HL2LL0LEPZT8","3UUIU9GZC5R93N292LT21FRJ9VS5TN","","null","<img src=""img/flower5.png"" style=""width:200px; border:14px solid green;"">","null","","","","","","","","",""
"","image-keyboard-response","122","51673","0.0-122.0","3R9WASFE202ZDG2R5R0VYYF1R4FFZA","A3HL2LL0LEPZT8","3UUIU9GZC5R93N292LT21FRJ9VS5TN","","81","img/flower4.png","74","81.69999998807907","1","1","3","2","1,0,0,1,1,0,1,0,1","1,0,0,1,1,0,1,0,1","1",""
"","html-keyboard-response","123","51976","0.0-123.0","3R9WASFE202ZDG2R5R0VYYF1R4FFZA","A3HL2LL0LEPZT8","3UUIU9GZC5R93N292LT21FRJ9VS5TN","","null","<img src=""img/flower4.png"" style=""width:200px; border:14px solid green;"">","null","","","","","","","","",""
"","image-keyboard-response","124","52055","0.0-124.0","3R9WASFE202ZDG2R5R0VYYF1R4FFZA","A3HL2LL0LEPZT8","3UUIU9GZC5R93N292LT21FRJ9VS5TN","","78.3999999910593","img/flower6.png","74","79.09999999403954","1","1","2","2","1,0,0,1,1,0,1,0,1","1,0,0,1,1,0,1,0,1","1",""
"","html-keyboard-response","125","52356","0.0-125.0","3R9WASFE202ZDG2R5R0VYYF1R4FFZA","A3HL2LL0LEPZT8","3UUIU9GZC5R93N292LT21FRJ9VS5TN","","null","<img src=""img/flower6.png"" style=""width:200px; border:14px solid green;"">","null","","","","","","","","",""
"","image-keyboard-response","126","52448","0.0-126.0","3R9WASFE202ZDG2R5R0VYYF1R4FFZA","A3HL2LL0LEPZT8","3UUIU9GZC5R93N292LT21FRJ9VS5TN","","91.6000000089407","img/flower5.png","74","92.29999999701977","1","1","1","2","1,0,0,1,1,0,1,0,1","1,0,0,1,1,0,1,0,1","1",""
"","html-keyboard-response","127","52750","0.0-127.0","3R9WASFE202ZDG2R5R0VYYF1R4FFZA","A3HL2LL0LEPZT8","3UUIU9GZC5R93N292LT21FRJ9VS5TN","","null","<img src=""img/flower5.png"" style=""width:200px; border:14px solid green;"">","null","","","","","","","","",""
"","image-keyboard-response","128","52840","0.0-128.0","3R9WASFE202ZDG2R5R0VYYF1R4FFZA","A3HL2LL0LEPZT8","3UUIU9GZC5R93N292LT21FRJ9VS5TN","","88.79999999701977","img/flower4.png","74","89.5","1","1","3","2","1,0,0,1,1,0,1,0,1","1,0,0,1,1,0,1,0,1","1",""
"","html-keyboard-response","129","53142","0.0-129.0","3R9WASFE202ZDG2R5R0VYYF1R4FFZA","A3HL2LL0LEPZT8","3UUIU9GZC5R93N292LT21FRJ9VS5TN","","null","<img src=""img/flower4.png"" style=""width:200px; border:14px solid green;"">","null","","","","","","","","",""
"","image-keyboard-response","130","53222","0.0-130.0","3R9WASFE202ZDG2R5R0VYYF1R4FFZA","A3HL2LL0LEPZT8","3UUIU9GZC5R93N292LT21FRJ9VS5TN","","79.79999999701977","img/flower5.png","74","80.5","1","1","1","2","1,0,0,1,1,0,1,0,1","1,0,0,1,1,0,1,0,1","1",""
"","html-keyboard-response","131","53525","0.0-131.0","3R9WASFE202ZDG2R5R0VYYF1R4FFZA","A3HL2LL0LEPZT8","3UUIU9GZC5R93N292LT21FRJ9VS5TN","","null","<img src=""img/flower5.png"" style=""width:200px; border:14px solid green;"">","null","","","","","","","","",""
"","image-keyboard-response","132","53576","0.0-132.0","3R9WASFE202ZDG2R5R0VYYF1R4FFZA","A3HL2LL0LEPZT8","3UUIU9GZC5R93N292LT21FRJ9VS5TN","","51","img/flower6.png","74","51.599999994039536","1","1","2","2","1,0,0,1,1,0,1,0,1","1,0,0,1,1,0,1,0,1","1",""
"","html-keyboard-response","133","53878","0.0-133.0","3R9WASFE202ZDG2R5R0VYYF1R4FFZA","A3HL2LL0LEPZT8","3UUIU9GZC5R93N292LT21FRJ9VS5TN","","null","<img src=""img/flower6.png"" style=""width:200px; border:14px solid green;"">","null","","","","","","","","",""
"","image-keyboard-response","134","53972","0.0-134.0","3R9WASFE202ZDG2R5R0VYYF1R4FFZA","A3HL2LL0LEPZT8","3UUIU9GZC5R93N292LT21FRJ9VS5TN","","92.79999999701977","img/flower4.png","74","93.70000000298023","1","1","3","2","1,0,0,1,1,0,1,0,1","1,0,0,1,1,0,1,0,1","1",""
"","html-keyboard-response","135","54275","0.0-135.0","3R9WASFE202ZDG2R5R0VYYF1R4FFZA","A3HL2LL0LEPZT8","3UUIU9GZC5R93N292LT21FRJ9VS5TN","","null","<img src=""img/flower4.png"" style=""width:200px; border:14px solid green;"">","null","","","","","","","","",""
"","image-keyboard-response","136","54350","0.0-136.0","3R9WASFE202ZDG2R5R0VYYF1R4FFZA","A3HL2LL0LEPZT8","3UUIU9GZC5R93N292LT21FRJ9VS5TN","","74.5","img/flower6.png","74","75.29999999701977","1","1","2","2","1,0,0,1,1,0,1,0,1","1,0,0,1,1,0,1,0,1","1",""
"","html-keyboard-response","137","54652","0.0-137.0","3R9WASFE202ZDG2R5R0VYYF1R4FFZA","A3HL2LL0LEPZT8","3UUIU9GZC5R93N292LT21FRJ9VS5TN","","null","<img src=""img/flower6.png"" style=""width:200px; border:14px solid green;"">","null","","","","","","","","",""
"","image-keyboard-response","138","54760","0.0-138.0","3R9WASFE202ZDG2R5R0VYYF1R4FFZA","A3HL2LL0LEPZT8","3UUIU9GZC5R93N292LT21FRJ9VS5TN","","106.8999999910593","img/flower5.png","74","107.5","1","1","1","2","1,0,0,1,1,0,1,0,1","1,0,0,1,1,0,1,0,1","1",""
"","html-keyboard-response","139","55062","0.0-139.0","3R9WASFE202ZDG2R5R0VYYF1R4FFZA","A3HL2LL0LEPZT8","3UUIU9GZC5R93N292LT21FRJ9VS5TN","","null","<img src=""img/flower5.png"" style=""width:200px; border:14px solid green;"">","null","","","","","","","","",""
"","image-keyboard-response","140","55150","0.0-140.0","3R9WASFE202ZDG2R5R0VYYF1R4FFZA","A3HL2LL0LEPZT8","3UUIU9GZC5R93N292LT21FRJ9VS5TN","","86.59999999403954","img/flower4.png","74","87.29999999701977","1","1","3","2","1,0,0,1,1,0,1,0,1","1,0,0,1,1,0,1,0,1","1",""
"","html-keyboard-response","141","55452","0.0-141.0","3R9WASFE202ZDG2R5R0VYYF1R4FFZA","A3HL2LL0LEPZT8","3UUIU9GZC5R93N292LT21FRJ9VS5TN","","null","<img src=""img/flower4.png"" style=""width:200px; border:14px solid green;"">","null","","","","","","","","",""
"","image-keyboard-response","142","55501","0.0-142.0","3R9WASFE202ZDG2R5R0VYYF1R4FFZA","A3HL2LL0LEPZT8","3UUIU9GZC5R93N292LT21FRJ9VS5TN","","48.3999999910593","img/flower5.png","74","49.099999994039536","1","1","1","2","1,0,0,1,1,0,1,0,1","1,0,0,1,1,0,1,0,1","1",""
"","html-keyboard-response","143","55803","0.0-143.0","3R9WASFE202ZDG2R5R0VYYF1R4FFZA","A3HL2LL0LEPZT8","3UUIU9GZC5R93N292LT21FRJ9VS5TN","","null","<img src=""img/flower5.png"" style=""width:200px; border:14px solid green;"">","null","","","","","","","","",""
"","image-keyboard-response","144","55859","0.0-144.0","3R9WASFE202ZDG2R5R0VYYF1R4FFZA","A3HL2LL0LEPZT8","3UUIU9GZC5R93N292LT21FRJ9VS5TN","","55","img/flower4.png","74","55.79999999701977","1","1","3","2","1,0,0,1,1,0,1,0,1","1,0,0,1,1,0,1,0,1","1",""
"","html-keyboard-response","145","56161","0.0-145.0","3R9WASFE202ZDG2R5R0VYYF1R4FFZA","A3HL2LL0LEPZT8","3UUIU9GZC5R93N292LT21FRJ9VS5TN","","null","<img src=""img/flower4.png"" style=""width:200px; border:14px solid green;"">","null","","","","","","","","",""
"","image-keyboard-response","146","56261","0.0-146.0","3R9WASFE202ZDG2R5R0VYYF1R4FFZA","A3HL2LL0LEPZT8","3UUIU9GZC5R93N292LT21FRJ9VS5TN","","99.1000000089407","img/flower5.png","74","100","1","1","1","2","1,0,0,1,1,0,1,0,1","1,0,0,1,1,0,1,0,1","1",""
"","html-keyboard-response","147","56564","0.0-147.0","3R9WASFE202ZDG2R5R0VYYF1R4FFZA","A3HL2LL0LEPZT8","3UUIU9GZC5R93N292LT21FRJ9VS5TN","","null","<img src=""img/flower5.png"" style=""width:200px; border:14px solid green;"">","null","","","","","","","","",""
"","image-keyboard-response","148","56627","0.0-148.0","3R9WASFE202ZDG2R5R0VYYF1R4FFZA","A3HL2LL0LEPZT8","3UUIU9GZC5R93N292LT21FRJ9VS5TN","","62","img/flower6.png","74","62.79999999701977","1","1","2","2","1,0,0,1,1,0,1,0,1","1,0,0,1,1,0,1,0,1","1",""
"","html-keyboard-response","149","56929","0.0-149.0","3R9WASFE202ZDG2R5R0VYYF1R4FFZA","A3HL2LL0LEPZT8","3UUIU9GZC5R93N292LT21FRJ9VS5TN","","null","<img src=""img/flower6.png"" style=""width:200px; border:14px solid green;"">","null","","","","","","","","",""
"","image-keyboard-response","150","57041","0.0-150.0","3R9WASFE202ZDG2R5R0VYYF1R4FFZA","A3HL2LL0LEPZT8","3UUIU9GZC5R93N292LT21FRJ9VS5TN","","110.79999999701977","img/flower4.png","74","111.5","1","1","3","2","1,0,0,1,1,0,1,0,1","1,0,0,1,1,0,1,0,1","1",""
"","html-keyboard-response","151","57341","0.0-151.0","3R9WASFE202ZDG2R5R0VYYF1R4FFZA","A3HL2LL0LEPZT8","3UUIU9GZC5R93N292LT21FRJ9VS5TN","","null","<img src=""img/flower4.png"" style=""width:200px; border:14px solid green;"">","null","","","","","","","","",""
"","image-keyboard-response","152","57451","0.0-152.0","3R9WASFE202ZDG2R5R0VYYF1R4FFZA","A3HL2LL0LEPZT8","3UUIU9GZC5R93N292LT21FRJ9VS5TN","","108.29999999701977","img/flower5.png","74","109","1","1","1","2","1,0,0,1,1,0,1,0,1","1,0,0,1,1,0,1,0,1","1",""
"","html-keyboard-response","153","57752","0.0-153.0","3R9WASFE202ZDG2R5R0VYYF1R4FFZA","A3HL2LL0LEPZT8","3UUIU9GZC5R93N292LT21FRJ9VS5TN","","null","<img src=""img/flower5.png"" style=""width:200px; border:14px solid green;"">","null","","","","","","","","",""
"","image-keyboard-response","154","57867","0.0-154.0","3R9WASFE202ZDG2R5R0VYYF1R4FFZA","A3HL2LL0LEPZT8","3UUIU9GZC5R93N292LT21FRJ9VS5TN","","113.19999998807907","img/flower4.png","74","114.09999999403954","1","1","3","2","1,0,0,1,1,0,1,0,1","1,0,0,1,1,0,1,0,1","1",""
"","html-keyboard-response","155","58168","0.0-155.0","3R9WASFE202ZDG2R5R0VYYF1R4FFZA","A3HL2LL0LEPZT8","3UUIU9GZC5R93N292LT21FRJ9VS5TN","","null","<img src=""img/flower4.png"" style=""width:200px; border:14px solid green;"">","null","","","","","","","","",""
"","image-keyboard-response","156","58251","0.0-156.0","3R9WASFE202ZDG2R5R0VYYF1R4FFZA","A3HL2LL0LEPZT8","3UUIU9GZC5R93N292LT21FRJ9VS5TN","","81.3999999910593","img/flower6.png","74","82.20000000298023","1","1","2","2","1,0,0,1,1,0,1,0,1","1,0,0,1,1,0,1,0,1","1",""
"","html-keyboard-response","157","58552","0.0-157.0","3R9WASFE202ZDG2R5R0VYYF1R4FFZA","A3HL2LL0LEPZT8","3UUIU9GZC5R93N292LT21FRJ9VS5TN","","null","<img src=""img/flower6.png"" style=""width:200px; border:14px solid green;"">","null","","","","","","","","",""
"","image-keyboard-response","158","58675","0.0-158.0","3R9WASFE202ZDG2R5R0VYYF1R4FFZA","A3HL2LL0LEPZT8","3UUIU9GZC5R93N292LT21FRJ9VS5TN","","121.80000001192093","img/flower6.png","74","122.70000000298023","1","1","2","2","1,0,0,1,1,0,1,0,1","1,0,0,1,1,0,1,0,1","1",""
"","html-keyboard-response","159","58978","0.0-159.0","3R9WASFE202ZDG2R5R0VYYF1R4FFZA","A3HL2LL0LEPZT8","3UUIU9GZC5R93N292LT21FRJ9VS5TN","","null","<img src=""img/flower6.png"" style=""width:200px; border:14px solid green;"">","null","","","","","","","","",""
"","image-keyboard-response","160","59124","0.0-160.0","3R9WASFE202ZDG2R5R0VYYF1R4FFZA","A3HL2LL0LEPZT8","3UUIU9GZC5R93N292LT21FRJ9VS5TN","","144.70000000298023","img/flower6.png","74","145.70000000298023","1","1","2","2","1,0,0,1,1,0,1,0,1","1,0,0,1,1,0,1,0,1","1",""
"","html-keyboard-response","161","59427","0.0-161.0","3R9WASFE202ZDG2R5R0VYYF1R4FFZA","A3HL2LL0LEPZT8","3UUIU9GZC5R93N292LT21FRJ9VS5TN","","null","<img src=""img/flower6.png"" style=""width:200px; border:14px solid green;"">","null","","","","","","","","",""
"","image-keyboard-response","162","59541","0.0-162.0","3R9WASFE202ZDG2R5R0VYYF1R4FFZA","A3HL2LL0LEPZT8","3UUIU9GZC5R93N292LT21FRJ9VS5TN","","113.3999999910593","img/flower6.png","74","114.09999999403954","1","1","2","2","1,0,0,1,1,0,1,0,1","1,0,0,1,1,0,1,0,1","1",""
"","html-keyboard-response","163","59844","0.0-163.0","3R9WASFE202ZDG2R5R0VYYF1R4FFZA","A3HL2LL0LEPZT8","3UUIU9GZC5R93N292LT21FRJ9VS5TN","","null","<img src=""img/flower6.png"" style=""width:200px; border:14px solid green;"">","null","","","","","","","","",""
"","image-keyboard-response","164","59963","0.0-164.0","3R9WASFE202ZDG2R5R0VYYF1R4FFZA","A3HL2LL0LEPZT8","3UUIU9GZC5R93N292LT21FRJ9VS5TN","","118.29999999701977","img/flower6.png","74","119.29999999701977","1","1","2","2","1,0,0,1,1,0,1,0,1","1,0,0,1,1,0,1,0,1","1",""
"","html-keyboard-response","165","60265","0.0-165.0","3R9WASFE202ZDG2R5R0VYYF1R4FFZA","A3HL2LL0LEPZT8","3UUIU9GZC5R93N292LT21FRJ9VS5TN","","null","<img src=""img/flower6.png"" style=""width:200px; border:14px solid green;"">","null","","","","","","","","",""
"","image-keyboard-response","166","60394","0.0-166.0","3R9WASFE202ZDG2R5R0VYYF1R4FFZA","A3HL2LL0LEPZT8","3UUIU9GZC5R93N292LT21FRJ9VS5TN","","127.90000000596046","img/flower5.png","74","129","1","1","1","2","1,0,0,1,1,0,1,0,1","1,0,0,1,1,0,1,0,1","1",""
"","html-keyboard-response","167","60707","0.0-167.0","3R9WASFE202ZDG2R5R0VYYF1R4FFZA","A3HL2LL0LEPZT8","3UUIU9GZC5R93N292LT21FRJ9VS5TN","","null","<img src=""img/flower5.png"" style=""width:200px; border:14px solid green;"">","null","","","","","","","","",""
"","image-keyboard-response","168","60825","0.0-168.0","3R9WASFE202ZDG2R5R0VYYF1R4FFZA","A3HL2LL0LEPZT8","3UUIU9GZC5R93N292LT21FRJ9VS5TN","","117.20000000298023","img/flower6.png","74","118.20000000298023","1","1","2","2","1,0,0,1,1,0,1,0,1","1,0,0,1,1,0,1,0,1","1",""
"","html-keyboard-response","169","61126","0.0-169.0","3R9WASFE202ZDG2R5R0VYYF1R4FFZA","A3HL2LL0LEPZT8","3UUIU9GZC5R93N292LT21FRJ9VS5TN","","null","<img src=""img/flower6.png"" style=""width:200px; border:14px solid green;"">","null","","","","","","","","",""
"","image-keyboard-response","170","61274","0.0-170.0","3R9WASFE202ZDG2R5R0VYYF1R4FFZA","A3HL2LL0LEPZT8","3UUIU9GZC5R93N292LT21FRJ9VS5TN","","146.3999999910593","img/flower5.png","74","147.19999998807907","1","1","1","2","1,0,0,1,1,0,1,0,1","1,0,0,1,1,0,1,0,1","1",""
"","html-keyboard-response","171","61576","0.0-171.0","3R9WASFE202ZDG2R5R0VYYF1R4FFZA","A3HL2LL0LEPZT8","3UUIU9GZC5R93N292LT21FRJ9VS5TN","","null","<img src=""img/flower5.png"" style=""width:200px; border:14px solid green;"">","null","","","","","","","","",""
"","image-keyboard-response","172","61657","0.0-172.0","3R9WASFE202ZDG2R5R0VYYF1R4FFZA","A3HL2LL0LEPZT8","3UUIU9GZC5R93N292LT21FRJ9VS5TN","","79.40000000596046","img/flower6.png","74","80.09999999403954","1","1","2","2","1,0,0,1,1,0,1,0,1","1,0,0,1,1,0,1,0,1","1",""
"","html-keyboard-response","173","61959","0.0-173.0","3R9WASFE202ZDG2R5R0VYYF1R4FFZA","A3HL2LL0LEPZT8","3UUIU9GZC5R93N292LT21FRJ9VS5TN","","null","<img src=""img/flower6.png"" style=""width:200px; border:14px solid green;"">","null","","","","","","","","",""
"","image-keyboard-response","174","62063","0.0-174.0","3R9WASFE202ZDG2R5R0VYYF1R4FFZA","A3HL2LL0LEPZT8","3UUIU9GZC5R93N292LT21FRJ9VS5TN","","102.59999999403954","img/flower5.png","74","103.3999999910593","1","1","1","2","1,0,0,1,1,0,1,0,1","1,0,0,1,1,0,1,0,1","1",""
"","html-keyboard-response","175","62365","0.0-175.0","3R9WASFE202ZDG2R5R0VYYF1R4FFZA","A3HL2LL0LEPZT8","3UUIU9GZC5R93N292LT21FRJ9VS5TN","","null","<img src=""img/flower5.png"" style=""width:200px; border:14px solid green;"">","null","","","","","","","","",""
"","image-keyboard-response","176","62482","0.0-176.0","3R9WASFE202ZDG2R5R0VYYF1R4FFZA","A3HL2LL0LEPZT8","3UUIU9GZC5R93N292LT21FRJ9VS5TN","","116.30000001192093","img/flower5.png","74","117","1","1","1","2","1,0,0,1,1,0,1,0,1","1,0,0,1,1,0,1,0,1","1",""
"","html-keyboard-response","177","62784","0.0-177.0","3R9WASFE202ZDG2R5R0VYYF1R4FFZA","A3HL2LL0LEPZT8","3UUIU9GZC5R93N292LT21FRJ9VS5TN","","null","<img src=""img/flower5.png"" style=""width:200px; border:14px solid green;"">","null","","","","","","","","",""
"","image-keyboard-response","178","62892","0.0-178.0","3R9WASFE202ZDG2R5R0VYYF1R4FFZA","A3HL2LL0LEPZT8","3UUIU9GZC5R93N292LT21FRJ9VS5TN","","107.09999999403954","img/flower4.png","74","107.70000000298023","1","1","3","2","1,0,0,1,1,0,1,0,1","1,0,0,1,1,0,1,0,1","1",""
"","html-keyboard-response","179","63194","0.0-179.0","3R9WASFE202ZDG2R5R0VYYF1R4FFZA","A3HL2LL0LEPZT8","3UUIU9GZC5R93N292LT21FRJ9VS5TN","","null","<img src=""img/flower4.png"" style=""width:200px; border:14px solid green;"">","null","","","","","","","","",""
"","image-keyboard-response","180","63357","0.0-180.0","3R9WASFE202ZDG2R5R0VYYF1R4FFZA","A3HL2LL0LEPZT8","3UUIU9GZC5R93N292LT21FRJ9VS5TN","","161.70000000298023","img/flower6.png","74","162.69999998807907","1","1","2","2","1,0,0,1,1,0,1,0,1","1,0,0,1,1,0,1,0,1","1",""
"","html-keyboard-response","181","63660","0.0-181.0","3R9WASFE202ZDG2R5R0VYYF1R4FFZA","A3HL2LL0LEPZT8","3UUIU9GZC5R93N292LT21FRJ9VS5TN","","null","<img src=""img/flower6.png"" style=""width:200px; border:14px solid green;"">","null","","","","","","","","",""
"","image-keyboard-response","182","63834","0.0-182.0","3R9WASFE202ZDG2R5R0VYYF1R4FFZA","A3HL2LL0LEPZT8","3UUIU9GZC5R93N292LT21FRJ9VS5TN","","173.70000000298023","img/flower1.png","74","174.5","1","1","1","1","1,0.333,0.333,0.333,1,0.333,0.333,0.333,1","1,0.333,0.333,0.333,1,0.333,0.333,0.333,1","1",""
"","html-keyboard-response","183","64137","0.0-183.0","3R9WASFE202ZDG2R5R0VYYF1R4FFZA","A3HL2LL0LEPZT8","3UUIU9GZC5R93N292LT21FRJ9VS5TN","","null","<img src=""img/flower1.png"" style=""width:200px; border:14px solid green;"">","null","","","","","","","","",""
"","image-keyboard-response","184","64258","0.0-184.0","3R9WASFE202ZDG2R5R0VYYF1R4FFZA","A3HL2LL0LEPZT8","3UUIU9GZC5R93N292LT21FRJ9VS5TN","","120.3999999910593","img/flower2.png","74","121.29999999701977","1","1","2","1","1,0.333,0.333,0.333,1,0.333,0.333,0.333,1","1,0.333,0.333,0.333,1,0.333,0.333,0.333,1","1",""
"","html-keyboard-response","185","64561","0.0-185.0","3R9WASFE202ZDG2R5R0VYYF1R4FFZA","A3HL2LL0LEPZT8","3UUIU9GZC5R93N292LT21FRJ9VS5TN","","null","<img src=""img/flower2.png"" style=""width:200px; border:14px solid green;"">","null","","","","","","","","",""
"","image-keyboard-response","186","64784","0.0-186.0","3R9WASFE202ZDG2R5R0VYYF1R4FFZA","A3HL2LL0LEPZT8","3UUIU9GZC5R93N292LT21FRJ9VS5TN","","222.29999999701977","img/flower3.png","74","223.29999999701977","1","1","3","1","1,0.333,0.333,0.333,1,0.333,0.333,0.333,1","1,0.333,0.333,0.333,1,0.333,0.333,0.333,1","1",""
"","html-keyboard-response","187","65087","0.0-187.0","3R9WASFE202ZDG2R5R0VYYF1R4FFZA","A3HL2LL0LEPZT8","3UUIU9GZC5R93N292LT21FRJ9VS5TN","","null","<img src=""img/flower3.png"" style=""width:200px; border:14px solid green;"">","null","","","","","","","","",""
"","image-keyboard-response","188","65305","0.0-188.0","3R9WASFE202ZDG2R5R0VYYF1R4FFZA","A3HL2LL0LEPZT8","3UUIU9GZC5R93N292LT21FRJ9VS5TN","","217.5","img/flower1.png","74","218.20000000298023","1","1","1","1","1,0.333,0.333,0.333,1,0.333,0.333,0.333,1","1,0.333,0.333,0.333,1,0.333,0.333,0.333,1","1",""
"","html-keyboard-response","189","65608","0.0-189.0","3R9WASFE202ZDG2R5R0VYYF1R4FFZA","A3HL2LL0LEPZT8","3UUIU9GZC5R93N292LT21FRJ9VS5TN","","null","<img src=""img/flower1.png"" style=""width:200px; border:14px solid green;"">","null","","","","","","","","",""
"","image-keyboard-response","190","65800","0.0-190.0","3R9WASFE202ZDG2R5R0VYYF1R4FFZA","A3HL2LL0LEPZT8","3UUIU9GZC5R93N292LT21FRJ9VS5TN","","191.59999999403954","img/flower2.png","74","192.3999999910593","1","0","2","1","1,0.333,0.333,0.333,1,0.333,0.333,0.333,1","1,0.333,0.333,0.333,1,0.333,0.333,0.333,1","1",""
"","html-keyboard-response","191","66102","0.0-191.0","3R9WASFE202ZDG2R5R0VYYF1R4FFZA","A3HL2LL0LEPZT8","3UUIU9GZC5R93N292LT21FRJ9VS5TN","","null","<img src=""img/flower2.png"" style=""width:200px;border:14px solid red;"">","null","","","","","","","","",""
"","image-keyboard-response","192","66798","0.0-192.0","3R9WASFE202ZDG2R5R0VYYF1R4FFZA","A3HL2LL0LEPZT8","3UUIU9GZC5R93N292LT21FRJ9VS5TN","","694.5","img/flower2.png","75","695.3999999910593","2","1","2","1","1,0.333,0.333,0.333,1,0.333,0.333,0.333,1","1,0.333,0.333,0.333,1,0.333,0.333,0.333,1","1",""
"","html-keyboard-response","193","67099","0.0-193.0","3R9WASFE202ZDG2R5R0VYYF1R4FFZA","A3HL2LL0LEPZT8","3UUIU9GZC5R93N292LT21FRJ9VS5TN","","null","<img src=""img/flower2.png"" style=""width:200px; border:14px solid green;"">","null","","","","","","","","",""
"","image-keyboard-response","194","67268","0.0-194.0","3R9WASFE202ZDG2R5R0VYYF1R4FFZA","A3HL2LL0LEPZT8","3UUIU9GZC5R93N292LT21FRJ9VS5TN","","168.20000000298023","img/flower1.png","75","168.90000000596046","2","0","1","1","1,0.333,0.333,0.333,1,0.333,0.333,0.333,1","1,0.333,0.333,0.333,1,0.333,0.333,0.333,1","1",""
"","html-keyboard-response","195","67571","0.0-195.0","3R9WASFE202ZDG2R5R0VYYF1R4FFZA","A3HL2LL0LEPZT8","3UUIU9GZC5R93N292LT21FRJ9VS5TN","","null","<img src=""img/flower1.png"" style=""width:200px;border:14px solid red;"">","null","","","","","","","","",""
"","image-keyboard-response","196","67945","0.0-196.0","3R9WASFE202ZDG2R5R0VYYF1R4FFZA","A3HL2LL0LEPZT8","3UUIU9GZC5R93N292LT21FRJ9VS5TN","","373.20000000298023","img/flower2.png","74","374.09999999403954","1","0","2","1","1,0.333,0.333,0.333,1,0.333,0.333,0.333,1","1,0.333,0.333,0.333,1,0.333,0.333,0.333,1","1",""
"","html-keyboard-response","197","68248","0.0-197.0","3R9WASFE202ZDG2R5R0VYYF1R4FFZA","A3HL2LL0LEPZT8","3UUIU9GZC5R93N292LT21FRJ9VS5TN","","null","<img src=""img/flower2.png"" style=""width:200px;border:14px solid red;"">","null","","","","","","","","",""
"","image-keyboard-response","198","69322","0.0-198.0","3R9WASFE202ZDG2R5R0VYYF1R4FFZA","A3HL2LL0LEPZT8","3UUIU9GZC5R93N292LT21FRJ9VS5TN","","1072.3999999910593","img/flower3.png","76","1073.300000011921","3","1","3","1","1,0.333,0.333,0.333,1,0.333,0.333,0.333,1","1,0.333,0.333,0.333,1,0.333,0.333,0.333,1","1",""
"","html-keyboard-response","199","69623","0.0-199.0","3R9WASFE202ZDG2R5R0VYYF1R4FFZA","A3HL2LL0LEPZT8","3UUIU9GZC5R93N292LT21FRJ9VS5TN","","null","<img src=""img/flower3.png"" style=""width:200px; border:14px solid green;"">","null","","","","","","","","",""
"","image-keyboard-response","200","70165","0.0-200.0","3R9WASFE202ZDG2R5R0VYYF1R4FFZA","A3HL2LL0LEPZT8","3UUIU9GZC5R93N292LT21FRJ9VS5TN","","540.4000000059605","img/flower2.png","75","541.2000000029802","2","1","2","1","1,0.333,0.333,0.333,1,0.333,0.333,0.333,1","1,0.333,0.333,0.333,1,0.333,0.333,0.333,1","1",""
"","html-keyboard-response","201","70466","0.0-201.0","3R9WASFE202ZDG2R5R0VYYF1R4FFZA","A3HL2LL0LEPZT8","3UUIU9GZC5R93N292LT21FRJ9VS5TN","","null","<img src=""img/flower2.png"" style=""width:200px; border:14px solid green;"">","null","","","","","","","","",""
"","image-keyboard-response","202","71025","0.0-202.0","3R9WASFE202ZDG2R5R0VYYF1R4FFZA","A3HL2LL0LEPZT8","3UUIU9GZC5R93N292LT21FRJ9VS5TN","","557.7000000029802","img/flower1.png","74","558.5999999940395","1","1","1","1","1,0.333,0.333,0.333,1,0.333,0.333,0.333,1","1,0.333,0.333,0.333,1,0.333,0.333,0.333,1","1",""
"","html-keyboard-response","203","71327","0.0-203.0","3R9WASFE202ZDG2R5R0VYYF1R4FFZA","A3HL2LL0LEPZT8","3UUIU9GZC5R93N292LT21FRJ9VS5TN","","null","<img src=""img/flower1.png"" style=""width:200px; border:14px solid green;"">","null","","","","","","","","",""
"","image-keyboard-response","204","72270","0.0-204.0","3R9WASFE202ZDG2R5R0VYYF1R4FFZA","A3HL2LL0LEPZT8","3UUIU9GZC5R93N292LT21FRJ9VS5TN","","941.9000000059605","img/flower3.png","76","942.7000000029802","3","1","3","1","1,0.333,0.333,0.333,1,0.333,0.333,0.333,1","1,0.333,0.333,0.333,1,0.333,0.333,0.333,1","1",""
"","html-keyboard-response","205","72572","0.0-205.0","3R9WASFE202ZDG2R5R0VYYF1R4FFZA","A3HL2LL0LEPZT8","3UUIU9GZC5R93N292LT21FRJ9VS5TN","","null","<img src=""img/flower3.png"" style=""width:200px; border:14px solid green;"">","null","","","","","","","","",""
"","image-keyboard-response","206","72978","0.0-206.0","3R9WASFE202ZDG2R5R0VYYF1R4FFZA","A3HL2LL0LEPZT8","3UUIU9GZC5R93N292LT21FRJ9VS5TN","","404.19999998807907","img/flower2.png","75","404.79999999701977","2","1","2","1","1,0.333,0.333,0.333,1,0.333,0.333,0.333,1","1,0.333,0.333,0.333,1,0.333,0.333,0.333,1","1",""
"","html-keyboard-response","207","73280","0.0-207.0","3R9WASFE202ZDG2R5R0VYYF1R4FFZA","A3HL2LL0LEPZT8","3UUIU9GZC5R93N292LT21FRJ9VS5TN","","null","<img src=""img/flower2.png"" style=""width:200px; border:14px solid green;"">","null","","","","","","","","",""
"","image-keyboard-response","208","73656","0.0-208.0","3R9WASFE202ZDG2R5R0VYYF1R4FFZA","A3HL2LL0LEPZT8","3UUIU9GZC5R93N292LT21FRJ9VS5TN","","374.79999999701977","img/flower3.png","74","375.69999998807907","1","0","3","1","1,0.333,0.333,0.333,1,0.333,0.333,0.333,1","1,0.333,0.333,0.333,1,0.333,0.333,0.333,1","1",""
"","html-keyboard-response","209","73958","0.0-209.0","3R9WASFE202ZDG2R5R0VYYF1R4FFZA","A3HL2LL0LEPZT8","3UUIU9GZC5R93N292LT21FRJ9VS5TN","","null","<img src=""img/flower3.png"" style=""width:200px;border:14px solid red;"">","null","","","","","","","","",""
"","image-keyboard-response","210","74655","0.0-210.0","3R9WASFE202ZDG2R5R0VYYF1R4FFZA","A3HL2LL0LEPZT8","3UUIU9GZC5R93N292LT21FRJ9VS5TN","","696.0999999940395","img/flower2.png","75","696.7999999970198","2","1","2","1","1,0.333,0.333,0.333,1,0.333,0.333,0.333,1","1,0.333,0.333,0.333,1,0.333,0.333,0.333,1","1",""
"","html-keyboard-response","211","74959","0.0-211.0","3R9WASFE202ZDG2R5R0VYYF1R4FFZA","A3HL2LL0LEPZT8","3UUIU9GZC5R93N292LT21FRJ9VS5TN","","null","<img src=""img/flower2.png"" style=""width:200px; border:14px solid green;"">","null","","","","","","","","",""
"","image-keyboard-response","212","75503","0.0-212.0","3R9WASFE202ZDG2R5R0VYYF1R4FFZA","A3HL2LL0LEPZT8","3UUIU9GZC5R93N292LT21FRJ9VS5TN","","542.5","img/flower3.png","76","543.5","3","1","3","1","1,0.333,0.333,0.333,1,0.333,0.333,0.333,1","1,0.333,0.333,0.333,1,0.333,0.333,0.333,1","1",""
"","html-keyboard-response","213","75806","0.0-213.0","3R9WASFE202ZDG2R5R0VYYF1R4FFZA","A3HL2LL0LEPZT8","3UUIU9GZC5R93N292LT21FRJ9VS5TN","","null","<img src=""img/flower3.png"" style=""width:200px; border:14px solid green;"">","null","","","","","","","","",""
"","image-keyboard-response","214","76179","0.0-214.0","3R9WASFE202ZDG2R5R0VYYF1R4FFZA","A3HL2LL0LEPZT8","3UUIU9GZC5R93N292LT21FRJ9VS5TN","","372.20000000298023","img/flower2.png","75","373.09999999403954","2","1","2","1","1,0.333,0.333,0.333,1,0.333,0.333,0.333,1","1,0.333,0.333,0.333,1,0.333,0.333,0.333,1","1",""
"","html-keyboard-response","215","76481","0.0-215.0","3R9WASFE202ZDG2R5R0VYYF1R4FFZA","A3HL2LL0LEPZT8","3UUIU9GZC5R93N292LT21FRJ9VS5TN","","null","<img src=""img/flower2.png"" style=""width:200px; border:14px solid green;"">","null","","","","","","","","",""
"","image-keyboard-response","216","76930","0.0-216.0","3R9WASFE202ZDG2R5R0VYYF1R4FFZA","A3HL2LL0LEPZT8","3UUIU9GZC5R93N292LT21FRJ9VS5TN","","448","img/flower3.png","76","448.79999999701977","3","1","3","1","1,0.333,0.333,0.333,1,0.333,0.333,0.333,1","1,0.333,0.333,0.333,1,0.333,0.333,0.333,1","1",""
"","html-keyboard-response","217","77232","0.0-217.0","3R9WASFE202ZDG2R5R0VYYF1R4FFZA","A3HL2LL0LEPZT8","3UUIU9GZC5R93N292LT21FRJ9VS5TN","","null","<img src=""img/flower3.png"" style=""width:200px; border:14px solid green;"">","null","","","","","","","","",""
"","image-keyboard-response","218","77774","0.0-218.0","3R9WASFE202ZDG2R5R0VYYF1R4FFZA","A3HL2LL0LEPZT8","3UUIU9GZC5R93N292LT21FRJ9VS5TN","","541.2999999970198","img/flower3.png","76","542.1000000089407","3","1","3","1","1,0.333,0.333,0.333,1,0.333,0.333,0.333,1","1,0.333,0.333,0.333,1,0.333,0.333,0.333,1","1",""
"","html-keyboard-response","219","78076","0.0-219.0","3R9WASFE202ZDG2R5R0VYYF1R4FFZA","A3HL2LL0LEPZT8","3UUIU9GZC5R93N292LT21FRJ9VS5TN","","null","<img src=""img/flower3.png"" style=""width:200px; border:14px solid green;"">","null","","","","","","","","",""
"","image-keyboard-response","220","78504","0.0-220.0","3R9WASFE202ZDG2R5R0VYYF1R4FFZA","A3HL2LL0LEPZT8","3UUIU9GZC5R93N292LT21FRJ9VS5TN","","427.19999998807907","img/flower2.png","75","428","2","1","2","1","1,0.333,0.333,0.333,1,0.333,0.333,0.333,1","1,0.333,0.333,0.333,1,0.333,0.333,0.333,1","1",""
"","html-keyboard-response","221","78806","0.0-221.0","3R9WASFE202ZDG2R5R0VYYF1R4FFZA","A3HL2LL0LEPZT8","3UUIU9GZC5R93N292LT21FRJ9VS5TN","","null","<img src=""img/flower2.png"" style=""width:200px; border:14px solid green;"">","null","","","","","","","","",""
"","image-keyboard-response","222","79096","0.0-222.0","3R9WASFE202ZDG2R5R0VYYF1R4FFZA","A3HL2LL0LEPZT8","3UUIU9GZC5R93N292LT21FRJ9VS5TN","","289.40000000596046","img/flower2.png","75","290.09999999403954","2","1","2","1","1,0.333,0.333,0.333,1,0.333,0.333,0.333,1","1,0.333,0.333,0.333,1,0.333,0.333,0.333,1","1",""
"","html-keyboard-response","223","79398","0.0-223.0","3R9WASFE202ZDG2R5R0VYYF1R4FFZA","A3HL2LL0LEPZT8","3UUIU9GZC5R93N292LT21FRJ9VS5TN","","null","<img src=""img/flower2.png"" style=""width:200px; border:14px solid green;"">","null","","","","","","","","",""
"","image-keyboard-response","224","79675","0.0-224.0","3R9WASFE202ZDG2R5R0VYYF1R4FFZA","A3HL2LL0LEPZT8","3UUIU9GZC5R93N292LT21FRJ9VS5TN","","276","img/flower2.png","75","276.79999999701977","2","1","2","1","1,0.333,0.333,0.333,1,0.333,0.333,0.333,1","1,0.333,0.333,0.333,1,0.333,0.333,0.333,1","1",""
"","html-keyboard-response","225","79986","0.0-225.0","3R9WASFE202ZDG2R5R0VYYF1R4FFZA","A3HL2LL0LEPZT8","3UUIU9GZC5R93N292LT21FRJ9VS5TN","","null","<img src=""img/flower2.png"" style=""width:200px; border:14px solid green;"">","null","","","","","","","","",""
"","image-keyboard-response","226","80370","0.0-226.0","3R9WASFE202ZDG2R5R0VYYF1R4FFZA","A3HL2LL0LEPZT8","3UUIU9GZC5R93N292LT21FRJ9VS5TN","","382.29999999701977","img/flower3.png","76","383.40000000596046","3","1","3","1","1,0.333,0.333,0.333,1,0.333,0.333,0.333,1","1,0.333,0.333,0.333,1,0.333,0.333,0.333,1","1",""
"","html-keyboard-response","227","80671","0.0-227.0","3R9WASFE202ZDG2R5R0VYYF1R4FFZA","A3HL2LL0LEPZT8","3UUIU9GZC5R93N292LT21FRJ9VS5TN","","null","<img src=""img/flower3.png"" style=""width:200px; border:14px solid green;"">","null","","","","","","","","",""
"","image-keyboard-response","228","81231","0.0-228.0","3R9WASFE202ZDG2R5R0VYYF1R4FFZA","A3HL2LL0LEPZT8","3UUIU9GZC5R93N292LT21FRJ9VS5TN","","559.0999999940395","img/flower1.png","74","559.8999999910593","1","1","1","1","1,0.333,0.333,0.333,1,0.333,0.333,0.333,1","1,0.333,0.333,0.333,1,0.333,0.333,0.333,1","1",""
"","html-keyboard-response","229","81533","0.0-229.0","3R9WASFE202ZDG2R5R0VYYF1R4FFZA","A3HL2LL0LEPZT8","3UUIU9GZC5R93N292LT21FRJ9VS5TN","","null","<img src=""img/flower1.png"" style=""width:200px; border:14px solid green;"">","null","","","","","","","","",""
"","image-keyboard-response","230","82043","0.0-230.0","3R9WASFE202ZDG2R5R0VYYF1R4FFZA","A3HL2LL0LEPZT8","3UUIU9GZC5R93N292LT21FRJ9VS5TN","","508.59999999403954","img/flower2.png","75","509.3999999910593","2","1","2","1","1,0.333,0.333,0.333,1,0.333,0.333,0.333,1","1,0.333,0.333,0.333,1,0.333,0.333,0.333,1","1",""
"","html-keyboard-response","231","82345","0.0-231.0","3R9WASFE202ZDG2R5R0VYYF1R4FFZA","A3HL2LL0LEPZT8","3UUIU9GZC5R93N292LT21FRJ9VS5TN","","null","<img src=""img/flower2.png"" style=""width:200px; border:14px solid green;"">","null","","","","","","","","",""
"","image-keyboard-response","232","82627","0.0-232.0","3R9WASFE202ZDG2R5R0VYYF1R4FFZA","A3HL2LL0LEPZT8","3UUIU9GZC5R93N292LT21FRJ9VS5TN","","281.29999999701977","img/flower2.png","75","282.09999999403954","2","1","2","1","1,0.333,0.333,0.333,1,0.333,0.333,0.333,1","1,0.333,0.333,0.333,1,0.333,0.333,0.333,1","1",""
"","html-keyboard-response","233","82930","0.0-233.0","3R9WASFE202ZDG2R5R0VYYF1R4FFZA","A3HL2LL0LEPZT8","3UUIU9GZC5R93N292LT21FRJ9VS5TN","","null","<img src=""img/flower2.png"" style=""width:200px; border:14px solid green;"">","null","","","","","","","","",""
"","image-keyboard-response","234","83138","0.0-234.0","3R9WASFE202ZDG2R5R0VYYF1R4FFZA","A3HL2LL0LEPZT8","3UUIU9GZC5R93N292LT21FRJ9VS5TN","","207.30000001192093","img/flower1.png","75","208","2","1","1","1","1,0.333,0.333,0.333,1,0.333,0.333,0.333,1","1,0.333,0.333,0.333,1,0.333,0.333,0.333,1","1",""
"","html-keyboard-response","235","83441","0.0-235.0","3R9WASFE202ZDG2R5R0VYYF1R4FFZA","A3HL2LL0LEPZT8","3UUIU9GZC5R93N292LT21FRJ9VS5TN","","null","<img src=""img/flower1.png"" style=""width:200px; border:14px solid green;"">","null","","","","","","","","",""
"","image-keyboard-response","236","84491","0.0-236.0","3R9WASFE202ZDG2R5R0VYYF1R4FFZA","A3HL2LL0LEPZT8","3UUIU9GZC5R93N292LT21FRJ9VS5TN","","1049","img/flower3.png","75","1049.7000000029802","2","1","3","1","1,0.333,0.333,0.333,1,0.333,0.333,0.333,1","1,0.333,0.333,0.333,1,0.333,0.333,0.333,1","1",""
"","html-keyboard-response","237","84793","0.0-237.0","3R9WASFE202ZDG2R5R0VYYF1R4FFZA","A3HL2LL0LEPZT8","3UUIU9GZC5R93N292LT21FRJ9VS5TN","","null","<img src=""img/flower3.png"" style=""width:200px; border:14px solid green;"">","null","","","","","","","","",""
"","image-keyboard-response","238","85095","0.0-238.0","3R9WASFE202ZDG2R5R0VYYF1R4FFZA","A3HL2LL0LEPZT8","3UUIU9GZC5R93N292LT21FRJ9VS5TN","","301.90000000596046","img/flower3.png","75","302.70000000298023","2","0","3","1","1,0.333,0.333,0.333,1,0.333,0.333,0.333,1","1,0.333,0.333,0.333,1,0.333,0.333,0.333,1","1",""
"","html-keyboard-response","239","85396","0.0-239.0","3R9WASFE202ZDG2R5R0VYYF1R4FFZA","A3HL2LL0LEPZT8","3UUIU9GZC5R93N292LT21FRJ9VS5TN","","null","<img src=""img/flower3.png"" style=""width:200px;border:14px solid red;"">","null","","","","","","","","",""
"","image-keyboard-response","240","85881","0.0-240.0","3R9WASFE202ZDG2R5R0VYYF1R4FFZA","A3HL2LL0LEPZT8","3UUIU9GZC5R93N292LT21FRJ9VS5TN","","484.19999998807907","img/flower3.png","76","484.8999999910593","3","1","3","1","1,0.333,0.333,0.333,1,0.333,0.333,0.333,1","1,0.333,0.333,0.333,1,0.333,0.333,0.333,1","1",""
"","html-keyboard-response","241","86183","0.0-241.0","3R9WASFE202ZDG2R5R0VYYF1R4FFZA","A3HL2LL0LEPZT8","3UUIU9GZC5R93N292LT21FRJ9VS5TN","","null","<img src=""img/flower3.png"" style=""width:200px; border:14px solid green;"">","null","","","","","","","","",""
"","image-keyboard-response","242","86675","0.0-242.0","3R9WASFE202ZDG2R5R0VYYF1R4FFZA","A3HL2LL0LEPZT8","3UUIU9GZC5R93N292LT21FRJ9VS5TN","","490.79999999701977","img/flower2.png","75","491.79999999701977","2","1","2","1","1,0.333,0.333,0.333,1,0.333,0.333,0.333,1","1,0.333,0.333,0.333,1,0.333,0.333,0.333,1","1",""
"","html-keyboard-response","243","86976","0.0-243.0","3R9WASFE202ZDG2R5R0VYYF1R4FFZA","A3HL2LL0LEPZT8","3UUIU9GZC5R93N292LT21FRJ9VS5TN","","null","<img src=""img/flower2.png"" style=""width:200px; border:14px solid green;"">","null","","","","","","","","",""
"","image-keyboard-response","244","87112","0.0-244.0","3R9WASFE202ZDG2R5R0VYYF1R4FFZA","A3HL2LL0LEPZT8","3UUIU9GZC5R93N292LT21FRJ9VS5TN","","134.6000000089407","img/flower1.png","75","135.5","2","0","1","1","1,0.333,0.333,0.333,1,0.333,0.333,0.333,1","1,0.333,0.333,0.333,1,0.333,0.333,0.333,1","1",""
"","html-keyboard-response","245","87413","0.0-245.0","3R9WASFE202ZDG2R5R0VYYF1R4FFZA","A3HL2LL0LEPZT8","3UUIU9GZC5R93N292LT21FRJ9VS5TN","","null","<img src=""img/flower1.png"" style=""width:200px;border:14px solid red;"">","null","","","","","","","","",""
"","image-keyboard-response","246","87604","0.0-246.0","3R9WASFE202ZDG2R5R0VYYF1R4FFZA","A3HL2LL0LEPZT8","3UUIU9GZC5R93N292LT21FRJ9VS5TN","","189.79999999701977","img/flower1.png","74","190.79999999701977","1","1","1","1","1,0.333,0.333,0.333,1,0.333,0.333,0.333,1","1,0.333,0.333,0.333,1,0.333,0.333,0.333,1","1",""
"","html-keyboard-response","247","87906","0.0-247.0","3R9WASFE202ZDG2R5R0VYYF1R4FFZA","A3HL2LL0LEPZT8","3UUIU9GZC5R93N292LT21FRJ9VS5TN","","null","<img src=""img/flower1.png"" style=""width:200px; border:14px solid green;"">","null","","","","","","","","",""
"","image-keyboard-response","248","88348","0.0-248.0","3R9WASFE202ZDG2R5R0VYYF1R4FFZA","A3HL2LL0LEPZT8","3UUIU9GZC5R93N292LT21FRJ9VS5TN","","440.8999999910593","img/flower3.png","75","441.69999998807907","2","0","3","1","1,0.333,0.333,0.333,1,0.333,0.333,0.333,1","1,0.333,0.333,0.333,1,0.333,0.333,0.333,1","1",""
"","html-keyboard-response","249","88650","0.0-249.0","3R9WASFE202ZDG2R5R0VYYF1R4FFZA","A3HL2LL0LEPZT8","3UUIU9GZC5R93N292LT21FRJ9VS5TN","","null","<img src=""img/flower3.png"" style=""width:200px;border:14px solid red;"">","null","","","","","","","","",""
"","image-keyboard-response","250","88794","0.0-250.0","3R9WASFE202ZDG2R5R0VYYF1R4FFZA","A3HL2LL0LEPZT8","3UUIU9GZC5R93N292LT21FRJ9VS5TN","","142.5","img/flower1.png","76","143.09999999403954","3","1","1","1","1,0.333,0.333,0.333,1,0.333,0.333,0.333,1","1,0.333,0.333,0.333,1,0.333,0.333,0.333,1","1",""
"","html-keyboard-response","251","89095","0.0-251.0","3R9WASFE202ZDG2R5R0VYYF1R4FFZA","A3HL2LL0LEPZT8","3UUIU9GZC5R93N292LT21FRJ9VS5TN","","null","<img src=""img/flower1.png"" style=""width:200px; border:14px solid green;"">","null","","","","","","","","",""
"","image-keyboard-response","252","89714","0.0-252.0","3R9WASFE202ZDG2R5R0VYYF1R4FFZA","A3HL2LL0LEPZT8","3UUIU9GZC5R93N292LT21FRJ9VS5TN","","617.6999999880791","img/flower2.png","75","618.9000000059605","2","1","2","1","1,0.333,0.333,0.333,1,0.333,0.333,0.333,1","1,0.333,0.333,0.333,1,0.333,0.333,0.333,1","1",""
"","html-keyboard-response","253","90016","0.0-253.0","3R9WASFE202ZDG2R5R0VYYF1R4FFZA","A3HL2LL0LEPZT8","3UUIU9GZC5R93N292LT21FRJ9VS5TN","","null","<img src=""img/flower2.png"" style=""width:200px; border:14px solid green;"">","null","","","","","","","","",""
"","image-keyboard-response","254","90395","0.0-254.0","3R9WASFE202ZDG2R5R0VYYF1R4FFZA","A3HL2LL0LEPZT8","3UUIU9GZC5R93N292LT21FRJ9VS5TN","","378.09999999403954","img/flower1.png","74","379","1","1","1","1","1,0.333,0.333,0.333,1,0.333,0.333,0.333,1","1,0.333,0.333,0.333,1,0.333,0.333,0.333,1","1",""
"","html-keyboard-response","255","90706","0.0-255.0","3R9WASFE202ZDG2R5R0VYYF1R4FFZA","A3HL2LL0LEPZT8","3UUIU9GZC5R93N292LT21FRJ9VS5TN","","null","<img src=""img/flower1.png"" style=""width:200px; border:14px solid green;"">","null","","","","","","","","",""
"","image-keyboard-response","256","91117","0.0-256.0","3R9WASFE202ZDG2R5R0VYYF1R4FFZA","A3HL2LL0LEPZT8","3UUIU9GZC5R93N292LT21FRJ9VS5TN","","410.1000000089407","img/flower2.png","75","411.09999999403954","2","1","2","1","1,0.333,0.333,0.333,1,0.333,0.333,0.333,1","1,0.333,0.333,0.333,1,0.333,0.333,0.333,1","1",""
"","html-keyboard-response","257","91419","0.0-257.0","3R9WASFE202ZDG2R5R0VYYF1R4FFZA","A3HL2LL0LEPZT8","3UUIU9GZC5R93N292LT21FRJ9VS5TN","","null","<img src=""img/flower2.png"" style=""width:200px; border:14px solid green;"">","null","","","","","","","","",""
"","image-keyboard-response","258","91875","0.0-258.0","3R9WASFE202ZDG2R5R0VYYF1R4FFZA","A3HL2LL0LEPZT8","3UUIU9GZC5R93N292LT21FRJ9VS5TN","","454.5","img/flower1.png","74","455.3999999910593","1","1","1","1","1,0.333,0.333,0.333,1,0.333,0.333,0.333,1","1,0.333,0.333,0.333,1,0.333,0.333,0.333,1","1",""
"","html-keyboard-response","259","92178","0.0-259.0","3R9WASFE202ZDG2R5R0VYYF1R4FFZA","A3HL2LL0LEPZT8","3UUIU9GZC5R93N292LT21FRJ9VS5TN","","null","<img src=""img/flower1.png"" style=""width:200px; border:14px solid green;"">","null","","","","","","","","",""
"","image-keyboard-response","260","92555","0.0-260.0","3R9WASFE202ZDG2R5R0VYYF1R4FFZA","A3HL2LL0LEPZT8","3UUIU9GZC5R93N292LT21FRJ9VS5TN","","375.70000000298023","img/flower2.png","75","376.70000000298023","2","1","2","1","1,0.333,0.333,0.333,1,0.333,0.333,0.333,1","1,0.333,0.333,0.333,1,0.333,0.333,0.333,1","1",""
"","html-keyboard-response","261","92857","0.0-261.0","3R9WASFE202ZDG2R5R0VYYF1R4FFZA","A3HL2LL0LEPZT8","3UUIU9GZC5R93N292LT21FRJ9VS5TN","","null","<img src=""img/flower2.png"" style=""width:200px; border:14px solid green;"">","null","","","","","","","","",""
"","image-keyboard-response","262","93288","0.0-262.0","3R9WASFE202ZDG2R5R0VYYF1R4FFZA","A3HL2LL0LEPZT8","3UUIU9GZC5R93N292LT21FRJ9VS5TN","","429.79999999701977","img/flower3.png","76","430.59999999403954","3","1","3","1","1,0.333,0.333,0.333,1,0.333,0.333,0.333,1","1,0.333,0.333,0.333,1,0.333,0.333,0.333,1","1",""
"","html-keyboard-response","263","93590","0.0-263.0","3R9WASFE202ZDG2R5R0VYYF1R4FFZA","A3HL2LL0LEPZT8","3UUIU9GZC5R93N292LT21FRJ9VS5TN","","null","<img src=""img/flower3.png"" style=""width:200px; border:14px solid green;"">","null","","","","","","","","",""
"","image-keyboard-response","264","93991","0.0-264.0","3R9WASFE202ZDG2R5R0VYYF1R4FFZA","A3HL2LL0LEPZT8","3UUIU9GZC5R93N292LT21FRJ9VS5TN","","399.69999998807907","img/flower2.png","75","400.40000000596046","2","1","2","1","1,0.333,0.333,0.333,1,0.333,0.333,0.333,1","1,0.333,0.333,0.333,1,0.333,0.333,0.333,1","1",""
"","html-keyboard-response","265","94293","0.0-265.0","3R9WASFE202ZDG2R5R0VYYF1R4FFZA","A3HL2LL0LEPZT8","3UUIU9GZC5R93N292LT21FRJ9VS5TN","","null","<img src=""img/flower2.png"" style=""width:200px; border:14px solid green;"">","null","","","","","","","","",""
"","image-keyboard-response","266","94719","0.0-266.0","3R9WASFE202ZDG2R5R0VYYF1R4FFZA","A3HL2LL0LEPZT8","3UUIU9GZC5R93N292LT21FRJ9VS5TN","","425.59999999403954","img/flower3.png","76","426.20000000298023","3","1","3","1","1,0.333,0.333,0.333,1,0.333,0.333,0.333,1","1,0.333,0.333,0.333,1,0.333,0.333,0.333,1","1",""
"","html-keyboard-response","267","95021","0.0-267.0","3R9WASFE202ZDG2R5R0VYYF1R4FFZA","A3HL2LL0LEPZT8","3UUIU9GZC5R93N292LT21FRJ9VS5TN","","null","<img src=""img/flower3.png"" style=""width:200px; border:14px solid green;"">","null","","","","","","","","",""
"","image-keyboard-response","268","95459","0.0-268.0","3R9WASFE202ZDG2R5R0VYYF1R4FFZA","A3HL2LL0LEPZT8","3UUIU9GZC5R93N292LT21FRJ9VS5TN","","437.09999999403954","img/flower1.png","74","437.8999999910593","1","1","1","1","1,0.333,0.333,0.333,1,0.333,0.333,0.333,1","1,0.333,0.333,0.333,1,0.333,0.333,0.333,1","1",""
"","html-keyboard-response","269","95761","0.0-269.0","3R9WASFE202ZDG2R5R0VYYF1R4FFZA","A3HL2LL0LEPZT8","3UUIU9GZC5R93N292LT21FRJ9VS5TN","","null","<img src=""img/flower1.png"" style=""width:200px; border:14px solid green;"">","null","","","","","","","","",""
"","image-keyboard-response","270","96108","0.0-270.0","3R9WASFE202ZDG2R5R0VYYF1R4FFZA","A3HL2LL0LEPZT8","3UUIU9GZC5R93N292LT21FRJ9VS5TN","","345.5","img/flower2.png","75","346.5","2","1","2","1","1,0.333,0.333,0.333,1,0.333,0.333,0.333,1","1,0.333,0.333,0.333,1,0.333,0.333,0.333,1","1",""
"","html-keyboard-response","271","96410","0.0-271.0","3R9WASFE202ZDG2R5R0VYYF1R4FFZA","A3HL2LL0LEPZT8","3UUIU9GZC5R93N292LT21FRJ9VS5TN","","null","<img src=""img/flower2.png"" style=""width:200px; border:14px solid green;"">","null","","","","","","","","",""
"","image-keyboard-response","272","97358","0.0-272.0","3R9WASFE202ZDG2R5R0VYYF1R4FFZA","A3HL2LL0LEPZT8","3UUIU9GZC5R93N292LT21FRJ9VS5TN","","947.2000000029802","img/flower3.png","74","947.7999999970198","1","0","3","1","1,0.333,0.333,0.333,1,0.333,0.333,0.333,1","1,0.333,0.333,0.333,1,0.333,0.333,0.333,1","1",""
"","html-keyboard-response","273","97659","0.0-273.0","3R9WASFE202ZDG2R5R0VYYF1R4FFZA","A3HL2LL0LEPZT8","3UUIU9GZC5R93N292LT21FRJ9VS5TN","","null","<img src=""img/flower3.png"" style=""width:200px;border:14px solid red;"">","null","","","","","","","","",""
"","image-keyboard-response","274","97980","0.0-274.0","3R9WASFE202ZDG2R5R0VYYF1R4FFZA","A3HL2LL0LEPZT8","3UUIU9GZC5R93N292LT21FRJ9VS5TN","","319.90000000596046","img/flower3.png","76","320.6000000089407","3","1","3","1","1,0.333,0.333,0.333,1,0.333,0.333,0.333,1","1,0.333,0.333,0.333,1,0.333,0.333,0.333,1","1",""
"","html-keyboard-response","275","98282","0.0-275.0","3R9WASFE202ZDG2R5R0VYYF1R4FFZA","A3HL2LL0LEPZT8","3UUIU9GZC5R93N292LT21FRJ9VS5TN","","null","<img src=""img/flower3.png"" style=""width:200px; border:14px solid green;"">","null","","","","","","","","",""
"","image-keyboard-response","276","98692","0.0-276.0","3R9WASFE202ZDG2R5R0VYYF1R4FFZA","A3HL2LL0LEPZT8","3UUIU9GZC5R93N292LT21FRJ9VS5TN","","408.69999998807907","img/flower2.png","75","409.40000000596046","2","1","2","1","1,0.333,0.333,0.333,1,0.333,0.333,0.333,1","1,0.333,0.333,0.333,1,0.333,0.333,0.333,1","1",""
"","html-keyboard-response","277","99002","0.0-277.0","3R9WASFE202ZDG2R5R0VYYF1R4FFZA","A3HL2LL0LEPZT8","3UUIU9GZC5R93N292LT21FRJ9VS5TN","","null","<img src=""img/flower2.png"" style=""width:200px; border:14px solid green;"">","null","","","","","","","","",""
"","image-keyboard-response","278","99545","0.0-278.0","3R9WASFE202ZDG2R5R0VYYF1R4FFZA","A3HL2LL0LEPZT8","3UUIU9GZC5R93N292LT21FRJ9VS5TN","","541","img/flower1.png","74","541.9000000059605","1","1","1","1","1,0.333,0.333,0.333,1,0.333,0.333,0.333,1","1,0.333,0.333,0.333,1,0.333,0.333,0.333,1","1",""
"","html-keyboard-response","279","99846","0.0-279.0","3R9WASFE202ZDG2R5R0VYYF1R4FFZA","A3HL2LL0LEPZT8","3UUIU9GZC5R93N292LT21FRJ9VS5TN","","null","<img src=""img/flower1.png"" style=""width:200px; border:14px solid green;"">","null","","","","","","","","",""
"","image-keyboard-response","280","100201","0.0-280.0","3R9WASFE202ZDG2R5R0VYYF1R4FFZA","A3HL2LL0LEPZT8","3UUIU9GZC5R93N292LT21FRJ9VS5TN","","352.69999998807907","img/flower1.png","74","354.20000000298023","1","1","1","1","1,0.333,0.333,0.333,1,0.333,0.333,0.333,1","1,0.333,0.333,0.333,1,0.333,0.333,0.333,1","1",""
"","html-keyboard-response","281","100503","0.0-281.0","3R9WASFE202ZDG2R5R0VYYF1R4FFZA","A3HL2LL0LEPZT8","3UUIU9GZC5R93N292LT21FRJ9VS5TN","","null","<img src=""img/flower1.png"" style=""width:200px; border:14px solid green;"">","null","","","","","","","","",""
"","image-keyboard-response","282","101349","0.0-282.0","3R9WASFE202ZDG2R5R0VYYF1R4FFZA","A3HL2LL0LEPZT8","3UUIU9GZC5R93N292LT21FRJ9VS5TN","","845.4000000059605","img/flower3.png","76","846.0999999940395","3","1","3","1","1,0.333,0.333,0.333,1,0.333,0.333,0.333,1","1,0.333,0.333,0.333,1,0.333,0.333,0.333,1","1",""
"","html-keyboard-response","283","101652","0.0-283.0","3R9WASFE202ZDG2R5R0VYYF1R4FFZA","A3HL2LL0LEPZT8","3UUIU9GZC5R93N292LT21FRJ9VS5TN","","null","<img src=""img/flower3.png"" style=""width:200px; border:14px solid green;"">","null","","","","","","","","",""
"","image-keyboard-response","284","101957","0.0-284.0","3R9WASFE202ZDG2R5R0VYYF1R4FFZA","A3HL2LL0LEPZT8","3UUIU9GZC5R93N292LT21FRJ9VS5TN","","304","img/flower3.png","76","304.70000000298023","3","1","3","1","1,0.333,0.333,0.333,1,0.333,0.333,0.333,1","1,0.333,0.333,0.333,1,0.333,0.333,0.333,1","1",""
"","html-keyboard-response","285","102259","0.0-285.0","3R9WASFE202ZDG2R5R0VYYF1R4FFZA","A3HL2LL0LEPZT8","3UUIU9GZC5R93N292LT21FRJ9VS5TN","","null","<img src=""img/flower3.png"" style=""width:200px; border:14px solid green;"">","null","","","","","","","","",""
"","image-keyboard-response","286","102835","0.0-286.0","3R9WASFE202ZDG2R5R0VYYF1R4FFZA","A3HL2LL0LEPZT8","3UUIU9GZC5R93N292LT21FRJ9VS5TN","","574.6000000089407","img/flower1.png","74","575.4000000059605","1","1","1","1","1,0.333,0.333,0.333,1,0.333,0.333,0.333,1","1,0.333,0.333,0.333,1,0.333,0.333,0.333,1","1",""
"","html-keyboard-response","287","103136","0.0-287.0","3R9WASFE202ZDG2R5R0VYYF1R4FFZA","A3HL2LL0LEPZT8","3UUIU9GZC5R93N292LT21FRJ9VS5TN","","null","<img src=""img/flower1.png"" style=""width:200px; border:14px solid green;"">","null","","","","","","","","",""
"","image-keyboard-response","288","103784","0.0-288.0","3R9WASFE202ZDG2R5R0VYYF1R4FFZA","A3HL2LL0LEPZT8","3UUIU9GZC5R93N292LT21FRJ9VS5TN","","647.1000000089407","img/flower3.png","76","647.6999999880791","3","1","3","1","1,0.333,0.333,0.333,1,0.333,0.333,0.333,1","1,0.333,0.333,0.333,1,0.333,0.333,0.333,1","1",""
"","html-keyboard-response","289","104086","0.0-289.0","3R9WASFE202ZDG2R5R0VYYF1R4FFZA","A3HL2LL0LEPZT8","3UUIU9GZC5R93N292LT21FRJ9VS5TN","","null","<img src=""img/flower3.png"" style=""width:200px; border:14px solid green;"">","null","","","","","","","","",""
"","image-keyboard-response","290","105003","0.0-290.0","3R9WASFE202ZDG2R5R0VYYF1R4FFZA","A3HL2LL0LEPZT8","3UUIU9GZC5R93N292LT21FRJ9VS5TN","","915.9000000059605","img/flower1.png","74","916.7000000029802","1","1","1","1","1,0.333,0.333,0.333,1,0.333,0.333,0.333,1","1,0.333,0.333,0.333,1,0.333,0.333,0.333,1","1",""
"","html-keyboard-response","291","105306","0.0-291.0","3R9WASFE202ZDG2R5R0VYYF1R4FFZA","A3HL2LL0LEPZT8","3UUIU9GZC5R93N292LT21FRJ9VS5TN","","null","<img src=""img/flower1.png"" style=""width:200px; border:14px solid green;"">","null","","","","","","","","",""
"","image-keyboard-response","292","105664","0.0-292.0","3R9WASFE202ZDG2R5R0VYYF1R4FFZA","A3HL2LL0LEPZT8","3UUIU9GZC5R93N292LT21FRJ9VS5TN","","356.90000000596046","img/flower2.png","75","357.59999999403954","2","1","2","1","1,0.333,0.333,0.333,1,0.333,0.333,0.333,1","1,0.333,0.333,0.333,1,0.333,0.333,0.333,1","1",""
"","html-keyboard-response","293","105966","0.0-293.0","3R9WASFE202ZDG2R5R0VYYF1R4FFZA","A3HL2LL0LEPZT8","3UUIU9GZC5R93N292LT21FRJ9VS5TN","","null","<img src=""img/flower2.png"" style=""width:200px; border:14px solid green;"">","null","","","","","","","","",""
"","image-keyboard-response","294","106334","0.0-294.0","3R9WASFE202ZDG2R5R0VYYF1R4FFZA","A3HL2LL0LEPZT8","3UUIU9GZC5R93N292LT21FRJ9VS5TN","","367.19999998807907","img/flower2.png","75","367.90000000596046","2","1","2","1","1,0.333,0.333,0.333,1,0.333,0.333,0.333,1","1,0.333,0.333,0.333,1,0.333,0.333,0.333,1","1",""
"","html-keyboard-response","295","106636","0.0-295.0","3R9WASFE202ZDG2R5R0VYYF1R4FFZA","A3HL2LL0LEPZT8","3UUIU9GZC5R93N292LT21FRJ9VS5TN","","null","<img src=""img/flower2.png"" style=""width:200px; border:14px solid green;"">","null","","","","","","","","",""
"","image-keyboard-response","296","107035","0.0-296.0","3R9WASFE202ZDG2R5R0VYYF1R4FFZA","A3HL2LL0LEPZT8","3UUIU9GZC5R93N292LT21FRJ9VS5TN","","397.79999999701977","img/flower2.png","75","398.5","2","1","2","1","1,0.333,0.333,0.333,1,0.333,0.333,0.333,1","1,0.333,0.333,0.333,1,0.333,0.333,0.333,1","1",""
"","html-keyboard-response","297","107337","0.0-297.0","3R9WASFE202ZDG2R5R0VYYF1R4FFZA","A3HL2LL0LEPZT8","3UUIU9GZC5R93N292LT21FRJ9VS5TN","","null","<img src=""img/flower2.png"" style=""width:200px; border:14px solid green;"">","null","","","","","","","","",""
"","image-keyboard-response","298","108056","0.0-298.0","3R9WASFE202ZDG2R5R0VYYF1R4FFZA","A3HL2LL0LEPZT8","3UUIU9GZC5R93N292LT21FRJ9VS5TN","","717.4000000059605","img/flower1.png","74","718.2999999970198","1","1","1","1","1,0.333,0.333,0.333,1,0.333,0.333,0.333,1","1,0.333,0.333,0.333,1,0.333,0.333,0.333,1","1",""
"","html-keyboard-response","299","108365","0.0-299.0","3R9WASFE202ZDG2R5R0VYYF1R4FFZA","A3HL2LL0LEPZT8","3UUIU9GZC5R93N292LT21FRJ9VS5TN","","null","<img src=""img/flower1.png"" style=""width:200px; border:14px solid green;"">","null","","","","","","","","",""
"","image-keyboard-response","300","108783","0.0-300.0","3R9WASFE202ZDG2R5R0VYYF1R4FFZA","A3HL2LL0LEPZT8","3UUIU9GZC5R93N292LT21FRJ9VS5TN","","417.20000000298023","img/flower2.png","75","418.09999999403954","2","1","2","1","1,0.333,0.333,0.333,1,0.333,0.333,0.333,1","1,0.333,0.333,0.333,1,0.333,0.333,0.333,1","1",""
"","html-keyboard-response","301","109085","0.0-301.0","3R9WASFE202ZDG2R5R0VYYF1R4FFZA","A3HL2LL0LEPZT8","3UUIU9GZC5R93N292LT21FRJ9VS5TN","","null","<img src=""img/flower2.png"" style=""width:200px; border:14px solid green;"">","null","","","","","","","","",""
"","image-keyboard-response","302","109581","0.0-302.0","3R9WASFE202ZDG2R5R0VYYF1R4FFZA","A3HL2LL0LEPZT8","3UUIU9GZC5R93N292LT21FRJ9VS5TN","","494.40000000596046","img/flower1.png","75","495.29999999701977","2","1","1","1","1,0.333,0.333,0.333,1,0.333,0.333,0.333,1","1,0.333,0.333,0.333,1,0.333,0.333,0.333,1","1",""
"","html-keyboard-response","303","109883","0.0-303.0","3R9WASFE202ZDG2R5R0VYYF1R4FFZA","A3HL2LL0LEPZT8","3UUIU9GZC5R93N292LT21FRJ9VS5TN","","null","<img src=""img/flower1.png"" style=""width:200px; border:14px solid green;"">","null","","","","","","","","",""
"","image-keyboard-response","304","111003","0.0-304.0","3R9WASFE202ZDG2R5R0VYYF1R4FFZA","A3HL2LL0LEPZT8","3UUIU9GZC5R93N292LT21FRJ9VS5TN","","1118.9000000059605","img/flower3.png","76","1119.7000000029802","3","1","3","1","1,0.333,0.333,0.333,1,0.333,0.333,0.333,1","1,0.333,0.333,0.333,1,0.333,0.333,0.333,1","1",""
"","html-keyboard-response","305","111305","0.0-305.0","3R9WASFE202ZDG2R5R0VYYF1R4FFZA","A3HL2LL0LEPZT8","3UUIU9GZC5R93N292LT21FRJ9VS5TN","","null","<img src=""img/flower3.png"" style=""width:200px; border:14px solid green;"">","null","","","","","","","","",""
"","image-keyboard-response","306","111747","0.0-306.0","3R9WASFE202ZDG2R5R0VYYF1R4FFZA","A3HL2LL0LEPZT8","3UUIU9GZC5R93N292LT21FRJ9VS5TN","","440.69999998807907","img/flower2.png","75","441.5","2","1","2","1","1,0.333,0.333,0.333,1,0.333,0.333,0.333,1","1,0.333,0.333,0.333,1,0.333,0.333,0.333,1","1",""
"","html-keyboard-response","307","112048","0.0-307.0","3R9WASFE202ZDG2R5R0VYYF1R4FFZA","A3HL2LL0LEPZT8","3UUIU9GZC5R93N292LT21FRJ9VS5TN","","null","<img src=""img/flower2.png"" style=""width:200px; border:14px solid green;"">","null","","","","","","","","",""
"","image-keyboard-response","308","112376","0.0-308.0","3R9WASFE202ZDG2R5R0VYYF1R4FFZA","A3HL2LL0LEPZT8","3UUIU9GZC5R93N292LT21FRJ9VS5TN","","326.5","img/flower2.png","75","327.40000000596046","2","1","2","1","1,0.333,0.333,0.333,1,0.333,0.333,0.333,1","1,0.333,0.333,0.333,1,0.333,0.333,0.333,1","1",""
"","html-keyboard-response","309","112688","0.0-309.0","3R9WASFE202ZDG2R5R0VYYF1R4FFZA","A3HL2LL0LEPZT8","3UUIU9GZC5R93N292LT21FRJ9VS5TN","","null","<img src=""img/flower2.png"" style=""width:200px; border:14px solid green;"">","null","","","","","","","","",""
"","image-keyboard-response","310","113400","0.0-310.0","3R9WASFE202ZDG2R5R0VYYF1R4FFZA","A3HL2LL0LEPZT8","3UUIU9GZC5R93N292LT21FRJ9VS5TN","","711.0999999940395","img/flower3.png","76","712","3","1","3","1","1,0.333,0.333,0.333,1,0.333,0.333,0.333,1","1,0.333,0.333,0.333,1,0.333,0.333,0.333,1","1",""
"","html-keyboard-response","311","113703","0.0-311.0","3R9WASFE202ZDG2R5R0VYYF1R4FFZA","A3HL2LL0LEPZT8","3UUIU9GZC5R93N292LT21FRJ9VS5TN","","null","<img src=""img/flower3.png"" style=""width:200px; border:14px solid green;"">","null","","","","","","","","",""
"","image-keyboard-response","312","114387","0.0-312.0","3R9WASFE202ZDG2R5R0VYYF1R4FFZA","A3HL2LL0LEPZT8","3UUIU9GZC5R93N292LT21FRJ9VS5TN","","683.3999999910593","img/flower1.png","74","684.1999999880791","1","1","1","1","1,0.333,0.333,0.333,1,0.333,0.333,0.333,1","1,0.333,0.333,0.333,1,0.333,0.333,0.333,1","1",""
"","html-keyboard-response","313","114689","0.0-313.0","3R9WASFE202ZDG2R5R0VYYF1R4FFZA","A3HL2LL0LEPZT8","3UUIU9GZC5R93N292LT21FRJ9VS5TN","","null","<img src=""img/flower1.png"" style=""width:200px; border:14px solid green;"">","null","","","","","","","","",""
"","image-keyboard-response","314","114998","0.0-314.0","3R9WASFE202ZDG2R5R0VYYF1R4FFZA","A3HL2LL0LEPZT8","3UUIU9GZC5R93N292LT21FRJ9VS5TN","","307.90000000596046","img/flower1.png","74","308.70000000298023","1","1","1","1","1,0.333,0.333,0.333,1,0.333,0.333,0.333,1","1,0.333,0.333,0.333,1,0.333,0.333,0.333,1","1",""
"","html-keyboard-response","315","115300","0.0-315.0","3R9WASFE202ZDG2R5R0VYYF1R4FFZA","A3HL2LL0LEPZT8","3UUIU9GZC5R93N292LT21FRJ9VS5TN","","null","<img src=""img/flower1.png"" style=""width:200px; border:14px solid green;"">","null","","","","","","","","",""
"","image-keyboard-response","316","115893","0.0-316.0","3R9WASFE202ZDG2R5R0VYYF1R4FFZA","A3HL2LL0LEPZT8","3UUIU9GZC5R93N292LT21FRJ9VS5TN","","591.5","img/flower3.png","76","592.3999999910593","3","1","3","1","1,0.333,0.333,0.333,1,0.333,0.333,0.333,1","1,0.333,0.333,0.333,1,0.333,0.333,0.333,1","1",""
"","html-keyboard-response","317","116194","0.0-317.0","3R9WASFE202ZDG2R5R0VYYF1R4FFZA","A3HL2LL0LEPZT8","3UUIU9GZC5R93N292LT21FRJ9VS5TN","","null","<img src=""img/flower3.png"" style=""width:200px; border:14px solid green;"">","null","","","","","","","","",""
"","image-keyboard-response","318","116605","0.0-318.0","3R9WASFE202ZDG2R5R0VYYF1R4FFZA","A3HL2LL0LEPZT8","3UUIU9GZC5R93N292LT21FRJ9VS5TN","","409.5","img/flower3.png","76","410.20000000298023","3","1","3","1","1,0.333,0.333,0.333,1,0.333,0.333,0.333,1","1,0.333,0.333,0.333,1,0.333,0.333,0.333,1","1",""
"","html-keyboard-response","319","116906","0.0-319.0","3R9WASFE202ZDG2R5R0VYYF1R4FFZA","A3HL2LL0LEPZT8","3UUIU9GZC5R93N292LT21FRJ9VS5TN","","null","<img src=""img/flower3.png"" style=""width:200px; border:14px solid green;"">","null","","","","","","","","",""
"","image-keyboard-response","320","117402","0.0-320.0","3R9WASFE202ZDG2R5R0VYYF1R4FFZA","A3HL2LL0LEPZT8","3UUIU9GZC5R93N292LT21FRJ9VS5TN","","494.3999999910593","img/flower1.png","74","495.19999998807907","1","1","1","1","1,0.333,0.333,0.333,1,0.333,0.333,0.333,1","1,0.333,0.333,0.333,1,0.333,0.333,0.333,1","1",""
"","html-keyboard-response","321","117704","0.0-321.0","3R9WASFE202ZDG2R5R0VYYF1R4FFZA","A3HL2LL0LEPZT8","3UUIU9GZC5R93N292LT21FRJ9VS5TN","","null","<img src=""img/flower1.png"" style=""width:200px; border:14px solid green;"">","null","","","","","","","","",""
"","image-keyboard-response","322","118002","0.0-322.0","3R9WASFE202ZDG2R5R0VYYF1R4FFZA","A3HL2LL0LEPZT8","3UUIU9GZC5R93N292LT21FRJ9VS5TN","","296.3999999910593","img/flower1.png","74","297.09999999403954","1","1","1","1","1,0.333,0.333,0.333,1,0.333,0.333,0.333,1","1,0.333,0.333,0.333,1,0.333,0.333,0.333,1","1",""
"","html-keyboard-response","323","118304","0.0-323.0","3R9WASFE202ZDG2R5R0VYYF1R4FFZA","A3HL2LL0LEPZT8","3UUIU9GZC5R93N292LT21FRJ9VS5TN","","null","<img src=""img/flower1.png"" style=""width:200px; border:14px solid green;"">","null","","","","","","","","",""
"","image-keyboard-response","324","118980","0.0-324.0","3R9WASFE202ZDG2R5R0VYYF1R4FFZA","A3HL2LL0LEPZT8","3UUIU9GZC5R93N292LT21FRJ9VS5TN","","675.2999999970198","img/flower3.png","76","676.1999999880791","3","1","3","1","1,0.333,0.333,0.333,1,0.333,0.333,0.333,1","1,0.333,0.333,0.333,1,0.333,0.333,0.333,1","1",""
"","html-keyboard-response","325","119283","0.0-325.0","3R9WASFE202ZDG2R5R0VYYF1R4FFZA","A3HL2LL0LEPZT8","3UUIU9GZC5R93N292LT21FRJ9VS5TN","","null","<img src=""img/flower3.png"" style=""width:200px; border:14px solid green;"">","null","","","","","","","","",""
"","image-keyboard-response","326","119814","0.0-326.0","3R9WASFE202ZDG2R5R0VYYF1R4FFZA","A3HL2LL0LEPZT8","3UUIU9GZC5R93N292LT21FRJ9VS5TN","","529.7000000029802","img/flower1.png","75","530.5","2","1","1","1","1,0.333,0.333,0.333,1,0.333,0.333,0.333,1","1,0.333,0.333,0.333,1,0.333,0.333,0.333,1","1",""
"","html-keyboard-response","327","120115","0.0-327.0","3R9WASFE202ZDG2R5R0VYYF1R4FFZA","A3HL2LL0LEPZT8","3UUIU9GZC5R93N292LT21FRJ9VS5TN","","null","<img src=""img/flower1.png"" style=""width:200px; border:14px solid green;"">","null","","","","","","","","",""
"","image-keyboard-response","328","121002","0.0-328.0","3R9WASFE202ZDG2R5R0VYYF1R4FFZA","A3HL2LL0LEPZT8","3UUIU9GZC5R93N292LT21FRJ9VS5TN","","885.4000000059605","img/flower3.png","76","886.2000000029802","3","1","3","1","1,0.333,0.333,0.333,1,0.333,0.333,0.333,1","1,0.333,0.333,0.333,1,0.333,0.333,0.333,1","1",""
"","html-keyboard-response","329","121304","0.0-329.0","3R9WASFE202ZDG2R5R0VYYF1R4FFZA","A3HL2LL0LEPZT8","3UUIU9GZC5R93N292LT21FRJ9VS5TN","","null","<img src=""img/flower3.png"" style=""width:200px; border:14px solid green;"">","null","","","","","","","","",""
"","image-keyboard-response","330","121791","0.0-330.0","3R9WASFE202ZDG2R5R0VYYF1R4FFZA","A3HL2LL0LEPZT8","3UUIU9GZC5R93N292LT21FRJ9VS5TN","","486.1000000089407","img/flower1.png","74","486.79999999701977","1","1","1","1","1,0.333,0.333,0.333,1,0.333,0.333,0.333,1","1,0.333,0.333,0.333,1,0.333,0.333,0.333,1","1",""
"","html-keyboard-response","331","122093","0.0-331.0","3R9WASFE202ZDG2R5R0VYYF1R4FFZA","A3HL2LL0LEPZT8","3UUIU9GZC5R93N292LT21FRJ9VS5TN","","null","<img src=""img/flower1.png"" style=""width:200px; border:14px solid green;"">","null","","","","","","","","",""
"","image-keyboard-response","332","122572","0.0-332.0","3R9WASFE202ZDG2R5R0VYYF1R4FFZA","A3HL2LL0LEPZT8","3UUIU9GZC5R93N292LT21FRJ9VS5TN","","478","img/flower3.png","76","478.79999999701977","3","1","3","1","1,0.333,0.333,0.333,1,0.333,0.333,0.333,1","1,0.333,0.333,0.333,1,0.333,0.333,0.333,1","1",""
"","html-keyboard-response","333","122875","0.0-333.0","3R9WASFE202ZDG2R5R0VYYF1R4FFZA","A3HL2LL0LEPZT8","3UUIU9GZC5R93N292LT21FRJ9VS5TN","","null","<img src=""img/flower3.png"" style=""width:200px; border:14px solid green;"">","null","","","","","","","","",""
"","image-keyboard-response","334","123877","0.0-334.0","3R9WASFE202ZDG2R5R0VYYF1R4FFZA","A3HL2LL0LEPZT8","3UUIU9GZC5R93N292LT21FRJ9VS5TN","","1001.7000000029802","img/flower2.png","75","1002.5","2","1","2","1","1,0.333,0.333,0.333,1,0.333,0.333,0.333,1","1,0.333,0.333,0.333,1,0.333,0.333,0.333,1","1",""
"","html-keyboard-response","335","124179","0.0-335.0","3R9WASFE202ZDG2R5R0VYYF1R4FFZA","A3HL2LL0LEPZT8","3UUIU9GZC5R93N292LT21FRJ9VS5TN","","null","<img src=""img/flower2.png"" style=""width:200px; border:14px solid green;"">","null","","","","","","","","",""
"","image-keyboard-response","336","124886","0.0-336.0","3R9WASFE202ZDG2R5R0VYYF1R4FFZA","A3HL2LL0LEPZT8","3UUIU9GZC5R93N292LT21FRJ9VS5TN","","706.4000000059605","img/flower3.png","76","707.2999999970198","3","1","3","1","1,0.333,0.333,0.333,1,0.333,0.333,0.333,1","1,0.333,0.333,0.333,1,0.333,0.333,0.333,1","1",""
"","html-keyboard-response","337","125188","0.0-337.0","3R9WASFE202ZDG2R5R0VYYF1R4FFZA","A3HL2LL0LEPZT8","3UUIU9GZC5R93N292LT21FRJ9VS5TN","","null","<img src=""img/flower3.png"" style=""width:200px; border:14px solid green;"">","null","","","","","","","","",""
"","image-keyboard-response","338","125851","0.0-338.0","3R9WASFE202ZDG2R5R0VYYF1R4FFZA","A3HL2LL0LEPZT8","3UUIU9GZC5R93N292LT21FRJ9VS5TN","","661.9000000059605","img/flower1.png","74","662.7999999970198","1","1","1","1","1,0.333,0.333,0.333,1,0.333,0.333,0.333,1","1,0.333,0.333,0.333,1,0.333,0.333,0.333,1","1",""
"","html-keyboard-response","339","126153","0.0-339.0","3R9WASFE202ZDG2R5R0VYYF1R4FFZA","A3HL2LL0LEPZT8","3UUIU9GZC5R93N292LT21FRJ9VS5TN","","null","<img src=""img/flower1.png"" style=""width:200px; border:14px solid green;"">","null","","","","","","","","",""
"","image-keyboard-response","340","126418","0.0-340.0","3R9WASFE202ZDG2R5R0VYYF1R4FFZA","A3HL2LL0LEPZT8","3UUIU9GZC5R93N292LT21FRJ9VS5TN","","264","img/flower1.png","74","264.79999999701977","1","1","1","1","1,0.333,0.333,0.333,1,0.333,0.333,0.333,1","1,0.333,0.333,0.333,1,0.333,0.333,0.333,1","1",""
"","html-keyboard-response","341","126720","0.0-341.0","3R9WASFE202ZDG2R5R0VYYF1R4FFZA","A3HL2LL0LEPZT8","3UUIU9GZC5R93N292LT21FRJ9VS5TN","","null","<img src=""img/flower1.png"" style=""width:200px; border:14px solid green;"">","null","","","","","","","","",""
"","image-keyboard-response","342","127329","0.0-342.0","3R9WASFE202ZDG2R5R0VYYF1R4FFZA","A3HL2LL0LEPZT8","3UUIU9GZC5R93N292LT21FRJ9VS5TN","","607.8000000119209","img/flower3.png","76","608.5999999940395","3","1","3","1","1,0.333,0.333,0.333,1,0.333,0.333,0.333,1","1,0.333,0.333,0.333,1,0.333,0.333,0.333,1","1",""
"","html-keyboard-response","343","127631","0.0-343.0","3R9WASFE202ZDG2R5R0VYYF1R4FFZA","A3HL2LL0LEPZT8","3UUIU9GZC5R93N292LT21FRJ9VS5TN","","null","<img src=""img/flower3.png"" style=""width:200px; border:14px solid green;"">","null","","","","","","","","",""
"","image-keyboard-response","344","127899","0.0-344.0","3R9WASFE202ZDG2R5R0VYYF1R4FFZA","A3HL2LL0LEPZT8","3UUIU9GZC5R93N292LT21FRJ9VS5TN","","266.8999999910593","img/flower3.png","76","267.80000001192093","3","1","3","1","1,0.333,0.333,0.333,1,0.333,0.333,0.333,1","1,0.333,0.333,0.333,1,0.333,0.333,0.333,1","1",""
"","html-keyboard-response","345","128201","0.0-345.0","3R9WASFE202ZDG2R5R0VYYF1R4FFZA","A3HL2LL0LEPZT8","3UUIU9GZC5R93N292LT21FRJ9VS5TN","","null","<img src=""img/flower3.png"" style=""width:200px; border:14px solid green;"">","null","","","","","","","","",""
"","image-keyboard-response","346","129254","0.0-346.0","3R9WASFE202ZDG2R5R0VYYF1R4FFZA","A3HL2LL0LEPZT8","3UUIU9GZC5R93N292LT21FRJ9VS5TN","","1051.699999988079","img/flower2.png","75","1052.5","2","1","2","1","1,0.333,0.333,0.333,1,0.333,0.333,0.333,1","1,0.333,0.333,0.333,1,0.333,0.333,0.333,1","1",""
"","html-keyboard-response","347","129556","0.0-347.0","3R9WASFE202ZDG2R5R0VYYF1R4FFZA","A3HL2LL0LEPZT8","3UUIU9GZC5R93N292LT21FRJ9VS5TN","","null","<img src=""img/flower2.png"" style=""width:200px; border:14px solid green;"">","null","","","","","","","","",""
"","image-keyboard-response","348","130481","0.0-348.0","3R9WASFE202ZDG2R5R0VYYF1R4FFZA","A3HL2LL0LEPZT8","3UUIU9GZC5R93N292LT21FRJ9VS5TN","","923.5999999940395","img/flower1.png","76","924.6000000089407","3","0","1","1","1,0.333,0.333,0.333,1,0.333,0.333,0.333,1","1,0.333,0.333,0.333,1,0.333,0.333,0.333,1","1",""
"","html-keyboard-response","349","130783","0.0-349.0","3R9WASFE202ZDG2R5R0VYYF1R4FFZA","A3HL2LL0LEPZT8","3UUIU9GZC5R93N292LT21FRJ9VS5TN","","null","<img src=""img/flower1.png"" style=""width:200px;border:14px solid red;"">","null","","","","","","","","",""
"","image-keyboard-response","350","131241","0.0-350.0","3R9WASFE202ZDG2R5R0VYYF1R4FFZA","A3HL2LL0LEPZT8","3UUIU9GZC5R93N292LT21FRJ9VS5TN","","456.8999999910593","img/flower1.png","76","457.69999998807907","3","0","1","1","1,0.333,0.333,0.333,1,0.333,0.333,0.333,1","1,0.333,0.333,0.333,1,0.333,0.333,0.333,1","1",""
"","html-keyboard-response","351","131543","0.0-351.0","3R9WASFE202ZDG2R5R0VYYF1R4FFZA","A3HL2LL0LEPZT8","3UUIU9GZC5R93N292LT21FRJ9VS5TN","","null","<img src=""img/flower1.png"" style=""width:200px;border:14px solid red;"">","null","","","","","","","","",""
"","image-keyboard-response","352","131805","0.0-352.0","3R9WASFE202ZDG2R5R0VYYF1R4FFZA","A3HL2LL0LEPZT8","3UUIU9GZC5R93N292LT21FRJ9VS5TN","","261.1000000089407","img/flower1.png","74","261.79999999701977","1","1","1","1","1,0.333,0.333,0.333,1,0.333,0.333,0.333,1","1,0.333,0.333,0.333,1,0.333,0.333,0.333,1","1",""
"","html-keyboard-response","353","132107","0.0-353.0","3R9WASFE202ZDG2R5R0VYYF1R4FFZA","A3HL2LL0LEPZT8","3UUIU9GZC5R93N292LT21FRJ9VS5TN","","null","<img src=""img/flower1.png"" style=""width:200px; border:14px solid green;"">","null","","","","","","","","",""
"","image-keyboard-response","354","132789","0.0-354.0","3R9WASFE202ZDG2R5R0VYYF1R4FFZA","A3HL2LL0LEPZT8","3UUIU9GZC5R93N292LT21FRJ9VS5TN","","681.1999999880791","img/flower3.png","76","682","3","1","3","1","1,0.333,0.333,0.333,1,0.333,0.333,0.333,1","1,0.333,0.333,0.333,1,0.333,0.333,0.333,1","1",""
"","html-keyboard-response","355","133090","0.0-355.0","3R9WASFE202ZDG2R5R0VYYF1R4FFZA","A3HL2LL0LEPZT8","3UUIU9GZC5R93N292LT21FRJ9VS5TN","","null","<img src=""img/flower3.png"" style=""width:200px; border:14px solid green;"">","null","","","","","","","","",""
"","image-keyboard-response","356","133907","0.0-356.0","3R9WASFE202ZDG2R5R0VYYF1R4FFZA","A3HL2LL0LEPZT8","3UUIU9GZC5R93N292LT21FRJ9VS5TN","","814.9000000059605","img/flower2.png","74","815.5999999940395","1","1","2","1","1,0.333,0.333,0.333,1,0.333,0.333,0.333,1","1,0.333,0.333,0.333,1,0.333,0.333,0.333,1","1",""
"","html-keyboard-response","357","134209","0.0-357.0","3R9WASFE202ZDG2R5R0VYYF1R4FFZA","A3HL2LL0LEPZT8","3UUIU9GZC5R93N292LT21FRJ9VS5TN","","null","<img src=""img/flower2.png"" style=""width:200px; border:14px solid green;"">","null","","","","","","","","",""
"","image-keyboard-response","358","134472","0.0-358.0","3R9WASFE202ZDG2R5R0VYYF1R4FFZA","A3HL2LL0LEPZT8","3UUIU9GZC5R93N292LT21FRJ9VS5TN","","262.30000001192093","img/flower2.png","74","263.09999999403954","1","0","2","1","1,0.333,0.333,0.333,1,0.333,0.333,0.333,1","1,0.333,0.333,0.333,1,0.333,0.333,0.333,1","1",""
"","html-keyboard-response","359","134774","0.0-359.0","3R9WASFE202ZDG2R5R0VYYF1R4FFZA","A3HL2LL0LEPZT8","3UUIU9GZC5R93N292LT21FRJ9VS5TN","","null","<img src=""img/flower2.png"" style=""width:200px;border:14px solid red;"">","null","","","","","","","","",""
"","image-keyboard-response","360","135312","0.0-360.0","3R9WASFE202ZDG2R5R0VYYF1R4FFZA","A3HL2LL0LEPZT8","3UUIU9GZC5R93N292LT21FRJ9VS5TN","","536.6000000089407","img/flower1.png","75","537.5","2","0","1","1","1,0.333,0.333,0.333,1,0.333,0.333,0.333,1","1,0.333,0.333,0.333,1,0.333,0.333,0.333,1","1",""
"","html-keyboard-response","361","135615","0.0-361.0","3R9WASFE202ZDG2R5R0VYYF1R4FFZA","A3HL2LL0LEPZT8","3UUIU9GZC5R93N292LT21FRJ9VS5TN","","null","<img src=""img/flower1.png"" style=""width:200px;border:14px solid red;"">","null","","","","","","","","",""
"","html-keyboard-response","362","138003","0.0-362.0","3R9WASFE202ZDG2R5R0VYYF1R4FFZA","A3HL2LL0LEPZT8","3UUIU9GZC5R93N292LT21FRJ9VS5TN","","","","","","","","","","","","",""
"","instructions","363","139242","0.0-363.0","3R9WASFE202ZDG2R5R0VYYF1R4FFZA","A3HL2LL0LEPZT8","3UUIU9GZC5R93N292LT21FRJ9VS5TN","[{""page_index"":0,""viewing_time"":1237.7999999970198}]","1238.0999999940395","","","","","","","","","","",""
