"rt","url","trial_type","trial_index","time_elapsed","internal_node_id","assignmentID","mturkID","hitID","success","view_history","stimulus","key_press","reactionTime","a","r","s","reward_cond","responses"
"7882.100000023842","consent.html","external-html","0","7922","0.0-0.0","39KFRKBFIOHTE35F88H27LFD9UEOYO","A3HQXCWOIQKT4F","3S829FDFT2NBOHQMM1CIOU0HZYXDXL","","","","","","","","","",""
"","","fullscreen","1","10953","0.0-1.0","39KFRKBFIOHTE35F88H27LFD9UEOYO","A3HQXCWOIQKT4F","3S829FDFT2NBOHQMM1CIOU0HZYXDXL","true","","","","","","","","",""
"85957.29999995232","","instructions","2","96913","0.0-2.0","39KFRKBFIOHTE35F88H27LFD9UEOYO","A3HQXCWOIQKT4F","3S829FDFT2NBOHQMM1CIOU0HZYXDXL","","[{""page_index"":0,""viewing_time"":15601.099999964237},{""page_index"":1,""viewing_time"":8863.900000035763},{""page_index"":2,""viewing_time"":13483.099999964237},{""page_index"":3,""viewing_time"":10779.400000035763},{""page_index"":4,""viewing_time"":4568.699999988079},{""page_index"":5,""viewing_time"":23214.899999976158},{""page_index"":6,""viewing_time"":9444.5}]","","","","","","","",""
"29780.899999976158","","instructions","3","126695","0.0-3.0","39KFRKBFIOHTE35F88H27LFD9UEOYO","A3HQXCWOIQKT4F","3S829FDFT2NBOHQMM1CIOU0HZYXDXL","","[{""page_index"":0,""viewing_time"":29780}]","","","","","","","",""
"766.0999999642372","","image-keyboard-response","4","127465","0.0-4.0","39KFRKBFIOHTE35F88H27LFD9UEOYO","A3HQXCWOIQKT4F","3S829FDFT2NBOHQMM1CIOU0HZYXDXL","","","img/flower4.png","74","768.3000000119209","1","0","1","",""
"null","","html-keyboard-response","5","127776","0.0-5.0","39KFRKBFIOHTE35F88H27LFD9UEOYO","A3HQXCWOIQKT4F","3S829FDFT2NBOHQMM1CIOU0HZYXDXL","","","<img src=""img/flower4.png"" style=""width:200px;border:14px solid red;"">","null","","","","","",""
"1530.4000000357628","","image-keyboard-response","6","129310","0.0-6.0","39KFRKBFIOHTE35F88H27LFD9UEOYO","A3HQXCWOIQKT4F","3S829FDFT2NBOHQMM1CIOU0HZYXDXL","","","img/flower4.png","74","1533.5","1","1","1","",""
"null","","html-keyboard-response","7","129616","0.0-7.0","39KFRKBFIOHTE35F88H27LFD9UEOYO","A3HQXCWOIQKT4F","3S829FDFT2NBOHQMM1CIOU0HZYXDXL","","","<img src=""img/flower4.png"" style=""width:200px; border:14px solid green;"">","null","","","","","",""
"931.8999999761581","","image-keyboard-response","8","130551","0.0-8.0","39KFRKBFIOHTE35F88H27LFD9UEOYO","A3HQXCWOIQKT4F","3S829FDFT2NBOHQMM1CIOU0HZYXDXL","","","img/flower5.png","75","934.1000000238419","2","1","2","",""
"null","","html-keyboard-response","9","130855","0.0-9.0","39KFRKBFIOHTE35F88H27LFD9UEOYO","A3HQXCWOIQKT4F","3S829FDFT2NBOHQMM1CIOU0HZYXDXL","","","<img src=""img/flower5.png"" style=""width:200px; border:14px solid green;"">","null","","","","","",""
"890","","image-keyboard-response","10","131749","0.0-10.0","39KFRKBFIOHTE35F88H27LFD9UEOYO","A3HQXCWOIQKT4F","3S829FDFT2NBOHQMM1CIOU0HZYXDXL","","","img/flower6.png","76","893","3","1","3","",""
"null","","html-keyboard-response","11","132056","0.0-11.0","39KFRKBFIOHTE35F88H27LFD9UEOYO","A3HQXCWOIQKT4F","3S829FDFT2NBOHQMM1CIOU0HZYXDXL","","","<img src=""img/flower6.png"" style=""width:200px; border:14px solid green;"">","null","","","","","",""
"1088.199999988079","","image-keyboard-response","12","133148","0.0-12.0","39KFRKBFIOHTE35F88H27LFD9UEOYO","A3HQXCWOIQKT4F","3S829FDFT2NBOHQMM1CIOU0HZYXDXL","","","img/flower4.png","74","1091.199999988079","1","0","1","",""
"null","","html-keyboard-response","13","133456","0.0-13.0","39KFRKBFIOHTE35F88H27LFD9UEOYO","A3HQXCWOIQKT4F","3S829FDFT2NBOHQMM1CIOU0HZYXDXL","","","<img src=""img/flower4.png"" style=""width:200px;border:14px solid red;"">","null","","","","","",""
"1389.3999999761581","","image-keyboard-response","14","134849","0.0-14.0","39KFRKBFIOHTE35F88H27LFD9UEOYO","A3HQXCWOIQKT4F","3S829FDFT2NBOHQMM1CIOU0HZYXDXL","","","img/flower5.png","75","1392.5","2","1","2","",""
"null","","html-keyboard-response","15","135158","0.0-15.0","39KFRKBFIOHTE35F88H27LFD9UEOYO","A3HQXCWOIQKT4F","3S829FDFT2NBOHQMM1CIOU0HZYXDXL","","","<img src=""img/flower5.png"" style=""width:200px; border:14px solid green;"">","null","","","","","",""
"814.5999999642372","","image-keyboard-response","16","135975","0.0-16.0","39KFRKBFIOHTE35F88H27LFD9UEOYO","A3HQXCWOIQKT4F","3S829FDFT2NBOHQMM1CIOU0HZYXDXL","","","img/flower4.png","74","816.5","1","1","1","",""
"null","","html-keyboard-response","17","136280","0.0-17.0","39KFRKBFIOHTE35F88H27LFD9UEOYO","A3HQXCWOIQKT4F","3S829FDFT2NBOHQMM1CIOU0HZYXDXL","","","<img src=""img/flower4.png"" style=""width:200px; border:14px solid green;"">","null","","","","","",""
"689.5999999642372","","image-keyboard-response","18","136972","0.0-18.0","39KFRKBFIOHTE35F88H27LFD9UEOYO","A3HQXCWOIQKT4F","3S829FDFT2NBOHQMM1CIOU0HZYXDXL","","","img/flower5.png","75","691.6999999880791","2","1","2","",""
"null","","html-keyboard-response","19","137279","0.0-19.0","39KFRKBFIOHTE35F88H27LFD9UEOYO","A3HQXCWOIQKT4F","3S829FDFT2NBOHQMM1CIOU0HZYXDXL","","","<img src=""img/flower5.png"" style=""width:200px; border:14px solid green;"">","null","","","","","",""
"759","","image-keyboard-response","20","138041","0.0-20.0","39KFRKBFIOHTE35F88H27LFD9UEOYO","A3HQXCWOIQKT4F","3S829FDFT2NBOHQMM1CIOU0HZYXDXL","","","img/flower6.png","76","761.6000000238419","3","1","3","",""
"null","","html-keyboard-response","21","138351","0.0-21.0","39KFRKBFIOHTE35F88H27LFD9UEOYO","A3HQXCWOIQKT4F","3S829FDFT2NBOHQMM1CIOU0HZYXDXL","","","<img src=""img/flower6.png"" style=""width:200px; border:14px solid green;"">","null","","","","","",""
"544.8999999761581","","image-keyboard-response","22","138900","0.0-22.0","39KFRKBFIOHTE35F88H27LFD9UEOYO","A3HQXCWOIQKT4F","3S829FDFT2NBOHQMM1CIOU0HZYXDXL","","","img/flower6.png","76","548","3","0","3","",""
"null","","html-keyboard-response","23","139207","0.0-23.0","39KFRKBFIOHTE35F88H27LFD9UEOYO","A3HQXCWOIQKT4F","3S829FDFT2NBOHQMM1CIOU0HZYXDXL","","","<img src=""img/flower6.png"" style=""width:200px;border:14px solid red;"">","null","","","","","",""
"930.6999999880791","","image-keyboard-response","24","140141","0.0-24.0","39KFRKBFIOHTE35F88H27LFD9UEOYO","A3HQXCWOIQKT4F","3S829FDFT2NBOHQMM1CIOU0HZYXDXL","","","img/flower4.png","74","933.4000000357628","1","1","1","",""
"null","","html-keyboard-response","25","140447","0.0-25.0","39KFRKBFIOHTE35F88H27LFD9UEOYO","A3HQXCWOIQKT4F","3S829FDFT2NBOHQMM1CIOU0HZYXDXL","","","<img src=""img/flower4.png"" style=""width:200px; border:14px solid green;"">","null","","","","","",""
"929.1000000238419","","image-keyboard-response","26","141379","0.0-26.0","39KFRKBFIOHTE35F88H27LFD9UEOYO","A3HQXCWOIQKT4F","3S829FDFT2NBOHQMM1CIOU0HZYXDXL","","","img/flower6.png","76","931.9000000357628","3","1","3","",""
"null","","html-keyboard-response","27","141687","0.0-27.0","39KFRKBFIOHTE35F88H27LFD9UEOYO","A3HQXCWOIQKT4F","3S829FDFT2NBOHQMM1CIOU0HZYXDXL","","","<img src=""img/flower6.png"" style=""width:200px; border:14px solid green;"">","null","","","","","",""
"658.2999999523163","","image-keyboard-response","28","142348","0.0-28.0","39KFRKBFIOHTE35F88H27LFD9UEOYO","A3HQXCWOIQKT4F","3S829FDFT2NBOHQMM1CIOU0HZYXDXL","","","img/flower4.png","74","660.5","1","1","1","",""
"null","","html-keyboard-response","29","142655","0.0-29.0","39KFRKBFIOHTE35F88H27LFD9UEOYO","A3HQXCWOIQKT4F","3S829FDFT2NBOHQMM1CIOU0HZYXDXL","","","<img src=""img/flower4.png"" style=""width:200px; border:14px solid green;"">","null","","","","","",""
"469.7999999523163","","image-keyboard-response","30","143128","0.0-30.0","39KFRKBFIOHTE35F88H27LFD9UEOYO","A3HQXCWOIQKT4F","3S829FDFT2NBOHQMM1CIOU0HZYXDXL","","","img/flower4.png","74","472.39999997615814","1","1","1","",""
"null","","html-keyboard-response","31","143439","0.0-31.0","39KFRKBFIOHTE35F88H27LFD9UEOYO","A3HQXCWOIQKT4F","3S829FDFT2NBOHQMM1CIOU0HZYXDXL","","","<img src=""img/flower4.png"" style=""width:200px; border:14px solid green;"">","null","","","","","",""
"676.1000000238419","","image-keyboard-response","32","144118","0.0-32.0","39KFRKBFIOHTE35F88H27LFD9UEOYO","A3HQXCWOIQKT4F","3S829FDFT2NBOHQMM1CIOU0HZYXDXL","","","img/flower6.png","76","678.0999999642372","3","1","3","",""
"null","","html-keyboard-response","33","144423","0.0-33.0","39KFRKBFIOHTE35F88H27LFD9UEOYO","A3HQXCWOIQKT4F","3S829FDFT2NBOHQMM1CIOU0HZYXDXL","","","<img src=""img/flower6.png"" style=""width:200px; border:14px solid green;"">","null","","","","","",""
"621.1000000238419","","image-keyboard-response","34","145046","0.0-34.0","39KFRKBFIOHTE35F88H27LFD9UEOYO","A3HQXCWOIQKT4F","3S829FDFT2NBOHQMM1CIOU0HZYXDXL","","","img/flower4.png","74","623.3999999761581","1","1","1","",""
"null","","html-keyboard-response","35","145352","0.0-35.0","39KFRKBFIOHTE35F88H27LFD9UEOYO","A3HQXCWOIQKT4F","3S829FDFT2NBOHQMM1CIOU0HZYXDXL","","","<img src=""img/flower4.png"" style=""width:200px; border:14px solid green;"">","null","","","","","",""
"618.5999999642372","","image-keyboard-response","36","145974","0.0-36.0","39KFRKBFIOHTE35F88H27LFD9UEOYO","A3HQXCWOIQKT4F","3S829FDFT2NBOHQMM1CIOU0HZYXDXL","","","img/flower6.png","76","621.2999999523163","3","1","3","",""
"null","","html-keyboard-response","37","146279","0.0-37.0","39KFRKBFIOHTE35F88H27LFD9UEOYO","A3HQXCWOIQKT4F","3S829FDFT2NBOHQMM1CIOU0HZYXDXL","","","<img src=""img/flower6.png"" style=""width:200px; border:14px solid green;"">","null","","","","","",""
"639.1000000238419","","image-keyboard-response","38","146921","0.0-38.0","39KFRKBFIOHTE35F88H27LFD9UEOYO","A3HQXCWOIQKT4F","3S829FDFT2NBOHQMM1CIOU0HZYXDXL","","","img/flower5.png","75","641.9000000357628","2","1","2","",""
"null","","html-keyboard-response","39","147231","0.0-39.0","39KFRKBFIOHTE35F88H27LFD9UEOYO","A3HQXCWOIQKT4F","3S829FDFT2NBOHQMM1CIOU0HZYXDXL","","","<img src=""img/flower5.png"" style=""width:200px; border:14px solid green;"">","null","","","","","",""
"411.69999998807907","","image-keyboard-response","40","147646","0.0-40.0","39KFRKBFIOHTE35F88H27LFD9UEOYO","A3HQXCWOIQKT4F","3S829FDFT2NBOHQMM1CIOU0HZYXDXL","","","img/flower5.png","75","414.4000000357628","2","0","2","",""
"null","","html-keyboard-response","41","147951","0.0-41.0","39KFRKBFIOHTE35F88H27LFD9UEOYO","A3HQXCWOIQKT4F","3S829FDFT2NBOHQMM1CIOU0HZYXDXL","","","<img src=""img/flower5.png"" style=""width:200px;border:14px solid red;"">","null","","","","","",""
"436","","image-keyboard-response","42","148390","0.0-42.0","39KFRKBFIOHTE35F88H27LFD9UEOYO","A3HQXCWOIQKT4F","3S829FDFT2NBOHQMM1CIOU0HZYXDXL","","","img/flower5.png","75","438.5","2","1","2","",""
"null","","html-keyboard-response","43","148695","0.0-43.0","39KFRKBFIOHTE35F88H27LFD9UEOYO","A3HQXCWOIQKT4F","3S829FDFT2NBOHQMM1CIOU0HZYXDXL","","","<img src=""img/flower5.png"" style=""width:200px; border:14px solid green;"">","null","","","","","",""
"641.3000000119209","","image-keyboard-response","44","149340","0.0-44.0","39KFRKBFIOHTE35F88H27LFD9UEOYO","A3HQXCWOIQKT4F","3S829FDFT2NBOHQMM1CIOU0HZYXDXL","","","img/flower4.png","74","644.1000000238419","1","1","1","",""
"null","","html-keyboard-response","45","149647","0.0-45.0","39KFRKBFIOHTE35F88H27LFD9UEOYO","A3HQXCWOIQKT4F","3S829FDFT2NBOHQMM1CIOU0HZYXDXL","","","<img src=""img/flower4.png"" style=""width:200px; border:14px solid green;"">","null","","","","","",""
"1179.7000000476837","","image-keyboard-response","46","150830","0.0-46.0","39KFRKBFIOHTE35F88H27LFD9UEOYO","A3HQXCWOIQKT4F","3S829FDFT2NBOHQMM1CIOU0HZYXDXL","","","img/flower6.png","76","1182.2000000476837","3","0","3","",""
"null","","html-keyboard-response","47","151135","0.0-47.0","39KFRKBFIOHTE35F88H27LFD9UEOYO","A3HQXCWOIQKT4F","3S829FDFT2NBOHQMM1CIOU0HZYXDXL","","","<img src=""img/flower6.png"" style=""width:200px;border:14px solid red;"">","null","","","","","",""
"988","","image-keyboard-response","48","152127","0.0-48.0","39KFRKBFIOHTE35F88H27LFD9UEOYO","A3HQXCWOIQKT4F","3S829FDFT2NBOHQMM1CIOU0HZYXDXL","","","img/flower5.png","75","991","2","1","2","",""
"null","","html-keyboard-response","49","152431","0.0-49.0","39KFRKBFIOHTE35F88H27LFD9UEOYO","A3HQXCWOIQKT4F","3S829FDFT2NBOHQMM1CIOU0HZYXDXL","","","<img src=""img/flower5.png"" style=""width:200px; border:14px solid green;"">","null","","","","","",""
"993.9000000357628","","image-keyboard-response","50","153428","0.0-50.0","39KFRKBFIOHTE35F88H27LFD9UEOYO","A3HQXCWOIQKT4F","3S829FDFT2NBOHQMM1CIOU0HZYXDXL","","","img/flower6.png","76","996.6000000238419","3","1","3","",""
"null","","html-keyboard-response","51","153735","0.0-51.0","39KFRKBFIOHTE35F88H27LFD9UEOYO","A3HQXCWOIQKT4F","3S829FDFT2NBOHQMM1CIOU0HZYXDXL","","","<img src=""img/flower6.png"" style=""width:200px; border:14px solid green;"">","null","","","","","",""
"1132.5","","image-keyboard-response","52","154870","0.0-52.0","39KFRKBFIOHTE35F88H27LFD9UEOYO","A3HQXCWOIQKT4F","3S829FDFT2NBOHQMM1CIOU0HZYXDXL","","","img/flower5.png","75","1134.7000000476837","2","1","2","",""
"null","","html-keyboard-response","53","155175","0.0-53.0","39KFRKBFIOHTE35F88H27LFD9UEOYO","A3HQXCWOIQKT4F","3S829FDFT2NBOHQMM1CIOU0HZYXDXL","","","<img src=""img/flower5.png"" style=""width:200px; border:14px solid green;"">","null","","","","","",""
"647.1999999880791","","image-keyboard-response","54","155826","0.0-54.0","39KFRKBFIOHTE35F88H27LFD9UEOYO","A3HQXCWOIQKT4F","3S829FDFT2NBOHQMM1CIOU0HZYXDXL","","","img/flower6.png","76","650.1999999880791","3","1","3","",""
"null","","html-keyboard-response","55","156135","0.0-55.0","39KFRKBFIOHTE35F88H27LFD9UEOYO","A3HQXCWOIQKT4F","3S829FDFT2NBOHQMM1CIOU0HZYXDXL","","","<img src=""img/flower6.png"" style=""width:200px; border:14px solid green;"">","null","","","","","",""
"657","","image-keyboard-response","56","156795","0.0-56.0","39KFRKBFIOHTE35F88H27LFD9UEOYO","A3HQXCWOIQKT4F","3S829FDFT2NBOHQMM1CIOU0HZYXDXL","","","img/flower4.png","74","660","1","0","1","",""
"null","","html-keyboard-response","57","157103","0.0-57.0","39KFRKBFIOHTE35F88H27LFD9UEOYO","A3HQXCWOIQKT4F","3S829FDFT2NBOHQMM1CIOU0HZYXDXL","","","<img src=""img/flower4.png"" style=""width:200px;border:14px solid red;"">","null","","","","","",""
"723","","image-keyboard-response","58","157829","0.0-58.0","39KFRKBFIOHTE35F88H27LFD9UEOYO","A3HQXCWOIQKT4F","3S829FDFT2NBOHQMM1CIOU0HZYXDXL","","","img/flower6.png","76","726","3","1","3","",""
"null","","html-keyboard-response","59","158135","0.0-59.0","39KFRKBFIOHTE35F88H27LFD9UEOYO","A3HQXCWOIQKT4F","3S829FDFT2NBOHQMM1CIOU0HZYXDXL","","","<img src=""img/flower6.png"" style=""width:200px; border:14px solid green;"">","null","","","","","",""
"985.5","","image-keyboard-response","60","159123","0.0-60.0","39KFRKBFIOHTE35F88H27LFD9UEOYO","A3HQXCWOIQKT4F","3S829FDFT2NBOHQMM1CIOU0HZYXDXL","","","img/flower5.png","75","988.1999999880791","2","1","2","",""
"null","","html-keyboard-response","61","159431","0.0-61.0","39KFRKBFIOHTE35F88H27LFD9UEOYO","A3HQXCWOIQKT4F","3S829FDFT2NBOHQMM1CIOU0HZYXDXL","","","<img src=""img/flower5.png"" style=""width:200px; border:14px solid green;"">","null","","","","","",""
"631","","image-keyboard-response","62","160065","0.0-62.0","39KFRKBFIOHTE35F88H27LFD9UEOYO","A3HQXCWOIQKT4F","3S829FDFT2NBOHQMM1CIOU0HZYXDXL","","","img/flower5.png","75","633.1999999880791","2","1","2","",""
"null","","html-keyboard-response","63","160375","0.0-63.0","39KFRKBFIOHTE35F88H27LFD9UEOYO","A3HQXCWOIQKT4F","3S829FDFT2NBOHQMM1CIOU0HZYXDXL","","","<img src=""img/flower5.png"" style=""width:200px; border:14px solid green;"">","null","","","","","",""
"26880.899999976158","","instructions","64","187257","0.0-64.0","39KFRKBFIOHTE35F88H27LFD9UEOYO","A3HQXCWOIQKT4F","3S829FDFT2NBOHQMM1CIOU0HZYXDXL","","[{""page_index"":0,""viewing_time"":4830.800000011921},{""page_index"":1,""viewing_time"":22049.5}]","","","","","","","",""
"968.3000000119209","","image-keyboard-response","65","188228","0.0-65.0","39KFRKBFIOHTE35F88H27LFD9UEOYO","A3HQXCWOIQKT4F","3S829FDFT2NBOHQMM1CIOU0HZYXDXL","","","img/flower6.png","76","970.6999999880791","3","1","3","",""
"null","","html-keyboard-response","66","188535","0.0-66.0","39KFRKBFIOHTE35F88H27LFD9UEOYO","A3HQXCWOIQKT4F","3S829FDFT2NBOHQMM1CIOU0HZYXDXL","","","<img src=""img/flower6.png"" style=""width:200px; border:14px solid green;"">","null","","","","","",""
"403.69999998807907","","image-keyboard-response","67","188942","0.0-67.0","39KFRKBFIOHTE35F88H27LFD9UEOYO","A3HQXCWOIQKT4F","3S829FDFT2NBOHQMM1CIOU0HZYXDXL","","","img/flower6.png","76","406.69999998807907","3","1","3","",""
"null","","html-keyboard-response","68","189247","0.0-68.0","39KFRKBFIOHTE35F88H27LFD9UEOYO","A3HQXCWOIQKT4F","3S829FDFT2NBOHQMM1CIOU0HZYXDXL","","","<img src=""img/flower6.png"" style=""width:200px; border:14px solid green;"">","null","","","","","",""
"359.5","","image-keyboard-response","69","189610","0.0-69.0","39KFRKBFIOHTE35F88H27LFD9UEOYO","A3HQXCWOIQKT4F","3S829FDFT2NBOHQMM1CIOU0HZYXDXL","","","img/flower6.png","76","362.4000000357628","3","0","3","",""
"null","","html-keyboard-response","70","189919","0.0-70.0","39KFRKBFIOHTE35F88H27LFD9UEOYO","A3HQXCWOIQKT4F","3S829FDFT2NBOHQMM1CIOU0HZYXDXL","","","<img src=""img/flower6.png"" style=""width:200px;border:14px solid red;"">","null","","","","","",""
"900.4000000357628","","image-keyboard-response","71","190824","0.0-71.0","39KFRKBFIOHTE35F88H27LFD9UEOYO","A3HQXCWOIQKT4F","3S829FDFT2NBOHQMM1CIOU0HZYXDXL","","","img/flower4.png","74","903.4000000357628","1","0","1","",""
"null","","html-keyboard-response","72","191135","0.0-72.0","39KFRKBFIOHTE35F88H27LFD9UEOYO","A3HQXCWOIQKT4F","3S829FDFT2NBOHQMM1CIOU0HZYXDXL","","","<img src=""img/flower4.png"" style=""width:200px;border:14px solid red;"">","null","","","","","",""
"719.5","","image-keyboard-response","73","191858","0.0-73.0","39KFRKBFIOHTE35F88H27LFD9UEOYO","A3HQXCWOIQKT4F","3S829FDFT2NBOHQMM1CIOU0HZYXDXL","","","img/flower5.png","75","722.6000000238419","2","1","2","",""
"null","","html-keyboard-response","74","192166","0.0-74.0","39KFRKBFIOHTE35F88H27LFD9UEOYO","A3HQXCWOIQKT4F","3S829FDFT2NBOHQMM1CIOU0HZYXDXL","","","<img src=""img/flower5.png"" style=""width:200px; border:14px solid green;"">","null","","","","","",""
"378.89999997615814","","image-keyboard-response","75","192547","0.0-75.0","39KFRKBFIOHTE35F88H27LFD9UEOYO","A3HQXCWOIQKT4F","3S829FDFT2NBOHQMM1CIOU0HZYXDXL","","","img/flower5.png","75","380.69999998807907","2","1","2","",""
"null","","html-keyboard-response","76","192854","0.0-76.0","39KFRKBFIOHTE35F88H27LFD9UEOYO","A3HQXCWOIQKT4F","3S829FDFT2NBOHQMM1CIOU0HZYXDXL","","","<img src=""img/flower5.png"" style=""width:200px; border:14px solid green;"">","null","","","","","",""
"752.1999999880791","","image-keyboard-response","77","193609","0.0-77.0","39KFRKBFIOHTE35F88H27LFD9UEOYO","A3HQXCWOIQKT4F","3S829FDFT2NBOHQMM1CIOU0HZYXDXL","","","img/flower6.png","76","754.1000000238419","3","1","3","",""
"null","","html-keyboard-response","78","193919","0.0-78.0","39KFRKBFIOHTE35F88H27LFD9UEOYO","A3HQXCWOIQKT4F","3S829FDFT2NBOHQMM1CIOU0HZYXDXL","","","<img src=""img/flower6.png"" style=""width:200px; border:14px solid green;"">","null","","","","","",""
"866","","image-keyboard-response","79","194788","0.0-79.0","39KFRKBFIOHTE35F88H27LFD9UEOYO","A3HQXCWOIQKT4F","3S829FDFT2NBOHQMM1CIOU0HZYXDXL","","","img/flower5.png","75","868.8000000119209","2","1","2","",""
"null","","html-keyboard-response","80","195095","0.0-80.0","39KFRKBFIOHTE35F88H27LFD9UEOYO","A3HQXCWOIQKT4F","3S829FDFT2NBOHQMM1CIOU0HZYXDXL","","","<img src=""img/flower5.png"" style=""width:200px; border:14px solid green;"">","null","","","","","",""
"355.5","","image-keyboard-response","81","195454","0.0-81.0","39KFRKBFIOHTE35F88H27LFD9UEOYO","A3HQXCWOIQKT4F","3S829FDFT2NBOHQMM1CIOU0HZYXDXL","","","img/flower5.png","75","358.10000002384186","2","1","2","",""
"null","","html-keyboard-response","82","195759","0.0-82.0","39KFRKBFIOHTE35F88H27LFD9UEOYO","A3HQXCWOIQKT4F","3S829FDFT2NBOHQMM1CIOU0HZYXDXL","","","<img src=""img/flower5.png"" style=""width:200px; border:14px solid green;"">","null","","","","","",""
"286.89999997615814","","image-keyboard-response","83","196049","0.0-83.0","39KFRKBFIOHTE35F88H27LFD9UEOYO","A3HQXCWOIQKT4F","3S829FDFT2NBOHQMM1CIOU0HZYXDXL","","","img/flower5.png","75","289.19999998807907","2","1","2","",""
"null","","html-keyboard-response","84","196359","0.0-84.0","39KFRKBFIOHTE35F88H27LFD9UEOYO","A3HQXCWOIQKT4F","3S829FDFT2NBOHQMM1CIOU0HZYXDXL","","","<img src=""img/flower5.png"" style=""width:200px; border:14px solid green;"">","null","","","","","",""
"760.6999999880791","","image-keyboard-response","85","197123","0.0-85.0","39KFRKBFIOHTE35F88H27LFD9UEOYO","A3HQXCWOIQKT4F","3S829FDFT2NBOHQMM1CIOU0HZYXDXL","","","img/flower6.png","76","763.3999999761581","3","0","3","",""
"null","","html-keyboard-response","86","197431","0.0-86.0","39KFRKBFIOHTE35F88H27LFD9UEOYO","A3HQXCWOIQKT4F","3S829FDFT2NBOHQMM1CIOU0HZYXDXL","","","<img src=""img/flower6.png"" style=""width:200px;border:14px solid red;"">","null","","","","","",""
"826.9000000357628","","image-keyboard-response","87","198261","0.0-87.0","39KFRKBFIOHTE35F88H27LFD9UEOYO","A3HQXCWOIQKT4F","3S829FDFT2NBOHQMM1CIOU0HZYXDXL","","","img/flower4.png","74","829.5999999642372","1","0","1","",""
"null","","html-keyboard-response","88","198567","0.0-88.0","39KFRKBFIOHTE35F88H27LFD9UEOYO","A3HQXCWOIQKT4F","3S829FDFT2NBOHQMM1CIOU0HZYXDXL","","","<img src=""img/flower4.png"" style=""width:200px;border:14px solid red;"">","null","","","","","",""
"874.3000000119209","","image-keyboard-response","89","199444","0.0-89.0","39KFRKBFIOHTE35F88H27LFD9UEOYO","A3HQXCWOIQKT4F","3S829FDFT2NBOHQMM1CIOU0HZYXDXL","","","img/flower5.png","75","876.8999999761581","2","1","2","",""
"null","","html-keyboard-response","90","199751","0.0-90.0","39KFRKBFIOHTE35F88H27LFD9UEOYO","A3HQXCWOIQKT4F","3S829FDFT2NBOHQMM1CIOU0HZYXDXL","","","<img src=""img/flower5.png"" style=""width:200px; border:14px solid green;"">","null","","","","","",""
"726.8999999761581","","image-keyboard-response","91","200481","0.0-91.0","39KFRKBFIOHTE35F88H27LFD9UEOYO","A3HQXCWOIQKT4F","3S829FDFT2NBOHQMM1CIOU0HZYXDXL","","","img/flower4.png","74","728.8999999761581","1","1","1","",""
"null","","html-keyboard-response","92","200791","0.0-92.0","39KFRKBFIOHTE35F88H27LFD9UEOYO","A3HQXCWOIQKT4F","3S829FDFT2NBOHQMM1CIOU0HZYXDXL","","","<img src=""img/flower4.png"" style=""width:200px; border:14px solid green;"">","null","","","","","",""
"1505.0999999642372","","image-keyboard-response","93","202299","0.0-93.0","39KFRKBFIOHTE35F88H27LFD9UEOYO","A3HQXCWOIQKT4F","3S829FDFT2NBOHQMM1CIOU0HZYXDXL","","","img/flower5.png","75","1507.800000011921","2","0","2","",""
"null","","html-keyboard-response","94","202607","0.0-94.0","39KFRKBFIOHTE35F88H27LFD9UEOYO","A3HQXCWOIQKT4F","3S829FDFT2NBOHQMM1CIOU0HZYXDXL","","","<img src=""img/flower5.png"" style=""width:200px;border:14px solid red;"">","null","","","","","",""
"951.4000000357628","","image-keyboard-response","95","203561","0.0-95.0","39KFRKBFIOHTE35F88H27LFD9UEOYO","A3HQXCWOIQKT4F","3S829FDFT2NBOHQMM1CIOU0HZYXDXL","","","img/flower4.png","74","954.3000000119209","1","1","1","",""
"null","","html-keyboard-response","96","203871","0.0-96.0","39KFRKBFIOHTE35F88H27LFD9UEOYO","A3HQXCWOIQKT4F","3S829FDFT2NBOHQMM1CIOU0HZYXDXL","","","<img src=""img/flower4.png"" style=""width:200px; border:14px solid green;"">","null","","","","","",""
"623","","image-keyboard-response","97","204497","0.0-97.0","39KFRKBFIOHTE35F88H27LFD9UEOYO","A3HQXCWOIQKT4F","3S829FDFT2NBOHQMM1CIOU0HZYXDXL","","","img/flower5.png","75","625.8000000119209","2","1","2","",""
"null","","html-keyboard-response","98","204807","0.0-98.0","39KFRKBFIOHTE35F88H27LFD9UEOYO","A3HQXCWOIQKT4F","3S829FDFT2NBOHQMM1CIOU0HZYXDXL","","","<img src=""img/flower5.png"" style=""width:200px; border:14px solid green;"">","null","","","","","",""
"554.1000000238419","","image-keyboard-response","99","205364","0.0-99.0","39KFRKBFIOHTE35F88H27LFD9UEOYO","A3HQXCWOIQKT4F","3S829FDFT2NBOHQMM1CIOU0HZYXDXL","","","img/flower4.png","74","556.8000000119209","1","1","1","",""
"null","","html-keyboard-response","100","205671","0.0-100.0","39KFRKBFIOHTE35F88H27LFD9UEOYO","A3HQXCWOIQKT4F","3S829FDFT2NBOHQMM1CIOU0HZYXDXL","","","<img src=""img/flower4.png"" style=""width:200px; border:14px solid green;"">","null","","","","","",""
"371.89999997615814","","image-keyboard-response","101","206046","0.0-101.0","39KFRKBFIOHTE35F88H27LFD9UEOYO","A3HQXCWOIQKT4F","3S829FDFT2NBOHQMM1CIOU0HZYXDXL","","","img/flower4.png","74","374.5999999642372","1","1","1","",""
"null","","html-keyboard-response","102","206351","0.0-102.0","39KFRKBFIOHTE35F88H27LFD9UEOYO","A3HQXCWOIQKT4F","3S829FDFT2NBOHQMM1CIOU0HZYXDXL","","","<img src=""img/flower4.png"" style=""width:200px; border:14px solid green;"">","null","","","","","",""
"268.19999998807907","","image-keyboard-response","103","206622","0.0-103.0","39KFRKBFIOHTE35F88H27LFD9UEOYO","A3HQXCWOIQKT4F","3S829FDFT2NBOHQMM1CIOU0HZYXDXL","","","img/flower4.png","74","270.5999999642372","1","0","1","",""
"null","","html-keyboard-response","104","206927","0.0-104.0","39KFRKBFIOHTE35F88H27LFD9UEOYO","A3HQXCWOIQKT4F","3S829FDFT2NBOHQMM1CIOU0HZYXDXL","","","<img src=""img/flower4.png"" style=""width:200px;border:14px solid red;"">","null","","","","","",""
"408.30000001192093","","image-keyboard-response","105","207339","0.0-105.0","39KFRKBFIOHTE35F88H27LFD9UEOYO","A3HQXCWOIQKT4F","3S829FDFT2NBOHQMM1CIOU0HZYXDXL","","","img/flower4.png","74","410.80000001192093","1","1","1","",""
"null","","html-keyboard-response","106","207647","0.0-106.0","39KFRKBFIOHTE35F88H27LFD9UEOYO","A3HQXCWOIQKT4F","3S829FDFT2NBOHQMM1CIOU0HZYXDXL","","","<img src=""img/flower4.png"" style=""width:200px; border:14px solid green;"">","null","","","","","",""
"527.3000000119209","","image-keyboard-response","107","208177","0.0-107.0","39KFRKBFIOHTE35F88H27LFD9UEOYO","A3HQXCWOIQKT4F","3S829FDFT2NBOHQMM1CIOU0HZYXDXL","","","img/flower5.png","75","529.8999999761581","2","1","2","",""
"null","","html-keyboard-response","108","208487","0.0-108.0","39KFRKBFIOHTE35F88H27LFD9UEOYO","A3HQXCWOIQKT4F","3S829FDFT2NBOHQMM1CIOU0HZYXDXL","","","<img src=""img/flower5.png"" style=""width:200px; border:14px solid green;"">","null","","","","","",""
"732.1000000238419","","image-keyboard-response","109","209222","0.0-109.0","39KFRKBFIOHTE35F88H27LFD9UEOYO","A3HQXCWOIQKT4F","3S829FDFT2NBOHQMM1CIOU0HZYXDXL","","","img/flower6.png","76","734","3","1","3","",""
"null","","html-keyboard-response","110","209527","0.0-110.0","39KFRKBFIOHTE35F88H27LFD9UEOYO","A3HQXCWOIQKT4F","3S829FDFT2NBOHQMM1CIOU0HZYXDXL","","","<img src=""img/flower6.png"" style=""width:200px; border:14px solid green;"">","null","","","","","",""
"594.1999999880791","","image-keyboard-response","111","210124","0.0-111.0","39KFRKBFIOHTE35F88H27LFD9UEOYO","A3HQXCWOIQKT4F","3S829FDFT2NBOHQMM1CIOU0HZYXDXL","","","img/flower4.png","75","596.8999999761581","2","1","1","",""
"null","","html-keyboard-response","112","210430","0.0-112.0","39KFRKBFIOHTE35F88H27LFD9UEOYO","A3HQXCWOIQKT4F","3S829FDFT2NBOHQMM1CIOU0HZYXDXL","","","<img src=""img/flower4.png"" style=""width:200px; border:14px solid green;"">","null","","","","","",""
"1040.800000011921","","image-keyboard-response","113","211474","0.0-113.0","39KFRKBFIOHTE35F88H27LFD9UEOYO","A3HQXCWOIQKT4F","3S829FDFT2NBOHQMM1CIOU0HZYXDXL","","","img/flower4.png","74","1043.699999988079","1","1","1","",""
"null","","html-keyboard-response","114","211783","0.0-114.0","39KFRKBFIOHTE35F88H27LFD9UEOYO","A3HQXCWOIQKT4F","3S829FDFT2NBOHQMM1CIOU0HZYXDXL","","","<img src=""img/flower4.png"" style=""width:200px; border:14px solid green;"">","null","","","","","",""
"797.4000000357628","","image-keyboard-response","115","212583","0.0-115.0","39KFRKBFIOHTE35F88H27LFD9UEOYO","A3HQXCWOIQKT4F","3S829FDFT2NBOHQMM1CIOU0HZYXDXL","","","img/flower6.png","76","800.1999999880791","3","0","3","",""
"null","","html-keyboard-response","116","212895","0.0-116.0","39KFRKBFIOHTE35F88H27LFD9UEOYO","A3HQXCWOIQKT4F","3S829FDFT2NBOHQMM1CIOU0HZYXDXL","","","<img src=""img/flower6.png"" style=""width:200px;border:14px solid red;"">","null","","","","","",""
"340.69999998807907","","image-keyboard-response","117","213238","0.0-117.0","39KFRKBFIOHTE35F88H27LFD9UEOYO","A3HQXCWOIQKT4F","3S829FDFT2NBOHQMM1CIOU0HZYXDXL","","","img/flower6.png","76","342.80000001192093","3","1","3","",""
"null","","html-keyboard-response","118","213543","0.0-118.0","39KFRKBFIOHTE35F88H27LFD9UEOYO","A3HQXCWOIQKT4F","3S829FDFT2NBOHQMM1CIOU0HZYXDXL","","","<img src=""img/flower6.png"" style=""width:200px; border:14px solid green;"">","null","","","","","",""
"407.2000000476837","","image-keyboard-response","119","213953","0.0-119.0","39KFRKBFIOHTE35F88H27LFD9UEOYO","A3HQXCWOIQKT4F","3S829FDFT2NBOHQMM1CIOU0HZYXDXL","","","img/flower6.png","76","409.39999997615814","3","1","3","",""
"null","","html-keyboard-response","120","214263","0.0-120.0","39KFRKBFIOHTE35F88H27LFD9UEOYO","A3HQXCWOIQKT4F","3S829FDFT2NBOHQMM1CIOU0HZYXDXL","","","<img src=""img/flower6.png"" style=""width:200px; border:14px solid green;"">","null","","","","","",""
"1239.5","","image-keyboard-response","121","215505","0.0-121.0","39KFRKBFIOHTE35F88H27LFD9UEOYO","A3HQXCWOIQKT4F","3S829FDFT2NBOHQMM1CIOU0HZYXDXL","","","img/flower5.png","75","1242.1000000238419","2","1","2","",""
"null","","html-keyboard-response","122","215815","0.0-122.0","39KFRKBFIOHTE35F88H27LFD9UEOYO","A3HQXCWOIQKT4F","3S829FDFT2NBOHQMM1CIOU0HZYXDXL","","","<img src=""img/flower5.png"" style=""width:200px; border:14px solid green;"">","null","","","","","",""
"633.8999999761581","","image-keyboard-response","123","216452","0.0-123.0","39KFRKBFIOHTE35F88H27LFD9UEOYO","A3HQXCWOIQKT4F","3S829FDFT2NBOHQMM1CIOU0HZYXDXL","","","img/flower6.png","76","636.3999999761581","3","1","3","",""
"null","","html-keyboard-response","124","216758","0.0-124.0","39KFRKBFIOHTE35F88H27LFD9UEOYO","A3HQXCWOIQKT4F","3S829FDFT2NBOHQMM1CIOU0HZYXDXL","","","<img src=""img/flower6.png"" style=""width:200px; border:14px solid green;"">","null","","","","","",""
"2462.800000011921","","instructions","125","219223","0.0-125.0","39KFRKBFIOHTE35F88H27LFD9UEOYO","A3HQXCWOIQKT4F","3S829FDFT2NBOHQMM1CIOU0HZYXDXL","","[{""page_index"":0,""viewing_time"":2462.399999976158}]","","","","","","","",""
"834.6000000238419","","image-keyboard-response","126","220059","0.0-126.0","39KFRKBFIOHTE35F88H27LFD9UEOYO","A3HQXCWOIQKT4F","3S829FDFT2NBOHQMM1CIOU0HZYXDXL","","","img/flower8.png","74","836.1999999880791","1","0","3","0.6,0.6,0,0,0.6,0.6,0.6,0,0.6",""
"null","","html-keyboard-response","127","220367","0.0-127.0","39KFRKBFIOHTE35F88H27LFD9UEOYO","A3HQXCWOIQKT4F","3S829FDFT2NBOHQMM1CIOU0HZYXDXL","","","<img src=""img/flower8.png"" style=""width:200px;border:14px solid red;"">","null","","","","","",""
"1024","","image-keyboard-response","128","221394","0.0-128.0","39KFRKBFIOHTE35F88H27LFD9UEOYO","A3HQXCWOIQKT4F","3S829FDFT2NBOHQMM1CIOU0HZYXDXL","","","img/flower9.png","74","1026.8999999761581","1","0","1","0.6,0.6,0,0,0.6,0.6,0.6,0,0.6",""
"null","","html-keyboard-response","129","221703","0.0-129.0","39KFRKBFIOHTE35F88H27LFD9UEOYO","A3HQXCWOIQKT4F","3S829FDFT2NBOHQMM1CIOU0HZYXDXL","","","<img src=""img/flower9.png"" style=""width:200px;border:14px solid red;"">","null","","","","","",""
"1277.2000000476837","","image-keyboard-response","130","222983","0.0-130.0","39KFRKBFIOHTE35F88H27LFD9UEOYO","A3HQXCWOIQKT4F","3S829FDFT2NBOHQMM1CIOU0HZYXDXL","","","img/flower9.png","75","1280","2","0","1","0.6,0.6,0,0,0.6,0.6,0.6,0,0.6",""
"null","","html-keyboard-response","131","223295","0.0-131.0","39KFRKBFIOHTE35F88H27LFD9UEOYO","A3HQXCWOIQKT4F","3S829FDFT2NBOHQMM1CIOU0HZYXDXL","","","<img src=""img/flower9.png"" style=""width:200px;border:14px solid red;"">","null","","","","","",""
"1394.6000000238419","","image-keyboard-response","132","224693","0.0-132.0","39KFRKBFIOHTE35F88H27LFD9UEOYO","A3HQXCWOIQKT4F","3S829FDFT2NBOHQMM1CIOU0HZYXDXL","","","img/flower1.png","74","1397","1","0","2","0.6,0.6,0,0,0.6,0.6,0.6,0,0.6",""
"null","","html-keyboard-response","133","224999","0.0-133.0","39KFRKBFIOHTE35F88H27LFD9UEOYO","A3HQXCWOIQKT4F","3S829FDFT2NBOHQMM1CIOU0HZYXDXL","","","<img src=""img/flower1.png"" style=""width:200px;border:14px solid red;"">","null","","","","","",""
"1040.7999999523163","","image-keyboard-response","134","226043","0.0-134.0","39KFRKBFIOHTE35F88H27LFD9UEOYO","A3HQXCWOIQKT4F","3S829FDFT2NBOHQMM1CIOU0HZYXDXL","","","img/flower9.png","76","1043.5","3","0","1","0.6,0.6,0,0,0.6,0.6,0.6,0,0.6",""
"null","","html-keyboard-response","135","226351","0.0-135.0","39KFRKBFIOHTE35F88H27LFD9UEOYO","A3HQXCWOIQKT4F","3S829FDFT2NBOHQMM1CIOU0HZYXDXL","","","<img src=""img/flower9.png"" style=""width:200px;border:14px solid red;"">","null","","","","","",""
"1380.3999999761581","","image-keyboard-response","136","227734","0.0-136.0","39KFRKBFIOHTE35F88H27LFD9UEOYO","A3HQXCWOIQKT4F","3S829FDFT2NBOHQMM1CIOU0HZYXDXL","","","img/flower8.png","75","1383.1000000238419","2","0","3","0.6,0.6,0,0,0.6,0.6,0.6,0,0.6",""
"null","","html-keyboard-response","137","228039","0.0-137.0","39KFRKBFIOHTE35F88H27LFD9UEOYO","A3HQXCWOIQKT4F","3S829FDFT2NBOHQMM1CIOU0HZYXDXL","","","<img src=""img/flower8.png"" style=""width:200px;border:14px solid red;"">","null","","","","","",""
"1228.4000000357628","","image-keyboard-response","138","229271","0.0-138.0","39KFRKBFIOHTE35F88H27LFD9UEOYO","A3HQXCWOIQKT4F","3S829FDFT2NBOHQMM1CIOU0HZYXDXL","","","img/flower1.png","75","1231.199999988079","2","1","2","0.6,0.6,0,0,0.6,0.6,0.6,0,0.6",""
"null","","html-keyboard-response","139","229575","0.0-139.0","39KFRKBFIOHTE35F88H27LFD9UEOYO","A3HQXCWOIQKT4F","3S829FDFT2NBOHQMM1CIOU0HZYXDXL","","","<img src=""img/flower1.png"" style=""width:200px; border:14px solid green;"">","null","","","","","",""
"1022.4000000357628","","image-keyboard-response","140","230600","0.0-140.0","39KFRKBFIOHTE35F88H27LFD9UEOYO","A3HQXCWOIQKT4F","3S829FDFT2NBOHQMM1CIOU0HZYXDXL","","","img/flower1.png","75","1024.5","2","1","2","0.6,0.6,0,0,0.6,0.6,0.6,0,0.6",""
"null","","html-keyboard-response","141","230910","0.0-141.0","39KFRKBFIOHTE35F88H27LFD9UEOYO","A3HQXCWOIQKT4F","3S829FDFT2NBOHQMM1CIOU0HZYXDXL","","","<img src=""img/flower1.png"" style=""width:200px; border:14px solid green;"">","null","","","","","",""
"1417.199999988079","","image-keyboard-response","142","232331","0.0-142.0","39KFRKBFIOHTE35F88H27LFD9UEOYO","A3HQXCWOIQKT4F","3S829FDFT2NBOHQMM1CIOU0HZYXDXL","","","img/flower8.png","74","1419.699999988079","1","0","3","0.6,0.6,0,0,0.6,0.6,0.6,0,0.6",""
"null","","html-keyboard-response","143","232639","0.0-143.0","39KFRKBFIOHTE35F88H27LFD9UEOYO","A3HQXCWOIQKT4F","3S829FDFT2NBOHQMM1CIOU0HZYXDXL","","","<img src=""img/flower8.png"" style=""width:200px;border:14px solid red;"">","null","","","","","",""
"960.5","","image-keyboard-response","144","233603","0.0-144.0","39KFRKBFIOHTE35F88H27LFD9UEOYO","A3HQXCWOIQKT4F","3S829FDFT2NBOHQMM1CIOU0HZYXDXL","","","img/flower1.png","75","963.1999999880791","2","1","2","0.6,0.6,0,0,0.6,0.6,0.6,0,0.6",""
"null","","html-keyboard-response","145","233911","0.0-145.0","39KFRKBFIOHTE35F88H27LFD9UEOYO","A3HQXCWOIQKT4F","3S829FDFT2NBOHQMM1CIOU0HZYXDXL","","","<img src=""img/flower1.png"" style=""width:200px; border:14px solid green;"">","null","","","","","",""
"446.10000002384186","","image-keyboard-response","146","234361","0.0-146.0","39KFRKBFIOHTE35F88H27LFD9UEOYO","A3HQXCWOIQKT4F","3S829FDFT2NBOHQMM1CIOU0HZYXDXL","","","img/flower1.png","75","449","2","1","2","0.6,0.6,0,0,0.6,0.6,0.6,0,0.6",""
"null","","html-keyboard-response","147","234671","0.0-147.0","39KFRKBFIOHTE35F88H27LFD9UEOYO","A3HQXCWOIQKT4F","3S829FDFT2NBOHQMM1CIOU0HZYXDXL","","","<img src=""img/flower1.png"" style=""width:200px; border:14px solid green;"">","null","","","","","",""
"369.60000002384186","","image-keyboard-response","148","235044","0.0-148.0","39KFRKBFIOHTE35F88H27LFD9UEOYO","A3HQXCWOIQKT4F","3S829FDFT2NBOHQMM1CIOU0HZYXDXL","","","img/flower1.png","75","372.30000001192093","2","1","2","0.6,0.6,0,0,0.6,0.6,0.6,0,0.6",""
"null","","html-keyboard-response","149","235351","0.0-149.0","39KFRKBFIOHTE35F88H27LFD9UEOYO","A3HQXCWOIQKT4F","3S829FDFT2NBOHQMM1CIOU0HZYXDXL","","","<img src=""img/flower1.png"" style=""width:200px; border:14px solid green;"">","null","","","","","",""
"653.6000000238419","","image-keyboard-response","150","236008","0.0-150.0","39KFRKBFIOHTE35F88H27LFD9UEOYO","A3HQXCWOIQKT4F","3S829FDFT2NBOHQMM1CIOU0HZYXDXL","","","img/flower8.png","76","656.3999999761581","3","1","3","0.6,0.6,0,0,0.6,0.6,0.6,0,0.6",""
"null","","html-keyboard-response","151","236319","0.0-151.0","39KFRKBFIOHTE35F88H27LFD9UEOYO","A3HQXCWOIQKT4F","3S829FDFT2NBOHQMM1CIOU0HZYXDXL","","","<img src=""img/flower8.png"" style=""width:200px; border:14px solid green;"">","null","","","","","",""
"785.8999999761581","","image-keyboard-response","152","237108","0.0-152.0","39KFRKBFIOHTE35F88H27LFD9UEOYO","A3HQXCWOIQKT4F","3S829FDFT2NBOHQMM1CIOU0HZYXDXL","","","img/flower1.png","75","788.6000000238419","2","1","2","0.6,0.6,0,0,0.6,0.6,0.6,0,0.6",""
"null","","html-keyboard-response","153","237415","0.0-153.0","39KFRKBFIOHTE35F88H27LFD9UEOYO","A3HQXCWOIQKT4F","3S829FDFT2NBOHQMM1CIOU0HZYXDXL","","","<img src=""img/flower1.png"" style=""width:200px; border:14px solid green;"">","null","","","","","",""
"884.7999999523163","","image-keyboard-response","154","238303","0.0-154.0","39KFRKBFIOHTE35F88H27LFD9UEOYO","A3HQXCWOIQKT4F","3S829FDFT2NBOHQMM1CIOU0HZYXDXL","","","img/flower9.png","74","887.3999999761581","1","1","1","0.6,0.6,0,0,0.6,0.6,0.6,0,0.6",""
"null","","html-keyboard-response","155","238606","0.0-155.0","39KFRKBFIOHTE35F88H27LFD9UEOYO","A3HQXCWOIQKT4F","3S829FDFT2NBOHQMM1CIOU0HZYXDXL","","","<img src=""img/flower9.png"" style=""width:200px; border:14px solid green;"">","null","","","","","",""
"901.8999999761581","","image-keyboard-response","156","239511","0.0-156.0","39KFRKBFIOHTE35F88H27LFD9UEOYO","A3HQXCWOIQKT4F","3S829FDFT2NBOHQMM1CIOU0HZYXDXL","","","img/flower1.png","75","904.5","2","1","2","0.6,0.6,0,0,0.6,0.6,0.6,0,0.6",""
"null","","html-keyboard-response","157","239823","0.0-157.0","39KFRKBFIOHTE35F88H27LFD9UEOYO","A3HQXCWOIQKT4F","3S829FDFT2NBOHQMM1CIOU0HZYXDXL","","","<img src=""img/flower1.png"" style=""width:200px; border:14px solid green;"">","null","","","","","",""
"378.0999999642372","","image-keyboard-response","158","240203","0.0-158.0","39KFRKBFIOHTE35F88H27LFD9UEOYO","A3HQXCWOIQKT4F","3S829FDFT2NBOHQMM1CIOU0HZYXDXL","","","img/flower1.png","75","380.10000002384186","2","0","2","0.6,0.6,0,0,0.6,0.6,0.6,0,0.6",""
"null","","html-keyboard-response","159","240511","0.0-159.0","39KFRKBFIOHTE35F88H27LFD9UEOYO","A3HQXCWOIQKT4F","3S829FDFT2NBOHQMM1CIOU0HZYXDXL","","","<img src=""img/flower1.png"" style=""width:200px;border:14px solid red;"">","null","","","","","",""
"997.8999999761581","","image-keyboard-response","160","241512","0.0-160.0","39KFRKBFIOHTE35F88H27LFD9UEOYO","A3HQXCWOIQKT4F","3S829FDFT2NBOHQMM1CIOU0HZYXDXL","","","img/flower9.png","74","1000.7000000476837","1","1","1","0.6,0.6,0,0,0.6,0.6,0.6,0,0.6",""
"null","","html-keyboard-response","161","241823","0.0-161.0","39KFRKBFIOHTE35F88H27LFD9UEOYO","A3HQXCWOIQKT4F","3S829FDFT2NBOHQMM1CIOU0HZYXDXL","","","<img src=""img/flower9.png"" style=""width:200px; border:14px solid green;"">","null","","","","","",""
"725.9000000357628","","image-keyboard-response","162","242552","0.0-162.0","39KFRKBFIOHTE35F88H27LFD9UEOYO","A3HQXCWOIQKT4F","3S829FDFT2NBOHQMM1CIOU0HZYXDXL","","","img/flower9.png","74","728.1999999880791","1","0","1","0.6,0.6,0,0,0.6,0.6,0.6,0,0.6",""
"null","","html-keyboard-response","163","242862","0.0-163.0","39KFRKBFIOHTE35F88H27LFD9UEOYO","A3HQXCWOIQKT4F","3S829FDFT2NBOHQMM1CIOU0HZYXDXL","","","<img src=""img/flower9.png"" style=""width:200px;border:14px solid red;"">","null","","","","","",""
"502.5999999642372","","image-keyboard-response","164","243368","0.0-164.0","39KFRKBFIOHTE35F88H27LFD9UEOYO","A3HQXCWOIQKT4F","3S829FDFT2NBOHQMM1CIOU0HZYXDXL","","","img/flower9.png","74","505.19999998807907","1","0","1","0.6,0.6,0,0,0.6,0.6,0.6,0,0.6",""
"null","","html-keyboard-response","165","243678","0.0-165.0","39KFRKBFIOHTE35F88H27LFD9UEOYO","A3HQXCWOIQKT4F","3S829FDFT2NBOHQMM1CIOU0HZYXDXL","","","<img src=""img/flower9.png"" style=""width:200px;border:14px solid red;"">","null","","","","","",""
"802.9000000357628","","image-keyboard-response","166","244483","0.0-166.0","39KFRKBFIOHTE35F88H27LFD9UEOYO","A3HQXCWOIQKT4F","3S829FDFT2NBOHQMM1CIOU0HZYXDXL","","","img/flower1.png","75","804.3000000119209","2","0","2","0.6,0.6,0,0,0.6,0.6,0.6,0,0.6",""
"null","","html-keyboard-response","167","244791","0.0-167.0","39KFRKBFIOHTE35F88H27LFD9UEOYO","A3HQXCWOIQKT4F","3S829FDFT2NBOHQMM1CIOU0HZYXDXL","","","<img src=""img/flower1.png"" style=""width:200px;border:14px solid red;"">","null","","","","","",""
"787.5","","image-keyboard-response","168","245582","0.0-168.0","39KFRKBFIOHTE35F88H27LFD9UEOYO","A3HQXCWOIQKT4F","3S829FDFT2NBOHQMM1CIOU0HZYXDXL","","","img/flower8.png","76","790.3000000119209","3","0","3","0.6,0.6,0,0,0.6,0.6,0.6,0,0.6",""
"null","","html-keyboard-response","169","245887","0.0-169.0","39KFRKBFIOHTE35F88H27LFD9UEOYO","A3HQXCWOIQKT4F","3S829FDFT2NBOHQMM1CIOU0HZYXDXL","","","<img src=""img/flower8.png"" style=""width:200px;border:14px solid red;"">","null","","","","","",""
"1591.5","","image-keyboard-response","170","247482","0.0-170.0","39KFRKBFIOHTE35F88H27LFD9UEOYO","A3HQXCWOIQKT4F","3S829FDFT2NBOHQMM1CIOU0HZYXDXL","","","img/flower9.png","74","1594","1","0","1","0.6,0.6,0,0,0.6,0.6,0.6,0,0.6",""
"null","","html-keyboard-response","171","247791","0.0-171.0","39KFRKBFIOHTE35F88H27LFD9UEOYO","A3HQXCWOIQKT4F","3S829FDFT2NBOHQMM1CIOU0HZYXDXL","","","<img src=""img/flower9.png"" style=""width:200px;border:14px solid red;"">","null","","","","","",""
"519","","image-keyboard-response","172","248313","0.0-172.0","39KFRKBFIOHTE35F88H27LFD9UEOYO","A3HQXCWOIQKT4F","3S829FDFT2NBOHQMM1CIOU0HZYXDXL","","","img/flower9.png","74","521.6999999880791","1","1","1","0.6,0.6,0,0,0.6,0.6,0.6,0,0.6",""
"null","","html-keyboard-response","173","248622","0.0-173.0","39KFRKBFIOHTE35F88H27LFD9UEOYO","A3HQXCWOIQKT4F","3S829FDFT2NBOHQMM1CIOU0HZYXDXL","","","<img src=""img/flower9.png"" style=""width:200px; border:14px solid green;"">","null","","","","","",""
"1008.1000000238419","","image-keyboard-response","174","249633","0.0-174.0","39KFRKBFIOHTE35F88H27LFD9UEOYO","A3HQXCWOIQKT4F","3S829FDFT2NBOHQMM1CIOU0HZYXDXL","","","img/flower1.png","75","1010.0999999642372","2","1","2","0.6,0.6,0,0,0.6,0.6,0.6,0,0.6",""
"null","","html-keyboard-response","175","249943","0.0-175.0","39KFRKBFIOHTE35F88H27LFD9UEOYO","A3HQXCWOIQKT4F","3S829FDFT2NBOHQMM1CIOU0HZYXDXL","","","<img src=""img/flower1.png"" style=""width:200px; border:14px solid green;"">","null","","","","","",""
"794.3000000119209","","image-keyboard-response","176","250740","0.0-176.0","39KFRKBFIOHTE35F88H27LFD9UEOYO","A3HQXCWOIQKT4F","3S829FDFT2NBOHQMM1CIOU0HZYXDXL","","","img/flower8.png","76","796.8999999761581","3","1","3","0.6,0.6,0,0,0.6,0.6,0.6,0,0.6",""
"null","","html-keyboard-response","177","251047","0.0-177.0","39KFRKBFIOHTE35F88H27LFD9UEOYO","A3HQXCWOIQKT4F","3S829FDFT2NBOHQMM1CIOU0HZYXDXL","","","<img src=""img/flower8.png"" style=""width:200px; border:14px solid green;"">","null","","","","","",""
"734","","image-keyboard-response","178","251784","0.0-178.0","39KFRKBFIOHTE35F88H27LFD9UEOYO","A3HQXCWOIQKT4F","3S829FDFT2NBOHQMM1CIOU0HZYXDXL","","","img/flower9.png","74","736.8999999761581","1","1","1","0.6,0.6,0,0,0.6,0.6,0.6,0,0.6",""
"null","","html-keyboard-response","179","252095","0.0-179.0","39KFRKBFIOHTE35F88H27LFD9UEOYO","A3HQXCWOIQKT4F","3S829FDFT2NBOHQMM1CIOU0HZYXDXL","","","<img src=""img/flower9.png"" style=""width:200px; border:14px solid green;"">","null","","","","","",""
"419.30000001192093","","image-keyboard-response","180","252517","0.0-180.0","39KFRKBFIOHTE35F88H27LFD9UEOYO","A3HQXCWOIQKT4F","3S829FDFT2NBOHQMM1CIOU0HZYXDXL","","","img/flower9.png","74","421.80000001192093","1","0","1","0.6,0.6,0,0,0.6,0.6,0.6,0,0.6",""
"null","","html-keyboard-response","181","252823","0.0-181.0","39KFRKBFIOHTE35F88H27LFD9UEOYO","A3HQXCWOIQKT4F","3S829FDFT2NBOHQMM1CIOU0HZYXDXL","","","<img src=""img/flower9.png"" style=""width:200px;border:14px solid red;"">","null","","","","","",""
"479.7000000476837","","image-keyboard-response","182","253306","0.0-182.0","39KFRKBFIOHTE35F88H27LFD9UEOYO","A3HQXCWOIQKT4F","3S829FDFT2NBOHQMM1CIOU0HZYXDXL","","","img/flower9.png","74","482.69999998807907","1","1","1","0.6,0.6,0,0,0.6,0.6,0.6,0,0.6",""
"null","","html-keyboard-response","183","253614","0.0-183.0","39KFRKBFIOHTE35F88H27LFD9UEOYO","A3HQXCWOIQKT4F","3S829FDFT2NBOHQMM1CIOU0HZYXDXL","","","<img src=""img/flower9.png"" style=""width:200px; border:14px solid green;"">","null","","","","","",""
"1361","","image-keyboard-response","184","254977","0.0-184.0","39KFRKBFIOHTE35F88H27LFD9UEOYO","A3HQXCWOIQKT4F","3S829FDFT2NBOHQMM1CIOU0HZYXDXL","","","img/flower8.png","76","1362.7999999523163","3","0","3","0.6,0.6,0,0,0.6,0.6,0.6,0,0.6",""
"null","","html-keyboard-response","185","255287","0.0-185.0","39KFRKBFIOHTE35F88H27LFD9UEOYO","A3HQXCWOIQKT4F","3S829FDFT2NBOHQMM1CIOU0HZYXDXL","","","<img src=""img/flower8.png"" style=""width:200px;border:14px solid red;"">","null","","","","","",""
"380.89999997615814","","image-keyboard-response","186","255670","0.0-186.0","39KFRKBFIOHTE35F88H27LFD9UEOYO","A3HQXCWOIQKT4F","3S829FDFT2NBOHQMM1CIOU0HZYXDXL","","","img/flower8.png","76","383.10000002384186","3","1","3","0.6,0.6,0,0,0.6,0.6,0.6,0,0.6",""
"null","","html-keyboard-response","187","255974","0.0-187.0","39KFRKBFIOHTE35F88H27LFD9UEOYO","A3HQXCWOIQKT4F","3S829FDFT2NBOHQMM1CIOU0HZYXDXL","","","<img src=""img/flower8.png"" style=""width:200px; border:14px solid green;"">","null","","","","","",""
"1420.800000011921","","image-keyboard-response","188","257398","0.0-188.0","39KFRKBFIOHTE35F88H27LFD9UEOYO","A3HQXCWOIQKT4F","3S829FDFT2NBOHQMM1CIOU0HZYXDXL","","","img/flower9.png","75","1422.800000011921","2","0","1","0.6,0.6,0,0,0.6,0.6,0.6,0,0.6",""
"null","","html-keyboard-response","189","257703","0.0-189.0","39KFRKBFIOHTE35F88H27LFD9UEOYO","A3HQXCWOIQKT4F","3S829FDFT2NBOHQMM1CIOU0HZYXDXL","","","<img src=""img/flower9.png"" style=""width:200px;border:14px solid red;"">","null","","","","","",""
"488.69999998807907","","image-keyboard-response","190","258194","0.0-190.0","39KFRKBFIOHTE35F88H27LFD9UEOYO","A3HQXCWOIQKT4F","3S829FDFT2NBOHQMM1CIOU0HZYXDXL","","","img/flower9.png","74","491.39999997615814","1","0","1","0.6,0.6,0,0,0.6,0.6,0.6,0,0.6",""
"null","","html-keyboard-response","191","258502","0.0-191.0","39KFRKBFIOHTE35F88H27LFD9UEOYO","A3HQXCWOIQKT4F","3S829FDFT2NBOHQMM1CIOU0HZYXDXL","","","<img src=""img/flower9.png"" style=""width:200px;border:14px solid red;"">","null","","","","","",""
"1985.9000000357628","","image-keyboard-response","192","260491","0.0-192.0","39KFRKBFIOHTE35F88H27LFD9UEOYO","A3HQXCWOIQKT4F","3S829FDFT2NBOHQMM1CIOU0HZYXDXL","","","img/flower8.png","76","1988","3","1","3","0.6,0.6,0,0,0.6,0.6,0.6,0,0.6",""
"null","","html-keyboard-response","193","260799","0.0-193.0","39KFRKBFIOHTE35F88H27LFD9UEOYO","A3HQXCWOIQKT4F","3S829FDFT2NBOHQMM1CIOU0HZYXDXL","","","<img src=""img/flower8.png"" style=""width:200px; border:14px solid green;"">","null","","","","","",""
"832.2999999523163","","image-keyboard-response","194","261634","0.0-194.0","39KFRKBFIOHTE35F88H27LFD9UEOYO","A3HQXCWOIQKT4F","3S829FDFT2NBOHQMM1CIOU0HZYXDXL","","","img/flower9.png","74","834.6999999880791","1","1","1","0.6,0.6,0,0,0.6,0.6,0.6,0,0.6",""
"null","","html-keyboard-response","195","261943","0.0-195.0","39KFRKBFIOHTE35F88H27LFD9UEOYO","A3HQXCWOIQKT4F","3S829FDFT2NBOHQMM1CIOU0HZYXDXL","","","<img src=""img/flower9.png"" style=""width:200px; border:14px solid green;"">","null","","","","","",""
"646.5","","image-keyboard-response","196","262592","0.0-196.0","39KFRKBFIOHTE35F88H27LFD9UEOYO","A3HQXCWOIQKT4F","3S829FDFT2NBOHQMM1CIOU0HZYXDXL","","","img/flower1.png","75","648.7999999523163","2","0","2","0.6,0.6,0,0,0.6,0.6,0.6,0,0.6",""
"null","","html-keyboard-response","197","262903","0.0-197.0","39KFRKBFIOHTE35F88H27LFD9UEOYO","A3HQXCWOIQKT4F","3S829FDFT2NBOHQMM1CIOU0HZYXDXL","","","<img src=""img/flower1.png"" style=""width:200px;border:14px solid red;"">","null","","","","","",""
"345.80000001192093","","image-keyboard-response","198","263252","0.0-198.0","39KFRKBFIOHTE35F88H27LFD9UEOYO","A3HQXCWOIQKT4F","3S829FDFT2NBOHQMM1CIOU0HZYXDXL","","","img/flower1.png","75","348.2000000476837","2","1","2","0.6,0.6,0,0,0.6,0.6,0.6,0,0.6",""
"null","","html-keyboard-response","199","263558","0.0-199.0","39KFRKBFIOHTE35F88H27LFD9UEOYO","A3HQXCWOIQKT4F","3S829FDFT2NBOHQMM1CIOU0HZYXDXL","","","<img src=""img/flower1.png"" style=""width:200px; border:14px solid green;"">","null","","","","","",""
"1429.3999999761581","","image-keyboard-response","200","264991","0.0-200.0","39KFRKBFIOHTE35F88H27LFD9UEOYO","A3HQXCWOIQKT4F","3S829FDFT2NBOHQMM1CIOU0HZYXDXL","","","img/flower9.png","74","1432","1","1","1","0.6,0.6,0,0,0.6,0.6,0.6,0,0.6",""
"null","","html-keyboard-response","201","265295","0.0-201.0","39KFRKBFIOHTE35F88H27LFD9UEOYO","A3HQXCWOIQKT4F","3S829FDFT2NBOHQMM1CIOU0HZYXDXL","","","<img src=""img/flower9.png"" style=""width:200px; border:14px solid green;"">","null","","","","","",""
"1472.300000011921","","image-keyboard-response","202","266771","0.0-202.0","39KFRKBFIOHTE35F88H27LFD9UEOYO","A3HQXCWOIQKT4F","3S829FDFT2NBOHQMM1CIOU0HZYXDXL","","","img/flower8.png","76","1475.5","3","0","3","0.6,0.6,0,0,0.6,0.6,0.6,0,0.6",""
"null","","html-keyboard-response","203","267079","0.0-203.0","39KFRKBFIOHTE35F88H27LFD9UEOYO","A3HQXCWOIQKT4F","3S829FDFT2NBOHQMM1CIOU0HZYXDXL","","","<img src=""img/flower8.png"" style=""width:200px;border:14px solid red;"">","null","","","","","",""
"730.3999999761581","","image-keyboard-response","204","267813","0.0-204.0","39KFRKBFIOHTE35F88H27LFD9UEOYO","A3HQXCWOIQKT4F","3S829FDFT2NBOHQMM1CIOU0HZYXDXL","","","img/flower1.png","75","733.4000000357628","2","1","2","0.6,0.6,0,0,0.6,0.6,0.6,0,0.6",""
"null","","html-keyboard-response","205","268119","0.0-205.0","39KFRKBFIOHTE35F88H27LFD9UEOYO","A3HQXCWOIQKT4F","3S829FDFT2NBOHQMM1CIOU0HZYXDXL","","","<img src=""img/flower1.png"" style=""width:200px; border:14px solid green;"">","null","","","","","",""
"1718.300000011921","","image-keyboard-response","206","269840","0.0-206.0","39KFRKBFIOHTE35F88H27LFD9UEOYO","A3HQXCWOIQKT4F","3S829FDFT2NBOHQMM1CIOU0HZYXDXL","","","img/flower9.png","74","1721","1","1","1","0.6,0.6,0,0,0.6,0.6,0.6,0,0.6",""
"null","","html-keyboard-response","207","270151","0.0-207.0","39KFRKBFIOHTE35F88H27LFD9UEOYO","A3HQXCWOIQKT4F","3S829FDFT2NBOHQMM1CIOU0HZYXDXL","","","<img src=""img/flower9.png"" style=""width:200px; border:14px solid green;"">","null","","","","","",""
"1185.6000000238419","","image-keyboard-response","208","271340","0.0-208.0","39KFRKBFIOHTE35F88H27LFD9UEOYO","A3HQXCWOIQKT4F","3S829FDFT2NBOHQMM1CIOU0HZYXDXL","","","img/flower1.png","75","1188.1000000238419","2","0","2","0.6,0.6,0,0,0.6,0.6,0.6,0,0.6",""
"null","","html-keyboard-response","209","271647","0.0-209.0","39KFRKBFIOHTE35F88H27LFD9UEOYO","A3HQXCWOIQKT4F","3S829FDFT2NBOHQMM1CIOU0HZYXDXL","","","<img src=""img/flower1.png"" style=""width:200px;border:14px solid red;"">","null","","","","","",""
"662.3999999761581","","image-keyboard-response","210","272312","0.0-210.0","39KFRKBFIOHTE35F88H27LFD9UEOYO","A3HQXCWOIQKT4F","3S829FDFT2NBOHQMM1CIOU0HZYXDXL","","","img/flower8.png","76","664.5","3","1","3","0.6,0.6,0,0,0.6,0.6,0.6,0,0.6",""
"null","","html-keyboard-response","211","272623","0.0-211.0","39KFRKBFIOHTE35F88H27LFD9UEOYO","A3HQXCWOIQKT4F","3S829FDFT2NBOHQMM1CIOU0HZYXDXL","","","<img src=""img/flower8.png"" style=""width:200px; border:14px solid green;"">","null","","","","","",""
"908.5","","image-keyboard-response","212","273534","0.0-212.0","39KFRKBFIOHTE35F88H27LFD9UEOYO","A3HQXCWOIQKT4F","3S829FDFT2NBOHQMM1CIOU0HZYXDXL","","","img/flower1.png","75","910.5","2","1","2","0.6,0.6,0,0,0.6,0.6,0.6,0,0.6",""
"null","","html-keyboard-response","213","273838","0.0-213.0","39KFRKBFIOHTE35F88H27LFD9UEOYO","A3HQXCWOIQKT4F","3S829FDFT2NBOHQMM1CIOU0HZYXDXL","","","<img src=""img/flower1.png"" style=""width:200px; border:14px solid green;"">","null","","","","","",""
"391.69999998807907","","image-keyboard-response","214","274233","0.0-214.0","39KFRKBFIOHTE35F88H27LFD9UEOYO","A3HQXCWOIQKT4F","3S829FDFT2NBOHQMM1CIOU0HZYXDXL","","","img/flower1.png","75","394","2","1","2","0.6,0.6,0,0,0.6,0.6,0.6,0,0.6",""
"null","","html-keyboard-response","215","274543","0.0-215.0","39KFRKBFIOHTE35F88H27LFD9UEOYO","A3HQXCWOIQKT4F","3S829FDFT2NBOHQMM1CIOU0HZYXDXL","","","<img src=""img/flower1.png"" style=""width:200px; border:14px solid green;"">","null","","","","","",""
"915.6000000238419","","image-keyboard-response","216","275462","0.0-216.0","39KFRKBFIOHTE35F88H27LFD9UEOYO","A3HQXCWOIQKT4F","3S829FDFT2NBOHQMM1CIOU0HZYXDXL","","","img/flower8.png","76","918.3000000119209","3","0","3","0.6,0.6,0,0,0.6,0.6,0.6,0,0.6",""
"null","","html-keyboard-response","217","275767","0.0-217.0","39KFRKBFIOHTE35F88H27LFD9UEOYO","A3HQXCWOIQKT4F","3S829FDFT2NBOHQMM1CIOU0HZYXDXL","","","<img src=""img/flower8.png"" style=""width:200px;border:14px solid red;"">","null","","","","","",""
"632.8999999761581","","image-keyboard-response","218","276403","0.0-218.0","39KFRKBFIOHTE35F88H27LFD9UEOYO","A3HQXCWOIQKT4F","3S829FDFT2NBOHQMM1CIOU0HZYXDXL","","","img/flower9.png","74","635.7000000476837","1","0","1","0.6,0.6,0,0,0.6,0.6,0.6,0,0.6",""
"null","","html-keyboard-response","219","276710","0.0-219.0","39KFRKBFIOHTE35F88H27LFD9UEOYO","A3HQXCWOIQKT4F","3S829FDFT2NBOHQMM1CIOU0HZYXDXL","","","<img src=""img/flower9.png"" style=""width:200px;border:14px solid red;"">","null","","","","","",""
"407.5","","image-keyboard-response","220","277120","0.0-220.0","39KFRKBFIOHTE35F88H27LFD9UEOYO","A3HQXCWOIQKT4F","3S829FDFT2NBOHQMM1CIOU0HZYXDXL","","","img/flower9.png","74","409.69999998807907","1","0","1","0.6,0.6,0,0,0.6,0.6,0.6,0,0.6",""
"null","","html-keyboard-response","221","277430","0.0-221.0","39KFRKBFIOHTE35F88H27LFD9UEOYO","A3HQXCWOIQKT4F","3S829FDFT2NBOHQMM1CIOU0HZYXDXL","","","<img src=""img/flower9.png"" style=""width:200px;border:14px solid red;"">","null","","","","","",""
"771.6999999880791","","image-keyboard-response","222","278205","0.0-222.0","39KFRKBFIOHTE35F88H27LFD9UEOYO","A3HQXCWOIQKT4F","3S829FDFT2NBOHQMM1CIOU0HZYXDXL","","","img/flower1.png","75","774.5","2","0","2","0.6,0.6,0,0,0.6,0.6,0.6,0,0.6",""
"null","","html-keyboard-response","223","278511","0.0-223.0","39KFRKBFIOHTE35F88H27LFD9UEOYO","A3HQXCWOIQKT4F","3S829FDFT2NBOHQMM1CIOU0HZYXDXL","","","<img src=""img/flower1.png"" style=""width:200px;border:14px solid red;"">","null","","","","","",""
"606","","image-keyboard-response","224","279120","0.0-224.0","39KFRKBFIOHTE35F88H27LFD9UEOYO","A3HQXCWOIQKT4F","3S829FDFT2NBOHQMM1CIOU0HZYXDXL","","","img/flower8.png","76","608.6999999880791","3","1","3","0.6,0.6,0,0,0.6,0.6,0.6,0,0.6",""
"null","","html-keyboard-response","225","279431","0.0-225.0","39KFRKBFIOHTE35F88H27LFD9UEOYO","A3HQXCWOIQKT4F","3S829FDFT2NBOHQMM1CIOU0HZYXDXL","","","<img src=""img/flower8.png"" style=""width:200px; border:14px solid green;"">","null","","","","","",""
"1582.800000011921","","image-keyboard-response","226","281017","0.0-226.0","39KFRKBFIOHTE35F88H27LFD9UEOYO","A3HQXCWOIQKT4F","3S829FDFT2NBOHQMM1CIOU0HZYXDXL","","","img/flower9.png","74","1585.6000000238419","1","1","1","0.6,0.6,0,0,0.6,0.6,0.6,0,0.6",""
"null","","html-keyboard-response","227","281326","0.0-227.0","39KFRKBFIOHTE35F88H27LFD9UEOYO","A3HQXCWOIQKT4F","3S829FDFT2NBOHQMM1CIOU0HZYXDXL","","","<img src=""img/flower9.png"" style=""width:200px; border:14px solid green;"">","null","","","","","",""
"1543.8999999761581","","image-keyboard-response","228","282874","0.0-228.0","39KFRKBFIOHTE35F88H27LFD9UEOYO","A3HQXCWOIQKT4F","3S829FDFT2NBOHQMM1CIOU0HZYXDXL","","","img/flower8.png","76","1546.5999999642372","3","0","3","0.6,0.6,0,0,0.6,0.6,0.6,0,0.6",""
"null","","html-keyboard-response","229","283183","0.0-229.0","39KFRKBFIOHTE35F88H27LFD9UEOYO","A3HQXCWOIQKT4F","3S829FDFT2NBOHQMM1CIOU0HZYXDXL","","","<img src=""img/flower8.png"" style=""width:200px;border:14px solid red;"">","null","","","","","",""
"640","","image-keyboard-response","230","283825","0.0-230.0","39KFRKBFIOHTE35F88H27LFD9UEOYO","A3HQXCWOIQKT4F","3S829FDFT2NBOHQMM1CIOU0HZYXDXL","","","img/flower1.png","75","642","2","1","2","0.6,0.6,0,0,0.6,0.6,0.6,0,0.6",""
"null","","html-keyboard-response","231","284134","0.0-231.0","39KFRKBFIOHTE35F88H27LFD9UEOYO","A3HQXCWOIQKT4F","3S829FDFT2NBOHQMM1CIOU0HZYXDXL","","","<img src=""img/flower1.png"" style=""width:200px; border:14px solid green;"">","null","","","","","",""
"956.2000000476837","","image-keyboard-response","232","285094","0.0-232.0","39KFRKBFIOHTE35F88H27LFD9UEOYO","A3HQXCWOIQKT4F","3S829FDFT2NBOHQMM1CIOU0HZYXDXL","","","img/flower8.png","76","958.7000000476837","3","1","3","0.6,0.6,0,0,0.6,0.6,0.6,0,0.6",""
"null","","html-keyboard-response","233","285398","0.0-233.0","39KFRKBFIOHTE35F88H27LFD9UEOYO","A3HQXCWOIQKT4F","3S829FDFT2NBOHQMM1CIOU0HZYXDXL","","","<img src=""img/flower8.png"" style=""width:200px; border:14px solid green;"">","null","","","","","",""
"429.5","","image-keyboard-response","234","285830","0.0-234.0","39KFRKBFIOHTE35F88H27LFD9UEOYO","A3HQXCWOIQKT4F","3S829FDFT2NBOHQMM1CIOU0HZYXDXL","","","img/flower1.png","75","432.19999998807907","2","0","2","0.6,0.6,0,0,0.6,0.6,0.6,0,0.6",""
"null","","html-keyboard-response","235","286143","0.0-235.0","39KFRKBFIOHTE35F88H27LFD9UEOYO","A3HQXCWOIQKT4F","3S829FDFT2NBOHQMM1CIOU0HZYXDXL","","","<img src=""img/flower1.png"" style=""width:200px;border:14px solid red;"">","null","","","","","",""
"699.7999999523163","","image-keyboard-response","236","286846","0.0-236.0","39KFRKBFIOHTE35F88H27LFD9UEOYO","A3HQXCWOIQKT4F","3S829FDFT2NBOHQMM1CIOU0HZYXDXL","","","img/flower8.png","76","702.5","3","1","3","0.6,0.6,0,0,0.6,0.6,0.6,0,0.6",""
"null","","html-keyboard-response","237","287150","0.0-237.0","39KFRKBFIOHTE35F88H27LFD9UEOYO","A3HQXCWOIQKT4F","3S829FDFT2NBOHQMM1CIOU0HZYXDXL","","","<img src=""img/flower8.png"" style=""width:200px; border:14px solid green;"">","null","","","","","",""
"395.5","","image-keyboard-response","238","287549","0.0-238.0","39KFRKBFIOHTE35F88H27LFD9UEOYO","A3HQXCWOIQKT4F","3S829FDFT2NBOHQMM1CIOU0HZYXDXL","","","img/flower8.png","76","398","3","1","3","0.6,0.6,0,0,0.6,0.6,0.6,0,0.6",""
"null","","html-keyboard-response","239","287854","0.0-239.0","39KFRKBFIOHTE35F88H27LFD9UEOYO","A3HQXCWOIQKT4F","3S829FDFT2NBOHQMM1CIOU0HZYXDXL","","","<img src=""img/flower8.png"" style=""width:200px; border:14px solid green;"">","null","","","","","",""
"568.6999999880791","","image-keyboard-response","240","288426","0.0-240.0","39KFRKBFIOHTE35F88H27LFD9UEOYO","A3HQXCWOIQKT4F","3S829FDFT2NBOHQMM1CIOU0HZYXDXL","","","img/flower1.png","75","571.5","2","1","2","0.6,0.6,0,0,0.6,0.6,0.6,0,0.6",""
"null","","html-keyboard-response","241","288734","0.0-241.0","39KFRKBFIOHTE35F88H27LFD9UEOYO","A3HQXCWOIQKT4F","3S829FDFT2NBOHQMM1CIOU0HZYXDXL","","","<img src=""img/flower1.png"" style=""width:200px; border:14px solid green;"">","null","","","","","",""
"557.5","","image-keyboard-response","242","289295","0.0-242.0","39KFRKBFIOHTE35F88H27LFD9UEOYO","A3HQXCWOIQKT4F","3S829FDFT2NBOHQMM1CIOU0HZYXDXL","","","img/flower8.png","76","560.1000000238419","3","1","3","0.6,0.6,0,0,0.6,0.6,0.6,0,0.6",""
"null","","html-keyboard-response","243","289598","0.0-243.0","39KFRKBFIOHTE35F88H27LFD9UEOYO","A3HQXCWOIQKT4F","3S829FDFT2NBOHQMM1CIOU0HZYXDXL","","","<img src=""img/flower8.png"" style=""width:200px; border:14px solid green;"">","null","","","","","",""
"457.10000002384186","","image-keyboard-response","244","290059","0.0-244.0","39KFRKBFIOHTE35F88H27LFD9UEOYO","A3HQXCWOIQKT4F","3S829FDFT2NBOHQMM1CIOU0HZYXDXL","","","img/flower1.png","75","459.7000000476837","2","0","2","0.6,0.6,0,0,0.6,0.6,0.6,0,0.6",""
"null","","html-keyboard-response","245","290367","0.0-245.0","39KFRKBFIOHTE35F88H27LFD9UEOYO","A3HQXCWOIQKT4F","3S829FDFT2NBOHQMM1CIOU0HZYXDXL","","","<img src=""img/flower1.png"" style=""width:200px;border:14px solid red;"">","null","","","","","",""
"940.5","","image-keyboard-response","246","291310","0.0-246.0","39KFRKBFIOHTE35F88H27LFD9UEOYO","A3HQXCWOIQKT4F","3S829FDFT2NBOHQMM1CIOU0HZYXDXL","","","img/flower8.png","76","943.1000000238419","3","1","3","0.6,0.6,0,0,0.6,0.6,0.6,0,0.6",""
"null","","html-keyboard-response","247","291614","0.0-247.0","39KFRKBFIOHTE35F88H27LFD9UEOYO","A3HQXCWOIQKT4F","3S829FDFT2NBOHQMM1CIOU0HZYXDXL","","","<img src=""img/flower8.png"" style=""width:200px; border:14px solid green;"">","null","","","","","",""
"764.5","","image-keyboard-response","248","292382","0.0-248.0","39KFRKBFIOHTE35F88H27LFD9UEOYO","A3HQXCWOIQKT4F","3S829FDFT2NBOHQMM1CIOU0HZYXDXL","","","img/flower9.png","74","767.3000000119209","1","1","1","0.6,0.6,0,0,0.6,0.6,0.6,0,0.6",""
"null","","html-keyboard-response","249","292687","0.0-249.0","39KFRKBFIOHTE35F88H27LFD9UEOYO","A3HQXCWOIQKT4F","3S829FDFT2NBOHQMM1CIOU0HZYXDXL","","","<img src=""img/flower9.png"" style=""width:200px; border:14px solid green;"">","null","","","","","",""
"1026.9000000357628","","image-keyboard-response","250","293717","0.0-250.0","39KFRKBFIOHTE35F88H27LFD9UEOYO","A3HQXCWOIQKT4F","3S829FDFT2NBOHQMM1CIOU0HZYXDXL","","","img/flower1.png","75","1029.7999999523163","2","1","2","0.6,0.6,0,0,0.6,0.6,0.6,0,0.6",""
"null","","html-keyboard-response","251","294023","0.0-251.0","39KFRKBFIOHTE35F88H27LFD9UEOYO","A3HQXCWOIQKT4F","3S829FDFT2NBOHQMM1CIOU0HZYXDXL","","","<img src=""img/flower1.png"" style=""width:200px; border:14px solid green;"">","null","","","","","",""
"345.60000002384186","","image-keyboard-response","252","294371","0.0-252.0","39KFRKBFIOHTE35F88H27LFD9UEOYO","A3HQXCWOIQKT4F","3S829FDFT2NBOHQMM1CIOU0HZYXDXL","","","img/flower1.png","75","347.5","2","0","2","0.6,0.6,0,0,0.6,0.6,0.6,0,0.6",""
"null","","html-keyboard-response","253","294679","0.0-253.0","39KFRKBFIOHTE35F88H27LFD9UEOYO","A3HQXCWOIQKT4F","3S829FDFT2NBOHQMM1CIOU0HZYXDXL","","","<img src=""img/flower1.png"" style=""width:200px;border:14px solid red;"">","null","","","","","",""
"388.69999998807907","","image-keyboard-response","254","295070","0.0-254.0","39KFRKBFIOHTE35F88H27LFD9UEOYO","A3HQXCWOIQKT4F","3S829FDFT2NBOHQMM1CIOU0HZYXDXL","","","img/flower1.png","75","391.30000001192093","2","1","2","0.6,0.6,0,0,0.6,0.6,0.6,0,0.6",""
"null","","html-keyboard-response","255","295374","0.0-255.0","39KFRKBFIOHTE35F88H27LFD9UEOYO","A3HQXCWOIQKT4F","3S829FDFT2NBOHQMM1CIOU0HZYXDXL","","","<img src=""img/flower1.png"" style=""width:200px; border:14px solid green;"">","null","","","","","",""
"957.0999999642372","","image-keyboard-response","256","296335","0.0-256.0","39KFRKBFIOHTE35F88H27LFD9UEOYO","A3HQXCWOIQKT4F","3S829FDFT2NBOHQMM1CIOU0HZYXDXL","","","img/flower9.png","74","959.8000000119209","1","1","1","0.6,0.6,0,0,0.6,0.6,0.6,0,0.6",""
"null","","html-keyboard-response","257","296647","0.0-257.0","39KFRKBFIOHTE35F88H27LFD9UEOYO","A3HQXCWOIQKT4F","3S829FDFT2NBOHQMM1CIOU0HZYXDXL","","","<img src=""img/flower9.png"" style=""width:200px; border:14px solid green;"">","null","","","","","",""
"343.19999998807907","","image-keyboard-response","258","296993","0.0-258.0","39KFRKBFIOHTE35F88H27LFD9UEOYO","A3HQXCWOIQKT4F","3S829FDFT2NBOHQMM1CIOU0HZYXDXL","","","img/flower9.png","74","346","1","1","1","0.6,0.6,0,0,0.6,0.6,0.6,0,0.6",""
"null","","html-keyboard-response","259","297303","0.0-259.0","39KFRKBFIOHTE35F88H27LFD9UEOYO","A3HQXCWOIQKT4F","3S829FDFT2NBOHQMM1CIOU0HZYXDXL","","","<img src=""img/flower9.png"" style=""width:200px; border:14px solid green;"">","null","","","","","",""
"1543.0999999642372","","image-keyboard-response","260","298848","0.0-260.0","39KFRKBFIOHTE35F88H27LFD9UEOYO","A3HQXCWOIQKT4F","3S829FDFT2NBOHQMM1CIOU0HZYXDXL","","","img/flower1.png","75","1544.9000000357628","2","1","2","0.6,0.6,0,0,0.6,0.6,0.6,0,0.6",""
"null","","html-keyboard-response","261","299158","0.0-261.0","39KFRKBFIOHTE35F88H27LFD9UEOYO","A3HQXCWOIQKT4F","3S829FDFT2NBOHQMM1CIOU0HZYXDXL","","","<img src=""img/flower1.png"" style=""width:200px; border:14px solid green;"">","null","","","","","",""
"735.6999999880791","","image-keyboard-response","262","299897","0.0-262.0","39KFRKBFIOHTE35F88H27LFD9UEOYO","A3HQXCWOIQKT4F","3S829FDFT2NBOHQMM1CIOU0HZYXDXL","","","img/flower8.png","76","737.8999999761581","3","1","3","0.6,0.6,0,0,0.6,0.6,0.6,0,0.6",""
"null","","html-keyboard-response","263","300207","0.0-263.0","39KFRKBFIOHTE35F88H27LFD9UEOYO","A3HQXCWOIQKT4F","3S829FDFT2NBOHQMM1CIOU0HZYXDXL","","","<img src=""img/flower8.png"" style=""width:200px; border:14px solid green;"">","null","","","","","",""
"1257.199999988079","","image-keyboard-response","264","301467","0.0-264.0","39KFRKBFIOHTE35F88H27LFD9UEOYO","A3HQXCWOIQKT4F","3S829FDFT2NBOHQMM1CIOU0HZYXDXL","","","img/flower1.png","75","1260","2","1","2","0.6,0.6,0,0,0.6,0.6,0.6,0,0.6",""
"null","","html-keyboard-response","265","301775","0.0-265.0","39KFRKBFIOHTE35F88H27LFD9UEOYO","A3HQXCWOIQKT4F","3S829FDFT2NBOHQMM1CIOU0HZYXDXL","","","<img src=""img/flower1.png"" style=""width:200px; border:14px solid green;"">","null","","","","","",""
"1300.9000000357628","","image-keyboard-response","266","303079","0.0-266.0","39KFRKBFIOHTE35F88H27LFD9UEOYO","A3HQXCWOIQKT4F","3S829FDFT2NBOHQMM1CIOU0HZYXDXL","","","img/flower9.png","74","1303.7999999523163","1","1","1","0.6,0.6,0,0,0.6,0.6,0.6,0,0.6",""
"null","","html-keyboard-response","267","303390","0.0-267.0","39KFRKBFIOHTE35F88H27LFD9UEOYO","A3HQXCWOIQKT4F","3S829FDFT2NBOHQMM1CIOU0HZYXDXL","","","<img src=""img/flower9.png"" style=""width:200px; border:14px solid green;"">","null","","","","","",""
"1202.0999999642372","","image-keyboard-response","268","304595","0.0-268.0","39KFRKBFIOHTE35F88H27LFD9UEOYO","A3HQXCWOIQKT4F","3S829FDFT2NBOHQMM1CIOU0HZYXDXL","","","img/flower8.png","76","1203.8999999761581","3","1","3","0.6,0.6,0,0,0.6,0.6,0.6,0,0.6",""
"null","","html-keyboard-response","269","304903","0.0-269.0","39KFRKBFIOHTE35F88H27LFD9UEOYO","A3HQXCWOIQKT4F","3S829FDFT2NBOHQMM1CIOU0HZYXDXL","","","<img src=""img/flower8.png"" style=""width:200px; border:14px solid green;"">","null","","","","","",""
"334.4000000357628","","image-keyboard-response","270","305240","0.0-270.0","39KFRKBFIOHTE35F88H27LFD9UEOYO","A3HQXCWOIQKT4F","3S829FDFT2NBOHQMM1CIOU0HZYXDXL","","","img/flower8.png","76","336.30000001192093","3","1","3","0.6,0.6,0,0,0.6,0.6,0.6,0,0.6",""
"null","","html-keyboard-response","271","305551","0.0-271.0","39KFRKBFIOHTE35F88H27LFD9UEOYO","A3HQXCWOIQKT4F","3S829FDFT2NBOHQMM1CIOU0HZYXDXL","","","<img src=""img/flower8.png"" style=""width:200px; border:14px solid green;"">","null","","","","","",""
"1601.5","","image-keyboard-response","272","307155","0.0-272.0","39KFRKBFIOHTE35F88H27LFD9UEOYO","A3HQXCWOIQKT4F","3S829FDFT2NBOHQMM1CIOU0HZYXDXL","","","img/flower1.png","75","1604.0999999642372","2","1","2","0.6,0.6,0,0,0.6,0.6,0.6,0,0.6",""
"null","","html-keyboard-response","273","307463","0.0-273.0","39KFRKBFIOHTE35F88H27LFD9UEOYO","A3HQXCWOIQKT4F","3S829FDFT2NBOHQMM1CIOU0HZYXDXL","","","<img src=""img/flower1.png"" style=""width:200px; border:14px solid green;"">","null","","","","","",""
"622.8000000119209","","image-keyboard-response","274","308089","0.0-274.0","39KFRKBFIOHTE35F88H27LFD9UEOYO","A3HQXCWOIQKT4F","3S829FDFT2NBOHQMM1CIOU0HZYXDXL","","","img/flower9.png","74","625.6999999880791","1","1","1","0.6,0.6,0,0,0.6,0.6,0.6,0,0.6",""
"null","","html-keyboard-response","275","308399","0.0-275.0","39KFRKBFIOHTE35F88H27LFD9UEOYO","A3HQXCWOIQKT4F","3S829FDFT2NBOHQMM1CIOU0HZYXDXL","","","<img src=""img/flower9.png"" style=""width:200px; border:14px solid green;"">","null","","","","","",""
"870.9000000357628","","image-keyboard-response","276","309273","0.0-276.0","39KFRKBFIOHTE35F88H27LFD9UEOYO","A3HQXCWOIQKT4F","3S829FDFT2NBOHQMM1CIOU0HZYXDXL","","","img/flower8.png","76","873.5999999642372","3","0","3","0.6,0.6,0,0,0.6,0.6,0.6,0,0.6",""
"null","","html-keyboard-response","277","309582","0.0-277.0","39KFRKBFIOHTE35F88H27LFD9UEOYO","A3HQXCWOIQKT4F","3S829FDFT2NBOHQMM1CIOU0HZYXDXL","","","<img src=""img/flower8.png"" style=""width:200px;border:14px solid red;"">","null","","","","","",""
"1823.800000011921","","image-keyboard-response","278","311409","0.0-278.0","39KFRKBFIOHTE35F88H27LFD9UEOYO","A3HQXCWOIQKT4F","3S829FDFT2NBOHQMM1CIOU0HZYXDXL","","","img/flower9.png","74","1826.6000000238419","1","1","1","0.6,0.6,0,0,0.6,0.6,0.6,0,0.6",""
"null","","html-keyboard-response","279","311719","0.0-279.0","39KFRKBFIOHTE35F88H27LFD9UEOYO","A3HQXCWOIQKT4F","3S829FDFT2NBOHQMM1CIOU0HZYXDXL","","","<img src=""img/flower9.png"" style=""width:200px; border:14px solid green;"">","null","","","","","",""
"1738.5","","image-keyboard-response","280","313461","0.0-280.0","39KFRKBFIOHTE35F88H27LFD9UEOYO","A3HQXCWOIQKT4F","3S829FDFT2NBOHQMM1CIOU0HZYXDXL","","","img/flower8.png","76","1741.300000011921","3","0","3","0.6,0.6,0,0,0.6,0.6,0.6,0,0.6",""
"null","","html-keyboard-response","281","313767","0.0-281.0","39KFRKBFIOHTE35F88H27LFD9UEOYO","A3HQXCWOIQKT4F","3S829FDFT2NBOHQMM1CIOU0HZYXDXL","","","<img src=""img/flower8.png"" style=""width:200px;border:14px solid red;"">","null","","","","","",""
"761.7999999523163","","image-keyboard-response","282","314532","0.0-282.0","39KFRKBFIOHTE35F88H27LFD9UEOYO","A3HQXCWOIQKT4F","3S829FDFT2NBOHQMM1CIOU0HZYXDXL","","","img/flower9.png","74","764.5","1","1","1","0.6,0.6,0,0,0.6,0.6,0.6,0,0.6",""
"null","","html-keyboard-response","283","314839","0.0-283.0","39KFRKBFIOHTE35F88H27LFD9UEOYO","A3HQXCWOIQKT4F","3S829FDFT2NBOHQMM1CIOU0HZYXDXL","","","<img src=""img/flower9.png"" style=""width:200px; border:14px solid green;"">","null","","","","","",""
"382.5999999642372","","image-keyboard-response","284","315225","0.0-284.0","39KFRKBFIOHTE35F88H27LFD9UEOYO","A3HQXCWOIQKT4F","3S829FDFT2NBOHQMM1CIOU0HZYXDXL","","","img/flower9.png","74","385","1","0","1","0.6,0.6,0,0,0.6,0.6,0.6,0,0.6",""
"null","","html-keyboard-response","285","315534","0.0-285.0","39KFRKBFIOHTE35F88H27LFD9UEOYO","A3HQXCWOIQKT4F","3S829FDFT2NBOHQMM1CIOU0HZYXDXL","","","<img src=""img/flower9.png"" style=""width:200px;border:14px solid red;"">","null","","","","","",""
"1118","","image-keyboard-response","286","316656","0.0-286.0","39KFRKBFIOHTE35F88H27LFD9UEOYO","A3HQXCWOIQKT4F","3S829FDFT2NBOHQMM1CIOU0HZYXDXL","","","img/flower8.png","76","1120.9000000357628","3","1","3","0.6,0.6,0,0,0.6,0.6,0.6,0,0.6",""
"null","","html-keyboard-response","287","316966","0.0-287.0","39KFRKBFIOHTE35F88H27LFD9UEOYO","A3HQXCWOIQKT4F","3S829FDFT2NBOHQMM1CIOU0HZYXDXL","","","<img src=""img/flower8.png"" style=""width:200px; border:14px solid green;"">","null","","","","","",""
"692.7999999523163","","image-keyboard-response","288","317663","0.0-288.0","39KFRKBFIOHTE35F88H27LFD9UEOYO","A3HQXCWOIQKT4F","3S829FDFT2NBOHQMM1CIOU0HZYXDXL","","","img/flower1.png","75","696.3000000119209","2","1","2","0.6,0.6,0,0,0.6,0.6,0.6,0,0.6",""
"null","","html-keyboard-response","289","317974","0.0-289.0","39KFRKBFIOHTE35F88H27LFD9UEOYO","A3HQXCWOIQKT4F","3S829FDFT2NBOHQMM1CIOU0HZYXDXL","","","<img src=""img/flower1.png"" style=""width:200px; border:14px solid green;"">","null","","","","","",""
"349.69999998807907","","image-keyboard-response","290","318327","0.0-290.0","39KFRKBFIOHTE35F88H27LFD9UEOYO","A3HQXCWOIQKT4F","3S829FDFT2NBOHQMM1CIOU0HZYXDXL","","","img/flower1.png","75","352.39999997615814","2","0","2","0.6,0.6,0,0,0.6,0.6,0.6,0,0.6",""
"null","","html-keyboard-response","291","318638","0.0-291.0","39KFRKBFIOHTE35F88H27LFD9UEOYO","A3HQXCWOIQKT4F","3S829FDFT2NBOHQMM1CIOU0HZYXDXL","","","<img src=""img/flower1.png"" style=""width:200px;border:14px solid red;"">","null","","","","","",""
"642.6000000238419","","image-keyboard-response","292","319284","0.0-292.0","39KFRKBFIOHTE35F88H27LFD9UEOYO","A3HQXCWOIQKT4F","3S829FDFT2NBOHQMM1CIOU0HZYXDXL","","","img/flower8.png","76","645.1999999880791","3","1","3","0.6,0.6,0,0,0.6,0.6,0.6,0,0.6",""
"null","","html-keyboard-response","293","319590","0.0-293.0","39KFRKBFIOHTE35F88H27LFD9UEOYO","A3HQXCWOIQKT4F","3S829FDFT2NBOHQMM1CIOU0HZYXDXL","","","<img src=""img/flower8.png"" style=""width:200px; border:14px solid green;"">","null","","","","","",""
"537.1999999880791","","image-keyboard-response","294","320130","0.0-294.0","39KFRKBFIOHTE35F88H27LFD9UEOYO","A3HQXCWOIQKT4F","3S829FDFT2NBOHQMM1CIOU0HZYXDXL","","","img/flower8.png","76","539.5999999642372","3","1","3","0.6,0.6,0,0,0.6,0.6,0.6,0,0.6",""
"null","","html-keyboard-response","295","320438","0.0-295.0","39KFRKBFIOHTE35F88H27LFD9UEOYO","A3HQXCWOIQKT4F","3S829FDFT2NBOHQMM1CIOU0HZYXDXL","","","<img src=""img/flower8.png"" style=""width:200px; border:14px solid green;"">","null","","","","","",""
"351.5999999642372","","image-keyboard-response","296","320793","0.0-296.0","39KFRKBFIOHTE35F88H27LFD9UEOYO","A3HQXCWOIQKT4F","3S829FDFT2NBOHQMM1CIOU0HZYXDXL","","","img/flower8.png","76","354.19999998807907","3","1","3","0.6,0.6,0,0,0.6,0.6,0.6,0,0.6",""
"null","","html-keyboard-response","297","321103","0.0-297.0","39KFRKBFIOHTE35F88H27LFD9UEOYO","A3HQXCWOIQKT4F","3S829FDFT2NBOHQMM1CIOU0HZYXDXL","","","<img src=""img/flower8.png"" style=""width:200px; border:14px solid green;"">","null","","","","","",""
"615","","image-keyboard-response","298","321721","0.0-298.0","39KFRKBFIOHTE35F88H27LFD9UEOYO","A3HQXCWOIQKT4F","3S829FDFT2NBOHQMM1CIOU0HZYXDXL","","","img/flower9.png","74","617.5","1","1","1","0.6,0.6,0,0,0.6,0.6,0.6,0,0.6",""
"null","","html-keyboard-response","299","322031","0.0-299.0","39KFRKBFIOHTE35F88H27LFD9UEOYO","A3HQXCWOIQKT4F","3S829FDFT2NBOHQMM1CIOU0HZYXDXL","","","<img src=""img/flower9.png"" style=""width:200px; border:14px solid green;"">","null","","","","","",""
"641.6999999880791","","image-keyboard-response","300","322676","0.0-300.0","39KFRKBFIOHTE35F88H27LFD9UEOYO","A3HQXCWOIQKT4F","3S829FDFT2NBOHQMM1CIOU0HZYXDXL","","","img/flower8.png","76","644.6999999880791","3","0","3","0.6,0.6,0,0,0.6,0.6,0.6,0,0.6",""
"null","","html-keyboard-response","301","322982","0.0-301.0","39KFRKBFIOHTE35F88H27LFD9UEOYO","A3HQXCWOIQKT4F","3S829FDFT2NBOHQMM1CIOU0HZYXDXL","","","<img src=""img/flower8.png"" style=""width:200px;border:14px solid red;"">","null","","","","","",""
"460.7999999523163","","image-keyboard-response","302","323446","0.0-302.0","39KFRKBFIOHTE35F88H27LFD9UEOYO","A3HQXCWOIQKT4F","3S829FDFT2NBOHQMM1CIOU0HZYXDXL","","","img/flower9.png","74","463.39999997615814","1","1","1","0.6,0.6,0,0,0.6,0.6,0.6,0,0.6",""
"null","","html-keyboard-response","303","323751","0.0-303.0","39KFRKBFIOHTE35F88H27LFD9UEOYO","A3HQXCWOIQKT4F","3S829FDFT2NBOHQMM1CIOU0HZYXDXL","","","<img src=""img/flower9.png"" style=""width:200px; border:14px solid green;"">","null","","","","","",""
"718.9000000357628","","image-keyboard-response","304","324473","0.0-304.0","39KFRKBFIOHTE35F88H27LFD9UEOYO","A3HQXCWOIQKT4F","3S829FDFT2NBOHQMM1CIOU0HZYXDXL","","","img/flower8.png","76","721.7999999523163","3","1","3","0.6,0.6,0,0,0.6,0.6,0.6,0,0.6",""
"null","","html-keyboard-response","305","324782","0.0-305.0","39KFRKBFIOHTE35F88H27LFD9UEOYO","A3HQXCWOIQKT4F","3S829FDFT2NBOHQMM1CIOU0HZYXDXL","","","<img src=""img/flower8.png"" style=""width:200px; border:14px solid green;"">","null","","","","","",""
"","","html-keyboard-response","306","327848","0.0-306.0","39KFRKBFIOHTE35F88H27LFD9UEOYO","A3HQXCWOIQKT4F","3S829FDFT2NBOHQMM1CIOU0HZYXDXL","","","","","","","","","",""
"839.8000000119209","","image-keyboard-response","307","328691","0.0-307.0","39KFRKBFIOHTE35F88H27LFD9UEOYO","A3HQXCWOIQKT4F","3S829FDFT2NBOHQMM1CIOU0HZYXDXL","","","img/flower3.png","74","842.1999999880791","1","1","1","0.8,0.8,0.2,0.2,0.8,0.8,0.8,0.2,0.8",""
"null","","html-keyboard-response","308","328999","0.0-308.0","39KFRKBFIOHTE35F88H27LFD9UEOYO","A3HQXCWOIQKT4F","3S829FDFT2NBOHQMM1CIOU0HZYXDXL","","","<img src=""img/flower3.png"" style=""width:200px; border:14px solid green;"">","null","","","","","",""
"1484.800000011921","","image-keyboard-response","309","330486","0.0-309.0","39KFRKBFIOHTE35F88H27LFD9UEOYO","A3HQXCWOIQKT4F","3S829FDFT2NBOHQMM1CIOU0HZYXDXL","","","img/flower4.png","75","1486.7999999523163","2","0","3","0.8,0.8,0.2,0.2,0.8,0.8,0.8,0.2,0.8",""
"null","","html-keyboard-response","310","330790","0.0-310.0","39KFRKBFIOHTE35F88H27LFD9UEOYO","A3HQXCWOIQKT4F","3S829FDFT2NBOHQMM1CIOU0HZYXDXL","","","<img src=""img/flower4.png"" style=""width:200px;border:14px solid red;"">","null","","","","","",""
"1403.9000000357628","","image-keyboard-response","311","332197","0.0-311.0","39KFRKBFIOHTE35F88H27LFD9UEOYO","A3HQXCWOIQKT4F","3S829FDFT2NBOHQMM1CIOU0HZYXDXL","","","img/flower6.png","75","1406.3999999761581","2","1","2","0.8,0.8,0.2,0.2,0.8,0.8,0.8,0.2,0.8",""
"null","","html-keyboard-response","312","332503","0.0-312.0","39KFRKBFIOHTE35F88H27LFD9UEOYO","A3HQXCWOIQKT4F","3S829FDFT2NBOHQMM1CIOU0HZYXDXL","","","<img src=""img/flower6.png"" style=""width:200px; border:14px solid green;"">","null","","","","","",""
"706.8000000119209","","image-keyboard-response","313","333213","0.0-313.0","39KFRKBFIOHTE35F88H27LFD9UEOYO","A3HQXCWOIQKT4F","3S829FDFT2NBOHQMM1CIOU0HZYXDXL","","","img/flower6.png","75","709.9000000357628","2","1","2","0.8,0.8,0.2,0.2,0.8,0.8,0.8,0.2,0.8",""
"null","","html-keyboard-response","314","333518","0.0-314.0","39KFRKBFIOHTE35F88H27LFD9UEOYO","A3HQXCWOIQKT4F","3S829FDFT2NBOHQMM1CIOU0HZYXDXL","","","<img src=""img/flower6.png"" style=""width:200px; border:14px solid green;"">","null","","","","","",""
"555.4000000357628","","image-keyboard-response","315","334077","0.0-315.0","39KFRKBFIOHTE35F88H27LFD9UEOYO","A3HQXCWOIQKT4F","3S829FDFT2NBOHQMM1CIOU0HZYXDXL","","","img/flower3.png","74","558.3999999761581","1","1","1","0.8,0.8,0.2,0.2,0.8,0.8,0.8,0.2,0.8",""
"null","","html-keyboard-response","316","334382","0.0-316.0","39KFRKBFIOHTE35F88H27LFD9UEOYO","A3HQXCWOIQKT4F","3S829FDFT2NBOHQMM1CIOU0HZYXDXL","","","<img src=""img/flower3.png"" style=""width:200px; border:14px solid green;"">","null","","","","","",""
"479.30000001192093","","image-keyboard-response","317","334865","0.0-317.0","39KFRKBFIOHTE35F88H27LFD9UEOYO","A3HQXCWOIQKT4F","3S829FDFT2NBOHQMM1CIOU0HZYXDXL","","","img/flower3.png","74","482.10000002384186","1","1","1","0.8,0.8,0.2,0.2,0.8,0.8,0.8,0.2,0.8",""
"null","","html-keyboard-response","318","335174","0.0-318.0","39KFRKBFIOHTE35F88H27LFD9UEOYO","A3HQXCWOIQKT4F","3S829FDFT2NBOHQMM1CIOU0HZYXDXL","","","<img src=""img/flower3.png"" style=""width:200px; border:14px solid green;"">","null","","","","","",""
"831.3000000119209","","image-keyboard-response","319","336009","0.0-319.0","39KFRKBFIOHTE35F88H27LFD9UEOYO","A3HQXCWOIQKT4F","3S829FDFT2NBOHQMM1CIOU0HZYXDXL","","","img/flower4.png","76","834.6000000238419","3","1","3","0.8,0.8,0.2,0.2,0.8,0.8,0.8,0.2,0.8",""
"null","","html-keyboard-response","320","336319","0.0-320.0","39KFRKBFIOHTE35F88H27LFD9UEOYO","A3HQXCWOIQKT4F","3S829FDFT2NBOHQMM1CIOU0HZYXDXL","","","<img src=""img/flower4.png"" style=""width:200px; border:14px solid green;"">","null","","","","","",""
"330.9000000357628","","image-keyboard-response","321","336653","0.0-321.0","39KFRKBFIOHTE35F88H27LFD9UEOYO","A3HQXCWOIQKT4F","3S829FDFT2NBOHQMM1CIOU0HZYXDXL","","","img/flower4.png","76","333.5","3","1","3","0.8,0.8,0.2,0.2,0.8,0.8,0.8,0.2,0.8",""
"null","","html-keyboard-response","322","336958","0.0-322.0","39KFRKBFIOHTE35F88H27LFD9UEOYO","A3HQXCWOIQKT4F","3S829FDFT2NBOHQMM1CIOU0HZYXDXL","","","<img src=""img/flower4.png"" style=""width:200px; border:14px solid green;"">","null","","","","","",""
"1068.199999988079","","image-keyboard-response","323","338030","0.0-323.0","39KFRKBFIOHTE35F88H27LFD9UEOYO","A3HQXCWOIQKT4F","3S829FDFT2NBOHQMM1CIOU0HZYXDXL","","","img/flower6.png","75","1071.2000000476837","2","1","2","0.8,0.8,0.2,0.2,0.8,0.8,0.8,0.2,0.8",""
"null","","html-keyboard-response","324","338342","0.0-324.0","39KFRKBFIOHTE35F88H27LFD9UEOYO","A3HQXCWOIQKT4F","3S829FDFT2NBOHQMM1CIOU0HZYXDXL","","","<img src=""img/flower6.png"" style=""width:200px; border:14px solid green;"">","null","","","","","",""
"621","","image-keyboard-response","325","338966","0.0-325.0","39KFRKBFIOHTE35F88H27LFD9UEOYO","A3HQXCWOIQKT4F","3S829FDFT2NBOHQMM1CIOU0HZYXDXL","","","img/flower3.png","74","623.1999999880791","1","1","1","0.8,0.8,0.2,0.2,0.8,0.8,0.8,0.2,0.8",""
"null","","html-keyboard-response","326","339271","0.0-326.0","39KFRKBFIOHTE35F88H27LFD9UEOYO","A3HQXCWOIQKT4F","3S829FDFT2NBOHQMM1CIOU0HZYXDXL","","","<img src=""img/flower3.png"" style=""width:200px; border:14px solid green;"">","null","","","","","",""
"644.8000000119209","","image-keyboard-response","327","339919","0.0-327.0","39KFRKBFIOHTE35F88H27LFD9UEOYO","A3HQXCWOIQKT4F","3S829FDFT2NBOHQMM1CIOU0HZYXDXL","","","img/flower6.png","75","647.9000000357628","2","1","2","0.8,0.8,0.2,0.2,0.8,0.8,0.8,0.2,0.8",""
"null","","html-keyboard-response","328","340231","0.0-328.0","39KFRKBFIOHTE35F88H27LFD9UEOYO","A3HQXCWOIQKT4F","3S829FDFT2NBOHQMM1CIOU0HZYXDXL","","","<img src=""img/flower6.png"" style=""width:200px; border:14px solid green;"">","null","","","","","",""
"497.30000001192093","","image-keyboard-response","329","340731","0.0-329.0","39KFRKBFIOHTE35F88H27LFD9UEOYO","A3HQXCWOIQKT4F","3S829FDFT2NBOHQMM1CIOU0HZYXDXL","","","img/flower3.png","74","500","1","1","1","0.8,0.8,0.2,0.2,0.8,0.8,0.8,0.2,0.8",""
"null","","html-keyboard-response","330","341038","0.0-330.0","39KFRKBFIOHTE35F88H27LFD9UEOYO","A3HQXCWOIQKT4F","3S829FDFT2NBOHQMM1CIOU0HZYXDXL","","","<img src=""img/flower3.png"" style=""width:200px; border:14px solid green;"">","null","","","","","",""
"567.5","","image-keyboard-response","331","341609","0.0-331.0","39KFRKBFIOHTE35F88H27LFD9UEOYO","A3HQXCWOIQKT4F","3S829FDFT2NBOHQMM1CIOU0HZYXDXL","","","img/flower6.png","75","570.3999999761581","2","1","2","0.8,0.8,0.2,0.2,0.8,0.8,0.8,0.2,0.8",""
"null","","html-keyboard-response","332","341918","0.0-332.0","39KFRKBFIOHTE35F88H27LFD9UEOYO","A3HQXCWOIQKT4F","3S829FDFT2NBOHQMM1CIOU0HZYXDXL","","","<img src=""img/flower6.png"" style=""width:200px; border:14px solid green;"">","null","","","","","",""
"362.9000000357628","","image-keyboard-response","333","342284","0.0-333.0","39KFRKBFIOHTE35F88H27LFD9UEOYO","A3HQXCWOIQKT4F","3S829FDFT2NBOHQMM1CIOU0HZYXDXL","","","img/flower6.png","75","365.69999998807907","2","1","2","0.8,0.8,0.2,0.2,0.8,0.8,0.8,0.2,0.8",""
"null","","html-keyboard-response","334","342591","0.0-334.0","39KFRKBFIOHTE35F88H27LFD9UEOYO","A3HQXCWOIQKT4F","3S829FDFT2NBOHQMM1CIOU0HZYXDXL","","","<img src=""img/flower6.png"" style=""width:200px; border:14px solid green;"">","null","","","","","",""
"530","","image-keyboard-response","335","343124","0.0-335.0","39KFRKBFIOHTE35F88H27LFD9UEOYO","A3HQXCWOIQKT4F","3S829FDFT2NBOHQMM1CIOU0HZYXDXL","","","img/flower3.png","74","532.6000000238419","1","1","1","0.8,0.8,0.2,0.2,0.8,0.8,0.8,0.2,0.8",""
"null","","html-keyboard-response","336","343431","0.0-336.0","39KFRKBFIOHTE35F88H27LFD9UEOYO","A3HQXCWOIQKT4F","3S829FDFT2NBOHQMM1CIOU0HZYXDXL","","","<img src=""img/flower3.png"" style=""width:200px; border:14px solid green;"">","null","","","","","",""
"768.0999999642372","","image-keyboard-response","337","344201","0.0-337.0","39KFRKBFIOHTE35F88H27LFD9UEOYO","A3HQXCWOIQKT4F","3S829FDFT2NBOHQMM1CIOU0HZYXDXL","","","img/flower4.png","76","770.3000000119209","3","1","3","0.8,0.8,0.2,0.2,0.8,0.8,0.8,0.2,0.8",""
"null","","html-keyboard-response","338","344511","0.0-338.0","39KFRKBFIOHTE35F88H27LFD9UEOYO","A3HQXCWOIQKT4F","3S829FDFT2NBOHQMM1CIOU0HZYXDXL","","","<img src=""img/flower4.png"" style=""width:200px; border:14px solid green;"">","null","","","","","",""
"794.6999999880791","","image-keyboard-response","339","345309","0.0-339.0","39KFRKBFIOHTE35F88H27LFD9UEOYO","A3HQXCWOIQKT4F","3S829FDFT2NBOHQMM1CIOU0HZYXDXL","","","img/flower3.png","74","797.3999999761581","1","1","1","0.8,0.8,0.2,0.2,0.8,0.8,0.8,0.2,0.8",""
"null","","html-keyboard-response","340","345614","0.0-340.0","39KFRKBFIOHTE35F88H27LFD9UEOYO","A3HQXCWOIQKT4F","3S829FDFT2NBOHQMM1CIOU0HZYXDXL","","","<img src=""img/flower3.png"" style=""width:200px; border:14px solid green;"">","null","","","","","",""
"720.4000000357628","","image-keyboard-response","341","346338","0.0-341.0","39KFRKBFIOHTE35F88H27LFD9UEOYO","A3HQXCWOIQKT4F","3S829FDFT2NBOHQMM1CIOU0HZYXDXL","","","img/flower4.png","76","723.0999999642372","3","0","3","0.8,0.8,0.2,0.2,0.8,0.8,0.8,0.2,0.8",""
"null","","html-keyboard-response","342","346647","0.0-342.0","39KFRKBFIOHTE35F88H27LFD9UEOYO","A3HQXCWOIQKT4F","3S829FDFT2NBOHQMM1CIOU0HZYXDXL","","","<img src=""img/flower4.png"" style=""width:200px;border:14px solid red;"">","null","","","","","",""
"869.8000000119209","","image-keyboard-response","343","347520","0.0-343.0","39KFRKBFIOHTE35F88H27LFD9UEOYO","A3HQXCWOIQKT4F","3S829FDFT2NBOHQMM1CIOU0HZYXDXL","","","img/flower6.png","75","872.6999999880791","2","0","2","0.8,0.8,0.2,0.2,0.8,0.8,0.8,0.2,0.8",""
"null","","html-keyboard-response","344","347831","0.0-344.0","39KFRKBFIOHTE35F88H27LFD9UEOYO","A3HQXCWOIQKT4F","3S829FDFT2NBOHQMM1CIOU0HZYXDXL","","","<img src=""img/flower6.png"" style=""width:200px;border:14px solid red;"">","null","","","","","",""
"1402.6000000238419","","image-keyboard-response","345","349236","0.0-345.0","39KFRKBFIOHTE35F88H27LFD9UEOYO","A3HQXCWOIQKT4F","3S829FDFT2NBOHQMM1CIOU0HZYXDXL","","","img/flower4.png","76","1404.800000011921","3","1","3","0.8,0.8,0.2,0.2,0.8,0.8,0.8,0.2,0.8",""
"null","","html-keyboard-response","346","349543","0.0-346.0","39KFRKBFIOHTE35F88H27LFD9UEOYO","A3HQXCWOIQKT4F","3S829FDFT2NBOHQMM1CIOU0HZYXDXL","","","<img src=""img/flower4.png"" style=""width:200px; border:14px solid green;"">","null","","","","","",""
"603.8999999761581","","image-keyboard-response","347","350150","0.0-347.0","39KFRKBFIOHTE35F88H27LFD9UEOYO","A3HQXCWOIQKT4F","3S829FDFT2NBOHQMM1CIOU0HZYXDXL","","","img/flower3.png","74","606.8999999761581","1","0","1","0.8,0.8,0.2,0.2,0.8,0.8,0.8,0.2,0.8",""
"null","","html-keyboard-response","348","350462","0.0-348.0","39KFRKBFIOHTE35F88H27LFD9UEOYO","A3HQXCWOIQKT4F","3S829FDFT2NBOHQMM1CIOU0HZYXDXL","","","<img src=""img/flower3.png"" style=""width:200px;border:14px solid red;"">","null","","","","","",""
"728.3000000119209","","image-keyboard-response","349","351194","0.0-349.0","39KFRKBFIOHTE35F88H27LFD9UEOYO","A3HQXCWOIQKT4F","3S829FDFT2NBOHQMM1CIOU0HZYXDXL","","","img/flower6.png","75","730.8000000119209","2","1","2","0.8,0.8,0.2,0.2,0.8,0.8,0.8,0.2,0.8",""
"null","","html-keyboard-response","350","351503","0.0-350.0","39KFRKBFIOHTE35F88H27LFD9UEOYO","A3HQXCWOIQKT4F","3S829FDFT2NBOHQMM1CIOU0HZYXDXL","","","<img src=""img/flower6.png"" style=""width:200px; border:14px solid green;"">","null","","","","","",""
"351.10000002384186","","image-keyboard-response","351","351857","0.0-351.0","39KFRKBFIOHTE35F88H27LFD9UEOYO","A3HQXCWOIQKT4F","3S829FDFT2NBOHQMM1CIOU0HZYXDXL","","","img/flower6.png","75","353.89999997615814","2","1","2","0.8,0.8,0.2,0.2,0.8,0.8,0.8,0.2,0.8",""
"null","","html-keyboard-response","352","352166","0.0-352.0","39KFRKBFIOHTE35F88H27LFD9UEOYO","A3HQXCWOIQKT4F","3S829FDFT2NBOHQMM1CIOU0HZYXDXL","","","<img src=""img/flower6.png"" style=""width:200px; border:14px solid green;"">","null","","","","","",""
"312.5","","image-keyboard-response","353","352482","0.0-353.0","39KFRKBFIOHTE35F88H27LFD9UEOYO","A3HQXCWOIQKT4F","3S829FDFT2NBOHQMM1CIOU0HZYXDXL","","","img/flower6.png","75","315.4000000357628","2","1","2","0.8,0.8,0.2,0.2,0.8,0.8,0.8,0.2,0.8",""
"null","","html-keyboard-response","354","352790","0.0-354.0","39KFRKBFIOHTE35F88H27LFD9UEOYO","A3HQXCWOIQKT4F","3S829FDFT2NBOHQMM1CIOU0HZYXDXL","","","<img src=""img/flower6.png"" style=""width:200px; border:14px solid green;"">","null","","","","","",""
"720.4000000357628","","image-keyboard-response","355","353514","0.0-355.0","39KFRKBFIOHTE35F88H27LFD9UEOYO","A3HQXCWOIQKT4F","3S829FDFT2NBOHQMM1CIOU0HZYXDXL","","","img/flower4.png","76","723.3000000119209","3","1","3","0.8,0.8,0.2,0.2,0.8,0.8,0.8,0.2,0.8",""
"null","","html-keyboard-response","356","353822","0.0-356.0","39KFRKBFIOHTE35F88H27LFD9UEOYO","A3HQXCWOIQKT4F","3S829FDFT2NBOHQMM1CIOU0HZYXDXL","","","<img src=""img/flower4.png"" style=""width:200px; border:14px solid green;"">","null","","","","","",""
"893.3999999761581","","image-keyboard-response","357","354719","0.0-357.0","39KFRKBFIOHTE35F88H27LFD9UEOYO","A3HQXCWOIQKT4F","3S829FDFT2NBOHQMM1CIOU0HZYXDXL","","","img/flower3.png","74","896.1999999880791","1","1","1","0.8,0.8,0.2,0.2,0.8,0.8,0.8,0.2,0.8",""
"null","","html-keyboard-response","358","355030","0.0-358.0","39KFRKBFIOHTE35F88H27LFD9UEOYO","A3HQXCWOIQKT4F","3S829FDFT2NBOHQMM1CIOU0HZYXDXL","","","<img src=""img/flower3.png"" style=""width:200px; border:14px solid green;"">","null","","","","","",""
"737.5999999642372","","image-keyboard-response","359","355771","0.0-359.0","39KFRKBFIOHTE35F88H27LFD9UEOYO","A3HQXCWOIQKT4F","3S829FDFT2NBOHQMM1CIOU0HZYXDXL","","","img/flower4.png","76","740.4000000357628","3","0","3","0.8,0.8,0.2,0.2,0.8,0.8,0.8,0.2,0.8",""
"null","","html-keyboard-response","360","356079","0.0-360.0","39KFRKBFIOHTE35F88H27LFD9UEOYO","A3HQXCWOIQKT4F","3S829FDFT2NBOHQMM1CIOU0HZYXDXL","","","<img src=""img/flower4.png"" style=""width:200px;border:14px solid red;"">","null","","","","","",""
"720.7000000476837","","image-keyboard-response","361","356802","0.0-361.0","39KFRKBFIOHTE35F88H27LFD9UEOYO","A3HQXCWOIQKT4F","3S829FDFT2NBOHQMM1CIOU0HZYXDXL","","","img/flower6.png","75","723.4000000357628","2","1","2","0.8,0.8,0.2,0.2,0.8,0.8,0.8,0.2,0.8",""
"null","","html-keyboard-response","362","357111","0.0-362.0","39KFRKBFIOHTE35F88H27LFD9UEOYO","A3HQXCWOIQKT4F","3S829FDFT2NBOHQMM1CIOU0HZYXDXL","","","<img src=""img/flower6.png"" style=""width:200px; border:14px solid green;"">","null","","","","","",""
"543.1000000238419","","image-keyboard-response","363","357657","0.0-363.0","39KFRKBFIOHTE35F88H27LFD9UEOYO","A3HQXCWOIQKT4F","3S829FDFT2NBOHQMM1CIOU0HZYXDXL","","","img/flower3.png","74","546.0999999642372","1","1","1","0.8,0.8,0.2,0.2,0.8,0.8,0.8,0.2,0.8",""
"null","","html-keyboard-response","364","357967","0.0-364.0","39KFRKBFIOHTE35F88H27LFD9UEOYO","A3HQXCWOIQKT4F","3S829FDFT2NBOHQMM1CIOU0HZYXDXL","","","<img src=""img/flower3.png"" style=""width:200px; border:14px solid green;"">","null","","","","","",""
"616.8999999761581","","image-keyboard-response","365","358587","0.0-365.0","39KFRKBFIOHTE35F88H27LFD9UEOYO","A3HQXCWOIQKT4F","3S829FDFT2NBOHQMM1CIOU0HZYXDXL","","","img/flower6.png","75","619.8000000119209","2","1","2","0.8,0.8,0.2,0.2,0.8,0.8,0.8,0.2,0.8",""
"null","","html-keyboard-response","366","358895","0.0-366.0","39KFRKBFIOHTE35F88H27LFD9UEOYO","A3HQXCWOIQKT4F","3S829FDFT2NBOHQMM1CIOU0HZYXDXL","","","<img src=""img/flower6.png"" style=""width:200px; border:14px solid green;"">","null","","","","","",""
"608.8999999761581","","image-keyboard-response","367","359506","0.0-367.0","39KFRKBFIOHTE35F88H27LFD9UEOYO","A3HQXCWOIQKT4F","3S829FDFT2NBOHQMM1CIOU0HZYXDXL","","","img/flower3.png","74","610.8999999761581","1","0","1","0.8,0.8,0.2,0.2,0.8,0.8,0.8,0.2,0.8",""
"null","","html-keyboard-response","368","359814","0.0-368.0","39KFRKBFIOHTE35F88H27LFD9UEOYO","A3HQXCWOIQKT4F","3S829FDFT2NBOHQMM1CIOU0HZYXDXL","","","<img src=""img/flower3.png"" style=""width:200px;border:14px solid red;"">","null","","","","","",""
"690.9000000357628","","image-keyboard-response","369","360508","0.0-369.0","39KFRKBFIOHTE35F88H27LFD9UEOYO","A3HQXCWOIQKT4F","3S829FDFT2NBOHQMM1CIOU0HZYXDXL","","","img/flower4.png","76","693.8000000119209","3","1","3","0.8,0.8,0.2,0.2,0.8,0.8,0.8,0.2,0.8",""
"null","","html-keyboard-response","370","360814","0.0-370.0","39KFRKBFIOHTE35F88H27LFD9UEOYO","A3HQXCWOIQKT4F","3S829FDFT2NBOHQMM1CIOU0HZYXDXL","","","<img src=""img/flower4.png"" style=""width:200px; border:14px solid green;"">","null","","","","","",""
"824.8999999761581","","image-keyboard-response","371","361642","0.0-371.0","39KFRKBFIOHTE35F88H27LFD9UEOYO","A3HQXCWOIQKT4F","3S829FDFT2NBOHQMM1CIOU0HZYXDXL","","","img/flower3.png","74","827.5","1","1","1","0.8,0.8,0.2,0.2,0.8,0.8,0.8,0.2,0.8",""
"null","","html-keyboard-response","372","361950","0.0-372.0","39KFRKBFIOHTE35F88H27LFD9UEOYO","A3HQXCWOIQKT4F","3S829FDFT2NBOHQMM1CIOU0HZYXDXL","","","<img src=""img/flower3.png"" style=""width:200px; border:14px solid green;"">","null","","","","","",""
"913","","image-keyboard-response","373","362866","0.0-373.0","39KFRKBFIOHTE35F88H27LFD9UEOYO","A3HQXCWOIQKT4F","3S829FDFT2NBOHQMM1CIOU0HZYXDXL","","","img/flower4.png","76","915.6999999880791","3","1","3","0.8,0.8,0.2,0.2,0.8,0.8,0.8,0.2,0.8",""
"null","","html-keyboard-response","374","363174","0.0-374.0","39KFRKBFIOHTE35F88H27LFD9UEOYO","A3HQXCWOIQKT4F","3S829FDFT2NBOHQMM1CIOU0HZYXDXL","","","<img src=""img/flower4.png"" style=""width:200px; border:14px solid green;"">","null","","","","","",""
"416.0999999642372","","image-keyboard-response","375","363593","0.0-375.0","39KFRKBFIOHTE35F88H27LFD9UEOYO","A3HQXCWOIQKT4F","3S829FDFT2NBOHQMM1CIOU0HZYXDXL","","","img/flower4.png","76","418.5","3","1","3","0.8,0.8,0.2,0.2,0.8,0.8,0.8,0.2,0.8",""
"null","","html-keyboard-response","376","363903","0.0-376.0","39KFRKBFIOHTE35F88H27LFD9UEOYO","A3HQXCWOIQKT4F","3S829FDFT2NBOHQMM1CIOU0HZYXDXL","","","<img src=""img/flower4.png"" style=""width:200px; border:14px solid green;"">","null","","","","","",""
"662.3999999761581","","image-keyboard-response","377","364569","0.0-377.0","39KFRKBFIOHTE35F88H27LFD9UEOYO","A3HQXCWOIQKT4F","3S829FDFT2NBOHQMM1CIOU0HZYXDXL","","","img/flower3.png","74","665.3999999761581","1","1","1","0.8,0.8,0.2,0.2,0.8,0.8,0.8,0.2,0.8",""
"null","","html-keyboard-response","378","364878","0.0-378.0","39KFRKBFIOHTE35F88H27LFD9UEOYO","A3HQXCWOIQKT4F","3S829FDFT2NBOHQMM1CIOU0HZYXDXL","","","<img src=""img/flower3.png"" style=""width:200px; border:14px solid green;"">","null","","","","","",""
"637.4000000357628","","image-keyboard-response","379","365519","0.0-379.0","39KFRKBFIOHTE35F88H27LFD9UEOYO","A3HQXCWOIQKT4F","3S829FDFT2NBOHQMM1CIOU0HZYXDXL","","","img/flower6.png","75","640.3000000119209","2","1","2","0.8,0.8,0.2,0.2,0.8,0.8,0.8,0.2,0.8",""
"null","","html-keyboard-response","380","365830","0.0-380.0","39KFRKBFIOHTE35F88H27LFD9UEOYO","A3HQXCWOIQKT4F","3S829FDFT2NBOHQMM1CIOU0HZYXDXL","","","<img src=""img/flower6.png"" style=""width:200px; border:14px solid green;"">","null","","","","","",""
"906.1999999880791","","image-keyboard-response","381","366739","0.0-381.0","39KFRKBFIOHTE35F88H27LFD9UEOYO","A3HQXCWOIQKT4F","3S829FDFT2NBOHQMM1CIOU0HZYXDXL","","","img/flower4.png","76","908.8999999761581","3","1","3","0.8,0.8,0.2,0.2,0.8,0.8,0.8,0.2,0.8",""
"null","","html-keyboard-response","382","367046","0.0-382.0","39KFRKBFIOHTE35F88H27LFD9UEOYO","A3HQXCWOIQKT4F","3S829FDFT2NBOHQMM1CIOU0HZYXDXL","","","<img src=""img/flower4.png"" style=""width:200px; border:14px solid green;"">","null","","","","","",""
"689","","image-keyboard-response","383","367739","0.0-383.0","39KFRKBFIOHTE35F88H27LFD9UEOYO","A3HQXCWOIQKT4F","3S829FDFT2NBOHQMM1CIOU0HZYXDXL","","","img/flower3.png","74","691.8999999761581","1","1","1","0.8,0.8,0.2,0.2,0.8,0.8,0.8,0.2,0.8",""
"null","","html-keyboard-response","384","368046","0.0-384.0","39KFRKBFIOHTE35F88H27LFD9UEOYO","A3HQXCWOIQKT4F","3S829FDFT2NBOHQMM1CIOU0HZYXDXL","","","<img src=""img/flower3.png"" style=""width:200px; border:14px solid green;"">","null","","","","","",""
"897.8000000119209","","image-keyboard-response","385","368947","0.0-385.0","39KFRKBFIOHTE35F88H27LFD9UEOYO","A3HQXCWOIQKT4F","3S829FDFT2NBOHQMM1CIOU0HZYXDXL","","","img/flower4.png","76","900.6999999880791","3","1","3","0.8,0.8,0.2,0.2,0.8,0.8,0.8,0.2,0.8",""
"null","","html-keyboard-response","386","369254","0.0-386.0","39KFRKBFIOHTE35F88H27LFD9UEOYO","A3HQXCWOIQKT4F","3S829FDFT2NBOHQMM1CIOU0HZYXDXL","","","<img src=""img/flower4.png"" style=""width:200px; border:14px solid green;"">","null","","","","","",""
"344.69999998807907","","image-keyboard-response","387","369602","0.0-387.0","39KFRKBFIOHTE35F88H27LFD9UEOYO","A3HQXCWOIQKT4F","3S829FDFT2NBOHQMM1CIOU0HZYXDXL","","","img/flower4.png","76","347.30000001192093","3","1","3","0.8,0.8,0.2,0.2,0.8,0.8,0.8,0.2,0.8",""
"null","","html-keyboard-response","388","369910","0.0-388.0","39KFRKBFIOHTE35F88H27LFD9UEOYO","A3HQXCWOIQKT4F","3S829FDFT2NBOHQMM1CIOU0HZYXDXL","","","<img src=""img/flower4.png"" style=""width:200px; border:14px solid green;"">","null","","","","","",""
"713.1000000238419","","image-keyboard-response","389","370626","0.0-389.0","39KFRKBFIOHTE35F88H27LFD9UEOYO","A3HQXCWOIQKT4F","3S829FDFT2NBOHQMM1CIOU0HZYXDXL","","","img/flower6.png","75","716.9000000357628","2","1","2","0.8,0.8,0.2,0.2,0.8,0.8,0.8,0.2,0.8",""
"null","","html-keyboard-response","390","370934","0.0-390.0","39KFRKBFIOHTE35F88H27LFD9UEOYO","A3HQXCWOIQKT4F","3S829FDFT2NBOHQMM1CIOU0HZYXDXL","","","<img src=""img/flower6.png"" style=""width:200px; border:14px solid green;"">","null","","","","","",""
"673","","image-keyboard-response","391","371611","0.0-391.0","39KFRKBFIOHTE35F88H27LFD9UEOYO","A3HQXCWOIQKT4F","3S829FDFT2NBOHQMM1CIOU0HZYXDXL","","","img/flower3.png","74","676.0999999642372","1","1","1","0.8,0.8,0.2,0.2,0.8,0.8,0.8,0.2,0.8",""
"null","","html-keyboard-response","392","371918","0.0-392.0","39KFRKBFIOHTE35F88H27LFD9UEOYO","A3HQXCWOIQKT4F","3S829FDFT2NBOHQMM1CIOU0HZYXDXL","","","<img src=""img/flower3.png"" style=""width:200px; border:14px solid green;"">","null","","","","","",""
"1250.3999999761581","","image-keyboard-response","393","373172","0.0-393.0","39KFRKBFIOHTE35F88H27LFD9UEOYO","A3HQXCWOIQKT4F","3S829FDFT2NBOHQMM1CIOU0HZYXDXL","","","img/flower4.png","76","1253.199999988079","3","1","3","0.8,0.8,0.2,0.2,0.8,0.8,0.8,0.2,0.8",""
"null","","html-keyboard-response","394","373478","0.0-394.0","39KFRKBFIOHTE35F88H27LFD9UEOYO","A3HQXCWOIQKT4F","3S829FDFT2NBOHQMM1CIOU0HZYXDXL","","","<img src=""img/flower4.png"" style=""width:200px; border:14px solid green;"">","null","","","","","",""
"1503.0999999642372","","image-keyboard-response","395","374985","0.0-395.0","39KFRKBFIOHTE35F88H27LFD9UEOYO","A3HQXCWOIQKT4F","3S829FDFT2NBOHQMM1CIOU0HZYXDXL","","","img/flower6.png","75","1506.1000000238419","2","1","2","0.8,0.8,0.2,0.2,0.8,0.8,0.8,0.2,0.8",""
"null","","html-keyboard-response","396","375294","0.0-396.0","39KFRKBFIOHTE35F88H27LFD9UEOYO","A3HQXCWOIQKT4F","3S829FDFT2NBOHQMM1CIOU0HZYXDXL","","","<img src=""img/flower6.png"" style=""width:200px; border:14px solid green;"">","null","","","","","",""
"324.5999999642372","","image-keyboard-response","397","375623","0.0-397.0","39KFRKBFIOHTE35F88H27LFD9UEOYO","A3HQXCWOIQKT4F","3S829FDFT2NBOHQMM1CIOU0HZYXDXL","","","img/flower6.png","75","327.5999999642372","2","0","2","0.8,0.8,0.2,0.2,0.8,0.8,0.8,0.2,0.8",""
"null","","html-keyboard-response","398","375934","0.0-398.0","39KFRKBFIOHTE35F88H27LFD9UEOYO","A3HQXCWOIQKT4F","3S829FDFT2NBOHQMM1CIOU0HZYXDXL","","","<img src=""img/flower6.png"" style=""width:200px;border:14px solid red;"">","null","","","","","",""
"381.19999998807907","","image-keyboard-response","399","376318","0.0-399.0","39KFRKBFIOHTE35F88H27LFD9UEOYO","A3HQXCWOIQKT4F","3S829FDFT2NBOHQMM1CIOU0HZYXDXL","","","img/flower6.png","75","383.9000000357628","2","0","2","0.8,0.8,0.2,0.2,0.8,0.8,0.8,0.2,0.8",""
"null","","html-keyboard-response","400","376622","0.0-400.0","39KFRKBFIOHTE35F88H27LFD9UEOYO","A3HQXCWOIQKT4F","3S829FDFT2NBOHQMM1CIOU0HZYXDXL","","","<img src=""img/flower6.png"" style=""width:200px;border:14px solid red;"">","null","","","","","",""
