"success","trial_type","trial_index","time_elapsed","internal_node_id","assignmentID","mturkID","hitID","view_history","rt","stimulus","key_press","reactionTime","a","r","s","cond","reward_cond","reward_cond_actual","reward_matrix_idx","responses"
"true","fullscreen","0","10144","0.0-0.0","3FK0YFF9P0270TJ749GWVE5RRJ9VVI","A3HVFSD8K94SOR","3HUR21WDDUBEMSLDIXZW1FAIHW8YX3","","","","","","","","","","","","",""
"","instructions","1","100534","0.0-1.0","3FK0YFF9P0270TJ749GWVE5RRJ9VVI","A3HVFSD8K94SOR","3HUR21WDDUBEMSLDIXZW1FAIHW8YX3","[{""page_index"":0,""viewing_time"":11205},{""page_index"":1,""viewing_time"":6281},{""page_index"":2,""viewing_time"":2162},{""page_index"":3,""viewing_time"":1975},{""page_index"":4,""viewing_time"":17370},{""page_index"":5,""viewing_time"":18635},{""page_index"":6,""viewing_time"":27695},{""page_index"":7,""viewing_time"":5065}]","90389","","","","","","","","","","",""
"","image-keyboard-response","2","101303","0.0-2.0","3FK0YFF9P0270TJ749GWVE5RRJ9VVI","A3HVFSD8K94SOR","3HUR21WDDUBEMSLDIXZW1FAIHW8YX3","","764","img/flower3.png","75","767","2","1","2","2","1,0,0,1,1,0,1,0,1","1,0,0,1,1,0,1,0,1","1",""
"","html-keyboard-response","3","101608","0.0-3.0","3FK0YFF9P0270TJ749GWVE5RRJ9VVI","A3HVFSD8K94SOR","3HUR21WDDUBEMSLDIXZW1FAIHW8YX3","","null","<img src=""img/flower3.png"" style=""width:200px; border:14px solid green;"">","null","","","","","","","","",""
"","image-keyboard-response","4","102422","0.0-4.0","3FK0YFF9P0270TJ749GWVE5RRJ9VVI","A3HVFSD8K94SOR","3HUR21WDDUBEMSLDIXZW1FAIHW8YX3","","812","img/flower1.png","75","814","2","0","1","2","1,0,0,1,1,0,1,0,1","1,0,0,1,1,0,1,0,1","1",""
"","html-keyboard-response","5","102727","0.0-5.0","3FK0YFF9P0270TJ749GWVE5RRJ9VVI","A3HVFSD8K94SOR","3HUR21WDDUBEMSLDIXZW1FAIHW8YX3","","null","<img src=""img/flower1.png"" style=""width:200px;border:14px solid red;"">","null","","","","","","","","",""
"","image-keyboard-response","6","103669","0.0-6.0","3FK0YFF9P0270TJ749GWVE5RRJ9VVI","A3HVFSD8K94SOR","3HUR21WDDUBEMSLDIXZW1FAIHW8YX3","","940","img/flower3.png","75","941","2","1","2","2","1,0,0,1,1,0,1,0,1","1,0,0,1,1,0,1,0,1","1",""
"","html-keyboard-response","7","103985","0.0-7.0","3FK0YFF9P0270TJ749GWVE5RRJ9VVI","A3HVFSD8K94SOR","3HUR21WDDUBEMSLDIXZW1FAIHW8YX3","","null","<img src=""img/flower3.png"" style=""width:200px; border:14px solid green;"">","null","","","","","","","","",""
"","image-keyboard-response","8","104748","0.0-8.0","3FK0YFF9P0270TJ749GWVE5RRJ9VVI","A3HVFSD8K94SOR","3HUR21WDDUBEMSLDIXZW1FAIHW8YX3","","762","img/flower1.png","75","764","2","0","1","2","1,0,0,1,1,0,1,0,1","1,0,0,1,1,0,1,0,1","1",""
"","html-keyboard-response","9","105071","0.0-9.0","3FK0YFF9P0270TJ749GWVE5RRJ9VVI","A3HVFSD8K94SOR","3HUR21WDDUBEMSLDIXZW1FAIHW8YX3","","null","<img src=""img/flower1.png"" style=""width:200px;border:14px solid red;"">","null","","","","","","","","",""
"","image-keyboard-response","10","106253","0.0-10.0","3FK0YFF9P0270TJ749GWVE5RRJ9VVI","A3HVFSD8K94SOR","3HUR21WDDUBEMSLDIXZW1FAIHW8YX3","","1180","img/flower1.png","76","1182","3","0","1","2","1,0,0,1,1,0,1,0,1","1,0,0,1,1,0,1,0,1","1",""
"","html-keyboard-response","11","106570","0.0-11.0","3FK0YFF9P0270TJ749GWVE5RRJ9VVI","A3HVFSD8K94SOR","3HUR21WDDUBEMSLDIXZW1FAIHW8YX3","","null","<img src=""img/flower1.png"" style=""width:200px;border:14px solid red;"">","null","","","","","","","","",""
"","image-keyboard-response","12","107710","0.0-12.0","3FK0YFF9P0270TJ749GWVE5RRJ9VVI","A3HVFSD8K94SOR","3HUR21WDDUBEMSLDIXZW1FAIHW8YX3","","1137","img/flower3.png","75","1139","2","1","2","2","1,0,0,1,1,0,1,0,1","1,0,0,1,1,0,1,0,1","1",""
"","html-keyboard-response","13","108012","0.0-13.0","3FK0YFF9P0270TJ749GWVE5RRJ9VVI","A3HVFSD8K94SOR","3HUR21WDDUBEMSLDIXZW1FAIHW8YX3","","null","<img src=""img/flower3.png"" style=""width:200px; border:14px solid green;"">","null","","","","","","","","",""
"","image-keyboard-response","14","109319","0.0-14.0","3FK0YFF9P0270TJ749GWVE5RRJ9VVI","A3HVFSD8K94SOR","3HUR21WDDUBEMSLDIXZW1FAIHW8YX3","","1305","img/flower6.png","74","1305","1","1","3","2","1,0,0,1,1,0,1,0,1","1,0,0,1,1,0,1,0,1","1",""
"","html-keyboard-response","15","109633","0.0-15.0","3FK0YFF9P0270TJ749GWVE5RRJ9VVI","A3HVFSD8K94SOR","3HUR21WDDUBEMSLDIXZW1FAIHW8YX3","","null","<img src=""img/flower6.png"" style=""width:200px; border:14px solid green;"">","null","","","","","","","","",""
"","image-keyboard-response","16","110547","0.0-16.0","3FK0YFF9P0270TJ749GWVE5RRJ9VVI","A3HVFSD8K94SOR","3HUR21WDDUBEMSLDIXZW1FAIHW8YX3","","913","img/flower3.png","75","914","2","1","2","2","1,0,0,1,1,0,1,0,1","1,0,0,1,1,0,1,0,1","1",""
"","html-keyboard-response","17","110860","0.0-17.0","3FK0YFF9P0270TJ749GWVE5RRJ9VVI","A3HVFSD8K94SOR","3HUR21WDDUBEMSLDIXZW1FAIHW8YX3","","null","<img src=""img/flower3.png"" style=""width:200px; border:14px solid green;"">","null","","","","","","","","",""
"","image-keyboard-response","18","111656","0.0-18.0","3FK0YFF9P0270TJ749GWVE5RRJ9VVI","A3HVFSD8K94SOR","3HUR21WDDUBEMSLDIXZW1FAIHW8YX3","","794","img/flower6.png","74","794","1","1","3","2","1,0,0,1,1,0,1,0,1","1,0,0,1,1,0,1,0,1","1",""
"","html-keyboard-response","19","111969","0.0-19.0","3FK0YFF9P0270TJ749GWVE5RRJ9VVI","A3HVFSD8K94SOR","3HUR21WDDUBEMSLDIXZW1FAIHW8YX3","","null","<img src=""img/flower6.png"" style=""width:200px; border:14px solid green;"">","null","","","","","","","","",""
"","image-keyboard-response","20","113224","0.0-20.0","3FK0YFF9P0270TJ749GWVE5RRJ9VVI","A3HVFSD8K94SOR","3HUR21WDDUBEMSLDIXZW1FAIHW8YX3","","1253","img/flower6.png","74","1254","1","1","3","2","1,0,0,1,1,0,1,0,1","1,0,0,1,1,0,1,0,1","1",""
"","html-keyboard-response","21","113529","0.0-21.0","3FK0YFF9P0270TJ749GWVE5RRJ9VVI","A3HVFSD8K94SOR","3HUR21WDDUBEMSLDIXZW1FAIHW8YX3","","null","<img src=""img/flower6.png"" style=""width:200px; border:14px solid green;"">","null","","","","","","","","",""
"","image-keyboard-response","22","114513","0.0-22.0","3FK0YFF9P0270TJ749GWVE5RRJ9VVI","A3HVFSD8K94SOR","3HUR21WDDUBEMSLDIXZW1FAIHW8YX3","","983","img/flower6.png","74","986","1","1","3","2","1,0,0,1,1,0,1,0,1","1,0,0,1,1,0,1,0,1","1",""
"","html-keyboard-response","23","114817","0.0-23.0","3FK0YFF9P0270TJ749GWVE5RRJ9VVI","A3HVFSD8K94SOR","3HUR21WDDUBEMSLDIXZW1FAIHW8YX3","","null","<img src=""img/flower6.png"" style=""width:200px; border:14px solid green;"">","null","","","","","","","","",""
"","image-keyboard-response","24","115731","0.0-24.0","3FK0YFF9P0270TJ749GWVE5RRJ9VVI","A3HVFSD8K94SOR","3HUR21WDDUBEMSLDIXZW1FAIHW8YX3","","913","img/flower6.png","74","915","1","1","3","2","1,0,0,1,1,0,1,0,1","1,0,0,1,1,0,1,0,1","1",""
"","html-keyboard-response","25","116045","0.0-25.0","3FK0YFF9P0270TJ749GWVE5RRJ9VVI","A3HVFSD8K94SOR","3HUR21WDDUBEMSLDIXZW1FAIHW8YX3","","null","<img src=""img/flower6.png"" style=""width:200px; border:14px solid green;"">","null","","","","","","","","",""
"","image-keyboard-response","26","116811","0.0-26.0","3FK0YFF9P0270TJ749GWVE5RRJ9VVI","A3HVFSD8K94SOR","3HUR21WDDUBEMSLDIXZW1FAIHW8YX3","","765","img/flower1.png","75","765","2","0","1","2","1,0,0,1,1,0,1,0,1","1,0,0,1,1,0,1,0,1","1",""
"","html-keyboard-response","27","117126","0.0-27.0","3FK0YFF9P0270TJ749GWVE5RRJ9VVI","A3HVFSD8K94SOR","3HUR21WDDUBEMSLDIXZW1FAIHW8YX3","","null","<img src=""img/flower1.png"" style=""width:200px;border:14px solid red;"">","null","","","","","","","","",""
"","image-keyboard-response","28","117974","0.0-28.0","3FK0YFF9P0270TJ749GWVE5RRJ9VVI","A3HVFSD8K94SOR","3HUR21WDDUBEMSLDIXZW1FAIHW8YX3","","847","img/flower1.png","75","848","2","0","1","2","1,0,0,1,1,0,1,0,1","1,0,0,1,1,0,1,0,1","1",""
"","html-keyboard-response","29","118289","0.0-29.0","3FK0YFF9P0270TJ749GWVE5RRJ9VVI","A3HVFSD8K94SOR","3HUR21WDDUBEMSLDIXZW1FAIHW8YX3","","null","<img src=""img/flower1.png"" style=""width:200px;border:14px solid red;"">","null","","","","","","","","",""
"","image-keyboard-response","30","119072","0.0-30.0","3FK0YFF9P0270TJ749GWVE5RRJ9VVI","A3HVFSD8K94SOR","3HUR21WDDUBEMSLDIXZW1FAIHW8YX3","","782","img/flower3.png","75","784","2","1","2","2","1,0,0,1,1,0,1,0,1","1,0,0,1,1,0,1,0,1","1",""
"","html-keyboard-response","31","119393","0.0-31.0","3FK0YFF9P0270TJ749GWVE5RRJ9VVI","A3HVFSD8K94SOR","3HUR21WDDUBEMSLDIXZW1FAIHW8YX3","","null","<img src=""img/flower3.png"" style=""width:200px; border:14px solid green;"">","null","","","","","","","","",""
"","image-keyboard-response","32","120501","0.0-32.0","3FK0YFF9P0270TJ749GWVE5RRJ9VVI","A3HVFSD8K94SOR","3HUR21WDDUBEMSLDIXZW1FAIHW8YX3","","1108","img/flower1.png","76","1109","3","0","1","2","1,0,0,1,1,0,1,0,1","1,0,0,1,1,0,1,0,1","1",""
"","html-keyboard-response","33","120803","0.0-33.0","3FK0YFF9P0270TJ749GWVE5RRJ9VVI","A3HVFSD8K94SOR","3HUR21WDDUBEMSLDIXZW1FAIHW8YX3","","null","<img src=""img/flower1.png"" style=""width:200px;border:14px solid red;"">","null","","","","","","","","",""
"","image-keyboard-response","34","121656","0.0-34.0","3FK0YFF9P0270TJ749GWVE5RRJ9VVI","A3HVFSD8K94SOR","3HUR21WDDUBEMSLDIXZW1FAIHW8YX3","","850","img/flower3.png","75","852","2","1","2","2","1,0,0,1,1,0,1,0,1","1,0,0,1,1,0,1,0,1","1",""
"","html-keyboard-response","35","121962","0.0-35.0","3FK0YFF9P0270TJ749GWVE5RRJ9VVI","A3HVFSD8K94SOR","3HUR21WDDUBEMSLDIXZW1FAIHW8YX3","","null","<img src=""img/flower3.png"" style=""width:200px; border:14px solid green;"">","null","","","","","","","","",""
"","image-keyboard-response","36","122939","0.0-36.0","3FK0YFF9P0270TJ749GWVE5RRJ9VVI","A3HVFSD8K94SOR","3HUR21WDDUBEMSLDIXZW1FAIHW8YX3","","975","img/flower3.png","75","977","2","1","2","2","1,0,0,1,1,0,1,0,1","1,0,0,1,1,0,1,0,1","1",""
"","html-keyboard-response","37","123246","0.0-37.0","3FK0YFF9P0270TJ749GWVE5RRJ9VVI","A3HVFSD8K94SOR","3HUR21WDDUBEMSLDIXZW1FAIHW8YX3","","null","<img src=""img/flower3.png"" style=""width:200px; border:14px solid green;"">","null","","","","","","","","",""
"","image-keyboard-response","38","124203","0.0-38.0","3FK0YFF9P0270TJ749GWVE5RRJ9VVI","A3HVFSD8K94SOR","3HUR21WDDUBEMSLDIXZW1FAIHW8YX3","","955","img/flower3.png","75","955","2","1","2","2","1,0,0,1,1,0,1,0,1","1,0,0,1,1,0,1,0,1","1",""
"","html-keyboard-response","39","124510","0.0-39.0","3FK0YFF9P0270TJ749GWVE5RRJ9VVI","A3HVFSD8K94SOR","3HUR21WDDUBEMSLDIXZW1FAIHW8YX3","","null","<img src=""img/flower3.png"" style=""width:200px; border:14px solid green;"">","null","","","","","","","","",""
"","image-keyboard-response","40","125601","0.0-40.0","3FK0YFF9P0270TJ749GWVE5RRJ9VVI","A3HVFSD8K94SOR","3HUR21WDDUBEMSLDIXZW1FAIHW8YX3","","1089","img/flower3.png","75","1090","2","1","2","2","1,0,0,1,1,0,1,0,1","1,0,0,1,1,0,1,0,1","1",""
"","html-keyboard-response","41","125915","0.0-41.0","3FK0YFF9P0270TJ749GWVE5RRJ9VVI","A3HVFSD8K94SOR","3HUR21WDDUBEMSLDIXZW1FAIHW8YX3","","null","<img src=""img/flower3.png"" style=""width:200px; border:14px solid green;"">","null","","","","","","","","",""
"","image-keyboard-response","42","126849","0.0-42.0","3FK0YFF9P0270TJ749GWVE5RRJ9VVI","A3HVFSD8K94SOR","3HUR21WDDUBEMSLDIXZW1FAIHW8YX3","","935","img/flower3.png","75","935","2","1","2","2","1,0,0,1,1,0,1,0,1","1,0,0,1,1,0,1,0,1","1",""
"","html-keyboard-response","43","127161","0.0-43.0","3FK0YFF9P0270TJ749GWVE5RRJ9VVI","A3HVFSD8K94SOR","3HUR21WDDUBEMSLDIXZW1FAIHW8YX3","","null","<img src=""img/flower3.png"" style=""width:200px; border:14px solid green;"">","null","","","","","","","","",""
"","image-keyboard-response","44","128104","0.0-44.0","3FK0YFF9P0270TJ749GWVE5RRJ9VVI","A3HVFSD8K94SOR","3HUR21WDDUBEMSLDIXZW1FAIHW8YX3","","941","img/flower3.png","75","942","2","1","2","2","1,0,0,1,1,0,1,0,1","1,0,0,1,1,0,1,0,1","1",""
"","html-keyboard-response","45","128406","0.0-45.0","3FK0YFF9P0270TJ749GWVE5RRJ9VVI","A3HVFSD8K94SOR","3HUR21WDDUBEMSLDIXZW1FAIHW8YX3","","null","<img src=""img/flower3.png"" style=""width:200px; border:14px solid green;"">","null","","","","","","","","",""
"","image-keyboard-response","46","129302","0.0-46.0","3FK0YFF9P0270TJ749GWVE5RRJ9VVI","A3HVFSD8K94SOR","3HUR21WDDUBEMSLDIXZW1FAIHW8YX3","","896","img/flower3.png","75","897","2","1","2","2","1,0,0,1,1,0,1,0,1","1,0,0,1,1,0,1,0,1","1",""
"","html-keyboard-response","47","129609","0.0-47.0","3FK0YFF9P0270TJ749GWVE5RRJ9VVI","A3HVFSD8K94SOR","3HUR21WDDUBEMSLDIXZW1FAIHW8YX3","","null","<img src=""img/flower3.png"" style=""width:200px; border:14px solid green;"">","null","","","","","","","","",""
"","image-keyboard-response","48","130640","0.0-48.0","3FK0YFF9P0270TJ749GWVE5RRJ9VVI","A3HVFSD8K94SOR","3HUR21WDDUBEMSLDIXZW1FAIHW8YX3","","1031","img/flower6.png","74","1033","1","1","3","2","1,0,0,1,1,0,1,0,1","1,0,0,1,1,0,1,0,1","1",""
"","html-keyboard-response","49","130955","0.0-49.0","3FK0YFF9P0270TJ749GWVE5RRJ9VVI","A3HVFSD8K94SOR","3HUR21WDDUBEMSLDIXZW1FAIHW8YX3","","null","<img src=""img/flower6.png"" style=""width:200px; border:14px solid green;"">","null","","","","","","","","",""
"","image-keyboard-response","50","132094","0.0-50.0","3FK0YFF9P0270TJ749GWVE5RRJ9VVI","A3HVFSD8K94SOR","3HUR21WDDUBEMSLDIXZW1FAIHW8YX3","","1138","img/flower6.png","74","1138","1","1","3","2","1,0,0,1,1,0,1,0,1","1,0,0,1,1,0,1,0,1","1",""
"","html-keyboard-response","51","132403","0.0-51.0","3FK0YFF9P0270TJ749GWVE5RRJ9VVI","A3HVFSD8K94SOR","3HUR21WDDUBEMSLDIXZW1FAIHW8YX3","","null","<img src=""img/flower6.png"" style=""width:200px; border:14px solid green;"">","null","","","","","","","","",""
"","image-keyboard-response","52","133432","0.0-52.0","3FK0YFF9P0270TJ749GWVE5RRJ9VVI","A3HVFSD8K94SOR","3HUR21WDDUBEMSLDIXZW1FAIHW8YX3","","1029","img/flower1.png","76","1029","3","0","1","2","1,0,0,1,1,0,1,0,1","1,0,0,1,1,0,1,0,1","1",""
"","html-keyboard-response","53","133748","0.0-53.0","3FK0YFF9P0270TJ749GWVE5RRJ9VVI","A3HVFSD8K94SOR","3HUR21WDDUBEMSLDIXZW1FAIHW8YX3","","null","<img src=""img/flower1.png"" style=""width:200px;border:14px solid red;"">","null","","","","","","","","",""
"","image-keyboard-response","54","134971","0.0-54.0","3FK0YFF9P0270TJ749GWVE5RRJ9VVI","A3HVFSD8K94SOR","3HUR21WDDUBEMSLDIXZW1FAIHW8YX3","","1221","img/flower3.png","75","1222","2","1","2","2","1,0,0,1,1,0,1,0,1","1,0,0,1,1,0,1,0,1","1",""
"","html-keyboard-response","55","135284","0.0-55.0","3FK0YFF9P0270TJ749GWVE5RRJ9VVI","A3HVFSD8K94SOR","3HUR21WDDUBEMSLDIXZW1FAIHW8YX3","","null","<img src=""img/flower3.png"" style=""width:200px; border:14px solid green;"">","null","","","","","","","","",""
"","image-keyboard-response","56","136314","0.0-56.0","3FK0YFF9P0270TJ749GWVE5RRJ9VVI","A3HVFSD8K94SOR","3HUR21WDDUBEMSLDIXZW1FAIHW8YX3","","1029","img/flower1.png","75","1030","2","0","1","2","1,0,0,1,1,0,1,0,1","1,0,0,1,1,0,1,0,1","1",""
"","html-keyboard-response","57","136624","0.0-57.0","3FK0YFF9P0270TJ749GWVE5RRJ9VVI","A3HVFSD8K94SOR","3HUR21WDDUBEMSLDIXZW1FAIHW8YX3","","null","<img src=""img/flower1.png"" style=""width:200px;border:14px solid red;"">","null","","","","","","","","",""
"","image-keyboard-response","58","137809","0.0-58.0","3FK0YFF9P0270TJ749GWVE5RRJ9VVI","A3HVFSD8K94SOR","3HUR21WDDUBEMSLDIXZW1FAIHW8YX3","","1184","img/flower1.png","74","1185","1","1","1","2","1,0,0,1,1,0,1,0,1","1,0,0,1,1,0,1,0,1","1",""
"","html-keyboard-response","59","138118","0.0-59.0","3FK0YFF9P0270TJ749GWVE5RRJ9VVI","A3HVFSD8K94SOR","3HUR21WDDUBEMSLDIXZW1FAIHW8YX3","","null","<img src=""img/flower1.png"" style=""width:200px; border:14px solid green;"">","null","","","","","","","","",""
"","image-keyboard-response","60","138842","0.0-60.0","3FK0YFF9P0270TJ749GWVE5RRJ9VVI","A3HVFSD8K94SOR","3HUR21WDDUBEMSLDIXZW1FAIHW8YX3","","723","img/flower1.png","74","724","1","1","1","2","1,0,0,1,1,0,1,0,1","1,0,0,1,1,0,1,0,1","1",""
"","html-keyboard-response","61","139154","0.0-61.0","3FK0YFF9P0270TJ749GWVE5RRJ9VVI","A3HVFSD8K94SOR","3HUR21WDDUBEMSLDIXZW1FAIHW8YX3","","null","<img src=""img/flower1.png"" style=""width:200px; border:14px solid green;"">","null","","","","","","","","",""
"","image-keyboard-response","62","139895","0.0-62.0","3FK0YFF9P0270TJ749GWVE5RRJ9VVI","A3HVFSD8K94SOR","3HUR21WDDUBEMSLDIXZW1FAIHW8YX3","","740","img/flower1.png","74","741","1","1","1","2","1,0,0,1,1,0,1,0,1","1,0,0,1,1,0,1,0,1","1",""
"","html-keyboard-response","63","140210","0.0-63.0","3FK0YFF9P0270TJ749GWVE5RRJ9VVI","A3HVFSD8K94SOR","3HUR21WDDUBEMSLDIXZW1FAIHW8YX3","","null","<img src=""img/flower1.png"" style=""width:200px; border:14px solid green;"">","null","","","","","","","","",""
"","image-keyboard-response","64","141125","0.0-64.0","3FK0YFF9P0270TJ749GWVE5RRJ9VVI","A3HVFSD8K94SOR","3HUR21WDDUBEMSLDIXZW1FAIHW8YX3","","912","img/flower6.png","74","914","1","1","3","2","1,0,0,1,1,0,1,0,1","1,0,0,1,1,0,1,0,1","1",""
"","html-keyboard-response","65","141432","0.0-65.0","3FK0YFF9P0270TJ749GWVE5RRJ9VVI","A3HVFSD8K94SOR","3HUR21WDDUBEMSLDIXZW1FAIHW8YX3","","null","<img src=""img/flower6.png"" style=""width:200px; border:14px solid green;"">","null","","","","","","","","",""
"","image-keyboard-response","66","142384","0.0-66.0","3FK0YFF9P0270TJ749GWVE5RRJ9VVI","A3HVFSD8K94SOR","3HUR21WDDUBEMSLDIXZW1FAIHW8YX3","","951","img/flower6.png","74","952","1","1","3","2","1,0,0,1,1,0,1,0,1","1,0,0,1,1,0,1,0,1","1",""
"","html-keyboard-response","67","142686","0.0-67.0","3FK0YFF9P0270TJ749GWVE5RRJ9VVI","A3HVFSD8K94SOR","3HUR21WDDUBEMSLDIXZW1FAIHW8YX3","","null","<img src=""img/flower6.png"" style=""width:200px; border:14px solid green;"">","null","","","","","","","","",""
"","image-keyboard-response","68","143422","0.0-68.0","3FK0YFF9P0270TJ749GWVE5RRJ9VVI","A3HVFSD8K94SOR","3HUR21WDDUBEMSLDIXZW1FAIHW8YX3","","733","img/flower1.png","74","735","1","1","1","2","1,0,0,1,1,0,1,0,1","1,0,0,1,1,0,1,0,1","1",""
"","html-keyboard-response","69","143730","0.0-69.0","3FK0YFF9P0270TJ749GWVE5RRJ9VVI","A3HVFSD8K94SOR","3HUR21WDDUBEMSLDIXZW1FAIHW8YX3","","null","<img src=""img/flower1.png"" style=""width:200px; border:14px solid green;"">","null","","","","","","","","",""
"","image-keyboard-response","70","144556","0.0-70.0","3FK0YFF9P0270TJ749GWVE5RRJ9VVI","A3HVFSD8K94SOR","3HUR21WDDUBEMSLDIXZW1FAIHW8YX3","","824","img/flower6.png","74","825","1","1","3","2","1,0,0,1,1,0,1,0,1","1,0,0,1,1,0,1,0,1","1",""
"","html-keyboard-response","71","144869","0.0-71.0","3FK0YFF9P0270TJ749GWVE5RRJ9VVI","A3HVFSD8K94SOR","3HUR21WDDUBEMSLDIXZW1FAIHW8YX3","","null","<img src=""img/flower6.png"" style=""width:200px; border:14px solid green;"">","null","","","","","","","","",""
"","image-keyboard-response","72","145440","0.0-72.0","3FK0YFF9P0270TJ749GWVE5RRJ9VVI","A3HVFSD8K94SOR","3HUR21WDDUBEMSLDIXZW1FAIHW8YX3","","569","img/flower1.png","74","570","1","1","1","2","1,0,0,1,1,0,1,0,1","1,0,0,1,1,0,1,0,1","1",""
"","html-keyboard-response","73","145748","0.0-73.0","3FK0YFF9P0270TJ749GWVE5RRJ9VVI","A3HVFSD8K94SOR","3HUR21WDDUBEMSLDIXZW1FAIHW8YX3","","null","<img src=""img/flower1.png"" style=""width:200px; border:14px solid green;"">","null","","","","","","","","",""
"","image-keyboard-response","74","146394","0.0-74.0","3FK0YFF9P0270TJ749GWVE5RRJ9VVI","A3HVFSD8K94SOR","3HUR21WDDUBEMSLDIXZW1FAIHW8YX3","","645","img/flower1.png","74","646","1","1","1","2","1,0,0,1,1,0,1,0,1","1,0,0,1,1,0,1,0,1","1",""
"","html-keyboard-response","75","146707","0.0-75.0","3FK0YFF9P0270TJ749GWVE5RRJ9VVI","A3HVFSD8K94SOR","3HUR21WDDUBEMSLDIXZW1FAIHW8YX3","","null","<img src=""img/flower1.png"" style=""width:200px; border:14px solid green;"">","null","","","","","","","","",""
"","image-keyboard-response","76","147457","0.0-76.0","3FK0YFF9P0270TJ749GWVE5RRJ9VVI","A3HVFSD8K94SOR","3HUR21WDDUBEMSLDIXZW1FAIHW8YX3","","749","img/flower6.png","74","749","1","1","3","2","1,0,0,1,1,0,1,0,1","1,0,0,1,1,0,1,0,1","1",""
"","html-keyboard-response","77","147769","0.0-77.0","3FK0YFF9P0270TJ749GWVE5RRJ9VVI","A3HVFSD8K94SOR","3HUR21WDDUBEMSLDIXZW1FAIHW8YX3","","null","<img src=""img/flower6.png"" style=""width:200px; border:14px solid green;"">","null","","","","","","","","",""
"","image-keyboard-response","78","148386","0.0-78.0","3FK0YFF9P0270TJ749GWVE5RRJ9VVI","A3HVFSD8K94SOR","3HUR21WDDUBEMSLDIXZW1FAIHW8YX3","","617","img/flower1.png","74","617","1","1","1","2","1,0,0,1,1,0,1,0,1","1,0,0,1,1,0,1,0,1","1",""
"","html-keyboard-response","79","148703","0.0-79.0","3FK0YFF9P0270TJ749GWVE5RRJ9VVI","A3HVFSD8K94SOR","3HUR21WDDUBEMSLDIXZW1FAIHW8YX3","","null","<img src=""img/flower1.png"" style=""width:200px; border:14px solid green;"">","null","","","","","","","","",""
"","image-keyboard-response","80","150330","0.0-80.0","3FK0YFF9P0270TJ749GWVE5RRJ9VVI","A3HVFSD8K94SOR","3HUR21WDDUBEMSLDIXZW1FAIHW8YX3","","1626","img/flower3.png","75","1627","2","1","2","2","1,0,0,1,1,0,1,0,1","1,0,0,1,1,0,1,0,1","1",""
"","html-keyboard-response","81","150645","0.0-81.0","3FK0YFF9P0270TJ749GWVE5RRJ9VVI","A3HVFSD8K94SOR","3HUR21WDDUBEMSLDIXZW1FAIHW8YX3","","null","<img src=""img/flower3.png"" style=""width:200px; border:14px solid green;"">","null","","","","","","","","",""
"","image-keyboard-response","82","151488","0.0-82.0","3FK0YFF9P0270TJ749GWVE5RRJ9VVI","A3HVFSD8K94SOR","3HUR21WDDUBEMSLDIXZW1FAIHW8YX3","","842","img/flower6.png","74","843","1","1","3","2","1,0,0,1,1,0,1,0,1","1,0,0,1,1,0,1,0,1","1",""
"","html-keyboard-response","83","151803","0.0-83.0","3FK0YFF9P0270TJ749GWVE5RRJ9VVI","A3HVFSD8K94SOR","3HUR21WDDUBEMSLDIXZW1FAIHW8YX3","","null","<img src=""img/flower6.png"" style=""width:200px; border:14px solid green;"">","null","","","","","","","","",""
"","image-keyboard-response","84","152842","0.0-84.0","3FK0YFF9P0270TJ749GWVE5RRJ9VVI","A3HVFSD8K94SOR","3HUR21WDDUBEMSLDIXZW1FAIHW8YX3","","1037","img/flower1.png","74","1038","1","1","1","2","1,0,0,1,1,0,1,0,1","1,0,0,1,1,0,1,0,1","1",""
"","html-keyboard-response","85","153156","0.0-85.0","3FK0YFF9P0270TJ749GWVE5RRJ9VVI","A3HVFSD8K94SOR","3HUR21WDDUBEMSLDIXZW1FAIHW8YX3","","null","<img src=""img/flower1.png"" style=""width:200px; border:14px solid green;"">","null","","","","","","","","",""
"","image-keyboard-response","86","154235","0.0-86.0","3FK0YFF9P0270TJ749GWVE5RRJ9VVI","A3HVFSD8K94SOR","3HUR21WDDUBEMSLDIXZW1FAIHW8YX3","","1077","img/flower1.png","74","1079","1","1","1","2","1,0,0,1,1,0,1,0,1","1,0,0,1,1,0,1,0,1","1",""
"","html-keyboard-response","87","154547","0.0-87.0","3FK0YFF9P0270TJ749GWVE5RRJ9VVI","A3HVFSD8K94SOR","3HUR21WDDUBEMSLDIXZW1FAIHW8YX3","","null","<img src=""img/flower1.png"" style=""width:200px; border:14px solid green;"">","null","","","","","","","","",""
"","image-keyboard-response","88","155823","0.0-88.0","3FK0YFF9P0270TJ749GWVE5RRJ9VVI","A3HVFSD8K94SOR","3HUR21WDDUBEMSLDIXZW1FAIHW8YX3","","1276","img/flower3.png","75","1277","2","1","2","2","1,0,0,1,1,0,1,0,1","1,0,0,1,1,0,1,0,1","1",""
"","html-keyboard-response","89","156125","0.0-89.0","3FK0YFF9P0270TJ749GWVE5RRJ9VVI","A3HVFSD8K94SOR","3HUR21WDDUBEMSLDIXZW1FAIHW8YX3","","null","<img src=""img/flower3.png"" style=""width:200px; border:14px solid green;"">","null","","","","","","","","",""
"","image-keyboard-response","90","156992","0.0-90.0","3FK0YFF9P0270TJ749GWVE5RRJ9VVI","A3HVFSD8K94SOR","3HUR21WDDUBEMSLDIXZW1FAIHW8YX3","","866","img/flower3.png","75","867","2","1","2","2","1,0,0,1,1,0,1,0,1","1,0,0,1,1,0,1,0,1","1",""
"","html-keyboard-response","91","157301","0.0-91.0","3FK0YFF9P0270TJ749GWVE5RRJ9VVI","A3HVFSD8K94SOR","3HUR21WDDUBEMSLDIXZW1FAIHW8YX3","","null","<img src=""img/flower3.png"" style=""width:200px; border:14px solid green;"">","null","","","","","","","","",""
"","image-keyboard-response","92","158106","0.0-92.0","3FK0YFF9P0270TJ749GWVE5RRJ9VVI","A3HVFSD8K94SOR","3HUR21WDDUBEMSLDIXZW1FAIHW8YX3","","804","img/flower3.png","75","806","2","1","2","2","1,0,0,1,1,0,1,0,1","1,0,0,1,1,0,1,0,1","1",""
"","html-keyboard-response","93","158421","0.0-93.0","3FK0YFF9P0270TJ749GWVE5RRJ9VVI","A3HVFSD8K94SOR","3HUR21WDDUBEMSLDIXZW1FAIHW8YX3","","null","<img src=""img/flower3.png"" style=""width:200px; border:14px solid green;"">","null","","","","","","","","",""
"","image-keyboard-response","94","159264","0.0-94.0","3FK0YFF9P0270TJ749GWVE5RRJ9VVI","A3HVFSD8K94SOR","3HUR21WDDUBEMSLDIXZW1FAIHW8YX3","","843","img/flower6.png","74","843","1","1","3","2","1,0,0,1,1,0,1,0,1","1,0,0,1,1,0,1,0,1","1",""
"","html-keyboard-response","95","159575","0.0-95.0","3FK0YFF9P0270TJ749GWVE5RRJ9VVI","A3HVFSD8K94SOR","3HUR21WDDUBEMSLDIXZW1FAIHW8YX3","","null","<img src=""img/flower6.png"" style=""width:200px; border:14px solid green;"">","null","","","","","","","","",""
"","image-keyboard-response","96","160319","0.0-96.0","3FK0YFF9P0270TJ749GWVE5RRJ9VVI","A3HVFSD8K94SOR","3HUR21WDDUBEMSLDIXZW1FAIHW8YX3","","741","img/flower3.png","75","744","2","1","2","2","1,0,0,1,1,0,1,0,1","1,0,0,1,1,0,1,0,1","1",""
"","html-keyboard-response","97","160633","0.0-97.0","3FK0YFF9P0270TJ749GWVE5RRJ9VVI","A3HVFSD8K94SOR","3HUR21WDDUBEMSLDIXZW1FAIHW8YX3","","null","<img src=""img/flower3.png"" style=""width:200px; border:14px solid green;"">","null","","","","","","","","",""
"","image-keyboard-response","98","161187","0.0-98.0","3FK0YFF9P0270TJ749GWVE5RRJ9VVI","A3HVFSD8K94SOR","3HUR21WDDUBEMSLDIXZW1FAIHW8YX3","","554","img/flower3.png","75","555","2","1","2","2","1,0,0,1,1,0,1,0,1","1,0,0,1,1,0,1,0,1","1",""
"","html-keyboard-response","99","161499","0.0-99.0","3FK0YFF9P0270TJ749GWVE5RRJ9VVI","A3HVFSD8K94SOR","3HUR21WDDUBEMSLDIXZW1FAIHW8YX3","","null","<img src=""img/flower3.png"" style=""width:200px; border:14px solid green;"">","null","","","","","","","","",""
"","image-keyboard-response","100","162440","0.0-100.0","3FK0YFF9P0270TJ749GWVE5RRJ9VVI","A3HVFSD8K94SOR","3HUR21WDDUBEMSLDIXZW1FAIHW8YX3","","940","img/flower6.png","74","941","1","1","3","2","1,0,0,1,1,0,1,0,1","1,0,0,1,1,0,1,0,1","1",""
"","html-keyboard-response","101","162752","0.0-101.0","3FK0YFF9P0270TJ749GWVE5RRJ9VVI","A3HVFSD8K94SOR","3HUR21WDDUBEMSLDIXZW1FAIHW8YX3","","null","<img src=""img/flower6.png"" style=""width:200px; border:14px solid green;"">","null","","","","","","","","",""
"","image-keyboard-response","102","163574","0.0-102.0","3FK0YFF9P0270TJ749GWVE5RRJ9VVI","A3HVFSD8K94SOR","3HUR21WDDUBEMSLDIXZW1FAIHW8YX3","","820","img/flower6.png","74","822","1","1","3","2","1,0,0,1,1,0,1,0,1","1,0,0,1,1,0,1,0,1","1",""
"","html-keyboard-response","103","163895","0.0-103.0","3FK0YFF9P0270TJ749GWVE5RRJ9VVI","A3HVFSD8K94SOR","3HUR21WDDUBEMSLDIXZW1FAIHW8YX3","","null","<img src=""img/flower6.png"" style=""width:200px; border:14px solid green;"">","null","","","","","","","","",""
"","image-keyboard-response","104","164775","0.0-104.0","3FK0YFF9P0270TJ749GWVE5RRJ9VVI","A3HVFSD8K94SOR","3HUR21WDDUBEMSLDIXZW1FAIHW8YX3","","878","img/flower3.png","75","879","2","1","2","2","1,0,0,1,1,0,1,0,1","1,0,0,1,1,0,1,0,1","1",""
"","html-keyboard-response","105","165080","0.0-105.0","3FK0YFF9P0270TJ749GWVE5RRJ9VVI","A3HVFSD8K94SOR","3HUR21WDDUBEMSLDIXZW1FAIHW8YX3","","null","<img src=""img/flower3.png"" style=""width:200px; border:14px solid green;"">","null","","","","","","","","",""
"","image-keyboard-response","106","165749","0.0-106.0","3FK0YFF9P0270TJ749GWVE5RRJ9VVI","A3HVFSD8K94SOR","3HUR21WDDUBEMSLDIXZW1FAIHW8YX3","","668","img/flower6.png","75","668","2","0","3","2","1,0,0,1,1,0,1,0,1","1,0,0,1,1,0,1,0,1","1",""
"","html-keyboard-response","107","166071","0.0-107.0","3FK0YFF9P0270TJ749GWVE5RRJ9VVI","A3HVFSD8K94SOR","3HUR21WDDUBEMSLDIXZW1FAIHW8YX3","","null","<img src=""img/flower6.png"" style=""width:200px;border:14px solid red;"">","null","","","","","","","","",""
"","image-keyboard-response","108","167855","0.0-108.0","3FK0YFF9P0270TJ749GWVE5RRJ9VVI","A3HVFSD8K94SOR","3HUR21WDDUBEMSLDIXZW1FAIHW8YX3","","1784","img/flower1.png","74","1784","1","1","1","2","1,0,0,1,1,0,1,0,1","1,0,0,1,1,0,1,0,1","1",""
"","html-keyboard-response","109","168166","0.0-109.0","3FK0YFF9P0270TJ749GWVE5RRJ9VVI","A3HVFSD8K94SOR","3HUR21WDDUBEMSLDIXZW1FAIHW8YX3","","null","<img src=""img/flower1.png"" style=""width:200px; border:14px solid green;"">","null","","","","","","","","",""
"","image-keyboard-response","110","168879","0.0-110.0","3FK0YFF9P0270TJ749GWVE5RRJ9VVI","A3HVFSD8K94SOR","3HUR21WDDUBEMSLDIXZW1FAIHW8YX3","","712","img/flower1.png","74","712","1","1","1","2","1,0,0,1,1,0,1,0,1","1,0,0,1,1,0,1,0,1","1",""
"","html-keyboard-response","111","169189","0.0-111.0","3FK0YFF9P0270TJ749GWVE5RRJ9VVI","A3HVFSD8K94SOR","3HUR21WDDUBEMSLDIXZW1FAIHW8YX3","","null","<img src=""img/flower1.png"" style=""width:200px; border:14px solid green;"">","null","","","","","","","","",""
"","image-keyboard-response","112","169758","0.0-112.0","3FK0YFF9P0270TJ749GWVE5RRJ9VVI","A3HVFSD8K94SOR","3HUR21WDDUBEMSLDIXZW1FAIHW8YX3","","569","img/flower6.png","74","571","1","1","3","2","1,0,0,1,1,0,1,0,1","1,0,0,1,1,0,1,0,1","1",""
"","html-keyboard-response","113","170061","0.0-113.0","3FK0YFF9P0270TJ749GWVE5RRJ9VVI","A3HVFSD8K94SOR","3HUR21WDDUBEMSLDIXZW1FAIHW8YX3","","null","<img src=""img/flower6.png"" style=""width:200px; border:14px solid green;"">","null","","","","","","","","",""
"","image-keyboard-response","114","170992","0.0-114.0","3FK0YFF9P0270TJ749GWVE5RRJ9VVI","A3HVFSD8K94SOR","3HUR21WDDUBEMSLDIXZW1FAIHW8YX3","","929","img/flower1.png","74","930","1","1","1","2","1,0,0,1,1,0,1,0,1","1,0,0,1,1,0,1,0,1","1",""
"","html-keyboard-response","115","171300","0.0-115.0","3FK0YFF9P0270TJ749GWVE5RRJ9VVI","A3HVFSD8K94SOR","3HUR21WDDUBEMSLDIXZW1FAIHW8YX3","","null","<img src=""img/flower1.png"" style=""width:200px; border:14px solid green;"">","null","","","","","","","","",""
"","image-keyboard-response","116","171911","0.0-116.0","3FK0YFF9P0270TJ749GWVE5RRJ9VVI","A3HVFSD8K94SOR","3HUR21WDDUBEMSLDIXZW1FAIHW8YX3","","609","img/flower6.png","74","609","1","1","3","2","1,0,0,1,1,0,1,0,1","1,0,0,1,1,0,1,0,1","1",""
"","html-keyboard-response","117","172217","0.0-117.0","3FK0YFF9P0270TJ749GWVE5RRJ9VVI","A3HVFSD8K94SOR","3HUR21WDDUBEMSLDIXZW1FAIHW8YX3","","null","<img src=""img/flower6.png"" style=""width:200px; border:14px solid green;"">","null","","","","","","","","",""
"","image-keyboard-response","118","172829","0.0-118.0","3FK0YFF9P0270TJ749GWVE5RRJ9VVI","A3HVFSD8K94SOR","3HUR21WDDUBEMSLDIXZW1FAIHW8YX3","","611","img/flower6.png","74","611","1","1","3","2","1,0,0,1,1,0,1,0,1","1,0,0,1,1,0,1,0,1","1",""
"","html-keyboard-response","119","173176","0.0-119.0","3FK0YFF9P0270TJ749GWVE5RRJ9VVI","A3HVFSD8K94SOR","3HUR21WDDUBEMSLDIXZW1FAIHW8YX3","","null","<img src=""img/flower6.png"" style=""width:200px; border:14px solid green;"">","null","","","","","","","","",""
"","image-keyboard-response","120","173974","0.0-120.0","3FK0YFF9P0270TJ749GWVE5RRJ9VVI","A3HVFSD8K94SOR","3HUR21WDDUBEMSLDIXZW1FAIHW8YX3","","796","img/flower1.png","74","797","1","1","1","2","1,0,0,1,1,0,1,0,1","1,0,0,1,1,0,1,0,1","1",""
"","html-keyboard-response","121","174282","0.0-121.0","3FK0YFF9P0270TJ749GWVE5RRJ9VVI","A3HVFSD8K94SOR","3HUR21WDDUBEMSLDIXZW1FAIHW8YX3","","null","<img src=""img/flower1.png"" style=""width:200px; border:14px solid green;"">","null","","","","","","","","",""
"","image-keyboard-response","122","175072","0.0-122.0","3FK0YFF9P0270TJ749GWVE5RRJ9VVI","A3HVFSD8K94SOR","3HUR21WDDUBEMSLDIXZW1FAIHW8YX3","","790","img/flower3.png","75","790","2","1","2","2","1,0,0,1,1,0,1,0,1","1,0,0,1,1,0,1,0,1","1",""
"","html-keyboard-response","123","175388","0.0-123.0","3FK0YFF9P0270TJ749GWVE5RRJ9VVI","A3HVFSD8K94SOR","3HUR21WDDUBEMSLDIXZW1FAIHW8YX3","","null","<img src=""img/flower3.png"" style=""width:200px; border:14px solid green;"">","null","","","","","","","","",""
"","image-keyboard-response","124","176106","0.0-124.0","3FK0YFF9P0270TJ749GWVE5RRJ9VVI","A3HVFSD8K94SOR","3HUR21WDDUBEMSLDIXZW1FAIHW8YX3","","717","img/flower6.png","74","718","1","1","3","2","1,0,0,1,1,0,1,0,1","1,0,0,1,1,0,1,0,1","1",""
"","html-keyboard-response","125","176411","0.0-125.0","3FK0YFF9P0270TJ749GWVE5RRJ9VVI","A3HVFSD8K94SOR","3HUR21WDDUBEMSLDIXZW1FAIHW8YX3","","null","<img src=""img/flower6.png"" style=""width:200px; border:14px solid green;"">","null","","","","","","","","",""
"","image-keyboard-response","126","177438","0.0-126.0","3FK0YFF9P0270TJ749GWVE5RRJ9VVI","A3HVFSD8K94SOR","3HUR21WDDUBEMSLDIXZW1FAIHW8YX3","","1027","img/flower3.png","75","1027","2","1","2","2","1,0,0,1,1,0,1,0,1","1,0,0,1,1,0,1,0,1","1",""
"","html-keyboard-response","127","177750","0.0-127.0","3FK0YFF9P0270TJ749GWVE5RRJ9VVI","A3HVFSD8K94SOR","3HUR21WDDUBEMSLDIXZW1FAIHW8YX3","","null","<img src=""img/flower3.png"" style=""width:200px; border:14px solid green;"">","null","","","","","","","","",""
"","image-keyboard-response","128","178463","0.0-128.0","3FK0YFF9P0270TJ749GWVE5RRJ9VVI","A3HVFSD8K94SOR","3HUR21WDDUBEMSLDIXZW1FAIHW8YX3","","712","img/flower6.png","74","713","1","1","3","2","1,0,0,1,1,0,1,0,1","1,0,0,1,1,0,1,0,1","1",""
"","html-keyboard-response","129","178776","0.0-129.0","3FK0YFF9P0270TJ749GWVE5RRJ9VVI","A3HVFSD8K94SOR","3HUR21WDDUBEMSLDIXZW1FAIHW8YX3","","null","<img src=""img/flower6.png"" style=""width:200px; border:14px solid green;"">","null","","","","","","","","",""
"","image-keyboard-response","130","179743","0.0-130.0","3FK0YFF9P0270TJ749GWVE5RRJ9VVI","A3HVFSD8K94SOR","3HUR21WDDUBEMSLDIXZW1FAIHW8YX3","","965","img/flower1.png","74","966","1","1","1","2","1,0,0,1,1,0,1,0,1","1,0,0,1,1,0,1,0,1","1",""
"","html-keyboard-response","131","180046","0.0-131.0","3FK0YFF9P0270TJ749GWVE5RRJ9VVI","A3HVFSD8K94SOR","3HUR21WDDUBEMSLDIXZW1FAIHW8YX3","","null","<img src=""img/flower1.png"" style=""width:200px; border:14px solid green;"">","null","","","","","","","","",""
"","image-keyboard-response","132","181145","0.0-132.0","3FK0YFF9P0270TJ749GWVE5RRJ9VVI","A3HVFSD8K94SOR","3HUR21WDDUBEMSLDIXZW1FAIHW8YX3","","1100","img/flower3.png","75","1100","2","1","2","2","1,0,0,1,1,0,1,0,1","1,0,0,1,1,0,1,0,1","1",""
"","html-keyboard-response","133","181458","0.0-133.0","3FK0YFF9P0270TJ749GWVE5RRJ9VVI","A3HVFSD8K94SOR","3HUR21WDDUBEMSLDIXZW1FAIHW8YX3","","null","<img src=""img/flower3.png"" style=""width:200px; border:14px solid green;"">","null","","","","","","","","",""
"","image-keyboard-response","134","182098","0.0-134.0","3FK0YFF9P0270TJ749GWVE5RRJ9VVI","A3HVFSD8K94SOR","3HUR21WDDUBEMSLDIXZW1FAIHW8YX3","","640","img/flower3.png","75","641","2","1","2","2","1,0,0,1,1,0,1,0,1","1,0,0,1,1,0,1,0,1","1",""
"","html-keyboard-response","135","182408","0.0-135.0","3FK0YFF9P0270TJ749GWVE5RRJ9VVI","A3HVFSD8K94SOR","3HUR21WDDUBEMSLDIXZW1FAIHW8YX3","","null","<img src=""img/flower3.png"" style=""width:200px; border:14px solid green;"">","null","","","","","","","","",""
"","image-keyboard-response","136","183237","0.0-136.0","3FK0YFF9P0270TJ749GWVE5RRJ9VVI","A3HVFSD8K94SOR","3HUR21WDDUBEMSLDIXZW1FAIHW8YX3","","829","img/flower6.png","74","830","1","1","3","2","1,0,0,1,1,0,1,0,1","1,0,0,1,1,0,1,0,1","1",""
"","html-keyboard-response","137","183546","0.0-137.0","3FK0YFF9P0270TJ749GWVE5RRJ9VVI","A3HVFSD8K94SOR","3HUR21WDDUBEMSLDIXZW1FAIHW8YX3","","null","<img src=""img/flower6.png"" style=""width:200px; border:14px solid green;"">","null","","","","","","","","",""
"","image-keyboard-response","138","184117","0.0-138.0","3FK0YFF9P0270TJ749GWVE5RRJ9VVI","A3HVFSD8K94SOR","3HUR21WDDUBEMSLDIXZW1FAIHW8YX3","","568","img/flower6.png","74","570","1","1","3","2","1,0,0,1,1,0,1,0,1","1,0,0,1,1,0,1,0,1","1",""
"","html-keyboard-response","139","184420","0.0-139.0","3FK0YFF9P0270TJ749GWVE5RRJ9VVI","A3HVFSD8K94SOR","3HUR21WDDUBEMSLDIXZW1FAIHW8YX3","","null","<img src=""img/flower6.png"" style=""width:200px; border:14px solid green;"">","null","","","","","","","","",""
"","image-keyboard-response","140","185575","0.0-140.0","3FK0YFF9P0270TJ749GWVE5RRJ9VVI","A3HVFSD8K94SOR","3HUR21WDDUBEMSLDIXZW1FAIHW8YX3","","1155","img/flower1.png","74","1156","1","1","1","2","1,0,0,1,1,0,1,0,1","1,0,0,1,1,0,1,0,1","1",""
"","html-keyboard-response","141","185891","0.0-141.0","3FK0YFF9P0270TJ749GWVE5RRJ9VVI","A3HVFSD8K94SOR","3HUR21WDDUBEMSLDIXZW1FAIHW8YX3","","null","<img src=""img/flower1.png"" style=""width:200px; border:14px solid green;"">","null","","","","","","","","",""
"","image-keyboard-response","142","186394","0.0-142.0","3FK0YFF9P0270TJ749GWVE5RRJ9VVI","A3HVFSD8K94SOR","3HUR21WDDUBEMSLDIXZW1FAIHW8YX3","","501","img/flower1.png","74","501","1","1","1","2","1,0,0,1,1,0,1,0,1","1,0,0,1,1,0,1,0,1","1",""
"","html-keyboard-response","143","186716","0.0-143.0","3FK0YFF9P0270TJ749GWVE5RRJ9VVI","A3HVFSD8K94SOR","3HUR21WDDUBEMSLDIXZW1FAIHW8YX3","","null","<img src=""img/flower1.png"" style=""width:200px; border:14px solid green;"">","null","","","","","","","","",""
"","image-keyboard-response","144","187577","0.0-144.0","3FK0YFF9P0270TJ749GWVE5RRJ9VVI","A3HVFSD8K94SOR","3HUR21WDDUBEMSLDIXZW1FAIHW8YX3","","860","img/flower6.png","74","862","1","1","3","2","1,0,0,1,1,0,1,0,1","1,0,0,1,1,0,1,0,1","1",""
"","html-keyboard-response","145","187885","0.0-145.0","3FK0YFF9P0270TJ749GWVE5RRJ9VVI","A3HVFSD8K94SOR","3HUR21WDDUBEMSLDIXZW1FAIHW8YX3","","null","<img src=""img/flower6.png"" style=""width:200px; border:14px solid green;"">","null","","","","","","","","",""
"","image-keyboard-response","146","188566","0.0-146.0","3FK0YFF9P0270TJ749GWVE5RRJ9VVI","A3HVFSD8K94SOR","3HUR21WDDUBEMSLDIXZW1FAIHW8YX3","","680","img/flower6.png","74","680","1","1","3","2","1,0,0,1,1,0,1,0,1","1,0,0,1,1,0,1,0,1","1",""
"","html-keyboard-response","147","188879","0.0-147.0","3FK0YFF9P0270TJ749GWVE5RRJ9VVI","A3HVFSD8K94SOR","3HUR21WDDUBEMSLDIXZW1FAIHW8YX3","","null","<img src=""img/flower6.png"" style=""width:200px; border:14px solid green;"">","null","","","","","","","","",""
"","image-keyboard-response","148","189761","0.0-148.0","3FK0YFF9P0270TJ749GWVE5RRJ9VVI","A3HVFSD8K94SOR","3HUR21WDDUBEMSLDIXZW1FAIHW8YX3","","881","img/flower3.png","75","881","2","1","2","2","1,0,0,1,1,0,1,0,1","1,0,0,1,1,0,1,0,1","1",""
"","html-keyboard-response","149","190079","0.0-149.0","3FK0YFF9P0270TJ749GWVE5RRJ9VVI","A3HVFSD8K94SOR","3HUR21WDDUBEMSLDIXZW1FAIHW8YX3","","null","<img src=""img/flower3.png"" style=""width:200px; border:14px solid green;"">","null","","","","","","","","",""
"","image-keyboard-response","150","190927","0.0-150.0","3FK0YFF9P0270TJ749GWVE5RRJ9VVI","A3HVFSD8K94SOR","3HUR21WDDUBEMSLDIXZW1FAIHW8YX3","","847","img/flower1.png","74","847","1","1","1","2","1,0,0,1,1,0,1,0,1","1,0,0,1,1,0,1,0,1","1",""
"","html-keyboard-response","151","191237","0.0-151.0","3FK0YFF9P0270TJ749GWVE5RRJ9VVI","A3HVFSD8K94SOR","3HUR21WDDUBEMSLDIXZW1FAIHW8YX3","","null","<img src=""img/flower1.png"" style=""width:200px; border:14px solid green;"">","null","","","","","","","","",""
"","image-keyboard-response","152","192081","0.0-152.0","3FK0YFF9P0270TJ749GWVE5RRJ9VVI","A3HVFSD8K94SOR","3HUR21WDDUBEMSLDIXZW1FAIHW8YX3","","845","img/flower6.png","74","845","1","1","3","2","1,0,0,1,1,0,1,0,1","1,0,0,1,1,0,1,0,1","1",""
"","html-keyboard-response","153","192397","0.0-153.0","3FK0YFF9P0270TJ749GWVE5RRJ9VVI","A3HVFSD8K94SOR","3HUR21WDDUBEMSLDIXZW1FAIHW8YX3","","null","<img src=""img/flower6.png"" style=""width:200px; border:14px solid green;"">","null","","","","","","","","",""
"","image-keyboard-response","154","193230","0.0-154.0","3FK0YFF9P0270TJ749GWVE5RRJ9VVI","A3HVFSD8K94SOR","3HUR21WDDUBEMSLDIXZW1FAIHW8YX3","","832","img/flower6.png","74","833","1","1","3","2","1,0,0,1,1,0,1,0,1","1,0,0,1,1,0,1,0,1","1",""
"","html-keyboard-response","155","193544","0.0-155.0","3FK0YFF9P0270TJ749GWVE5RRJ9VVI","A3HVFSD8K94SOR","3HUR21WDDUBEMSLDIXZW1FAIHW8YX3","","null","<img src=""img/flower6.png"" style=""width:200px; border:14px solid green;"">","null","","","","","","","","",""
"","image-keyboard-response","156","194164","0.0-156.0","3FK0YFF9P0270TJ749GWVE5RRJ9VVI","A3HVFSD8K94SOR","3HUR21WDDUBEMSLDIXZW1FAIHW8YX3","","620","img/flower6.png","74","621","1","1","3","2","1,0,0,1,1,0,1,0,1","1,0,0,1,1,0,1,0,1","1",""
"","html-keyboard-response","157","194479","0.0-157.0","3FK0YFF9P0270TJ749GWVE5RRJ9VVI","A3HVFSD8K94SOR","3HUR21WDDUBEMSLDIXZW1FAIHW8YX3","","null","<img src=""img/flower6.png"" style=""width:200px; border:14px solid green;"">","null","","","","","","","","",""
"","image-keyboard-response","158","195453","0.0-158.0","3FK0YFF9P0270TJ749GWVE5RRJ9VVI","A3HVFSD8K94SOR","3HUR21WDDUBEMSLDIXZW1FAIHW8YX3","","974","img/flower3.png","75","975","2","1","2","2","1,0,0,1,1,0,1,0,1","1,0,0,1,1,0,1,0,1","1",""
"","html-keyboard-response","159","195756","0.0-159.0","3FK0YFF9P0270TJ749GWVE5RRJ9VVI","A3HVFSD8K94SOR","3HUR21WDDUBEMSLDIXZW1FAIHW8YX3","","null","<img src=""img/flower3.png"" style=""width:200px; border:14px solid green;"">","null","","","","","","","","",""
"","image-keyboard-response","160","196322","0.0-160.0","3FK0YFF9P0270TJ749GWVE5RRJ9VVI","A3HVFSD8K94SOR","3HUR21WDDUBEMSLDIXZW1FAIHW8YX3","","564","img/flower3.png","75","565","2","1","2","2","1,0,0,1,1,0,1,0,1","1,0,0,1,1,0,1,0,1","1",""
"","html-keyboard-response","161","196624","0.0-161.0","3FK0YFF9P0270TJ749GWVE5RRJ9VVI","A3HVFSD8K94SOR","3HUR21WDDUBEMSLDIXZW1FAIHW8YX3","","null","<img src=""img/flower3.png"" style=""width:200px; border:14px solid green;"">","null","","","","","","","","",""
"","image-keyboard-response","162","197331","0.0-162.0","3FK0YFF9P0270TJ749GWVE5RRJ9VVI","A3HVFSD8K94SOR","3HUR21WDDUBEMSLDIXZW1FAIHW8YX3","","707","img/flower3.png","75","707","2","1","2","2","1,0,0,1,1,0,1,0,1","1,0,0,1,1,0,1,0,1","1",""
"","html-keyboard-response","163","197651","0.0-163.0","3FK0YFF9P0270TJ749GWVE5RRJ9VVI","A3HVFSD8K94SOR","3HUR21WDDUBEMSLDIXZW1FAIHW8YX3","","null","<img src=""img/flower3.png"" style=""width:200px; border:14px solid green;"">","null","","","","","","","","",""
"","image-keyboard-response","164","198359","0.0-164.0","3FK0YFF9P0270TJ749GWVE5RRJ9VVI","A3HVFSD8K94SOR","3HUR21WDDUBEMSLDIXZW1FAIHW8YX3","","706","img/flower3.png","75","708","2","1","2","2","1,0,0,1,1,0,1,0,1","1,0,0,1,1,0,1,0,1","1",""
"","html-keyboard-response","165","198676","0.0-165.0","3FK0YFF9P0270TJ749GWVE5RRJ9VVI","A3HVFSD8K94SOR","3HUR21WDDUBEMSLDIXZW1FAIHW8YX3","","null","<img src=""img/flower3.png"" style=""width:200px; border:14px solid green;"">","null","","","","","","","","",""
"","image-keyboard-response","166","199418","0.0-166.0","3FK0YFF9P0270TJ749GWVE5RRJ9VVI","A3HVFSD8K94SOR","3HUR21WDDUBEMSLDIXZW1FAIHW8YX3","","742","img/flower1.png","74","742","1","1","1","2","1,0,0,1,1,0,1,0,1","1,0,0,1,1,0,1,0,1","1",""
"","html-keyboard-response","167","199727","0.0-167.0","3FK0YFF9P0270TJ749GWVE5RRJ9VVI","A3HVFSD8K94SOR","3HUR21WDDUBEMSLDIXZW1FAIHW8YX3","","null","<img src=""img/flower1.png"" style=""width:200px; border:14px solid green;"">","null","","","","","","","","",""
"","image-keyboard-response","168","200816","0.0-168.0","3FK0YFF9P0270TJ749GWVE5RRJ9VVI","A3HVFSD8K94SOR","3HUR21WDDUBEMSLDIXZW1FAIHW8YX3","","1088","img/flower3.png","75","1088","2","1","2","2","1,0,0,1,1,0,1,0,1","1,0,0,1,1,0,1,0,1","1",""
"","html-keyboard-response","169","201118","0.0-169.0","3FK0YFF9P0270TJ749GWVE5RRJ9VVI","A3HVFSD8K94SOR","3HUR21WDDUBEMSLDIXZW1FAIHW8YX3","","null","<img src=""img/flower3.png"" style=""width:200px; border:14px solid green;"">","null","","","","","","","","",""
"","image-keyboard-response","170","202000","0.0-170.0","3FK0YFF9P0270TJ749GWVE5RRJ9VVI","A3HVFSD8K94SOR","3HUR21WDDUBEMSLDIXZW1FAIHW8YX3","","881","img/flower6.png","74","882","1","1","3","2","1,0,0,1,1,0,1,0,1","1,0,0,1,1,0,1,0,1","1",""
"","html-keyboard-response","171","202310","0.0-171.0","3FK0YFF9P0270TJ749GWVE5RRJ9VVI","A3HVFSD8K94SOR","3HUR21WDDUBEMSLDIXZW1FAIHW8YX3","","null","<img src=""img/flower6.png"" style=""width:200px; border:14px solid green;"">","null","","","","","","","","",""
"","image-keyboard-response","172","203449","0.0-172.0","3FK0YFF9P0270TJ749GWVE5RRJ9VVI","A3HVFSD8K94SOR","3HUR21WDDUBEMSLDIXZW1FAIHW8YX3","","1137","img/flower1.png","74","1139","1","1","1","2","1,0,0,1,1,0,1,0,1","1,0,0,1,1,0,1,0,1","1",""
"","html-keyboard-response","173","203750","0.0-173.0","3FK0YFF9P0270TJ749GWVE5RRJ9VVI","A3HVFSD8K94SOR","3HUR21WDDUBEMSLDIXZW1FAIHW8YX3","","null","<img src=""img/flower1.png"" style=""width:200px; border:14px solid green;"">","null","","","","","","","","",""
"","image-keyboard-response","174","204343","0.0-174.0","3FK0YFF9P0270TJ749GWVE5RRJ9VVI","A3HVFSD8K94SOR","3HUR21WDDUBEMSLDIXZW1FAIHW8YX3","","591","img/flower1.png","74","593","1","1","1","2","1,0,0,1,1,0,1,0,1","1,0,0,1,1,0,1,0,1","1",""
"","html-keyboard-response","175","204653","0.0-175.0","3FK0YFF9P0270TJ749GWVE5RRJ9VVI","A3HVFSD8K94SOR","3HUR21WDDUBEMSLDIXZW1FAIHW8YX3","","null","<img src=""img/flower1.png"" style=""width:200px; border:14px solid green;"">","null","","","","","","","","",""
"","image-keyboard-response","176","205657","0.0-176.0","3FK0YFF9P0270TJ749GWVE5RRJ9VVI","A3HVFSD8K94SOR","3HUR21WDDUBEMSLDIXZW1FAIHW8YX3","","1003","img/flower1.png","74","1004","1","1","1","2","1,0,0,1,1,0,1,0,1","1,0,0,1,1,0,1,0,1","1",""
"","html-keyboard-response","177","205964","0.0-177.0","3FK0YFF9P0270TJ749GWVE5RRJ9VVI","A3HVFSD8K94SOR","3HUR21WDDUBEMSLDIXZW1FAIHW8YX3","","null","<img src=""img/flower1.png"" style=""width:200px; border:14px solid green;"">","null","","","","","","","","",""
"","image-keyboard-response","178","206736","0.0-178.0","3FK0YFF9P0270TJ749GWVE5RRJ9VVI","A3HVFSD8K94SOR","3HUR21WDDUBEMSLDIXZW1FAIHW8YX3","","772","img/flower6.png","74","772","1","1","3","2","1,0,0,1,1,0,1,0,1","1,0,0,1,1,0,1,0,1","1",""
"","html-keyboard-response","179","207040","0.0-179.0","3FK0YFF9P0270TJ749GWVE5RRJ9VVI","A3HVFSD8K94SOR","3HUR21WDDUBEMSLDIXZW1FAIHW8YX3","","null","<img src=""img/flower6.png"" style=""width:200px; border:14px solid green;"">","null","","","","","","","","",""
"","image-keyboard-response","180","207720","0.0-180.0","3FK0YFF9P0270TJ749GWVE5RRJ9VVI","A3HVFSD8K94SOR","3HUR21WDDUBEMSLDIXZW1FAIHW8YX3","","679","img/flower1.png","74","681","1","1","1","2","1,0,0,1,1,0,1,0,1","1,0,0,1,1,0,1,0,1","1",""
"","html-keyboard-response","181","208032","0.0-181.0","3FK0YFF9P0270TJ749GWVE5RRJ9VVI","A3HVFSD8K94SOR","3HUR21WDDUBEMSLDIXZW1FAIHW8YX3","","null","<img src=""img/flower1.png"" style=""width:200px; border:14px solid green;"">","null","","","","","","","","",""
"","image-keyboard-response","182","209346","0.0-182.0","3FK0YFF9P0270TJ749GWVE5RRJ9VVI","A3HVFSD8K94SOR","3HUR21WDDUBEMSLDIXZW1FAIHW8YX3","","1314","img/flower5.png","74","1314","1","0","3","1","1,0.333,0.333,0.333,1,0.333,0.333,0.333,1","1,0.333,0.333,0.333,1,0.333,0.333,0.333,1","1",""
"","html-keyboard-response","183","209654","0.0-183.0","3FK0YFF9P0270TJ749GWVE5RRJ9VVI","A3HVFSD8K94SOR","3HUR21WDDUBEMSLDIXZW1FAIHW8YX3","","null","<img src=""img/flower5.png"" style=""width:200px;border:14px solid red;"">","null","","","","","","","","",""
"","image-keyboard-response","184","210426","0.0-184.0","3FK0YFF9P0270TJ749GWVE5RRJ9VVI","A3HVFSD8K94SOR","3HUR21WDDUBEMSLDIXZW1FAIHW8YX3","","771","img/flower5.png","76","772","3","1","3","1","1,0.333,0.333,0.333,1,0.333,0.333,0.333,1","1,0.333,0.333,0.333,1,0.333,0.333,0.333,1","1",""
"","html-keyboard-response","185","210730","0.0-185.0","3FK0YFF9P0270TJ749GWVE5RRJ9VVI","A3HVFSD8K94SOR","3HUR21WDDUBEMSLDIXZW1FAIHW8YX3","","null","<img src=""img/flower5.png"" style=""width:200px; border:14px solid green;"">","null","","","","","","","","",""
"","image-keyboard-response","186","211809","0.0-186.0","3FK0YFF9P0270TJ749GWVE5RRJ9VVI","A3HVFSD8K94SOR","3HUR21WDDUBEMSLDIXZW1FAIHW8YX3","","1077","img/flower5.png","76","1080","3","1","3","1","1,0.333,0.333,0.333,1,0.333,0.333,0.333,1","1,0.333,0.333,0.333,1,0.333,0.333,0.333,1","1",""
"","html-keyboard-response","187","212116","0.0-187.0","3FK0YFF9P0270TJ749GWVE5RRJ9VVI","A3HVFSD8K94SOR","3HUR21WDDUBEMSLDIXZW1FAIHW8YX3","","null","<img src=""img/flower5.png"" style=""width:200px; border:14px solid green;"">","null","","","","","","","","",""
"","image-keyboard-response","188","213402","0.0-188.0","3FK0YFF9P0270TJ749GWVE5RRJ9VVI","A3HVFSD8K94SOR","3HUR21WDDUBEMSLDIXZW1FAIHW8YX3","","1285","img/flower2.png","76","1286","3","1","1","1","1,0.333,0.333,0.333,1,0.333,0.333,0.333,1","1,0.333,0.333,0.333,1,0.333,0.333,0.333,1","1",""
"","html-keyboard-response","189","213710","0.0-189.0","3FK0YFF9P0270TJ749GWVE5RRJ9VVI","A3HVFSD8K94SOR","3HUR21WDDUBEMSLDIXZW1FAIHW8YX3","","null","<img src=""img/flower2.png"" style=""width:200px; border:14px solid green;"">","null","","","","","","","","",""
"","image-keyboard-response","190","214581","0.0-190.0","3FK0YFF9P0270TJ749GWVE5RRJ9VVI","A3HVFSD8K94SOR","3HUR21WDDUBEMSLDIXZW1FAIHW8YX3","","870","img/flower2.png","76","870","3","0","1","1","1,0.333,0.333,0.333,1,0.333,0.333,0.333,1","1,0.333,0.333,0.333,1,0.333,0.333,0.333,1","1",""
"","html-keyboard-response","191","214886","0.0-191.0","3FK0YFF9P0270TJ749GWVE5RRJ9VVI","A3HVFSD8K94SOR","3HUR21WDDUBEMSLDIXZW1FAIHW8YX3","","null","<img src=""img/flower2.png"" style=""width:200px;border:14px solid red;"">","null","","","","","","","","",""
"","image-keyboard-response","192","215525","0.0-192.0","3FK0YFF9P0270TJ749GWVE5RRJ9VVI","A3HVFSD8K94SOR","3HUR21WDDUBEMSLDIXZW1FAIHW8YX3","","638","img/flower2.png","76","638","3","0","1","1","1,0.333,0.333,0.333,1,0.333,0.333,0.333,1","1,0.333,0.333,0.333,1,0.333,0.333,0.333,1","1",""
"","html-keyboard-response","193","215836","0.0-193.0","3FK0YFF9P0270TJ749GWVE5RRJ9VVI","A3HVFSD8K94SOR","3HUR21WDDUBEMSLDIXZW1FAIHW8YX3","","null","<img src=""img/flower2.png"" style=""width:200px;border:14px solid red;"">","null","","","","","","","","",""
"","image-keyboard-response","194","217323","0.0-194.0","3FK0YFF9P0270TJ749GWVE5RRJ9VVI","A3HVFSD8K94SOR","3HUR21WDDUBEMSLDIXZW1FAIHW8YX3","","1486","img/flower4.png","75","1487","2","1","2","1","1,0.333,0.333,0.333,1,0.333,0.333,0.333,1","1,0.333,0.333,0.333,1,0.333,0.333,0.333,1","1",""
"","html-keyboard-response","195","217640","0.0-195.0","3FK0YFF9P0270TJ749GWVE5RRJ9VVI","A3HVFSD8K94SOR","3HUR21WDDUBEMSLDIXZW1FAIHW8YX3","","null","<img src=""img/flower4.png"" style=""width:200px; border:14px solid green;"">","null","","","","","","","","",""
"","image-keyboard-response","196","219652","0.0-196.0","3FK0YFF9P0270TJ749GWVE5RRJ9VVI","A3HVFSD8K94SOR","3HUR21WDDUBEMSLDIXZW1FAIHW8YX3","","","img/flower2.png","","2011","-1","0","1","1","1,0.333,0.333,0.333,1,0.333,0.333,0.333,1","1,0.333,0.333,0.333,1,0.333,0.333,0.333,1","1",""
"","html-keyboard-response","197","219953","0.0-197.0","3FK0YFF9P0270TJ749GWVE5RRJ9VVI","A3HVFSD8K94SOR","3HUR21WDDUBEMSLDIXZW1FAIHW8YX3","","null","<img src=""img/flower2.png"" style=""width:200px;border:14px solid red;"">","null","","","","","","","","",""
"","image-keyboard-response","198","221792","0.0-198.0","3FK0YFF9P0270TJ749GWVE5RRJ9VVI","A3HVFSD8K94SOR","3HUR21WDDUBEMSLDIXZW1FAIHW8YX3","","1839","img/flower4.png","76","1840","3","0","2","1","1,0.333,0.333,0.333,1,0.333,0.333,0.333,1","1,0.333,0.333,0.333,1,0.333,0.333,0.333,1","1",""
"","html-keyboard-response","199","222098","0.0-199.0","3FK0YFF9P0270TJ749GWVE5RRJ9VVI","A3HVFSD8K94SOR","3HUR21WDDUBEMSLDIXZW1FAIHW8YX3","","null","<img src=""img/flower4.png"" style=""width:200px;border:14px solid red;"">","null","","","","","","","","",""
"","image-keyboard-response","200","223795","0.0-200.0","3FK0YFF9P0270TJ749GWVE5RRJ9VVI","A3HVFSD8K94SOR","3HUR21WDDUBEMSLDIXZW1FAIHW8YX3","","1696","img/flower5.png","76","1697","3","1","3","1","1,0.333,0.333,0.333,1,0.333,0.333,0.333,1","1,0.333,0.333,0.333,1,0.333,0.333,0.333,1","1",""
"","html-keyboard-response","201","224108","0.0-201.0","3FK0YFF9P0270TJ749GWVE5RRJ9VVI","A3HVFSD8K94SOR","3HUR21WDDUBEMSLDIXZW1FAIHW8YX3","","null","<img src=""img/flower5.png"" style=""width:200px; border:14px solid green;"">","null","","","","","","","","",""
"","image-keyboard-response","202","224884","0.0-202.0","3FK0YFF9P0270TJ749GWVE5RRJ9VVI","A3HVFSD8K94SOR","3HUR21WDDUBEMSLDIXZW1FAIHW8YX3","","775","img/flower5.png","76","776","3","1","3","1","1,0.333,0.333,0.333,1,0.333,0.333,0.333,1","1,0.333,0.333,0.333,1,0.333,0.333,0.333,1","1",""
"","html-keyboard-response","203","225195","0.0-203.0","3FK0YFF9P0270TJ749GWVE5RRJ9VVI","A3HVFSD8K94SOR","3HUR21WDDUBEMSLDIXZW1FAIHW8YX3","","null","<img src=""img/flower5.png"" style=""width:200px; border:14px solid green;"">","null","","","","","","","","",""
"","image-keyboard-response","204","226577","0.0-204.0","3FK0YFF9P0270TJ749GWVE5RRJ9VVI","A3HVFSD8K94SOR","3HUR21WDDUBEMSLDIXZW1FAIHW8YX3","","1382","img/flower2.png","74","1382","1","1","1","1","1,0.333,0.333,0.333,1,0.333,0.333,0.333,1","1,0.333,0.333,0.333,1,0.333,0.333,0.333,1","1",""
"","html-keyboard-response","205","226890","0.0-205.0","3FK0YFF9P0270TJ749GWVE5RRJ9VVI","A3HVFSD8K94SOR","3HUR21WDDUBEMSLDIXZW1FAIHW8YX3","","null","<img src=""img/flower2.png"" style=""width:200px; border:14px solid green;"">","null","","","","","","","","",""
"","image-keyboard-response","206","227981","0.0-206.0","3FK0YFF9P0270TJ749GWVE5RRJ9VVI","A3HVFSD8K94SOR","3HUR21WDDUBEMSLDIXZW1FAIHW8YX3","","1090","img/flower4.png","74","1091","1","1","2","1","1,0.333,0.333,0.333,1,0.333,0.333,0.333,1","1,0.333,0.333,0.333,1,0.333,0.333,0.333,1","1",""
"","html-keyboard-response","207","228298","0.0-207.0","3FK0YFF9P0270TJ749GWVE5RRJ9VVI","A3HVFSD8K94SOR","3HUR21WDDUBEMSLDIXZW1FAIHW8YX3","","null","<img src=""img/flower4.png"" style=""width:200px; border:14px solid green;"">","null","","","","","","","","",""
"","image-keyboard-response","208","229254","0.0-208.0","3FK0YFF9P0270TJ749GWVE5RRJ9VVI","A3HVFSD8K94SOR","3HUR21WDDUBEMSLDIXZW1FAIHW8YX3","","955","img/flower4.png","74","955","1","1","2","1","1,0.333,0.333,0.333,1,0.333,0.333,0.333,1","1,0.333,0.333,0.333,1,0.333,0.333,0.333,1","1",""
"","html-keyboard-response","209","229568","0.0-209.0","3FK0YFF9P0270TJ749GWVE5RRJ9VVI","A3HVFSD8K94SOR","3HUR21WDDUBEMSLDIXZW1FAIHW8YX3","","null","<img src=""img/flower4.png"" style=""width:200px; border:14px solid green;"">","null","","","","","","","","",""
"","image-keyboard-response","210","230497","0.0-210.0","3FK0YFF9P0270TJ749GWVE5RRJ9VVI","A3HVFSD8K94SOR","3HUR21WDDUBEMSLDIXZW1FAIHW8YX3","","928","img/flower4.png","74","929","1","0","2","1","1,0.333,0.333,0.333,1,0.333,0.333,0.333,1","1,0.333,0.333,0.333,1,0.333,0.333,0.333,1","1",""
"","html-keyboard-response","211","230813","0.0-211.0","3FK0YFF9P0270TJ749GWVE5RRJ9VVI","A3HVFSD8K94SOR","3HUR21WDDUBEMSLDIXZW1FAIHW8YX3","","null","<img src=""img/flower4.png"" style=""width:200px;border:14px solid red;"">","null","","","","","","","","",""
"","image-keyboard-response","212","232824","0.0-212.0","3FK0YFF9P0270TJ749GWVE5RRJ9VVI","A3HVFSD8K94SOR","3HUR21WDDUBEMSLDIXZW1FAIHW8YX3","","","img/flower5.png","","2011","-1","0","3","1","1,0.333,0.333,0.333,1,0.333,0.333,0.333,1","1,0.333,0.333,0.333,1,0.333,0.333,0.333,1","1",""
"","html-keyboard-response","213","233125","0.0-213.0","3FK0YFF9P0270TJ749GWVE5RRJ9VVI","A3HVFSD8K94SOR","3HUR21WDDUBEMSLDIXZW1FAIHW8YX3","","null","<img src=""img/flower5.png"" style=""width:200px;border:14px solid red;"">","null","","","","","","","","",""
"","image-keyboard-response","214","233749","0.0-214.0","3FK0YFF9P0270TJ749GWVE5RRJ9VVI","A3HVFSD8K94SOR","3HUR21WDDUBEMSLDIXZW1FAIHW8YX3","","623","img/flower5.png","74","623","1","1","3","1","1,0.333,0.333,0.333,1,0.333,0.333,0.333,1","1,0.333,0.333,0.333,1,0.333,0.333,0.333,1","1",""
"","html-keyboard-response","215","234063","0.0-215.0","3FK0YFF9P0270TJ749GWVE5RRJ9VVI","A3HVFSD8K94SOR","3HUR21WDDUBEMSLDIXZW1FAIHW8YX3","","null","<img src=""img/flower5.png"" style=""width:200px; border:14px solid green;"">","null","","","","","","","","",""
"","image-keyboard-response","216","234717","0.0-216.0","3FK0YFF9P0270TJ749GWVE5RRJ9VVI","A3HVFSD8K94SOR","3HUR21WDDUBEMSLDIXZW1FAIHW8YX3","","653","img/flower5.png","74","653","1","1","3","1","1,0.333,0.333,0.333,1,0.333,0.333,0.333,1","1,0.333,0.333,0.333,1,0.333,0.333,0.333,1","1",""
"","html-keyboard-response","217","235037","0.0-217.0","3FK0YFF9P0270TJ749GWVE5RRJ9VVI","A3HVFSD8K94SOR","3HUR21WDDUBEMSLDIXZW1FAIHW8YX3","","null","<img src=""img/flower5.png"" style=""width:200px; border:14px solid green;"">","null","","","","","","","","",""
"","image-keyboard-response","218","236166","0.0-218.0","3FK0YFF9P0270TJ749GWVE5RRJ9VVI","A3HVFSD8K94SOR","3HUR21WDDUBEMSLDIXZW1FAIHW8YX3","","1128","img/flower4.png","74","1129","1","0","2","1","1,0.333,0.333,0.333,1,0.333,0.333,0.333,1","1,0.333,0.333,0.333,1,0.333,0.333,0.333,1","1",""
"","html-keyboard-response","219","236474","0.0-219.0","3FK0YFF9P0270TJ749GWVE5RRJ9VVI","A3HVFSD8K94SOR","3HUR21WDDUBEMSLDIXZW1FAIHW8YX3","","null","<img src=""img/flower4.png"" style=""width:200px;border:14px solid red;"">","null","","","","","","","","",""
"","image-keyboard-response","220","238034","0.0-220.0","3FK0YFF9P0270TJ749GWVE5RRJ9VVI","A3HVFSD8K94SOR","3HUR21WDDUBEMSLDIXZW1FAIHW8YX3","","1559","img/flower2.png","75","1559","2","1","1","1","1,0.333,0.333,0.333,1,0.333,0.333,0.333,1","1,0.333,0.333,0.333,1,0.333,0.333,0.333,1","1",""
"","html-keyboard-response","221","238353","0.0-221.0","3FK0YFF9P0270TJ749GWVE5RRJ9VVI","A3HVFSD8K94SOR","3HUR21WDDUBEMSLDIXZW1FAIHW8YX3","","null","<img src=""img/flower2.png"" style=""width:200px; border:14px solid green;"">","null","","","","","","","","",""
"","image-keyboard-response","222","239643","0.0-222.0","3FK0YFF9P0270TJ749GWVE5RRJ9VVI","A3HVFSD8K94SOR","3HUR21WDDUBEMSLDIXZW1FAIHW8YX3","","1289","img/flower5.png","74","1290","1","0","3","1","1,0.333,0.333,0.333,1,0.333,0.333,0.333,1","1,0.333,0.333,0.333,1,0.333,0.333,0.333,1","1",""
"","html-keyboard-response","223","239963","0.0-223.0","3FK0YFF9P0270TJ749GWVE5RRJ9VVI","A3HVFSD8K94SOR","3HUR21WDDUBEMSLDIXZW1FAIHW8YX3","","null","<img src=""img/flower5.png"" style=""width:200px;border:14px solid red;"">","null","","","","","","","","",""
"","image-keyboard-response","224","241855","0.0-224.0","3FK0YFF9P0270TJ749GWVE5RRJ9VVI","A3HVFSD8K94SOR","3HUR21WDDUBEMSLDIXZW1FAIHW8YX3","","1890","img/flower4.png","75","1891","2","1","2","1","1,0.333,0.333,0.333,1,0.333,0.333,0.333,1","1,0.333,0.333,0.333,1,0.333,0.333,0.333,1","1",""
"","html-keyboard-response","225","242161","0.0-225.0","3FK0YFF9P0270TJ749GWVE5RRJ9VVI","A3HVFSD8K94SOR","3HUR21WDDUBEMSLDIXZW1FAIHW8YX3","","null","<img src=""img/flower4.png"" style=""width:200px; border:14px solid green;"">","null","","","","","","","","",""
"","image-keyboard-response","226","244168","0.0-226.0","3FK0YFF9P0270TJ749GWVE5RRJ9VVI","A3HVFSD8K94SOR","3HUR21WDDUBEMSLDIXZW1FAIHW8YX3","","","img/flower5.png","","2007","-1","0","3","1","1,0.333,0.333,0.333,1,0.333,0.333,0.333,1","1,0.333,0.333,0.333,1,0.333,0.333,0.333,1","1",""
"","html-keyboard-response","227","244475","0.0-227.0","3FK0YFF9P0270TJ749GWVE5RRJ9VVI","A3HVFSD8K94SOR","3HUR21WDDUBEMSLDIXZW1FAIHW8YX3","","null","<img src=""img/flower5.png"" style=""width:200px;border:14px solid red;"">","null","","","","","","","","",""
"","image-keyboard-response","228","245466","0.0-228.0","3FK0YFF9P0270TJ749GWVE5RRJ9VVI","A3HVFSD8K94SOR","3HUR21WDDUBEMSLDIXZW1FAIHW8YX3","","990","img/flower4.png","75","991","2","1","2","1","1,0.333,0.333,0.333,1,0.333,0.333,0.333,1","1,0.333,0.333,0.333,1,0.333,0.333,0.333,1","1",""
"","html-keyboard-response","229","245774","0.0-229.0","3FK0YFF9P0270TJ749GWVE5RRJ9VVI","A3HVFSD8K94SOR","3HUR21WDDUBEMSLDIXZW1FAIHW8YX3","","null","<img src=""img/flower4.png"" style=""width:200px; border:14px solid green;"">","null","","","","","","","","",""
"","image-keyboard-response","230","246596","0.0-230.0","3FK0YFF9P0270TJ749GWVE5RRJ9VVI","A3HVFSD8K94SOR","3HUR21WDDUBEMSLDIXZW1FAIHW8YX3","","820","img/flower4.png","75","822","2","1","2","1","1,0.333,0.333,0.333,1,0.333,0.333,0.333,1","1,0.333,0.333,0.333,1,0.333,0.333,0.333,1","1",""
"","html-keyboard-response","231","246897","0.0-231.0","3FK0YFF9P0270TJ749GWVE5RRJ9VVI","A3HVFSD8K94SOR","3HUR21WDDUBEMSLDIXZW1FAIHW8YX3","","null","<img src=""img/flower4.png"" style=""width:200px; border:14px solid green;"">","null","","","","","","","","",""
"","image-keyboard-response","232","248168","0.0-232.0","3FK0YFF9P0270TJ749GWVE5RRJ9VVI","A3HVFSD8K94SOR","3HUR21WDDUBEMSLDIXZW1FAIHW8YX3","","1270","img/flower5.png","76","1272","3","1","3","1","1,0.333,0.333,0.333,1,0.333,0.333,0.333,1","1,0.333,0.333,0.333,1,0.333,0.333,0.333,1","1",""
"","html-keyboard-response","233","248476","0.0-233.0","3FK0YFF9P0270TJ749GWVE5RRJ9VVI","A3HVFSD8K94SOR","3HUR21WDDUBEMSLDIXZW1FAIHW8YX3","","null","<img src=""img/flower5.png"" style=""width:200px; border:14px solid green;"">","null","","","","","","","","",""
"","image-keyboard-response","234","249456","0.0-234.0","3FK0YFF9P0270TJ749GWVE5RRJ9VVI","A3HVFSD8K94SOR","3HUR21WDDUBEMSLDIXZW1FAIHW8YX3","","979","img/flower4.png","75","981","2","1","2","1","1,0.333,0.333,0.333,1,0.333,0.333,0.333,1","1,0.333,0.333,0.333,1,0.333,0.333,0.333,1","1",""
"","html-keyboard-response","235","249767","0.0-235.0","3FK0YFF9P0270TJ749GWVE5RRJ9VVI","A3HVFSD8K94SOR","3HUR21WDDUBEMSLDIXZW1FAIHW8YX3","","null","<img src=""img/flower4.png"" style=""width:200px; border:14px solid green;"">","null","","","","","","","","",""
"","image-keyboard-response","236","250835","0.0-236.0","3FK0YFF9P0270TJ749GWVE5RRJ9VVI","A3HVFSD8K94SOR","3HUR21WDDUBEMSLDIXZW1FAIHW8YX3","","1066","img/flower2.png","75","1067","2","0","1","1","1,0.333,0.333,0.333,1,0.333,0.333,0.333,1","1,0.333,0.333,0.333,1,0.333,0.333,0.333,1","1",""
"","html-keyboard-response","237","251143","0.0-237.0","3FK0YFF9P0270TJ749GWVE5RRJ9VVI","A3HVFSD8K94SOR","3HUR21WDDUBEMSLDIXZW1FAIHW8YX3","","null","<img src=""img/flower2.png"" style=""width:200px;border:14px solid red;"">","null","","","","","","","","",""
"","image-keyboard-response","238","252532","0.0-238.0","3FK0YFF9P0270TJ749GWVE5RRJ9VVI","A3HVFSD8K94SOR","3HUR21WDDUBEMSLDIXZW1FAIHW8YX3","","1390","img/flower2.png","74","1391","1","1","1","1","1,0.333,0.333,0.333,1,0.333,0.333,0.333,1","1,0.333,0.333,0.333,1,0.333,0.333,0.333,1","1",""
"","html-keyboard-response","239","252849","0.0-239.0","3FK0YFF9P0270TJ749GWVE5RRJ9VVI","A3HVFSD8K94SOR","3HUR21WDDUBEMSLDIXZW1FAIHW8YX3","","null","<img src=""img/flower2.png"" style=""width:200px; border:14px solid green;"">","null","","","","","","","","",""
"","image-keyboard-response","240","254081","0.0-240.0","3FK0YFF9P0270TJ749GWVE5RRJ9VVI","A3HVFSD8K94SOR","3HUR21WDDUBEMSLDIXZW1FAIHW8YX3","","1232","img/flower4.png","75","1232","2","1","2","1","1,0.333,0.333,0.333,1,0.333,0.333,0.333,1","1,0.333,0.333,0.333,1,0.333,0.333,0.333,1","1",""
"","html-keyboard-response","241","254392","0.0-241.0","3FK0YFF9P0270TJ749GWVE5RRJ9VVI","A3HVFSD8K94SOR","3HUR21WDDUBEMSLDIXZW1FAIHW8YX3","","null","<img src=""img/flower4.png"" style=""width:200px; border:14px solid green;"">","null","","","","","","","","",""
"","image-keyboard-response","242","255400","0.0-242.0","3FK0YFF9P0270TJ749GWVE5RRJ9VVI","A3HVFSD8K94SOR","3HUR21WDDUBEMSLDIXZW1FAIHW8YX3","","1006","img/flower5.png","76","1007","3","1","3","1","1,0.333,0.333,0.333,1,0.333,0.333,0.333,1","1,0.333,0.333,0.333,1,0.333,0.333,0.333,1","1",""
"","html-keyboard-response","243","255719","0.0-243.0","3FK0YFF9P0270TJ749GWVE5RRJ9VVI","A3HVFSD8K94SOR","3HUR21WDDUBEMSLDIXZW1FAIHW8YX3","","null","<img src=""img/flower5.png"" style=""width:200px; border:14px solid green;"">","null","","","","","","","","",""
"","image-keyboard-response","244","256719","0.0-244.0","3FK0YFF9P0270TJ749GWVE5RRJ9VVI","A3HVFSD8K94SOR","3HUR21WDDUBEMSLDIXZW1FAIHW8YX3","","998","img/flower4.png","75","999","2","1","2","1","1,0.333,0.333,0.333,1,0.333,0.333,0.333,1","1,0.333,0.333,0.333,1,0.333,0.333,0.333,1","1",""
"","html-keyboard-response","245","257036","0.0-245.0","3FK0YFF9P0270TJ749GWVE5RRJ9VVI","A3HVFSD8K94SOR","3HUR21WDDUBEMSLDIXZW1FAIHW8YX3","","null","<img src=""img/flower4.png"" style=""width:200px; border:14px solid green;"">","null","","","","","","","","",""
"","image-keyboard-response","246","258106","0.0-246.0","3FK0YFF9P0270TJ749GWVE5RRJ9VVI","A3HVFSD8K94SOR","3HUR21WDDUBEMSLDIXZW1FAIHW8YX3","","1070","img/flower2.png","74","1071","1","1","1","1","1,0.333,0.333,0.333,1,0.333,0.333,0.333,1","1,0.333,0.333,0.333,1,0.333,0.333,0.333,1","1",""
"","html-keyboard-response","247","258421","0.0-247.0","3FK0YFF9P0270TJ749GWVE5RRJ9VVI","A3HVFSD8K94SOR","3HUR21WDDUBEMSLDIXZW1FAIHW8YX3","","null","<img src=""img/flower2.png"" style=""width:200px; border:14px solid green;"">","null","","","","","","","","",""
"","image-keyboard-response","248","259341","0.0-248.0","3FK0YFF9P0270TJ749GWVE5RRJ9VVI","A3HVFSD8K94SOR","3HUR21WDDUBEMSLDIXZW1FAIHW8YX3","","918","img/flower5.png","76","919","3","1","3","1","1,0.333,0.333,0.333,1,0.333,0.333,0.333,1","1,0.333,0.333,0.333,1,0.333,0.333,0.333,1","1",""
"","html-keyboard-response","249","259653","0.0-249.0","3FK0YFF9P0270TJ749GWVE5RRJ9VVI","A3HVFSD8K94SOR","3HUR21WDDUBEMSLDIXZW1FAIHW8YX3","","null","<img src=""img/flower5.png"" style=""width:200px; border:14px solid green;"">","null","","","","","","","","",""
"","image-keyboard-response","250","260504","0.0-250.0","3FK0YFF9P0270TJ749GWVE5RRJ9VVI","A3HVFSD8K94SOR","3HUR21WDDUBEMSLDIXZW1FAIHW8YX3","","849","img/flower4.png","75","851","2","1","2","1","1,0.333,0.333,0.333,1,0.333,0.333,0.333,1","1,0.333,0.333,0.333,1,0.333,0.333,0.333,1","1",""
"","html-keyboard-response","251","260809","0.0-251.0","3FK0YFF9P0270TJ749GWVE5RRJ9VVI","A3HVFSD8K94SOR","3HUR21WDDUBEMSLDIXZW1FAIHW8YX3","","null","<img src=""img/flower4.png"" style=""width:200px; border:14px solid green;"">","null","","","","","","","","",""
"","image-keyboard-response","252","261594","0.0-252.0","3FK0YFF9P0270TJ749GWVE5RRJ9VVI","A3HVFSD8K94SOR","3HUR21WDDUBEMSLDIXZW1FAIHW8YX3","","783","img/flower2.png","74","785","1","1","1","1","1,0.333,0.333,0.333,1,0.333,0.333,0.333,1","1,0.333,0.333,0.333,1,0.333,0.333,0.333,1","1",""
"","html-keyboard-response","253","261902","0.0-253.0","3FK0YFF9P0270TJ749GWVE5RRJ9VVI","A3HVFSD8K94SOR","3HUR21WDDUBEMSLDIXZW1FAIHW8YX3","","null","<img src=""img/flower2.png"" style=""width:200px; border:14px solid green;"">","null","","","","","","","","",""
"","image-keyboard-response","254","263016","0.0-254.0","3FK0YFF9P0270TJ749GWVE5RRJ9VVI","A3HVFSD8K94SOR","3HUR21WDDUBEMSLDIXZW1FAIHW8YX3","","1113","img/flower2.png","74","1114","1","1","1","1","1,0.333,0.333,0.333,1,0.333,0.333,0.333,1","1,0.333,0.333,0.333,1,0.333,0.333,0.333,1","1",""
"","html-keyboard-response","255","263324","0.0-255.0","3FK0YFF9P0270TJ749GWVE5RRJ9VVI","A3HVFSD8K94SOR","3HUR21WDDUBEMSLDIXZW1FAIHW8YX3","","null","<img src=""img/flower2.png"" style=""width:200px; border:14px solid green;"">","null","","","","","","","","",""
"","image-keyboard-response","256","264305","0.0-256.0","3FK0YFF9P0270TJ749GWVE5RRJ9VVI","A3HVFSD8K94SOR","3HUR21WDDUBEMSLDIXZW1FAIHW8YX3","","979","img/flower5.png","76","979","3","1","3","1","1,0.333,0.333,0.333,1,0.333,0.333,0.333,1","1,0.333,0.333,0.333,1,0.333,0.333,0.333,1","1",""
"","html-keyboard-response","257","264617","0.0-257.0","3FK0YFF9P0270TJ749GWVE5RRJ9VVI","A3HVFSD8K94SOR","3HUR21WDDUBEMSLDIXZW1FAIHW8YX3","","null","<img src=""img/flower5.png"" style=""width:200px; border:14px solid green;"">","null","","","","","","","","",""
"","image-keyboard-response","258","265288","0.0-258.0","3FK0YFF9P0270TJ749GWVE5RRJ9VVI","A3HVFSD8K94SOR","3HUR21WDDUBEMSLDIXZW1FAIHW8YX3","","670","img/flower4.png","75","671","2","1","2","1","1,0.333,0.333,0.333,1,0.333,0.333,0.333,1","1,0.333,0.333,0.333,1,0.333,0.333,0.333,1","1",""
"","html-keyboard-response","259","265597","0.0-259.0","3FK0YFF9P0270TJ749GWVE5RRJ9VVI","A3HVFSD8K94SOR","3HUR21WDDUBEMSLDIXZW1FAIHW8YX3","","null","<img src=""img/flower4.png"" style=""width:200px; border:14px solid green;"">","null","","","","","","","","",""
"","image-keyboard-response","260","266583","0.0-260.0","3FK0YFF9P0270TJ749GWVE5RRJ9VVI","A3HVFSD8K94SOR","3HUR21WDDUBEMSLDIXZW1FAIHW8YX3","","985","img/flower5.png","74","986","1","1","3","1","1,0.333,0.333,0.333,1,0.333,0.333,0.333,1","1,0.333,0.333,0.333,1,0.333,0.333,0.333,1","1",""
"","html-keyboard-response","261","266888","0.0-261.0","3FK0YFF9P0270TJ749GWVE5RRJ9VVI","A3HVFSD8K94SOR","3HUR21WDDUBEMSLDIXZW1FAIHW8YX3","","null","<img src=""img/flower5.png"" style=""width:200px; border:14px solid green;"">","null","","","","","","","","",""
"","image-keyboard-response","262","268125","0.0-262.0","3FK0YFF9P0270TJ749GWVE5RRJ9VVI","A3HVFSD8K94SOR","3HUR21WDDUBEMSLDIXZW1FAIHW8YX3","","1236","img/flower2.png","75","1236","2","1","1","1","1,0.333,0.333,0.333,1,0.333,0.333,0.333,1","1,0.333,0.333,0.333,1,0.333,0.333,0.333,1","1",""
"","html-keyboard-response","263","268435","0.0-263.0","3FK0YFF9P0270TJ749GWVE5RRJ9VVI","A3HVFSD8K94SOR","3HUR21WDDUBEMSLDIXZW1FAIHW8YX3","","null","<img src=""img/flower2.png"" style=""width:200px; border:14px solid green;"">","null","","","","","","","","",""
"","image-keyboard-response","264","269240","0.0-264.0","3FK0YFF9P0270TJ749GWVE5RRJ9VVI","A3HVFSD8K94SOR","3HUR21WDDUBEMSLDIXZW1FAIHW8YX3","","803","img/flower5.png","76","804","3","1","3","1","1,0.333,0.333,0.333,1,0.333,0.333,0.333,1","1,0.333,0.333,0.333,1,0.333,0.333,0.333,1","1",""
"","html-keyboard-response","265","269542","0.0-265.0","3FK0YFF9P0270TJ749GWVE5RRJ9VVI","A3HVFSD8K94SOR","3HUR21WDDUBEMSLDIXZW1FAIHW8YX3","","null","<img src=""img/flower5.png"" style=""width:200px; border:14px solid green;"">","null","","","","","","","","",""
"","image-keyboard-response","266","270609","0.0-266.0","3FK0YFF9P0270TJ749GWVE5RRJ9VVI","A3HVFSD8K94SOR","3HUR21WDDUBEMSLDIXZW1FAIHW8YX3","","1065","img/flower2.png","74","1065","1","1","1","1","1,0.333,0.333,0.333,1,0.333,0.333,0.333,1","1,0.333,0.333,0.333,1,0.333,0.333,0.333,1","1",""
"","html-keyboard-response","267","270933","0.0-267.0","3FK0YFF9P0270TJ749GWVE5RRJ9VVI","A3HVFSD8K94SOR","3HUR21WDDUBEMSLDIXZW1FAIHW8YX3","","null","<img src=""img/flower2.png"" style=""width:200px; border:14px solid green;"">","null","","","","","","","","",""
"","image-keyboard-response","268","271797","0.0-268.0","3FK0YFF9P0270TJ749GWVE5RRJ9VVI","A3HVFSD8K94SOR","3HUR21WDDUBEMSLDIXZW1FAIHW8YX3","","862","img/flower4.png","75","863","2","1","2","1","1,0.333,0.333,0.333,1,0.333,0.333,0.333,1","1,0.333,0.333,0.333,1,0.333,0.333,0.333,1","1",""
"","html-keyboard-response","269","272102","0.0-269.0","3FK0YFF9P0270TJ749GWVE5RRJ9VVI","A3HVFSD8K94SOR","3HUR21WDDUBEMSLDIXZW1FAIHW8YX3","","null","<img src=""img/flower4.png"" style=""width:200px; border:14px solid green;"">","null","","","","","","","","",""
"","image-keyboard-response","270","272915","0.0-270.0","3FK0YFF9P0270TJ749GWVE5RRJ9VVI","A3HVFSD8K94SOR","3HUR21WDDUBEMSLDIXZW1FAIHW8YX3","","812","img/flower5.png","76","813","3","1","3","1","1,0.333,0.333,0.333,1,0.333,0.333,0.333,1","1,0.333,0.333,0.333,1,0.333,0.333,0.333,1","1",""
"","html-keyboard-response","271","273242","0.0-271.0","3FK0YFF9P0270TJ749GWVE5RRJ9VVI","A3HVFSD8K94SOR","3HUR21WDDUBEMSLDIXZW1FAIHW8YX3","","null","<img src=""img/flower5.png"" style=""width:200px; border:14px solid green;"">","null","","","","","","","","",""
"","image-keyboard-response","272","273979","0.0-272.0","3FK0YFF9P0270TJ749GWVE5RRJ9VVI","A3HVFSD8K94SOR","3HUR21WDDUBEMSLDIXZW1FAIHW8YX3","","736","img/flower4.png","75","737","2","1","2","1","1,0.333,0.333,0.333,1,0.333,0.333,0.333,1","1,0.333,0.333,0.333,1,0.333,0.333,0.333,1","1",""
"","html-keyboard-response","273","274285","0.0-273.0","3FK0YFF9P0270TJ749GWVE5RRJ9VVI","A3HVFSD8K94SOR","3HUR21WDDUBEMSLDIXZW1FAIHW8YX3","","null","<img src=""img/flower4.png"" style=""width:200px; border:14px solid green;"">","null","","","","","","","","",""
"","image-keyboard-response","274","275432","0.0-274.0","3FK0YFF9P0270TJ749GWVE5RRJ9VVI","A3HVFSD8K94SOR","3HUR21WDDUBEMSLDIXZW1FAIHW8YX3","","1145","img/flower5.png","76","1147","3","1","3","1","1,0.333,0.333,0.333,1,0.333,0.333,0.333,1","1,0.333,0.333,0.333,1,0.333,0.333,0.333,1","1",""
"","html-keyboard-response","275","275738","0.0-275.0","3FK0YFF9P0270TJ749GWVE5RRJ9VVI","A3HVFSD8K94SOR","3HUR21WDDUBEMSLDIXZW1FAIHW8YX3","","null","<img src=""img/flower5.png"" style=""width:200px; border:14px solid green;"">","null","","","","","","","","",""
"","image-keyboard-response","276","276421","0.0-276.0","3FK0YFF9P0270TJ749GWVE5RRJ9VVI","A3HVFSD8K94SOR","3HUR21WDDUBEMSLDIXZW1FAIHW8YX3","","682","img/flower2.png","74","683","1","1","1","1","1,0.333,0.333,0.333,1,0.333,0.333,0.333,1","1,0.333,0.333,0.333,1,0.333,0.333,0.333,1","1",""
"","html-keyboard-response","277","276730","0.0-277.0","3FK0YFF9P0270TJ749GWVE5RRJ9VVI","A3HVFSD8K94SOR","3HUR21WDDUBEMSLDIXZW1FAIHW8YX3","","null","<img src=""img/flower2.png"" style=""width:200px; border:14px solid green;"">","null","","","","","","","","",""
"","image-keyboard-response","278","277435","0.0-278.0","3FK0YFF9P0270TJ749GWVE5RRJ9VVI","A3HVFSD8K94SOR","3HUR21WDDUBEMSLDIXZW1FAIHW8YX3","","705","img/flower4.png","75","705","2","1","2","1","1,0.333,0.333,0.333,1,0.333,0.333,0.333,1","1,0.333,0.333,0.333,1,0.333,0.333,0.333,1","1",""
"","html-keyboard-response","279","277751","0.0-279.0","3FK0YFF9P0270TJ749GWVE5RRJ9VVI","A3HVFSD8K94SOR","3HUR21WDDUBEMSLDIXZW1FAIHW8YX3","","null","<img src=""img/flower4.png"" style=""width:200px; border:14px solid green;"">","null","","","","","","","","",""
"","image-keyboard-response","280","279093","0.0-280.0","3FK0YFF9P0270TJ749GWVE5RRJ9VVI","A3HVFSD8K94SOR","3HUR21WDDUBEMSLDIXZW1FAIHW8YX3","","1341","img/flower2.png","74","1343","1","1","1","1","1,0.333,0.333,0.333,1,0.333,0.333,0.333,1","1,0.333,0.333,0.333,1,0.333,0.333,0.333,1","1",""
"","html-keyboard-response","281","279403","0.0-281.0","3FK0YFF9P0270TJ749GWVE5RRJ9VVI","A3HVFSD8K94SOR","3HUR21WDDUBEMSLDIXZW1FAIHW8YX3","","null","<img src=""img/flower2.png"" style=""width:200px; border:14px solid green;"">","null","","","","","","","","",""
"","image-keyboard-response","282","280332","0.0-282.0","3FK0YFF9P0270TJ749GWVE5RRJ9VVI","A3HVFSD8K94SOR","3HUR21WDDUBEMSLDIXZW1FAIHW8YX3","","928","img/flower5.png","76","929","3","1","3","1","1,0.333,0.333,0.333,1,0.333,0.333,0.333,1","1,0.333,0.333,0.333,1,0.333,0.333,0.333,1","1",""
"","html-keyboard-response","283","280634","0.0-283.0","3FK0YFF9P0270TJ749GWVE5RRJ9VVI","A3HVFSD8K94SOR","3HUR21WDDUBEMSLDIXZW1FAIHW8YX3","","null","<img src=""img/flower5.png"" style=""width:200px; border:14px solid green;"">","null","","","","","","","","",""
"","image-keyboard-response","284","281185","0.0-284.0","3FK0YFF9P0270TJ749GWVE5RRJ9VVI","A3HVFSD8K94SOR","3HUR21WDDUBEMSLDIXZW1FAIHW8YX3","","551","img/flower5.png","76","551","3","1","3","1","1,0.333,0.333,0.333,1,0.333,0.333,0.333,1","1,0.333,0.333,0.333,1,0.333,0.333,0.333,1","1",""
"","html-keyboard-response","285","281507","0.0-285.0","3FK0YFF9P0270TJ749GWVE5RRJ9VVI","A3HVFSD8K94SOR","3HUR21WDDUBEMSLDIXZW1FAIHW8YX3","","null","<img src=""img/flower5.png"" style=""width:200px; border:14px solid green;"">","null","","","","","","","","",""
"","image-keyboard-response","286","282205","0.0-286.0","3FK0YFF9P0270TJ749GWVE5RRJ9VVI","A3HVFSD8K94SOR","3HUR21WDDUBEMSLDIXZW1FAIHW8YX3","","696","img/flower4.png","75","697","2","1","2","1","1,0.333,0.333,0.333,1,0.333,0.333,0.333,1","1,0.333,0.333,0.333,1,0.333,0.333,0.333,1","1",""
"","html-keyboard-response","287","282514","0.0-287.0","3FK0YFF9P0270TJ749GWVE5RRJ9VVI","A3HVFSD8K94SOR","3HUR21WDDUBEMSLDIXZW1FAIHW8YX3","","null","<img src=""img/flower4.png"" style=""width:200px; border:14px solid green;"">","null","","","","","","","","",""
"","image-keyboard-response","288","283604","0.0-288.0","3FK0YFF9P0270TJ749GWVE5RRJ9VVI","A3HVFSD8K94SOR","3HUR21WDDUBEMSLDIXZW1FAIHW8YX3","","1089","img/flower5.png","76","1089","3","1","3","1","1,0.333,0.333,0.333,1,0.333,0.333,0.333,1","1,0.333,0.333,0.333,1,0.333,0.333,0.333,1","1",""
"","html-keyboard-response","289","283932","0.0-289.0","3FK0YFF9P0270TJ749GWVE5RRJ9VVI","A3HVFSD8K94SOR","3HUR21WDDUBEMSLDIXZW1FAIHW8YX3","","null","<img src=""img/flower5.png"" style=""width:200px; border:14px solid green;"">","null","","","","","","","","",""
"","image-keyboard-response","290","284897","0.0-290.0","3FK0YFF9P0270TJ749GWVE5RRJ9VVI","A3HVFSD8K94SOR","3HUR21WDDUBEMSLDIXZW1FAIHW8YX3","","964","img/flower4.png","75","966","2","1","2","1","1,0.333,0.333,0.333,1,0.333,0.333,0.333,1","1,0.333,0.333,0.333,1,0.333,0.333,0.333,1","1",""
"","html-keyboard-response","291","285204","0.0-291.0","3FK0YFF9P0270TJ749GWVE5RRJ9VVI","A3HVFSD8K94SOR","3HUR21WDDUBEMSLDIXZW1FAIHW8YX3","","null","<img src=""img/flower4.png"" style=""width:200px; border:14px solid green;"">","null","","","","","","","","",""
"","image-keyboard-response","292","285991","0.0-292.0","3FK0YFF9P0270TJ749GWVE5RRJ9VVI","A3HVFSD8K94SOR","3HUR21WDDUBEMSLDIXZW1FAIHW8YX3","","786","img/flower2.png","74","788","1","1","1","1","1,0.333,0.333,0.333,1,0.333,0.333,0.333,1","1,0.333,0.333,0.333,1,0.333,0.333,0.333,1","1",""
"","html-keyboard-response","293","286292","0.0-293.0","3FK0YFF9P0270TJ749GWVE5RRJ9VVI","A3HVFSD8K94SOR","3HUR21WDDUBEMSLDIXZW1FAIHW8YX3","","null","<img src=""img/flower2.png"" style=""width:200px; border:14px solid green;"">","null","","","","","","","","",""
"","image-keyboard-response","294","287398","0.0-294.0","3FK0YFF9P0270TJ749GWVE5RRJ9VVI","A3HVFSD8K94SOR","3HUR21WDDUBEMSLDIXZW1FAIHW8YX3","","1106","img/flower5.png","76","1107","3","1","3","1","1,0.333,0.333,0.333,1,0.333,0.333,0.333,1","1,0.333,0.333,0.333,1,0.333,0.333,0.333,1","1",""
"","html-keyboard-response","295","287714","0.0-295.0","3FK0YFF9P0270TJ749GWVE5RRJ9VVI","A3HVFSD8K94SOR","3HUR21WDDUBEMSLDIXZW1FAIHW8YX3","","null","<img src=""img/flower5.png"" style=""width:200px; border:14px solid green;"">","null","","","","","","","","",""
"","image-keyboard-response","296","288554","0.0-296.0","3FK0YFF9P0270TJ749GWVE5RRJ9VVI","A3HVFSD8K94SOR","3HUR21WDDUBEMSLDIXZW1FAIHW8YX3","","839","img/flower5.png","76","840","3","1","3","1","1,0.333,0.333,0.333,1,0.333,0.333,0.333,1","1,0.333,0.333,0.333,1,0.333,0.333,0.333,1","1",""
"","html-keyboard-response","297","288858","0.0-297.0","3FK0YFF9P0270TJ749GWVE5RRJ9VVI","A3HVFSD8K94SOR","3HUR21WDDUBEMSLDIXZW1FAIHW8YX3","","null","<img src=""img/flower5.png"" style=""width:200px; border:14px solid green;"">","null","","","","","","","","",""
"","image-keyboard-response","298","290150","0.0-298.0","3FK0YFF9P0270TJ749GWVE5RRJ9VVI","A3HVFSD8K94SOR","3HUR21WDDUBEMSLDIXZW1FAIHW8YX3","","1293","img/flower4.png","75","1293","2","1","2","1","1,0.333,0.333,0.333,1,0.333,0.333,0.333,1","1,0.333,0.333,0.333,1,0.333,0.333,0.333,1","1",""
"","html-keyboard-response","299","290463","0.0-299.0","3FK0YFF9P0270TJ749GWVE5RRJ9VVI","A3HVFSD8K94SOR","3HUR21WDDUBEMSLDIXZW1FAIHW8YX3","","null","<img src=""img/flower4.png"" style=""width:200px; border:14px solid green;"">","null","","","","","","","","",""
"","image-keyboard-response","300","291589","0.0-300.0","3FK0YFF9P0270TJ749GWVE5RRJ9VVI","A3HVFSD8K94SOR","3HUR21WDDUBEMSLDIXZW1FAIHW8YX3","","1126","img/flower2.png","74","1126","1","1","1","1","1,0.333,0.333,0.333,1,0.333,0.333,0.333,1","1,0.333,0.333,0.333,1,0.333,0.333,0.333,1","1",""
"","html-keyboard-response","301","291902","0.0-301.0","3FK0YFF9P0270TJ749GWVE5RRJ9VVI","A3HVFSD8K94SOR","3HUR21WDDUBEMSLDIXZW1FAIHW8YX3","","null","<img src=""img/flower2.png"" style=""width:200px; border:14px solid green;"">","null","","","","","","","","",""
"","image-keyboard-response","302","292613","0.0-302.0","3FK0YFF9P0270TJ749GWVE5RRJ9VVI","A3HVFSD8K94SOR","3HUR21WDDUBEMSLDIXZW1FAIHW8YX3","","710","img/flower2.png","74","711","1","1","1","1","1,0.333,0.333,0.333,1,0.333,0.333,0.333,1","1,0.333,0.333,0.333,1,0.333,0.333,0.333,1","1",""
"","html-keyboard-response","303","292921","0.0-303.0","3FK0YFF9P0270TJ749GWVE5RRJ9VVI","A3HVFSD8K94SOR","3HUR21WDDUBEMSLDIXZW1FAIHW8YX3","","null","<img src=""img/flower2.png"" style=""width:200px; border:14px solid green;"">","null","","","","","","","","",""
"","image-keyboard-response","304","293583","0.0-304.0","3FK0YFF9P0270TJ749GWVE5RRJ9VVI","A3HVFSD8K94SOR","3HUR21WDDUBEMSLDIXZW1FAIHW8YX3","","661","img/flower4.png","75","661","2","1","2","1","1,0.333,0.333,0.333,1,0.333,0.333,0.333,1","1,0.333,0.333,0.333,1,0.333,0.333,0.333,1","1",""
"","html-keyboard-response","305","293896","0.0-305.0","3FK0YFF9P0270TJ749GWVE5RRJ9VVI","A3HVFSD8K94SOR","3HUR21WDDUBEMSLDIXZW1FAIHW8YX3","","null","<img src=""img/flower4.png"" style=""width:200px; border:14px solid green;"">","null","","","","","","","","",""
"","image-keyboard-response","306","294746","0.0-306.0","3FK0YFF9P0270TJ749GWVE5RRJ9VVI","A3HVFSD8K94SOR","3HUR21WDDUBEMSLDIXZW1FAIHW8YX3","","849","img/flower2.png","74","850","1","1","1","1","1,0.333,0.333,0.333,1,0.333,0.333,0.333,1","1,0.333,0.333,0.333,1,0.333,0.333,0.333,1","1",""
"","html-keyboard-response","307","295048","0.0-307.0","3FK0YFF9P0270TJ749GWVE5RRJ9VVI","A3HVFSD8K94SOR","3HUR21WDDUBEMSLDIXZW1FAIHW8YX3","","null","<img src=""img/flower2.png"" style=""width:200px; border:14px solid green;"">","null","","","","","","","","",""
"","image-keyboard-response","308","295765","0.0-308.0","3FK0YFF9P0270TJ749GWVE5RRJ9VVI","A3HVFSD8K94SOR","3HUR21WDDUBEMSLDIXZW1FAIHW8YX3","","715","img/flower2.png","74","717","1","1","1","1","1,0.333,0.333,0.333,1,0.333,0.333,0.333,1","1,0.333,0.333,0.333,1,0.333,0.333,0.333,1","1",""
"","html-keyboard-response","309","296068","0.0-309.0","3FK0YFF9P0270TJ749GWVE5RRJ9VVI","A3HVFSD8K94SOR","3HUR21WDDUBEMSLDIXZW1FAIHW8YX3","","null","<img src=""img/flower2.png"" style=""width:200px; border:14px solid green;"">","null","","","","","","","","",""
"","image-keyboard-response","310","296943","0.0-310.0","3FK0YFF9P0270TJ749GWVE5RRJ9VVI","A3HVFSD8K94SOR","3HUR21WDDUBEMSLDIXZW1FAIHW8YX3","","872","img/flower4.png","75","874","2","1","2","1","1,0.333,0.333,0.333,1,0.333,0.333,0.333,1","1,0.333,0.333,0.333,1,0.333,0.333,0.333,1","1",""
"","html-keyboard-response","311","297247","0.0-311.0","3FK0YFF9P0270TJ749GWVE5RRJ9VVI","A3HVFSD8K94SOR","3HUR21WDDUBEMSLDIXZW1FAIHW8YX3","","null","<img src=""img/flower4.png"" style=""width:200px; border:14px solid green;"">","null","","","","","","","","",""
"","image-keyboard-response","312","298014","0.0-312.0","3FK0YFF9P0270TJ749GWVE5RRJ9VVI","A3HVFSD8K94SOR","3HUR21WDDUBEMSLDIXZW1FAIHW8YX3","","768","img/flower4.png","75","768","2","1","2","1","1,0.333,0.333,0.333,1,0.333,0.333,0.333,1","1,0.333,0.333,0.333,1,0.333,0.333,0.333,1","1",""
"","html-keyboard-response","313","298343","0.0-313.0","3FK0YFF9P0270TJ749GWVE5RRJ9VVI","A3HVFSD8K94SOR","3HUR21WDDUBEMSLDIXZW1FAIHW8YX3","","null","<img src=""img/flower4.png"" style=""width:200px; border:14px solid green;"">","null","","","","","","","","",""
"","image-keyboard-response","314","299196","0.0-314.0","3FK0YFF9P0270TJ749GWVE5RRJ9VVI","A3HVFSD8K94SOR","3HUR21WDDUBEMSLDIXZW1FAIHW8YX3","","853","img/flower2.png","74","853","1","1","1","1","1,0.333,0.333,0.333,1,0.333,0.333,0.333,1","1,0.333,0.333,0.333,1,0.333,0.333,0.333,1","1",""
"","html-keyboard-response","315","299513","0.0-315.0","3FK0YFF9P0270TJ749GWVE5RRJ9VVI","A3HVFSD8K94SOR","3HUR21WDDUBEMSLDIXZW1FAIHW8YX3","","null","<img src=""img/flower2.png"" style=""width:200px; border:14px solid green;"">","null","","","","","","","","",""
"","image-keyboard-response","316","300499","0.0-316.0","3FK0YFF9P0270TJ749GWVE5RRJ9VVI","A3HVFSD8K94SOR","3HUR21WDDUBEMSLDIXZW1FAIHW8YX3","","985","img/flower5.png","76","986","3","1","3","1","1,0.333,0.333,0.333,1,0.333,0.333,0.333,1","1,0.333,0.333,0.333,1,0.333,0.333,0.333,1","1",""
"","html-keyboard-response","317","300802","0.0-317.0","3FK0YFF9P0270TJ749GWVE5RRJ9VVI","A3HVFSD8K94SOR","3HUR21WDDUBEMSLDIXZW1FAIHW8YX3","","null","<img src=""img/flower5.png"" style=""width:200px; border:14px solid green;"">","null","","","","","","","","",""
"","image-keyboard-response","318","301333","0.0-318.0","3FK0YFF9P0270TJ749GWVE5RRJ9VVI","A3HVFSD8K94SOR","3HUR21WDDUBEMSLDIXZW1FAIHW8YX3","","530","img/flower5.png","76","532","3","1","3","1","1,0.333,0.333,0.333,1,0.333,0.333,0.333,1","1,0.333,0.333,0.333,1,0.333,0.333,0.333,1","1",""
"","html-keyboard-response","319","301638","0.0-319.0","3FK0YFF9P0270TJ749GWVE5RRJ9VVI","A3HVFSD8K94SOR","3HUR21WDDUBEMSLDIXZW1FAIHW8YX3","","null","<img src=""img/flower5.png"" style=""width:200px; border:14px solid green;"">","null","","","","","","","","",""
"","image-keyboard-response","320","303032","0.0-320.0","3FK0YFF9P0270TJ749GWVE5RRJ9VVI","A3HVFSD8K94SOR","3HUR21WDDUBEMSLDIXZW1FAIHW8YX3","","1392","img/flower2.png","74","1393","1","1","1","1","1,0.333,0.333,0.333,1,0.333,0.333,0.333,1","1,0.333,0.333,0.333,1,0.333,0.333,0.333,1","1",""
"","html-keyboard-response","321","303344","0.0-321.0","3FK0YFF9P0270TJ749GWVE5RRJ9VVI","A3HVFSD8K94SOR","3HUR21WDDUBEMSLDIXZW1FAIHW8YX3","","null","<img src=""img/flower2.png"" style=""width:200px; border:14px solid green;"">","null","","","","","","","","",""
"","image-keyboard-response","322","303941","0.0-322.0","3FK0YFF9P0270TJ749GWVE5RRJ9VVI","A3HVFSD8K94SOR","3HUR21WDDUBEMSLDIXZW1FAIHW8YX3","","596","img/flower2.png","74","597","1","1","1","1","1,0.333,0.333,0.333,1,0.333,0.333,0.333,1","1,0.333,0.333,0.333,1,0.333,0.333,0.333,1","1",""
"","html-keyboard-response","323","304250","0.0-323.0","3FK0YFF9P0270TJ749GWVE5RRJ9VVI","A3HVFSD8K94SOR","3HUR21WDDUBEMSLDIXZW1FAIHW8YX3","","null","<img src=""img/flower2.png"" style=""width:200px; border:14px solid green;"">","null","","","","","","","","",""
"","image-keyboard-response","324","305099","0.0-324.0","3FK0YFF9P0270TJ749GWVE5RRJ9VVI","A3HVFSD8K94SOR","3HUR21WDDUBEMSLDIXZW1FAIHW8YX3","","849","img/flower4.png","75","849","2","1","2","1","1,0.333,0.333,0.333,1,0.333,0.333,0.333,1","1,0.333,0.333,0.333,1,0.333,0.333,0.333,1","1",""
"","html-keyboard-response","325","305409","0.0-325.0","3FK0YFF9P0270TJ749GWVE5RRJ9VVI","A3HVFSD8K94SOR","3HUR21WDDUBEMSLDIXZW1FAIHW8YX3","","null","<img src=""img/flower4.png"" style=""width:200px; border:14px solid green;"">","null","","","","","","","","",""
"","image-keyboard-response","326","306454","0.0-326.0","3FK0YFF9P0270TJ749GWVE5RRJ9VVI","A3HVFSD8K94SOR","3HUR21WDDUBEMSLDIXZW1FAIHW8YX3","","1043","img/flower2.png","74","1044","1","1","1","1","1,0.333,0.333,0.333,1,0.333,0.333,0.333,1","1,0.333,0.333,0.333,1,0.333,0.333,0.333,1","1",""
"","html-keyboard-response","327","306765","0.0-327.0","3FK0YFF9P0270TJ749GWVE5RRJ9VVI","A3HVFSD8K94SOR","3HUR21WDDUBEMSLDIXZW1FAIHW8YX3","","null","<img src=""img/flower2.png"" style=""width:200px; border:14px solid green;"">","null","","","","","","","","",""
"","image-keyboard-response","328","307619","0.0-328.0","3FK0YFF9P0270TJ749GWVE5RRJ9VVI","A3HVFSD8K94SOR","3HUR21WDDUBEMSLDIXZW1FAIHW8YX3","","853","img/flower5.png","76","853","3","1","3","1","1,0.333,0.333,0.333,1,0.333,0.333,0.333,1","1,0.333,0.333,0.333,1,0.333,0.333,0.333,1","1",""
"","html-keyboard-response","329","307924","0.0-329.0","3FK0YFF9P0270TJ749GWVE5RRJ9VVI","A3HVFSD8K94SOR","3HUR21WDDUBEMSLDIXZW1FAIHW8YX3","","null","<img src=""img/flower5.png"" style=""width:200px; border:14px solid green;"">","null","","","","","","","","",""
"","image-keyboard-response","330","308815","0.0-330.0","3FK0YFF9P0270TJ749GWVE5RRJ9VVI","A3HVFSD8K94SOR","3HUR21WDDUBEMSLDIXZW1FAIHW8YX3","","891","img/flower4.png","75","892","2","1","2","1","1,0.333,0.333,0.333,1,0.333,0.333,0.333,1","1,0.333,0.333,0.333,1,0.333,0.333,0.333,1","1",""
"","html-keyboard-response","331","309132","0.0-331.0","3FK0YFF9P0270TJ749GWVE5RRJ9VVI","A3HVFSD8K94SOR","3HUR21WDDUBEMSLDIXZW1FAIHW8YX3","","null","<img src=""img/flower4.png"" style=""width:200px; border:14px solid green;"">","null","","","","","","","","",""
"","image-keyboard-response","332","310399","0.0-332.0","3FK0YFF9P0270TJ749GWVE5RRJ9VVI","A3HVFSD8K94SOR","3HUR21WDDUBEMSLDIXZW1FAIHW8YX3","","1267","img/flower2.png","74","1268","1","1","1","1","1,0.333,0.333,0.333,1,0.333,0.333,0.333,1","1,0.333,0.333,0.333,1,0.333,0.333,0.333,1","1",""
"","html-keyboard-response","333","310703","0.0-333.0","3FK0YFF9P0270TJ749GWVE5RRJ9VVI","A3HVFSD8K94SOR","3HUR21WDDUBEMSLDIXZW1FAIHW8YX3","","null","<img src=""img/flower2.png"" style=""width:200px; border:14px solid green;"">","null","","","","","","","","",""
"","image-keyboard-response","334","311742","0.0-334.0","3FK0YFF9P0270TJ749GWVE5RRJ9VVI","A3HVFSD8K94SOR","3HUR21WDDUBEMSLDIXZW1FAIHW8YX3","","1037","img/flower4.png","75","1039","2","1","2","1","1,0.333,0.333,0.333,1,0.333,0.333,0.333,1","1,0.333,0.333,0.333,1,0.333,0.333,0.333,1","1",""
"","html-keyboard-response","335","312047","0.0-335.0","3FK0YFF9P0270TJ749GWVE5RRJ9VVI","A3HVFSD8K94SOR","3HUR21WDDUBEMSLDIXZW1FAIHW8YX3","","null","<img src=""img/flower4.png"" style=""width:200px; border:14px solid green;"">","null","","","","","","","","",""
"","image-keyboard-response","336","312847","0.0-336.0","3FK0YFF9P0270TJ749GWVE5RRJ9VVI","A3HVFSD8K94SOR","3HUR21WDDUBEMSLDIXZW1FAIHW8YX3","","797","img/flower5.png","76","799","3","1","3","1","1,0.333,0.333,0.333,1,0.333,0.333,0.333,1","1,0.333,0.333,0.333,1,0.333,0.333,0.333,1","1",""
"","html-keyboard-response","337","313153","0.0-337.0","3FK0YFF9P0270TJ749GWVE5RRJ9VVI","A3HVFSD8K94SOR","3HUR21WDDUBEMSLDIXZW1FAIHW8YX3","","null","<img src=""img/flower5.png"" style=""width:200px; border:14px solid green;"">","null","","","","","","","","",""
"","image-keyboard-response","338","313851","0.0-338.0","3FK0YFF9P0270TJ749GWVE5RRJ9VVI","A3HVFSD8K94SOR","3HUR21WDDUBEMSLDIXZW1FAIHW8YX3","","697","img/flower5.png","76","697","3","1","3","1","1,0.333,0.333,0.333,1,0.333,0.333,0.333,1","1,0.333,0.333,0.333,1,0.333,0.333,0.333,1","1",""
"","html-keyboard-response","339","314159","0.0-339.0","3FK0YFF9P0270TJ749GWVE5RRJ9VVI","A3HVFSD8K94SOR","3HUR21WDDUBEMSLDIXZW1FAIHW8YX3","","null","<img src=""img/flower5.png"" style=""width:200px; border:14px solid green;"">","null","","","","","","","","",""
"","image-keyboard-response","340","315535","0.0-340.0","3FK0YFF9P0270TJ749GWVE5RRJ9VVI","A3HVFSD8K94SOR","3HUR21WDDUBEMSLDIXZW1FAIHW8YX3","","1375","img/flower4.png","75","1375","2","1","2","1","1,0.333,0.333,0.333,1,0.333,0.333,0.333,1","1,0.333,0.333,0.333,1,0.333,0.333,0.333,1","1",""
"","html-keyboard-response","341","315870","0.0-341.0","3FK0YFF9P0270TJ749GWVE5RRJ9VVI","A3HVFSD8K94SOR","3HUR21WDDUBEMSLDIXZW1FAIHW8YX3","","null","<img src=""img/flower4.png"" style=""width:200px; border:14px solid green;"">","null","","","","","","","","",""
"","image-keyboard-response","342","316842","0.0-342.0","3FK0YFF9P0270TJ749GWVE5RRJ9VVI","A3HVFSD8K94SOR","3HUR21WDDUBEMSLDIXZW1FAIHW8YX3","","971","img/flower4.png","75","972","2","1","2","1","1,0.333,0.333,0.333,1,0.333,0.333,0.333,1","1,0.333,0.333,0.333,1,0.333,0.333,0.333,1","1",""
"","html-keyboard-response","343","317155","0.0-343.0","3FK0YFF9P0270TJ749GWVE5RRJ9VVI","A3HVFSD8K94SOR","3HUR21WDDUBEMSLDIXZW1FAIHW8YX3","","null","<img src=""img/flower4.png"" style=""width:200px; border:14px solid green;"">","null","","","","","","","","",""
"","image-keyboard-response","344","317951","0.0-344.0","3FK0YFF9P0270TJ749GWVE5RRJ9VVI","A3HVFSD8K94SOR","3HUR21WDDUBEMSLDIXZW1FAIHW8YX3","","793","img/flower2.png","74","795","1","1","1","1","1,0.333,0.333,0.333,1,0.333,0.333,0.333,1","1,0.333,0.333,0.333,1,0.333,0.333,0.333,1","1",""
"","html-keyboard-response","345","318262","0.0-345.0","3FK0YFF9P0270TJ749GWVE5RRJ9VVI","A3HVFSD8K94SOR","3HUR21WDDUBEMSLDIXZW1FAIHW8YX3","","null","<img src=""img/flower2.png"" style=""width:200px; border:14px solid green;"">","null","","","","","","","","",""
"","image-keyboard-response","346","318810","0.0-346.0","3FK0YFF9P0270TJ749GWVE5RRJ9VVI","A3HVFSD8K94SOR","3HUR21WDDUBEMSLDIXZW1FAIHW8YX3","","546","img/flower2.png","74","547","1","1","1","1","1,0.333,0.333,0.333,1,0.333,0.333,0.333,1","1,0.333,0.333,0.333,1,0.333,0.333,0.333,1","1",""
"","html-keyboard-response","347","319120","0.0-347.0","3FK0YFF9P0270TJ749GWVE5RRJ9VVI","A3HVFSD8K94SOR","3HUR21WDDUBEMSLDIXZW1FAIHW8YX3","","null","<img src=""img/flower2.png"" style=""width:200px; border:14px solid green;"">","null","","","","","","","","",""
"","image-keyboard-response","348","319715","0.0-348.0","3FK0YFF9P0270TJ749GWVE5RRJ9VVI","A3HVFSD8K94SOR","3HUR21WDDUBEMSLDIXZW1FAIHW8YX3","","595","img/flower4.png","75","595","2","1","2","1","1,0.333,0.333,0.333,1,0.333,0.333,0.333,1","1,0.333,0.333,0.333,1,0.333,0.333,0.333,1","1",""
"","html-keyboard-response","349","320023","0.0-349.0","3FK0YFF9P0270TJ749GWVE5RRJ9VVI","A3HVFSD8K94SOR","3HUR21WDDUBEMSLDIXZW1FAIHW8YX3","","null","<img src=""img/flower4.png"" style=""width:200px; border:14px solid green;"">","null","","","","","","","","",""
"","image-keyboard-response","350","320723","0.0-350.0","3FK0YFF9P0270TJ749GWVE5RRJ9VVI","A3HVFSD8K94SOR","3HUR21WDDUBEMSLDIXZW1FAIHW8YX3","","699","img/flower2.png","74","700","1","1","1","1","1,0.333,0.333,0.333,1,0.333,0.333,0.333,1","1,0.333,0.333,0.333,1,0.333,0.333,0.333,1","1",""
"","html-keyboard-response","351","321029","0.0-351.0","3FK0YFF9P0270TJ749GWVE5RRJ9VVI","A3HVFSD8K94SOR","3HUR21WDDUBEMSLDIXZW1FAIHW8YX3","","null","<img src=""img/flower2.png"" style=""width:200px; border:14px solid green;"">","null","","","","","","","","",""
"","image-keyboard-response","352","321568","0.0-352.0","3FK0YFF9P0270TJ749GWVE5RRJ9VVI","A3HVFSD8K94SOR","3HUR21WDDUBEMSLDIXZW1FAIHW8YX3","","538","img/flower2.png","74","538","1","1","1","1","1,0.333,0.333,0.333,1,0.333,0.333,0.333,1","1,0.333,0.333,0.333,1,0.333,0.333,0.333,1","1",""
"","html-keyboard-response","353","321880","0.0-353.0","3FK0YFF9P0270TJ749GWVE5RRJ9VVI","A3HVFSD8K94SOR","3HUR21WDDUBEMSLDIXZW1FAIHW8YX3","","null","<img src=""img/flower2.png"" style=""width:200px; border:14px solid green;"">","null","","","","","","","","",""
"","image-keyboard-response","354","322542","0.0-354.0","3FK0YFF9P0270TJ749GWVE5RRJ9VVI","A3HVFSD8K94SOR","3HUR21WDDUBEMSLDIXZW1FAIHW8YX3","","661","img/flower2.png","74","663","1","1","1","1","1,0.333,0.333,0.333,1,0.333,0.333,0.333,1","1,0.333,0.333,0.333,1,0.333,0.333,0.333,1","1",""
"","html-keyboard-response","355","322855","0.0-355.0","3FK0YFF9P0270TJ749GWVE5RRJ9VVI","A3HVFSD8K94SOR","3HUR21WDDUBEMSLDIXZW1FAIHW8YX3","","null","<img src=""img/flower2.png"" style=""width:200px; border:14px solid green;"">","null","","","","","","","","",""
"","image-keyboard-response","356","323790","0.0-356.0","3FK0YFF9P0270TJ749GWVE5RRJ9VVI","A3HVFSD8K94SOR","3HUR21WDDUBEMSLDIXZW1FAIHW8YX3","","933","img/flower5.png","76","934","3","1","3","1","1,0.333,0.333,0.333,1,0.333,0.333,0.333,1","1,0.333,0.333,0.333,1,0.333,0.333,0.333,1","1",""
"","html-keyboard-response","357","324093","0.0-357.0","3FK0YFF9P0270TJ749GWVE5RRJ9VVI","A3HVFSD8K94SOR","3HUR21WDDUBEMSLDIXZW1FAIHW8YX3","","null","<img src=""img/flower5.png"" style=""width:200px; border:14px solid green;"">","null","","","","","","","","",""
"","image-keyboard-response","358","324560","0.0-358.0","3FK0YFF9P0270TJ749GWVE5RRJ9VVI","A3HVFSD8K94SOR","3HUR21WDDUBEMSLDIXZW1FAIHW8YX3","","466","img/flower5.png","76","467","3","1","3","1","1,0.333,0.333,0.333,1,0.333,0.333,0.333,1","1,0.333,0.333,0.333,1,0.333,0.333,0.333,1","1",""
"","html-keyboard-response","359","324865","0.0-359.0","3FK0YFF9P0270TJ749GWVE5RRJ9VVI","A3HVFSD8K94SOR","3HUR21WDDUBEMSLDIXZW1FAIHW8YX3","","null","<img src=""img/flower5.png"" style=""width:200px; border:14px solid green;"">","null","","","","","","","","",""
"","image-keyboard-response","360","325593","0.0-360.0","3FK0YFF9P0270TJ749GWVE5RRJ9VVI","A3HVFSD8K94SOR","3HUR21WDDUBEMSLDIXZW1FAIHW8YX3","","728","img/flower4.png","75","730","2","1","2","1","1,0.333,0.333,0.333,1,0.333,0.333,0.333,1","1,0.333,0.333,0.333,1,0.333,0.333,0.333,1","1",""
"","html-keyboard-response","361","325901","0.0-361.0","3FK0YFF9P0270TJ749GWVE5RRJ9VVI","A3HVFSD8K94SOR","3HUR21WDDUBEMSLDIXZW1FAIHW8YX3","","null","<img src=""img/flower4.png"" style=""width:200px; border:14px solid green;"">","null","","","","","","","","",""
"","html-keyboard-response","362","358449","0.0-362.0","3FK0YFF9P0270TJ749GWVE5RRJ9VVI","A3HVFSD8K94SOR","3HUR21WDDUBEMSLDIXZW1FAIHW8YX3","","","","","","","","","","","","",""
"","instructions","363","365474","0.0-363.0","3FK0YFF9P0270TJ749GWVE5RRJ9VVI","A3HVFSD8K94SOR","3HUR21WDDUBEMSLDIXZW1FAIHW8YX3","[{""page_index"":0,""viewing_time"":7023}]","7023","","","","","","","","","","",""
"","survey-text","364","389501","0.0-364.0","3FK0YFF9P0270TJ749GWVE5RRJ9VVI","A3HVFSD8K94SOR","3HUR21WDDUBEMSLDIXZW1FAIHW8YX3","","24022","","","","","","","","","","","{""Q0"":""A3HVFSD8K94SOR""}"
