"rt","url","trial_type","trial_index","time_elapsed","internal_node_id","assignmentID","mturkID","hitID","success","view_history","stimulus","key_press","reactionTime","a","r","s","reward_cond","responses"
"5841.299999952316","consent.html","external-html","0","5893","0.0-0.0","3KXIR214I52Z9P2QW3VYKJ83GZU42D","A3I40B0FATY8VH","3KVQ0UJWPX71V463XQYDOZYIDLRW5D","","","","","","","","","",""
"","","fullscreen","1","8080","0.0-1.0","3KXIR214I52Z9P2QW3VYKJ83GZU42D","A3I40B0FATY8VH","3KVQ0UJWPX71V463XQYDOZYIDLRW5D","true","","","","","","","","",""
"63147.60000002384","","instructions","2","71229","0.0-2.0","3KXIR214I52Z9P2QW3VYKJ83GZU42D","A3I40B0FATY8VH","3KVQ0UJWPX71V463XQYDOZYIDLRW5D","","[{""page_index"":0,""viewing_time"":9693.600000023842},{""page_index"":1,""viewing_time"":6028.699999988079},{""page_index"":2,""viewing_time"":13337.199999988079},{""page_index"":3,""viewing_time"":8777.5},{""page_index"":4,""viewing_time"":8280},{""page_index"":5,""viewing_time"":12633.800000011921},{""page_index"":6,""viewing_time"":4396.399999976158}]","","","","","","","",""
"8250","","instructions","3","79479","0.0-3.0","3KXIR214I52Z9P2QW3VYKJ83GZU42D","A3I40B0FATY8VH","3KVQ0UJWPX71V463XQYDOZYIDLRW5D","","[{""page_index"":0,""viewing_time"":8249.799999952316}]","","","","","","","",""
"1258.1000000238419","","image-keyboard-response","4","80738","0.0-4.0","3KXIR214I52Z9P2QW3VYKJ83GZU42D","A3I40B0FATY8VH","3KVQ0UJWPX71V463XQYDOZYIDLRW5D","","","img/flower5.png","75","1258.699999988079","2","1","2","",""
"null","","html-keyboard-response","5","81041","0.0-5.0","3KXIR214I52Z9P2QW3VYKJ83GZU42D","A3I40B0FATY8VH","3KVQ0UJWPX71V463XQYDOZYIDLRW5D","","","<img src=""img/flower5.png"" style=""width:200px; border:14px solid green;"">","null","","","","","",""
"713.8000000119209","","image-keyboard-response","6","81757","0.0-6.0","3KXIR214I52Z9P2QW3VYKJ83GZU42D","A3I40B0FATY8VH","3KVQ0UJWPX71V463XQYDOZYIDLRW5D","","","img/flower4.png","74","715.1999999880791","1","1","1","",""
"null","","html-keyboard-response","7","82058","0.0-7.0","3KXIR214I52Z9P2QW3VYKJ83GZU42D","A3I40B0FATY8VH","3KVQ0UJWPX71V463XQYDOZYIDLRW5D","","","<img src=""img/flower4.png"" style=""width:200px; border:14px solid green;"">","null","","","","","",""
"573.5999999642372","","image-keyboard-response","8","82633","0.0-8.0","3KXIR214I52Z9P2QW3VYKJ83GZU42D","A3I40B0FATY8VH","3KVQ0UJWPX71V463XQYDOZYIDLRW5D","","","img/flower5.png","75","574.5999999642372","2","1","2","",""
"null","","html-keyboard-response","9","82937","0.0-9.0","3KXIR214I52Z9P2QW3VYKJ83GZU42D","A3I40B0FATY8VH","3KVQ0UJWPX71V463XQYDOZYIDLRW5D","","","<img src=""img/flower5.png"" style=""width:200px; border:14px solid green;"">","null","","","","","",""
"349.5","","image-keyboard-response","10","83287","0.0-10.0","3KXIR214I52Z9P2QW3VYKJ83GZU42D","A3I40B0FATY8VH","3KVQ0UJWPX71V463XQYDOZYIDLRW5D","","","img/flower6.png","76","350.19999998807907","3","1","3","",""
"null","","html-keyboard-response","11","83590","0.0-11.0","3KXIR214I52Z9P2QW3VYKJ83GZU42D","A3I40B0FATY8VH","3KVQ0UJWPX71V463XQYDOZYIDLRW5D","","","<img src=""img/flower6.png"" style=""width:200px; border:14px solid green;"">","null","","","","","",""
"513.2000000476837","","image-keyboard-response","12","84104","0.0-12.0","3KXIR214I52Z9P2QW3VYKJ83GZU42D","A3I40B0FATY8VH","3KVQ0UJWPX71V463XQYDOZYIDLRW5D","","","img/flower5.png","75","513.8000000119209","2","1","2","",""
"null","","html-keyboard-response","13","84406","0.0-13.0","3KXIR214I52Z9P2QW3VYKJ83GZU42D","A3I40B0FATY8VH","3KVQ0UJWPX71V463XQYDOZYIDLRW5D","","","<img src=""img/flower5.png"" style=""width:200px; border:14px solid green;"">","null","","","","","",""
"422.9000000357628","","image-keyboard-response","14","84829","0.0-14.0","3KXIR214I52Z9P2QW3VYKJ83GZU42D","A3I40B0FATY8VH","3KVQ0UJWPX71V463XQYDOZYIDLRW5D","","","img/flower5.png","75","423.5","2","1","2","",""
"null","","html-keyboard-response","15","85131","0.0-15.0","3KXIR214I52Z9P2QW3VYKJ83GZU42D","A3I40B0FATY8VH","3KVQ0UJWPX71V463XQYDOZYIDLRW5D","","","<img src=""img/flower5.png"" style=""width:200px; border:14px solid green;"">","null","","","","","",""
"409.60000002384186","","image-keyboard-response","16","85542","0.0-16.0","3KXIR214I52Z9P2QW3VYKJ83GZU42D","A3I40B0FATY8VH","3KVQ0UJWPX71V463XQYDOZYIDLRW5D","","","img/flower4.png","74","410.19999998807907","1","1","1","",""
"null","","html-keyboard-response","17","85844","0.0-17.0","3KXIR214I52Z9P2QW3VYKJ83GZU42D","A3I40B0FATY8VH","3KVQ0UJWPX71V463XQYDOZYIDLRW5D","","","<img src=""img/flower4.png"" style=""width:200px; border:14px solid green;"">","null","","","","","",""
"277.69999998807907","","image-keyboard-response","18","86123","0.0-18.0","3KXIR214I52Z9P2QW3VYKJ83GZU42D","A3I40B0FATY8VH","3KVQ0UJWPX71V463XQYDOZYIDLRW5D","","","img/flower4.png","74","278.5","1","1","1","",""
"null","","html-keyboard-response","19","86424","0.0-19.0","3KXIR214I52Z9P2QW3VYKJ83GZU42D","A3I40B0FATY8VH","3KVQ0UJWPX71V463XQYDOZYIDLRW5D","","","<img src=""img/flower4.png"" style=""width:200px; border:14px solid green;"">","null","","","","","",""
"588.6999999880791","","image-keyboard-response","20","87014","0.0-20.0","3KXIR214I52Z9P2QW3VYKJ83GZU42D","A3I40B0FATY8VH","3KVQ0UJWPX71V463XQYDOZYIDLRW5D","","","img/flower6.png","76","589.8000000119209","3","0","3","",""
"null","","html-keyboard-response","21","87315","0.0-21.0","3KXIR214I52Z9P2QW3VYKJ83GZU42D","A3I40B0FATY8VH","3KVQ0UJWPX71V463XQYDOZYIDLRW5D","","","<img src=""img/flower6.png"" style=""width:200px;border:14px solid red;"">","null","","","","","",""
"458.19999998807907","","image-keyboard-response","22","87775","0.0-22.0","3KXIR214I52Z9P2QW3VYKJ83GZU42D","A3I40B0FATY8VH","3KVQ0UJWPX71V463XQYDOZYIDLRW5D","","","img/flower6.png","76","459.5999999642372","3","1","3","",""
"null","","html-keyboard-response","23","88079","0.0-23.0","3KXIR214I52Z9P2QW3VYKJ83GZU42D","A3I40B0FATY8VH","3KVQ0UJWPX71V463XQYDOZYIDLRW5D","","","<img src=""img/flower6.png"" style=""width:200px; border:14px solid green;"">","null","","","","","",""
"737.1999999880791","","image-keyboard-response","24","88817","0.0-24.0","3KXIR214I52Z9P2QW3VYKJ83GZU42D","A3I40B0FATY8VH","3KVQ0UJWPX71V463XQYDOZYIDLRW5D","","","img/flower4.png","74","738.3999999761581","1","0","1","",""
"null","","html-keyboard-response","25","89121","0.0-25.0","3KXIR214I52Z9P2QW3VYKJ83GZU42D","A3I40B0FATY8VH","3KVQ0UJWPX71V463XQYDOZYIDLRW5D","","","<img src=""img/flower4.png"" style=""width:200px;border:14px solid red;"">","null","","","","","",""
"333.69999998807907","","image-keyboard-response","26","89455","0.0-26.0","3KXIR214I52Z9P2QW3VYKJ83GZU42D","A3I40B0FATY8VH","3KVQ0UJWPX71V463XQYDOZYIDLRW5D","","","img/flower4.png","74","334.5","1","1","1","",""
"null","","html-keyboard-response","27","89757","0.0-27.0","3KXIR214I52Z9P2QW3VYKJ83GZU42D","A3I40B0FATY8VH","3KVQ0UJWPX71V463XQYDOZYIDLRW5D","","","<img src=""img/flower4.png"" style=""width:200px; border:14px solid green;"">","null","","","","","",""
"446","","image-keyboard-response","28","90204","0.0-28.0","3KXIR214I52Z9P2QW3VYKJ83GZU42D","A3I40B0FATY8VH","3KVQ0UJWPX71V463XQYDOZYIDLRW5D","","","img/flower5.png","75","446.5","2","0","2","",""
"null","","html-keyboard-response","29","90506","0.0-29.0","3KXIR214I52Z9P2QW3VYKJ83GZU42D","A3I40B0FATY8VH","3KVQ0UJWPX71V463XQYDOZYIDLRW5D","","","<img src=""img/flower5.png"" style=""width:200px;border:14px solid red;"">","null","","","","","",""
"514.5","","image-keyboard-response","30","91021","0.0-30.0","3KXIR214I52Z9P2QW3VYKJ83GZU42D","A3I40B0FATY8VH","3KVQ0UJWPX71V463XQYDOZYIDLRW5D","","","img/flower6.png","76","514.8000000119209","3","1","3","",""
"null","","html-keyboard-response","31","91323","0.0-31.0","3KXIR214I52Z9P2QW3VYKJ83GZU42D","A3I40B0FATY8VH","3KVQ0UJWPX71V463XQYDOZYIDLRW5D","","","<img src=""img/flower6.png"" style=""width:200px; border:14px solid green;"">","null","","","","","",""
"389.2999999523163","","image-keyboard-response","32","91713","0.0-32.0","3KXIR214I52Z9P2QW3VYKJ83GZU42D","A3I40B0FATY8VH","3KVQ0UJWPX71V463XQYDOZYIDLRW5D","","","img/flower6.png","76","389.80000001192093","3","1","3","",""
"null","","html-keyboard-response","33","92016","0.0-33.0","3KXIR214I52Z9P2QW3VYKJ83GZU42D","A3I40B0FATY8VH","3KVQ0UJWPX71V463XQYDOZYIDLRW5D","","","<img src=""img/flower6.png"" style=""width:200px; border:14px solid green;"">","null","","","","","",""
"485.60000002384186","","image-keyboard-response","34","92502","0.0-34.0","3KXIR214I52Z9P2QW3VYKJ83GZU42D","A3I40B0FATY8VH","3KVQ0UJWPX71V463XQYDOZYIDLRW5D","","","img/flower4.png","74","486.10000002384186","1","1","1","",""
"null","","html-keyboard-response","35","92803","0.0-35.0","3KXIR214I52Z9P2QW3VYKJ83GZU42D","A3I40B0FATY8VH","3KVQ0UJWPX71V463XQYDOZYIDLRW5D","","","<img src=""img/flower4.png"" style=""width:200px; border:14px solid green;"">","null","","","","","",""
"439.5999999642372","","image-keyboard-response","36","93243","0.0-36.0","3KXIR214I52Z9P2QW3VYKJ83GZU42D","A3I40B0FATY8VH","3KVQ0UJWPX71V463XQYDOZYIDLRW5D","","","img/flower5.png","75","440","2","1","2","",""
"null","","html-keyboard-response","37","93547","0.0-37.0","3KXIR214I52Z9P2QW3VYKJ83GZU42D","A3I40B0FATY8VH","3KVQ0UJWPX71V463XQYDOZYIDLRW5D","","","<img src=""img/flower5.png"" style=""width:200px; border:14px solid green;"">","null","","","","","",""
"316.69999998807907","","image-keyboard-response","38","93866","0.0-38.0","3KXIR214I52Z9P2QW3VYKJ83GZU42D","A3I40B0FATY8VH","3KVQ0UJWPX71V463XQYDOZYIDLRW5D","","","img/flower5.png","75","317.89999997615814","2","1","2","",""
"null","","html-keyboard-response","39","94167","0.0-39.0","3KXIR214I52Z9P2QW3VYKJ83GZU42D","A3I40B0FATY8VH","3KVQ0UJWPX71V463XQYDOZYIDLRW5D","","","<img src=""img/flower5.png"" style=""width:200px; border:14px solid green;"">","null","","","","","",""
"389.7999999523163","","image-keyboard-response","40","94557","0.0-40.0","3KXIR214I52Z9P2QW3VYKJ83GZU42D","A3I40B0FATY8VH","3KVQ0UJWPX71V463XQYDOZYIDLRW5D","","","img/flower6.png","76","390.4000000357628","3","1","3","",""
"null","","html-keyboard-response","41","94859","0.0-41.0","3KXIR214I52Z9P2QW3VYKJ83GZU42D","A3I40B0FATY8VH","3KVQ0UJWPX71V463XQYDOZYIDLRW5D","","","<img src=""img/flower6.png"" style=""width:200px; border:14px solid green;"">","null","","","","","",""
"285.2999999523163","","image-keyboard-response","42","95145","0.0-42.0","3KXIR214I52Z9P2QW3VYKJ83GZU42D","A3I40B0FATY8VH","3KVQ0UJWPX71V463XQYDOZYIDLRW5D","","","img/flower6.png","76","286.10000002384186","3","1","3","",""
"null","","html-keyboard-response","43","95449","0.0-43.0","3KXIR214I52Z9P2QW3VYKJ83GZU42D","A3I40B0FATY8VH","3KVQ0UJWPX71V463XQYDOZYIDLRW5D","","","<img src=""img/flower6.png"" style=""width:200px; border:14px solid green;"">","null","","","","","",""
"494.89999997615814","","image-keyboard-response","44","95945","0.0-44.0","3KXIR214I52Z9P2QW3VYKJ83GZU42D","A3I40B0FATY8VH","3KVQ0UJWPX71V463XQYDOZYIDLRW5D","","","img/flower5.png","75","496.10000002384186","2","1","2","",""
"null","","html-keyboard-response","45","96248","0.0-45.0","3KXIR214I52Z9P2QW3VYKJ83GZU42D","A3I40B0FATY8VH","3KVQ0UJWPX71V463XQYDOZYIDLRW5D","","","<img src=""img/flower5.png"" style=""width:200px; border:14px solid green;"">","null","","","","","",""
"498.5999999642372","","image-keyboard-response","46","96747","0.0-46.0","3KXIR214I52Z9P2QW3VYKJ83GZU42D","A3I40B0FATY8VH","3KVQ0UJWPX71V463XQYDOZYIDLRW5D","","","img/flower4.png","74","499","1","1","1","",""
"null","","html-keyboard-response","47","97049","0.0-47.0","3KXIR214I52Z9P2QW3VYKJ83GZU42D","A3I40B0FATY8VH","3KVQ0UJWPX71V463XQYDOZYIDLRW5D","","","<img src=""img/flower4.png"" style=""width:200px; border:14px solid green;"">","null","","","","","",""
"269.5","","image-keyboard-response","48","97319","0.0-48.0","3KXIR214I52Z9P2QW3VYKJ83GZU42D","A3I40B0FATY8VH","3KVQ0UJWPX71V463XQYDOZYIDLRW5D","","","img/flower4.png","74","270.10000002384186","1","1","1","",""
"null","","html-keyboard-response","49","97622","0.0-49.0","3KXIR214I52Z9P2QW3VYKJ83GZU42D","A3I40B0FATY8VH","3KVQ0UJWPX71V463XQYDOZYIDLRW5D","","","<img src=""img/flower4.png"" style=""width:200px; border:14px solid green;"">","null","","","","","",""
"510.80000001192093","","image-keyboard-response","50","98134","0.0-50.0","3KXIR214I52Z9P2QW3VYKJ83GZU42D","A3I40B0FATY8VH","3KVQ0UJWPX71V463XQYDOZYIDLRW5D","","","img/flower6.png","76","511.60000002384186","3","1","3","",""
"null","","html-keyboard-response","51","98436","0.0-51.0","3KXIR214I52Z9P2QW3VYKJ83GZU42D","A3I40B0FATY8VH","3KVQ0UJWPX71V463XQYDOZYIDLRW5D","","","<img src=""img/flower6.png"" style=""width:200px; border:14px solid green;"">","null","","","","","",""
"481.5999999642372","","image-keyboard-response","52","98918","0.0-52.0","3KXIR214I52Z9P2QW3VYKJ83GZU42D","A3I40B0FATY8VH","3KVQ0UJWPX71V463XQYDOZYIDLRW5D","","","img/flower5.png","75","482.19999998807907","2","1","2","",""
"null","","html-keyboard-response","53","99220","0.0-53.0","3KXIR214I52Z9P2QW3VYKJ83GZU42D","A3I40B0FATY8VH","3KVQ0UJWPX71V463XQYDOZYIDLRW5D","","","<img src=""img/flower5.png"" style=""width:200px; border:14px solid green;"">","null","","","","","",""
"517.8999999761581","","image-keyboard-response","54","99738","0.0-54.0","3KXIR214I52Z9P2QW3VYKJ83GZU42D","A3I40B0FATY8VH","3KVQ0UJWPX71V463XQYDOZYIDLRW5D","","","img/flower6.png","76","518.2000000476837","3","1","3","",""
"null","","html-keyboard-response","55","100040","0.0-55.0","3KXIR214I52Z9P2QW3VYKJ83GZU42D","A3I40B0FATY8VH","3KVQ0UJWPX71V463XQYDOZYIDLRW5D","","","<img src=""img/flower6.png"" style=""width:200px; border:14px solid green;"">","null","","","","","",""
"709.5","","image-keyboard-response","56","100750","0.0-56.0","3KXIR214I52Z9P2QW3VYKJ83GZU42D","A3I40B0FATY8VH","3KVQ0UJWPX71V463XQYDOZYIDLRW5D","","","img/flower4.png","74","710.1000000238419","1","1","1","",""
"null","","html-keyboard-response","57","101053","0.0-57.0","3KXIR214I52Z9P2QW3VYKJ83GZU42D","A3I40B0FATY8VH","3KVQ0UJWPX71V463XQYDOZYIDLRW5D","","","<img src=""img/flower4.png"" style=""width:200px; border:14px solid green;"">","null","","","","","",""
"478.4000000357628","","image-keyboard-response","58","101533","0.0-58.0","3KXIR214I52Z9P2QW3VYKJ83GZU42D","A3I40B0FATY8VH","3KVQ0UJWPX71V463XQYDOZYIDLRW5D","","","img/flower6.png","76","479.69999998807907","3","1","3","",""
"null","","html-keyboard-response","59","101835","0.0-59.0","3KXIR214I52Z9P2QW3VYKJ83GZU42D","A3I40B0FATY8VH","3KVQ0UJWPX71V463XQYDOZYIDLRW5D","","","<img src=""img/flower6.png"" style=""width:200px; border:14px solid green;"">","null","","","","","",""
"742.1999999880791","","image-keyboard-response","60","102578","0.0-60.0","3KXIR214I52Z9P2QW3VYKJ83GZU42D","A3I40B0FATY8VH","3KVQ0UJWPX71V463XQYDOZYIDLRW5D","","","img/flower4.png","74","742.7000000476837","1","0","1","",""
"null","","html-keyboard-response","61","102880","0.0-61.0","3KXIR214I52Z9P2QW3VYKJ83GZU42D","A3I40B0FATY8VH","3KVQ0UJWPX71V463XQYDOZYIDLRW5D","","","<img src=""img/flower4.png"" style=""width:200px;border:14px solid red;"">","null","","","","","",""
"720.4000000357628","","image-keyboard-response","62","103601","0.0-62.0","3KXIR214I52Z9P2QW3VYKJ83GZU42D","A3I40B0FATY8VH","3KVQ0UJWPX71V463XQYDOZYIDLRW5D","","","img/flower5.png","75","720.7999999523163","2","1","2","",""
"null","","html-keyboard-response","63","103902","0.0-63.0","3KXIR214I52Z9P2QW3VYKJ83GZU42D","A3I40B0FATY8VH","3KVQ0UJWPX71V463XQYDOZYIDLRW5D","","","<img src=""img/flower5.png"" style=""width:200px; border:14px solid green;"">","null","","","","","",""
"12606.899999976158","","instructions","64","116509","0.0-64.0","3KXIR214I52Z9P2QW3VYKJ83GZU42D","A3I40B0FATY8VH","3KVQ0UJWPX71V463XQYDOZYIDLRW5D","","[{""page_index"":0,""viewing_time"":3777.899999976158},{""page_index"":1,""viewing_time"":8828.800000011921}]","","","","","","","",""
"696.8000000119209","","image-keyboard-response","65","117207","0.0-65.0","3KXIR214I52Z9P2QW3VYKJ83GZU42D","A3I40B0FATY8VH","3KVQ0UJWPX71V463XQYDOZYIDLRW5D","","","img/flower5.png","75","697.1999999880791","2","0","2","",""
"null","","html-keyboard-response","66","117509","0.0-66.0","3KXIR214I52Z9P2QW3VYKJ83GZU42D","A3I40B0FATY8VH","3KVQ0UJWPX71V463XQYDOZYIDLRW5D","","","<img src=""img/flower5.png"" style=""width:200px;border:14px solid red;"">","null","","","","","",""
"510.30000001192093","","image-keyboard-response","67","118020","0.0-67.0","3KXIR214I52Z9P2QW3VYKJ83GZU42D","A3I40B0FATY8VH","3KVQ0UJWPX71V463XQYDOZYIDLRW5D","","","img/flower4.png","74","511.2999999523163","1","1","1","",""
"null","","html-keyboard-response","68","118325","0.0-68.0","3KXIR214I52Z9P2QW3VYKJ83GZU42D","A3I40B0FATY8VH","3KVQ0UJWPX71V463XQYDOZYIDLRW5D","","","<img src=""img/flower4.png"" style=""width:200px; border:14px solid green;"">","null","","","","","",""
"570.8000000119209","","image-keyboard-response","69","118896","0.0-69.0","3KXIR214I52Z9P2QW3VYKJ83GZU42D","A3I40B0FATY8VH","3KVQ0UJWPX71V463XQYDOZYIDLRW5D","","","img/flower5.png","75","571.3000000119209","2","0","2","",""
"null","","html-keyboard-response","70","119198","0.0-70.0","3KXIR214I52Z9P2QW3VYKJ83GZU42D","A3I40B0FATY8VH","3KVQ0UJWPX71V463XQYDOZYIDLRW5D","","","<img src=""img/flower5.png"" style=""width:200px;border:14px solid red;"">","null","","","","","",""
"1410.1000000238419","","image-keyboard-response","71","120609","0.0-71.0","3KXIR214I52Z9P2QW3VYKJ83GZU42D","A3I40B0FATY8VH","3KVQ0UJWPX71V463XQYDOZYIDLRW5D","","","img/flower5.png","75","1411.199999988079","2","1","2","",""
"null","","html-keyboard-response","72","120913","0.0-72.0","3KXIR214I52Z9P2QW3VYKJ83GZU42D","A3I40B0FATY8VH","3KVQ0UJWPX71V463XQYDOZYIDLRW5D","","","<img src=""img/flower5.png"" style=""width:200px; border:14px solid green;"">","null","","","","","",""
"561.9000000357628","","image-keyboard-response","73","121476","0.0-73.0","3KXIR214I52Z9P2QW3VYKJ83GZU42D","A3I40B0FATY8VH","3KVQ0UJWPX71V463XQYDOZYIDLRW5D","","","img/flower6.png","76","563.3999999761581","3","1","3","",""
"null","","html-keyboard-response","74","121779","0.0-74.0","3KXIR214I52Z9P2QW3VYKJ83GZU42D","A3I40B0FATY8VH","3KVQ0UJWPX71V463XQYDOZYIDLRW5D","","","<img src=""img/flower6.png"" style=""width:200px; border:14px solid green;"">","null","","","","","",""
"547.5","","image-keyboard-response","75","122327","0.0-75.0","3KXIR214I52Z9P2QW3VYKJ83GZU42D","A3I40B0FATY8VH","3KVQ0UJWPX71V463XQYDOZYIDLRW5D","","","img/flower5.png","75","548.3999999761581","2","0","2","",""
"null","","html-keyboard-response","76","122630","0.0-76.0","3KXIR214I52Z9P2QW3VYKJ83GZU42D","A3I40B0FATY8VH","3KVQ0UJWPX71V463XQYDOZYIDLRW5D","","","<img src=""img/flower5.png"" style=""width:200px;border:14px solid red;"">","null","","","","","",""
"381.19999998807907","","image-keyboard-response","77","123013","0.0-77.0","3KXIR214I52Z9P2QW3VYKJ83GZU42D","A3I40B0FATY8VH","3KVQ0UJWPX71V463XQYDOZYIDLRW5D","","","img/flower6.png","74","382.5","1","1","3","",""
"null","","html-keyboard-response","78","123317","0.0-78.0","3KXIR214I52Z9P2QW3VYKJ83GZU42D","A3I40B0FATY8VH","3KVQ0UJWPX71V463XQYDOZYIDLRW5D","","","<img src=""img/flower6.png"" style=""width:200px; border:14px solid green;"">","null","","","","","",""
"634.3999999761581","","image-keyboard-response","79","123952","0.0-79.0","3KXIR214I52Z9P2QW3VYKJ83GZU42D","A3I40B0FATY8VH","3KVQ0UJWPX71V463XQYDOZYIDLRW5D","","","img/flower6.png","76","634.9000000357628","3","1","3","",""
"null","","html-keyboard-response","80","124255","0.0-80.0","3KXIR214I52Z9P2QW3VYKJ83GZU42D","A3I40B0FATY8VH","3KVQ0UJWPX71V463XQYDOZYIDLRW5D","","","<img src=""img/flower6.png"" style=""width:200px; border:14px solid green;"">","null","","","","","",""
"395.19999998807907","","image-keyboard-response","81","124651","0.0-81.0","3KXIR214I52Z9P2QW3VYKJ83GZU42D","A3I40B0FATY8VH","3KVQ0UJWPX71V463XQYDOZYIDLRW5D","","","img/flower6.png","76","395.69999998807907","3","1","3","",""
"null","","html-keyboard-response","82","124952","0.0-82.0","3KXIR214I52Z9P2QW3VYKJ83GZU42D","A3I40B0FATY8VH","3KVQ0UJWPX71V463XQYDOZYIDLRW5D","","","<img src=""img/flower6.png"" style=""width:200px; border:14px solid green;"">","null","","","","","",""
"574.4000000357628","","image-keyboard-response","83","125527","0.0-83.0","3KXIR214I52Z9P2QW3VYKJ83GZU42D","A3I40B0FATY8VH","3KVQ0UJWPX71V463XQYDOZYIDLRW5D","","","img/flower5.png","75","574.7999999523163","2","1","2","",""
"null","","html-keyboard-response","84","125829","0.0-84.0","3KXIR214I52Z9P2QW3VYKJ83GZU42D","A3I40B0FATY8VH","3KVQ0UJWPX71V463XQYDOZYIDLRW5D","","","<img src=""img/flower5.png"" style=""width:200px; border:14px solid green;"">","null","","","","","",""
"374.30000001192093","","image-keyboard-response","85","126204","0.0-85.0","3KXIR214I52Z9P2QW3VYKJ83GZU42D","A3I40B0FATY8VH","3KVQ0UJWPX71V463XQYDOZYIDLRW5D","","","img/flower5.png","75","374.89999997615814","2","1","2","",""
"null","","html-keyboard-response","86","126506","0.0-86.0","3KXIR214I52Z9P2QW3VYKJ83GZU42D","A3I40B0FATY8VH","3KVQ0UJWPX71V463XQYDOZYIDLRW5D","","","<img src=""img/flower5.png"" style=""width:200px; border:14px solid green;"">","null","","","","","",""
"276.19999998807907","","image-keyboard-response","87","126783","0.0-87.0","3KXIR214I52Z9P2QW3VYKJ83GZU42D","A3I40B0FATY8VH","3KVQ0UJWPX71V463XQYDOZYIDLRW5D","","","img/flower5.png","75","276.80000001192093","2","0","2","",""
"null","","html-keyboard-response","88","127086","0.0-88.0","3KXIR214I52Z9P2QW3VYKJ83GZU42D","A3I40B0FATY8VH","3KVQ0UJWPX71V463XQYDOZYIDLRW5D","","","<img src=""img/flower5.png"" style=""width:200px;border:14px solid red;"">","null","","","","","",""
"496.5999999642372","","image-keyboard-response","89","127584","0.0-89.0","3KXIR214I52Z9P2QW3VYKJ83GZU42D","A3I40B0FATY8VH","3KVQ0UJWPX71V463XQYDOZYIDLRW5D","","","img/flower4.png","74","497.5999999642372","1","1","1","",""
"null","","html-keyboard-response","90","127885","0.0-90.0","3KXIR214I52Z9P2QW3VYKJ83GZU42D","A3I40B0FATY8VH","3KVQ0UJWPX71V463XQYDOZYIDLRW5D","","","<img src=""img/flower4.png"" style=""width:200px; border:14px solid green;"">","null","","","","","",""
"711.6000000238419","","image-keyboard-response","91","128598","0.0-91.0","3KXIR214I52Z9P2QW3VYKJ83GZU42D","A3I40B0FATY8VH","3KVQ0UJWPX71V463XQYDOZYIDLRW5D","","","img/flower6.png","76","712.1000000238419","3","1","3","",""
"null","","html-keyboard-response","92","128899","0.0-92.0","3KXIR214I52Z9P2QW3VYKJ83GZU42D","A3I40B0FATY8VH","3KVQ0UJWPX71V463XQYDOZYIDLRW5D","","","<img src=""img/flower6.png"" style=""width:200px; border:14px solid green;"">","null","","","","","",""
"436.7999999523163","","image-keyboard-response","93","129337","0.0-93.0","3KXIR214I52Z9P2QW3VYKJ83GZU42D","A3I40B0FATY8VH","3KVQ0UJWPX71V463XQYDOZYIDLRW5D","","","img/flower5.png","75","437.60000002384186","2","1","2","",""
"null","","html-keyboard-response","94","129640","0.0-94.0","3KXIR214I52Z9P2QW3VYKJ83GZU42D","A3I40B0FATY8VH","3KVQ0UJWPX71V463XQYDOZYIDLRW5D","","","<img src=""img/flower5.png"" style=""width:200px; border:14px solid green;"">","null","","","","","",""
"284.10000002384186","","image-keyboard-response","95","129925","0.0-95.0","3KXIR214I52Z9P2QW3VYKJ83GZU42D","A3I40B0FATY8VH","3KVQ0UJWPX71V463XQYDOZYIDLRW5D","","","img/flower5.png","75","284.80000001192093","2","1","2","",""
"null","","html-keyboard-response","96","130227","0.0-96.0","3KXIR214I52Z9P2QW3VYKJ83GZU42D","A3I40B0FATY8VH","3KVQ0UJWPX71V463XQYDOZYIDLRW5D","","","<img src=""img/flower5.png"" style=""width:200px; border:14px solid green;"">","null","","","","","",""
"525.4000000357628","","image-keyboard-response","97","130753","0.0-97.0","3KXIR214I52Z9P2QW3VYKJ83GZU42D","A3I40B0FATY8VH","3KVQ0UJWPX71V463XQYDOZYIDLRW5D","","","img/flower4.png","74","525.8000000119209","1","0","1","",""
"null","","html-keyboard-response","98","131055","0.0-98.0","3KXIR214I52Z9P2QW3VYKJ83GZU42D","A3I40B0FATY8VH","3KVQ0UJWPX71V463XQYDOZYIDLRW5D","","","<img src=""img/flower4.png"" style=""width:200px;border:14px solid red;"">","null","","","","","",""
"505.60000002384186","","image-keyboard-response","99","131561","0.0-99.0","3KXIR214I52Z9P2QW3VYKJ83GZU42D","A3I40B0FATY8VH","3KVQ0UJWPX71V463XQYDOZYIDLRW5D","","","img/flower5.png","75","506.39999997615814","2","0","2","",""
"null","","html-keyboard-response","100","131866","0.0-100.0","3KXIR214I52Z9P2QW3VYKJ83GZU42D","A3I40B0FATY8VH","3KVQ0UJWPX71V463XQYDOZYIDLRW5D","","","<img src=""img/flower5.png"" style=""width:200px;border:14px solid red;"">","null","","","","","",""
"1147.5","","image-keyboard-response","101","133014","0.0-101.0","3KXIR214I52Z9P2QW3VYKJ83GZU42D","A3I40B0FATY8VH","3KVQ0UJWPX71V463XQYDOZYIDLRW5D","","","img/flower4.png","74","1147.800000011921","1","1","1","",""
"null","","html-keyboard-response","102","133316","0.0-102.0","3KXIR214I52Z9P2QW3VYKJ83GZU42D","A3I40B0FATY8VH","3KVQ0UJWPX71V463XQYDOZYIDLRW5D","","","<img src=""img/flower4.png"" style=""width:200px; border:14px solid green;"">","null","","","","","",""
"376.2000000476837","","image-keyboard-response","103","133693","0.0-103.0","3KXIR214I52Z9P2QW3VYKJ83GZU42D","A3I40B0FATY8VH","3KVQ0UJWPX71V463XQYDOZYIDLRW5D","","","img/flower4.png","74","376.60000002384186","1","1","1","",""
"null","","html-keyboard-response","104","133995","0.0-104.0","3KXIR214I52Z9P2QW3VYKJ83GZU42D","A3I40B0FATY8VH","3KVQ0UJWPX71V463XQYDOZYIDLRW5D","","","<img src=""img/flower4.png"" style=""width:200px; border:14px solid green;"">","null","","","","","",""
"490.2000000476837","","image-keyboard-response","105","134485","0.0-105.0","3KXIR214I52Z9P2QW3VYKJ83GZU42D","A3I40B0FATY8VH","3KVQ0UJWPX71V463XQYDOZYIDLRW5D","","","img/flower6.png","76","490.69999998807907","3","1","3","",""
"null","","html-keyboard-response","106","134788","0.0-106.0","3KXIR214I52Z9P2QW3VYKJ83GZU42D","A3I40B0FATY8VH","3KVQ0UJWPX71V463XQYDOZYIDLRW5D","","","<img src=""img/flower6.png"" style=""width:200px; border:14px solid green;"">","null","","","","","",""
"548.3000000119209","","image-keyboard-response","107","135338","0.0-107.0","3KXIR214I52Z9P2QW3VYKJ83GZU42D","A3I40B0FATY8VH","3KVQ0UJWPX71V463XQYDOZYIDLRW5D","","","img/flower4.png","74","549.3000000119209","1","1","1","",""
"null","","html-keyboard-response","108","135640","0.0-108.0","3KXIR214I52Z9P2QW3VYKJ83GZU42D","A3I40B0FATY8VH","3KVQ0UJWPX71V463XQYDOZYIDLRW5D","","","<img src=""img/flower4.png"" style=""width:200px; border:14px solid green;"">","null","","","","","",""
"710.8000000119209","","image-keyboard-response","109","136353","0.0-109.0","3KXIR214I52Z9P2QW3VYKJ83GZU42D","A3I40B0FATY8VH","3KVQ0UJWPX71V463XQYDOZYIDLRW5D","","","img/flower6.png","76","712.5","3","1","3","",""
"null","","html-keyboard-response","110","136656","0.0-110.0","3KXIR214I52Z9P2QW3VYKJ83GZU42D","A3I40B0FATY8VH","3KVQ0UJWPX71V463XQYDOZYIDLRW5D","","","<img src=""img/flower6.png"" style=""width:200px; border:14px solid green;"">","null","","","","","",""
"376","","image-keyboard-response","111","137033","0.0-111.0","3KXIR214I52Z9P2QW3VYKJ83GZU42D","A3I40B0FATY8VH","3KVQ0UJWPX71V463XQYDOZYIDLRW5D","","","img/flower6.png","76","376.9000000357628","3","1","3","",""
"null","","html-keyboard-response","112","137336","0.0-112.0","3KXIR214I52Z9P2QW3VYKJ83GZU42D","A3I40B0FATY8VH","3KVQ0UJWPX71V463XQYDOZYIDLRW5D","","","<img src=""img/flower6.png"" style=""width:200px; border:14px solid green;"">","null","","","","","",""
"305.0999999642372","","image-keyboard-response","113","137642","0.0-113.0","3KXIR214I52Z9P2QW3VYKJ83GZU42D","A3I40B0FATY8VH","3KVQ0UJWPX71V463XQYDOZYIDLRW5D","","","img/flower6.png","76","306.30000001192093","3","0","3","",""
"null","","html-keyboard-response","114","137944","0.0-114.0","3KXIR214I52Z9P2QW3VYKJ83GZU42D","A3I40B0FATY8VH","3KVQ0UJWPX71V463XQYDOZYIDLRW5D","","","<img src=""img/flower6.png"" style=""width:200px;border:14px solid red;"">","null","","","","","",""
"463.69999998807907","","image-keyboard-response","115","138408","0.0-115.0","3KXIR214I52Z9P2QW3VYKJ83GZU42D","A3I40B0FATY8VH","3KVQ0UJWPX71V463XQYDOZYIDLRW5D","","","img/flower4.png","75","464.5","2","1","1","",""
"null","","html-keyboard-response","116","138712","0.0-116.0","3KXIR214I52Z9P2QW3VYKJ83GZU42D","A3I40B0FATY8VH","3KVQ0UJWPX71V463XQYDOZYIDLRW5D","","","<img src=""img/flower4.png"" style=""width:200px; border:14px solid green;"">","null","","","","","",""
"512.5999999642372","","image-keyboard-response","117","139226","0.0-117.0","3KXIR214I52Z9P2QW3VYKJ83GZU42D","A3I40B0FATY8VH","3KVQ0UJWPX71V463XQYDOZYIDLRW5D","","","img/flower4.png","74","513.7000000476837","1","1","1","",""
"null","","html-keyboard-response","118","139529","0.0-118.0","3KXIR214I52Z9P2QW3VYKJ83GZU42D","A3I40B0FATY8VH","3KVQ0UJWPX71V463XQYDOZYIDLRW5D","","","<img src=""img/flower4.png"" style=""width:200px; border:14px solid green;"">","null","","","","","",""
"337","","image-keyboard-response","119","139867","0.0-119.0","3KXIR214I52Z9P2QW3VYKJ83GZU42D","A3I40B0FATY8VH","3KVQ0UJWPX71V463XQYDOZYIDLRW5D","","","img/flower4.png","74","338.10000002384186","1","1","1","",""
"null","","html-keyboard-response","120","140168","0.0-120.0","3KXIR214I52Z9P2QW3VYKJ83GZU42D","A3I40B0FATY8VH","3KVQ0UJWPX71V463XQYDOZYIDLRW5D","","","<img src=""img/flower4.png"" style=""width:200px; border:14px solid green;"">","null","","","","","",""
"514.7000000476837","","image-keyboard-response","121","140683","0.0-121.0","3KXIR214I52Z9P2QW3VYKJ83GZU42D","A3I40B0FATY8VH","3KVQ0UJWPX71V463XQYDOZYIDLRW5D","","","img/flower6.png","76","515.1999999880791","3","1","3","",""
"null","","html-keyboard-response","122","140985","0.0-122.0","3KXIR214I52Z9P2QW3VYKJ83GZU42D","A3I40B0FATY8VH","3KVQ0UJWPX71V463XQYDOZYIDLRW5D","","","<img src=""img/flower6.png"" style=""width:200px; border:14px solid green;"">","null","","","","","",""
"559.6000000238419","","image-keyboard-response","123","141545","0.0-123.0","3KXIR214I52Z9P2QW3VYKJ83GZU42D","A3I40B0FATY8VH","3KVQ0UJWPX71V463XQYDOZYIDLRW5D","","","img/flower4.png","74","560.0999999642372","1","0","1","",""
"null","","html-keyboard-response","124","141847","0.0-124.0","3KXIR214I52Z9P2QW3VYKJ83GZU42D","A3I40B0FATY8VH","3KVQ0UJWPX71V463XQYDOZYIDLRW5D","","","<img src=""img/flower4.png"" style=""width:200px;border:14px solid red;"">","null","","","","","",""
"3237.600000023842","","instructions","125","145086","0.0-125.0","3KXIR214I52Z9P2QW3VYKJ83GZU42D","A3I40B0FATY8VH","3KVQ0UJWPX71V463XQYDOZYIDLRW5D","","[{""page_index"":0,""viewing_time"":3237.400000035763}]","","","","","","","",""
"855.8999999761581","","image-keyboard-response","126","145942","0.0-126.0","3KXIR214I52Z9P2QW3VYKJ83GZU42D","A3I40B0FATY8VH","3KVQ0UJWPX71V463XQYDOZYIDLRW5D","","","img/flower3.png","74","857","1","0","2","1,1,0,0,1,1,1,0,1",""
"null","","html-keyboard-response","127","146246","0.0-127.0","3KXIR214I52Z9P2QW3VYKJ83GZU42D","A3I40B0FATY8VH","3KVQ0UJWPX71V463XQYDOZYIDLRW5D","","","<img src=""img/flower3.png"" style=""width:200px;border:14px solid red;"">","null","","","","","",""
"787","","image-keyboard-response","128","147036","0.0-128.0","3KXIR214I52Z9P2QW3VYKJ83GZU42D","A3I40B0FATY8VH","3KVQ0UJWPX71V463XQYDOZYIDLRW5D","","","img/flower1.png","75","788","2","0","3","1,1,0,0,1,1,1,0,1",""
"null","","html-keyboard-response","129","147338","0.0-129.0","3KXIR214I52Z9P2QW3VYKJ83GZU42D","A3I40B0FATY8VH","3KVQ0UJWPX71V463XQYDOZYIDLRW5D","","","<img src=""img/flower1.png"" style=""width:200px;border:14px solid red;"">","null","","","","","",""
"494","","image-keyboard-response","130","147833","0.0-130.0","3KXIR214I52Z9P2QW3VYKJ83GZU42D","A3I40B0FATY8VH","3KVQ0UJWPX71V463XQYDOZYIDLRW5D","","","img/flower1.png","75","494.5","2","0","3","1,1,0,0,1,1,1,0,1",""
"null","","html-keyboard-response","131","148136","0.0-131.0","3KXIR214I52Z9P2QW3VYKJ83GZU42D","A3I40B0FATY8VH","3KVQ0UJWPX71V463XQYDOZYIDLRW5D","","","<img src=""img/flower1.png"" style=""width:200px;border:14px solid red;"">","null","","","","","",""
"631","","image-keyboard-response","132","148768","0.0-132.0","3KXIR214I52Z9P2QW3VYKJ83GZU42D","A3I40B0FATY8VH","3KVQ0UJWPX71V463XQYDOZYIDLRW5D","","","img/flower3.png","74","631.9000000357628","1","0","2","1,1,0,0,1,1,1,0,1",""
"null","","html-keyboard-response","133","149071","0.0-133.0","3KXIR214I52Z9P2QW3VYKJ83GZU42D","A3I40B0FATY8VH","3KVQ0UJWPX71V463XQYDOZYIDLRW5D","","","<img src=""img/flower3.png"" style=""width:200px;border:14px solid red;"">","null","","","","","",""
"582.2999999523163","","image-keyboard-response","134","149654","0.0-134.0","3KXIR214I52Z9P2QW3VYKJ83GZU42D","A3I40B0FATY8VH","3KVQ0UJWPX71V463XQYDOZYIDLRW5D","","","img/flower3.png","76","582.8000000119209","3","1","2","1,1,0,0,1,1,1,0,1",""
"null","","html-keyboard-response","135","149956","0.0-135.0","3KXIR214I52Z9P2QW3VYKJ83GZU42D","A3I40B0FATY8VH","3KVQ0UJWPX71V463XQYDOZYIDLRW5D","","","<img src=""img/flower3.png"" style=""width:200px; border:14px solid green;"">","null","","","","","",""
"662.9000000357628","","image-keyboard-response","136","150619","0.0-136.0","3KXIR214I52Z9P2QW3VYKJ83GZU42D","A3I40B0FATY8VH","3KVQ0UJWPX71V463XQYDOZYIDLRW5D","","","img/flower6.png","76","663.4000000357628","3","0","1","1,1,0,0,1,1,1,0,1",""
"null","","html-keyboard-response","137","150921","0.0-137.0","3KXIR214I52Z9P2QW3VYKJ83GZU42D","A3I40B0FATY8VH","3KVQ0UJWPX71V463XQYDOZYIDLRW5D","","","<img src=""img/flower6.png"" style=""width:200px;border:14px solid red;"">","null","","","","","",""
"1090.199999988079","","image-keyboard-response","138","152012","0.0-138.0","3KXIR214I52Z9P2QW3VYKJ83GZU42D","A3I40B0FATY8VH","3KVQ0UJWPX71V463XQYDOZYIDLRW5D","","","img/flower1.png","75","1090.800000011921","2","0","3","1,1,0,0,1,1,1,0,1",""
"null","","html-keyboard-response","139","152313","0.0-139.0","3KXIR214I52Z9P2QW3VYKJ83GZU42D","A3I40B0FATY8VH","3KVQ0UJWPX71V463XQYDOZYIDLRW5D","","","<img src=""img/flower1.png"" style=""width:200px;border:14px solid red;"">","null","","","","","",""
"610.6000000238419","","image-keyboard-response","140","152924","0.0-140.0","3KXIR214I52Z9P2QW3VYKJ83GZU42D","A3I40B0FATY8VH","3KVQ0UJWPX71V463XQYDOZYIDLRW5D","","","img/flower3.png","76","611.5","3","1","2","1,1,0,0,1,1,1,0,1",""
"null","","html-keyboard-response","141","153227","0.0-141.0","3KXIR214I52Z9P2QW3VYKJ83GZU42D","A3I40B0FATY8VH","3KVQ0UJWPX71V463XQYDOZYIDLRW5D","","","<img src=""img/flower3.png"" style=""width:200px; border:14px solid green;"">","null","","","","","",""
"321.60000002384186","","image-keyboard-response","142","153549","0.0-142.0","3KXIR214I52Z9P2QW3VYKJ83GZU42D","A3I40B0FATY8VH","3KVQ0UJWPX71V463XQYDOZYIDLRW5D","","","img/flower3.png","76","322.39999997615814","3","1","2","1,1,0,0,1,1,1,0,1",""
"null","","html-keyboard-response","143","153851","0.0-143.0","3KXIR214I52Z9P2QW3VYKJ83GZU42D","A3I40B0FATY8VH","3KVQ0UJWPX71V463XQYDOZYIDLRW5D","","","<img src=""img/flower3.png"" style=""width:200px; border:14px solid green;"">","null","","","","","",""
"241.89999997615814","","image-keyboard-response","144","154094","0.0-144.0","3KXIR214I52Z9P2QW3VYKJ83GZU42D","A3I40B0FATY8VH","3KVQ0UJWPX71V463XQYDOZYIDLRW5D","","","img/flower3.png","76","242.39999997615814","3","1","2","1,1,0,0,1,1,1,0,1",""
"null","","html-keyboard-response","145","154396","0.0-145.0","3KXIR214I52Z9P2QW3VYKJ83GZU42D","A3I40B0FATY8VH","3KVQ0UJWPX71V463XQYDOZYIDLRW5D","","","<img src=""img/flower3.png"" style=""width:200px; border:14px solid green;"">","null","","","","","",""
"504","","image-keyboard-response","146","154901","0.0-146.0","3KXIR214I52Z9P2QW3VYKJ83GZU42D","A3I40B0FATY8VH","3KVQ0UJWPX71V463XQYDOZYIDLRW5D","","","img/flower6.png","74","504.4000000357628","1","1","1","1,1,0,0,1,1,1,0,1",""
"null","","html-keyboard-response","147","155202","0.0-147.0","3KXIR214I52Z9P2QW3VYKJ83GZU42D","A3I40B0FATY8VH","3KVQ0UJWPX71V463XQYDOZYIDLRW5D","","","<img src=""img/flower6.png"" style=""width:200px; border:14px solid green;"">","null","","","","","",""
"296.5999999642372","","image-keyboard-response","148","155500","0.0-148.0","3KXIR214I52Z9P2QW3VYKJ83GZU42D","A3I40B0FATY8VH","3KVQ0UJWPX71V463XQYDOZYIDLRW5D","","","img/flower6.png","74","297.69999998807907","1","1","1","1,1,0,0,1,1,1,0,1",""
"null","","html-keyboard-response","149","155803","0.0-149.0","3KXIR214I52Z9P2QW3VYKJ83GZU42D","A3I40B0FATY8VH","3KVQ0UJWPX71V463XQYDOZYIDLRW5D","","","<img src=""img/flower6.png"" style=""width:200px; border:14px solid green;"">","null","","","","","",""
"269","","image-keyboard-response","150","156073","0.0-150.0","3KXIR214I52Z9P2QW3VYKJ83GZU42D","A3I40B0FATY8VH","3KVQ0UJWPX71V463XQYDOZYIDLRW5D","","","img/flower6.png","74","269.80000001192093","1","1","1","1,1,0,0,1,1,1,0,1",""
"null","","html-keyboard-response","151","156375","0.0-151.0","3KXIR214I52Z9P2QW3VYKJ83GZU42D","A3I40B0FATY8VH","3KVQ0UJWPX71V463XQYDOZYIDLRW5D","","","<img src=""img/flower6.png"" style=""width:200px; border:14px solid green;"">","null","","","","","",""
"602.8000000119209","","image-keyboard-response","152","156978","0.0-152.0","3KXIR214I52Z9P2QW3VYKJ83GZU42D","A3I40B0FATY8VH","3KVQ0UJWPX71V463XQYDOZYIDLRW5D","","","img/flower1.png","75","603.1999999880791","2","0","3","1,1,0,0,1,1,1,0,1",""
"null","","html-keyboard-response","153","157280","0.0-153.0","3KXIR214I52Z9P2QW3VYKJ83GZU42D","A3I40B0FATY8VH","3KVQ0UJWPX71V463XQYDOZYIDLRW5D","","","<img src=""img/flower1.png"" style=""width:200px;border:14px solid red;"">","null","","","","","",""
"774.1999999880791","","image-keyboard-response","154","158055","0.0-154.0","3KXIR214I52Z9P2QW3VYKJ83GZU42D","A3I40B0FATY8VH","3KVQ0UJWPX71V463XQYDOZYIDLRW5D","","","img/flower6.png","74","774.8000000119209","1","1","1","1,1,0,0,1,1,1,0,1",""
"null","","html-keyboard-response","155","158358","0.0-155.0","3KXIR214I52Z9P2QW3VYKJ83GZU42D","A3I40B0FATY8VH","3KVQ0UJWPX71V463XQYDOZYIDLRW5D","","","<img src=""img/flower6.png"" style=""width:200px; border:14px solid green;"">","null","","","","","",""
"269.39999997615814","","image-keyboard-response","156","158628","0.0-156.0","3KXIR214I52Z9P2QW3VYKJ83GZU42D","A3I40B0FATY8VH","3KVQ0UJWPX71V463XQYDOZYIDLRW5D","","","img/flower6.png","74","269.80000001192093","1","1","1","1,1,0,0,1,1,1,0,1",""
"null","","html-keyboard-response","157","158930","0.0-157.0","3KXIR214I52Z9P2QW3VYKJ83GZU42D","A3I40B0FATY8VH","3KVQ0UJWPX71V463XQYDOZYIDLRW5D","","","<img src=""img/flower6.png"" style=""width:200px; border:14px solid green;"">","null","","","","","",""
"212","","image-keyboard-response","158","159143","0.0-158.0","3KXIR214I52Z9P2QW3VYKJ83GZU42D","A3I40B0FATY8VH","3KVQ0UJWPX71V463XQYDOZYIDLRW5D","","","img/flower6.png","74","212.69999998807907","1","1","1","1,1,0,0,1,1,1,0,1",""
"null","","html-keyboard-response","159","159445","0.0-159.0","3KXIR214I52Z9P2QW3VYKJ83GZU42D","A3I40B0FATY8VH","3KVQ0UJWPX71V463XQYDOZYIDLRW5D","","","<img src=""img/flower6.png"" style=""width:200px; border:14px solid green;"">","null","","","","","",""
"226.60000002384186","","image-keyboard-response","160","159673","0.0-160.0","3KXIR214I52Z9P2QW3VYKJ83GZU42D","A3I40B0FATY8VH","3KVQ0UJWPX71V463XQYDOZYIDLRW5D","","","img/flower6.png","74","227.9000000357628","1","1","1","1,1,0,0,1,1,1,0,1",""
"null","","html-keyboard-response","161","159988","0.0-161.0","3KXIR214I52Z9P2QW3VYKJ83GZU42D","A3I40B0FATY8VH","3KVQ0UJWPX71V463XQYDOZYIDLRW5D","","","<img src=""img/flower6.png"" style=""width:200px; border:14px solid green;"">","null","","","","","",""
"419.7999999523163","","image-keyboard-response","162","160408","0.0-162.0","3KXIR214I52Z9P2QW3VYKJ83GZU42D","A3I40B0FATY8VH","3KVQ0UJWPX71V463XQYDOZYIDLRW5D","","","img/flower3.png","74","420.39999997615814","1","0","2","1,1,0,0,1,1,1,0,1",""
"null","","html-keyboard-response","163","160710","0.0-163.0","3KXIR214I52Z9P2QW3VYKJ83GZU42D","A3I40B0FATY8VH","3KVQ0UJWPX71V463XQYDOZYIDLRW5D","","","<img src=""img/flower3.png"" style=""width:200px;border:14px solid red;"">","null","","","","","",""
"530.2000000476837","","image-keyboard-response","164","161241","0.0-164.0","3KXIR214I52Z9P2QW3VYKJ83GZU42D","A3I40B0FATY8VH","3KVQ0UJWPX71V463XQYDOZYIDLRW5D","","","img/flower6.png","74","530.6999999880791","1","1","1","1,1,0,0,1,1,1,0,1",""
"null","","html-keyboard-response","165","161542","0.0-165.0","3KXIR214I52Z9P2QW3VYKJ83GZU42D","A3I40B0FATY8VH","3KVQ0UJWPX71V463XQYDOZYIDLRW5D","","","<img src=""img/flower6.png"" style=""width:200px; border:14px solid green;"">","null","","","","","",""
"266.30000001192093","","image-keyboard-response","166","161809","0.0-166.0","3KXIR214I52Z9P2QW3VYKJ83GZU42D","A3I40B0FATY8VH","3KVQ0UJWPX71V463XQYDOZYIDLRW5D","","","img/flower6.png","74","267.19999998807907","1","1","1","1,1,0,0,1,1,1,0,1",""
"null","","html-keyboard-response","167","162111","0.0-167.0","3KXIR214I52Z9P2QW3VYKJ83GZU42D","A3I40B0FATY8VH","3KVQ0UJWPX71V463XQYDOZYIDLRW5D","","","<img src=""img/flower6.png"" style=""width:200px; border:14px solid green;"">","null","","","","","",""
"145.60000002384186","","image-keyboard-response","168","162257","0.0-168.0","3KXIR214I52Z9P2QW3VYKJ83GZU42D","A3I40B0FATY8VH","3KVQ0UJWPX71V463XQYDOZYIDLRW5D","","","img/flower1.png","74","145.89999997615814","1","1","3","1,1,0,0,1,1,1,0,1",""
"null","","html-keyboard-response","169","162559","0.0-169.0","3KXIR214I52Z9P2QW3VYKJ83GZU42D","A3I40B0FATY8VH","3KVQ0UJWPX71V463XQYDOZYIDLRW5D","","","<img src=""img/flower1.png"" style=""width:200px; border:14px solid green;"">","null","","","","","",""
"471.2000000476837","","image-keyboard-response","170","163031","0.0-170.0","3KXIR214I52Z9P2QW3VYKJ83GZU42D","A3I40B0FATY8VH","3KVQ0UJWPX71V463XQYDOZYIDLRW5D","","","img/flower1.png","74","471.89999997615814","1","1","3","1,1,0,0,1,1,1,0,1",""
"null","","html-keyboard-response","171","163333","0.0-171.0","3KXIR214I52Z9P2QW3VYKJ83GZU42D","A3I40B0FATY8VH","3KVQ0UJWPX71V463XQYDOZYIDLRW5D","","","<img src=""img/flower1.png"" style=""width:200px; border:14px solid green;"">","null","","","","","",""
"212.69999998807907","","image-keyboard-response","172","163546","0.0-172.0","3KXIR214I52Z9P2QW3VYKJ83GZU42D","A3I40B0FATY8VH","3KVQ0UJWPX71V463XQYDOZYIDLRW5D","","","img/flower3.png","74","213.29999995231628","1","0","2","1,1,0,0,1,1,1,0,1",""
"null","","html-keyboard-response","173","163850","0.0-173.0","3KXIR214I52Z9P2QW3VYKJ83GZU42D","A3I40B0FATY8VH","3KVQ0UJWPX71V463XQYDOZYIDLRW5D","","","<img src=""img/flower3.png"" style=""width:200px;border:14px solid red;"">","null","","","","","",""
"648.6000000238419","","image-keyboard-response","174","164499","0.0-174.0","3KXIR214I52Z9P2QW3VYKJ83GZU42D","A3I40B0FATY8VH","3KVQ0UJWPX71V463XQYDOZYIDLRW5D","","","img/flower3.png","76","649.1999999880791","3","1","2","1,1,0,0,1,1,1,0,1",""
"null","","html-keyboard-response","175","164801","0.0-175.0","3KXIR214I52Z9P2QW3VYKJ83GZU42D","A3I40B0FATY8VH","3KVQ0UJWPX71V463XQYDOZYIDLRW5D","","","<img src=""img/flower3.png"" style=""width:200px; border:14px solid green;"">","null","","","","","",""
"874.8000000119209","","image-keyboard-response","176","165676","0.0-176.0","3KXIR214I52Z9P2QW3VYKJ83GZU42D","A3I40B0FATY8VH","3KVQ0UJWPX71V463XQYDOZYIDLRW5D","","","img/flower1.png","74","875.4000000357628","1","1","3","1,1,0,0,1,1,1,0,1",""
"null","","html-keyboard-response","177","165977","0.0-177.0","3KXIR214I52Z9P2QW3VYKJ83GZU42D","A3I40B0FATY8VH","3KVQ0UJWPX71V463XQYDOZYIDLRW5D","","","<img src=""img/flower1.png"" style=""width:200px; border:14px solid green;"">","null","","","","","",""
"692.8000000119209","","image-keyboard-response","178","166671","0.0-178.0","3KXIR214I52Z9P2QW3VYKJ83GZU42D","A3I40B0FATY8VH","3KVQ0UJWPX71V463XQYDOZYIDLRW5D","","","img/flower1.png","74","693.2000000476837","1","1","3","1,1,0,0,1,1,1,0,1",""
"null","","html-keyboard-response","179","166973","0.0-179.0","3KXIR214I52Z9P2QW3VYKJ83GZU42D","A3I40B0FATY8VH","3KVQ0UJWPX71V463XQYDOZYIDLRW5D","","","<img src=""img/flower1.png"" style=""width:200px; border:14px solid green;"">","null","","","","","",""
"235.80000001192093","","image-keyboard-response","180","167209","0.0-180.0","3KXIR214I52Z9P2QW3VYKJ83GZU42D","A3I40B0FATY8VH","3KVQ0UJWPX71V463XQYDOZYIDLRW5D","","","img/flower1.png","74","236.30000001192093","1","1","3","1,1,0,0,1,1,1,0,1",""
"null","","html-keyboard-response","181","167511","0.0-181.0","3KXIR214I52Z9P2QW3VYKJ83GZU42D","A3I40B0FATY8VH","3KVQ0UJWPX71V463XQYDOZYIDLRW5D","","","<img src=""img/flower1.png"" style=""width:200px; border:14px solid green;"">","null","","","","","",""
"1363.199999988079","","image-keyboard-response","182","168875","0.0-182.0","3KXIR214I52Z9P2QW3VYKJ83GZU42D","A3I40B0FATY8VH","3KVQ0UJWPX71V463XQYDOZYIDLRW5D","","","img/flower3.png","74","1363.800000011921","1","0","2","1,1,0,0,1,1,1,0,1",""
"null","","html-keyboard-response","183","169176","0.0-183.0","3KXIR214I52Z9P2QW3VYKJ83GZU42D","A3I40B0FATY8VH","3KVQ0UJWPX71V463XQYDOZYIDLRW5D","","","<img src=""img/flower3.png"" style=""width:200px;border:14px solid red;"">","null","","","","","",""
"691.1999999880791","","image-keyboard-response","184","169869","0.0-184.0","3KXIR214I52Z9P2QW3VYKJ83GZU42D","A3I40B0FATY8VH","3KVQ0UJWPX71V463XQYDOZYIDLRW5D","","","img/flower1.png","74","692.2999999523163","1","1","3","1,1,0,0,1,1,1,0,1",""
"null","","html-keyboard-response","185","170171","0.0-185.0","3KXIR214I52Z9P2QW3VYKJ83GZU42D","A3I40B0FATY8VH","3KVQ0UJWPX71V463XQYDOZYIDLRW5D","","","<img src=""img/flower1.png"" style=""width:200px; border:14px solid green;"">","null","","","","","",""
"506.80000001192093","","image-keyboard-response","186","170679","0.0-186.0","3KXIR214I52Z9P2QW3VYKJ83GZU42D","A3I40B0FATY8VH","3KVQ0UJWPX71V463XQYDOZYIDLRW5D","","","img/flower3.png","76","508.30000001192093","3","1","2","1,1,0,0,1,1,1,0,1",""
"null","","html-keyboard-response","187","170982","0.0-187.0","3KXIR214I52Z9P2QW3VYKJ83GZU42D","A3I40B0FATY8VH","3KVQ0UJWPX71V463XQYDOZYIDLRW5D","","","<img src=""img/flower3.png"" style=""width:200px; border:14px solid green;"">","null","","","","","",""
"289.10000002384186","","image-keyboard-response","188","171272","0.0-188.0","3KXIR214I52Z9P2QW3VYKJ83GZU42D","A3I40B0FATY8VH","3KVQ0UJWPX71V463XQYDOZYIDLRW5D","","","img/flower3.png","76","289.7000000476837","3","1","2","1,1,0,0,1,1,1,0,1",""
"null","","html-keyboard-response","189","171573","0.0-189.0","3KXIR214I52Z9P2QW3VYKJ83GZU42D","A3I40B0FATY8VH","3KVQ0UJWPX71V463XQYDOZYIDLRW5D","","","<img src=""img/flower3.png"" style=""width:200px; border:14px solid green;"">","null","","","","","",""
"329.5","","image-keyboard-response","190","171904","0.0-190.0","3KXIR214I52Z9P2QW3VYKJ83GZU42D","A3I40B0FATY8VH","3KVQ0UJWPX71V463XQYDOZYIDLRW5D","","","img/flower3.png","76","330.5999999642372","3","1","2","1,1,0,0,1,1,1,0,1",""
"null","","html-keyboard-response","191","172207","0.0-191.0","3KXIR214I52Z9P2QW3VYKJ83GZU42D","A3I40B0FATY8VH","3KVQ0UJWPX71V463XQYDOZYIDLRW5D","","","<img src=""img/flower3.png"" style=""width:200px; border:14px solid green;"">","null","","","","","",""
"544.1999999880791","","image-keyboard-response","192","172752","0.0-192.0","3KXIR214I52Z9P2QW3VYKJ83GZU42D","A3I40B0FATY8VH","3KVQ0UJWPX71V463XQYDOZYIDLRW5D","","","img/flower1.png","74","545","1","1","3","1,1,0,0,1,1,1,0,1",""
"null","","html-keyboard-response","193","173054","0.0-193.0","3KXIR214I52Z9P2QW3VYKJ83GZU42D","A3I40B0FATY8VH","3KVQ0UJWPX71V463XQYDOZYIDLRW5D","","","<img src=""img/flower1.png"" style=""width:200px; border:14px solid green;"">","null","","","","","",""
"173.39999997615814","","image-keyboard-response","194","173229","0.0-194.0","3KXIR214I52Z9P2QW3VYKJ83GZU42D","A3I40B0FATY8VH","3KVQ0UJWPX71V463XQYDOZYIDLRW5D","","","img/flower3.png","74","174.10000002384186","1","0","2","1,1,0,0,1,1,1,0,1",""
"null","","html-keyboard-response","195","173531","0.0-195.0","3KXIR214I52Z9P2QW3VYKJ83GZU42D","A3I40B0FATY8VH","3KVQ0UJWPX71V463XQYDOZYIDLRW5D","","","<img src=""img/flower3.png"" style=""width:200px;border:14px solid red;"">","null","","","","","",""
"690.5","","image-keyboard-response","196","174222","0.0-196.0","3KXIR214I52Z9P2QW3VYKJ83GZU42D","A3I40B0FATY8VH","3KVQ0UJWPX71V463XQYDOZYIDLRW5D","","","img/flower6.png","76","691","3","0","1","1,1,0,0,1,1,1,0,1",""
"null","","html-keyboard-response","197","174524","0.0-197.0","3KXIR214I52Z9P2QW3VYKJ83GZU42D","A3I40B0FATY8VH","3KVQ0UJWPX71V463XQYDOZYIDLRW5D","","","<img src=""img/flower6.png"" style=""width:200px;border:14px solid red;"">","null","","","","","",""
"776.5","","image-keyboard-response","198","175301","0.0-198.0","3KXIR214I52Z9P2QW3VYKJ83GZU42D","A3I40B0FATY8VH","3KVQ0UJWPX71V463XQYDOZYIDLRW5D","","","img/flower1.png","74","777.1999999880791","1","1","3","1,1,0,0,1,1,1,0,1",""
"null","","html-keyboard-response","199","175604","0.0-199.0","3KXIR214I52Z9P2QW3VYKJ83GZU42D","A3I40B0FATY8VH","3KVQ0UJWPX71V463XQYDOZYIDLRW5D","","","<img src=""img/flower1.png"" style=""width:200px; border:14px solid green;"">","null","","","","","",""
"477.5","","image-keyboard-response","200","176082","0.0-200.0","3KXIR214I52Z9P2QW3VYKJ83GZU42D","A3I40B0FATY8VH","3KVQ0UJWPX71V463XQYDOZYIDLRW5D","","","img/flower6.png","74","477.9000000357628","1","1","1","1,1,0,0,1,1,1,0,1",""
"null","","html-keyboard-response","201","176385","0.0-201.0","3KXIR214I52Z9P2QW3VYKJ83GZU42D","A3I40B0FATY8VH","3KVQ0UJWPX71V463XQYDOZYIDLRW5D","","","<img src=""img/flower6.png"" style=""width:200px; border:14px solid green;"">","null","","","","","",""
"119.69999998807907","","image-keyboard-response","202","176505","0.0-202.0","3KXIR214I52Z9P2QW3VYKJ83GZU42D","A3I40B0FATY8VH","3KVQ0UJWPX71V463XQYDOZYIDLRW5D","","","img/flower3.png","74","120.29999995231628","1","0","2","1,1,0,0,1,1,1,0,1",""
"null","","html-keyboard-response","203","176807","0.0-203.0","3KXIR214I52Z9P2QW3VYKJ83GZU42D","A3I40B0FATY8VH","3KVQ0UJWPX71V463XQYDOZYIDLRW5D","","","<img src=""img/flower3.png"" style=""width:200px;border:14px solid red;"">","null","","","","","",""
"376.7000000476837","","image-keyboard-response","204","177184","0.0-204.0","3KXIR214I52Z9P2QW3VYKJ83GZU42D","A3I40B0FATY8VH","3KVQ0UJWPX71V463XQYDOZYIDLRW5D","","","img/flower3.png","76","377.19999998807907","3","1","2","1,1,0,0,1,1,1,0,1",""
"null","","html-keyboard-response","205","177486","0.0-205.0","3KXIR214I52Z9P2QW3VYKJ83GZU42D","A3I40B0FATY8VH","3KVQ0UJWPX71V463XQYDOZYIDLRW5D","","","<img src=""img/flower3.png"" style=""width:200px; border:14px solid green;"">","null","","","","","",""
"741.8000000119209","","image-keyboard-response","206","178229","0.0-206.0","3KXIR214I52Z9P2QW3VYKJ83GZU42D","A3I40B0FATY8VH","3KVQ0UJWPX71V463XQYDOZYIDLRW5D","","","img/flower1.png","74","743","1","1","3","1,1,0,0,1,1,1,0,1",""
"null","","html-keyboard-response","207","178532","0.0-207.0","3KXIR214I52Z9P2QW3VYKJ83GZU42D","A3I40B0FATY8VH","3KVQ0UJWPX71V463XQYDOZYIDLRW5D","","","<img src=""img/flower1.png"" style=""width:200px; border:14px solid green;"">","null","","","","","",""
"600.2000000476837","","image-keyboard-response","208","179134","0.0-208.0","3KXIR214I52Z9P2QW3VYKJ83GZU42D","A3I40B0FATY8VH","3KVQ0UJWPX71V463XQYDOZYIDLRW5D","","","img/flower3.png","76","601.2999999523163","3","1","2","1,1,0,0,1,1,1,0,1",""
"null","","html-keyboard-response","209","179435","0.0-209.0","3KXIR214I52Z9P2QW3VYKJ83GZU42D","A3I40B0FATY8VH","3KVQ0UJWPX71V463XQYDOZYIDLRW5D","","","<img src=""img/flower3.png"" style=""width:200px; border:14px solid green;"">","null","","","","","",""
"286.9000000357628","","image-keyboard-response","210","179724","0.0-210.0","3KXIR214I52Z9P2QW3VYKJ83GZU42D","A3I40B0FATY8VH","3KVQ0UJWPX71V463XQYDOZYIDLRW5D","","","img/flower3.png","76","287.89999997615814","3","1","2","1,1,0,0,1,1,1,0,1",""
"null","","html-keyboard-response","211","180026","0.0-211.0","3KXIR214I52Z9P2QW3VYKJ83GZU42D","A3I40B0FATY8VH","3KVQ0UJWPX71V463XQYDOZYIDLRW5D","","","<img src=""img/flower3.png"" style=""width:200px; border:14px solid green;"">","null","","","","","",""
"204.89999997615814","","image-keyboard-response","212","180231","0.0-212.0","3KXIR214I52Z9P2QW3VYKJ83GZU42D","A3I40B0FATY8VH","3KVQ0UJWPX71V463XQYDOZYIDLRW5D","","","img/flower3.png","76","205.5999999642372","3","1","2","1,1,0,0,1,1,1,0,1",""
"null","","html-keyboard-response","213","180533","0.0-213.0","3KXIR214I52Z9P2QW3VYKJ83GZU42D","A3I40B0FATY8VH","3KVQ0UJWPX71V463XQYDOZYIDLRW5D","","","<img src=""img/flower3.png"" style=""width:200px; border:14px solid green;"">","null","","","","","",""
"201.5","","image-keyboard-response","214","180735","0.0-214.0","3KXIR214I52Z9P2QW3VYKJ83GZU42D","A3I40B0FATY8VH","3KVQ0UJWPX71V463XQYDOZYIDLRW5D","","","img/flower3.png","76","202","3","1","2","1,1,0,0,1,1,1,0,1",""
"null","","html-keyboard-response","215","181036","0.0-215.0","3KXIR214I52Z9P2QW3VYKJ83GZU42D","A3I40B0FATY8VH","3KVQ0UJWPX71V463XQYDOZYIDLRW5D","","","<img src=""img/flower3.png"" style=""width:200px; border:14px solid green;"">","null","","","","","",""
"183.70000004768372","","image-keyboard-response","216","181220","0.0-216.0","3KXIR214I52Z9P2QW3VYKJ83GZU42D","A3I40B0FATY8VH","3KVQ0UJWPX71V463XQYDOZYIDLRW5D","","","img/flower3.png","76","184.19999998807907","3","1","2","1,1,0,0,1,1,1,0,1",""
"null","","html-keyboard-response","217","181522","0.0-217.0","3KXIR214I52Z9P2QW3VYKJ83GZU42D","A3I40B0FATY8VH","3KVQ0UJWPX71V463XQYDOZYIDLRW5D","","","<img src=""img/flower3.png"" style=""width:200px; border:14px solid green;"">","null","","","","","",""
"575.2000000476837","","image-keyboard-response","218","182098","0.0-218.0","3KXIR214I52Z9P2QW3VYKJ83GZU42D","A3I40B0FATY8VH","3KVQ0UJWPX71V463XQYDOZYIDLRW5D","","","img/flower6.png","74","576.1999999880791","1","1","1","1,1,0,0,1,1,1,0,1",""
"null","","html-keyboard-response","219","182400","0.0-219.0","3KXIR214I52Z9P2QW3VYKJ83GZU42D","A3I40B0FATY8VH","3KVQ0UJWPX71V463XQYDOZYIDLRW5D","","","<img src=""img/flower6.png"" style=""width:200px; border:14px solid green;"">","null","","","","","",""
"305.7999999523163","","image-keyboard-response","220","182707","0.0-220.0","3KXIR214I52Z9P2QW3VYKJ83GZU42D","A3I40B0FATY8VH","3KVQ0UJWPX71V463XQYDOZYIDLRW5D","","","img/flower6.png","74","306.69999998807907","1","1","1","1,1,0,0,1,1,1,0,1",""
"null","","html-keyboard-response","221","183010","0.0-221.0","3KXIR214I52Z9P2QW3VYKJ83GZU42D","A3I40B0FATY8VH","3KVQ0UJWPX71V463XQYDOZYIDLRW5D","","","<img src=""img/flower6.png"" style=""width:200px; border:14px solid green;"">","null","","","","","",""
"251.19999998807907","","image-keyboard-response","222","183261","0.0-222.0","3KXIR214I52Z9P2QW3VYKJ83GZU42D","A3I40B0FATY8VH","3KVQ0UJWPX71V463XQYDOZYIDLRW5D","","","img/flower1.png","74","251.60000002384186","1","1","3","1,1,0,0,1,1,1,0,1",""
"null","","html-keyboard-response","223","183563","0.0-223.0","3KXIR214I52Z9P2QW3VYKJ83GZU42D","A3I40B0FATY8VH","3KVQ0UJWPX71V463XQYDOZYIDLRW5D","","","<img src=""img/flower1.png"" style=""width:200px; border:14px solid green;"">","null","","","","","",""
"756.8999999761581","","image-keyboard-response","224","184322","0.0-224.0","3KXIR214I52Z9P2QW3VYKJ83GZU42D","A3I40B0FATY8VH","3KVQ0UJWPX71V463XQYDOZYIDLRW5D","","","img/flower6.png","74","758.0999999642372","1","1","1","1,1,0,0,1,1,1,0,1",""
"null","","html-keyboard-response","225","184623","0.0-225.0","3KXIR214I52Z9P2QW3VYKJ83GZU42D","A3I40B0FATY8VH","3KVQ0UJWPX71V463XQYDOZYIDLRW5D","","","<img src=""img/flower6.png"" style=""width:200px; border:14px solid green;"">","null","","","","","",""
"420","","image-keyboard-response","226","185043","0.0-226.0","3KXIR214I52Z9P2QW3VYKJ83GZU42D","A3I40B0FATY8VH","3KVQ0UJWPX71V463XQYDOZYIDLRW5D","","","img/flower1.png","74","420.39999997615814","1","1","3","1,1,0,0,1,1,1,0,1",""
"null","","html-keyboard-response","227","185346","0.0-227.0","3KXIR214I52Z9P2QW3VYKJ83GZU42D","A3I40B0FATY8VH","3KVQ0UJWPX71V463XQYDOZYIDLRW5D","","","<img src=""img/flower1.png"" style=""width:200px; border:14px solid green;"">","null","","","","","",""
"352.5999999642372","","image-keyboard-response","228","185699","0.0-228.0","3KXIR214I52Z9P2QW3VYKJ83GZU42D","A3I40B0FATY8VH","3KVQ0UJWPX71V463XQYDOZYIDLRW5D","","","img/flower6.png","74","352.9000000357628","1","1","1","1,1,0,0,1,1,1,0,1",""
"null","","html-keyboard-response","229","186001","0.0-229.0","3KXIR214I52Z9P2QW3VYKJ83GZU42D","A3I40B0FATY8VH","3KVQ0UJWPX71V463XQYDOZYIDLRW5D","","","<img src=""img/flower6.png"" style=""width:200px; border:14px solid green;"">","null","","","","","",""
"1242.3999999761581","","image-keyboard-response","230","187244","0.0-230.0","3KXIR214I52Z9P2QW3VYKJ83GZU42D","A3I40B0FATY8VH","3KVQ0UJWPX71V463XQYDOZYIDLRW5D","","","img/flower3.png","75","1242.7000000476837","2","1","2","1,1,0,0,1,1,1,0,1",""
"null","","html-keyboard-response","231","187546","0.0-231.0","3KXIR214I52Z9P2QW3VYKJ83GZU42D","A3I40B0FATY8VH","3KVQ0UJWPX71V463XQYDOZYIDLRW5D","","","<img src=""img/flower3.png"" style=""width:200px; border:14px solid green;"">","null","","","","","",""
"760.4000000357628","","image-keyboard-response","232","188307","0.0-232.0","3KXIR214I52Z9P2QW3VYKJ83GZU42D","A3I40B0FATY8VH","3KVQ0UJWPX71V463XQYDOZYIDLRW5D","","","img/flower6.png","74","761.3000000119209","1","1","1","1,1,0,0,1,1,1,0,1",""
"null","","html-keyboard-response","233","188610","0.0-233.0","3KXIR214I52Z9P2QW3VYKJ83GZU42D","A3I40B0FATY8VH","3KVQ0UJWPX71V463XQYDOZYIDLRW5D","","","<img src=""img/flower6.png"" style=""width:200px; border:14px solid green;"">","null","","","","","",""
"233.19999998807907","","image-keyboard-response","234","188844","0.0-234.0","3KXIR214I52Z9P2QW3VYKJ83GZU42D","A3I40B0FATY8VH","3KVQ0UJWPX71V463XQYDOZYIDLRW5D","","","img/flower6.png","74","234.20000004768372","1","1","1","1,1,0,0,1,1,1,0,1",""
"null","","html-keyboard-response","235","189146","0.0-235.0","3KXIR214I52Z9P2QW3VYKJ83GZU42D","A3I40B0FATY8VH","3KVQ0UJWPX71V463XQYDOZYIDLRW5D","","","<img src=""img/flower6.png"" style=""width:200px; border:14px solid green;"">","null","","","","","",""
"242","","image-keyboard-response","236","189390","0.0-236.0","3KXIR214I52Z9P2QW3VYKJ83GZU42D","A3I40B0FATY8VH","3KVQ0UJWPX71V463XQYDOZYIDLRW5D","","","img/flower6.png","74","243","1","1","1","1,1,0,0,1,1,1,0,1",""
"null","","html-keyboard-response","237","189693","0.0-237.0","3KXIR214I52Z9P2QW3VYKJ83GZU42D","A3I40B0FATY8VH","3KVQ0UJWPX71V463XQYDOZYIDLRW5D","","","<img src=""img/flower6.png"" style=""width:200px; border:14px solid green;"">","null","","","","","",""
"162.30000001192093","","image-keyboard-response","238","189856","0.0-238.0","3KXIR214I52Z9P2QW3VYKJ83GZU42D","A3I40B0FATY8VH","3KVQ0UJWPX71V463XQYDOZYIDLRW5D","","","img/flower3.png","74","163","1","0","2","1,1,0,0,1,1,1,0,1",""
"null","","html-keyboard-response","239","190158","0.0-239.0","3KXIR214I52Z9P2QW3VYKJ83GZU42D","A3I40B0FATY8VH","3KVQ0UJWPX71V463XQYDOZYIDLRW5D","","","<img src=""img/flower3.png"" style=""width:200px;border:14px solid red;"">","null","","","","","",""
"728.0999999642372","","image-keyboard-response","240","190887","0.0-240.0","3KXIR214I52Z9P2QW3VYKJ83GZU42D","A3I40B0FATY8VH","3KVQ0UJWPX71V463XQYDOZYIDLRW5D","","","img/flower1.png","74","728.9000000357628","1","1","3","1,1,0,0,1,1,1,0,1",""
"null","","html-keyboard-response","241","191191","0.0-241.0","3KXIR214I52Z9P2QW3VYKJ83GZU42D","A3I40B0FATY8VH","3KVQ0UJWPX71V463XQYDOZYIDLRW5D","","","<img src=""img/flower1.png"" style=""width:200px; border:14px solid green;"">","null","","","","","",""
"762.3999999761581","","image-keyboard-response","242","191954","0.0-242.0","3KXIR214I52Z9P2QW3VYKJ83GZU42D","A3I40B0FATY8VH","3KVQ0UJWPX71V463XQYDOZYIDLRW5D","","","img/flower6.png","74","763.5999999642372","1","1","1","1,1,0,0,1,1,1,0,1",""
"null","","html-keyboard-response","243","192256","0.0-243.0","3KXIR214I52Z9P2QW3VYKJ83GZU42D","A3I40B0FATY8VH","3KVQ0UJWPX71V463XQYDOZYIDLRW5D","","","<img src=""img/flower6.png"" style=""width:200px; border:14px solid green;"">","null","","","","","",""
"570.4000000357628","","image-keyboard-response","244","192828","0.0-244.0","3KXIR214I52Z9P2QW3VYKJ83GZU42D","A3I40B0FATY8VH","3KVQ0UJWPX71V463XQYDOZYIDLRW5D","","","img/flower1.png","75","571.6999999880791","2","0","3","1,1,0,0,1,1,1,0,1",""
"null","","html-keyboard-response","245","193131","0.0-245.0","3KXIR214I52Z9P2QW3VYKJ83GZU42D","A3I40B0FATY8VH","3KVQ0UJWPX71V463XQYDOZYIDLRW5D","","","<img src=""img/flower1.png"" style=""width:200px;border:14px solid red;"">","null","","","","","",""
"345.89999997615814","","image-keyboard-response","246","193479","0.0-246.0","3KXIR214I52Z9P2QW3VYKJ83GZU42D","A3I40B0FATY8VH","3KVQ0UJWPX71V463XQYDOZYIDLRW5D","","","img/flower1.png","74","347.5","1","1","3","1,1,0,0,1,1,1,0,1",""
"null","","html-keyboard-response","247","193783","0.0-247.0","3KXIR214I52Z9P2QW3VYKJ83GZU42D","A3I40B0FATY8VH","3KVQ0UJWPX71V463XQYDOZYIDLRW5D","","","<img src=""img/flower1.png"" style=""width:200px; border:14px solid green;"">","null","","","","","",""
"220.30000001192093","","image-keyboard-response","248","194005","0.0-248.0","3KXIR214I52Z9P2QW3VYKJ83GZU42D","A3I40B0FATY8VH","3KVQ0UJWPX71V463XQYDOZYIDLRW5D","","","img/flower1.png","74","221.19999998807907","1","1","3","1,1,0,0,1,1,1,0,1",""
"null","","html-keyboard-response","249","194307","0.0-249.0","3KXIR214I52Z9P2QW3VYKJ83GZU42D","A3I40B0FATY8VH","3KVQ0UJWPX71V463XQYDOZYIDLRW5D","","","<img src=""img/flower1.png"" style=""width:200px; border:14px solid green;"">","null","","","","","",""
"197.60000002384186","","image-keyboard-response","250","194505","0.0-250.0","3KXIR214I52Z9P2QW3VYKJ83GZU42D","A3I40B0FATY8VH","3KVQ0UJWPX71V463XQYDOZYIDLRW5D","","","img/flower6.png","74","198.19999998807907","1","1","1","1,1,0,0,1,1,1,0,1",""
"null","","html-keyboard-response","251","194808","0.0-251.0","3KXIR214I52Z9P2QW3VYKJ83GZU42D","A3I40B0FATY8VH","3KVQ0UJWPX71V463XQYDOZYIDLRW5D","","","<img src=""img/flower6.png"" style=""width:200px; border:14px solid green;"">","null","","","","","",""
"526.3999999761581","","image-keyboard-response","252","195336","0.0-252.0","3KXIR214I52Z9P2QW3VYKJ83GZU42D","A3I40B0FATY8VH","3KVQ0UJWPX71V463XQYDOZYIDLRW5D","","","img/flower3.png","76","527.6999999880791","3","1","2","1,1,0,0,1,1,1,0,1",""
"null","","html-keyboard-response","253","195638","0.0-253.0","3KXIR214I52Z9P2QW3VYKJ83GZU42D","A3I40B0FATY8VH","3KVQ0UJWPX71V463XQYDOZYIDLRW5D","","","<img src=""img/flower3.png"" style=""width:200px; border:14px solid green;"">","null","","","","","",""
"436.10000002384186","","image-keyboard-response","254","196074","0.0-254.0","3KXIR214I52Z9P2QW3VYKJ83GZU42D","A3I40B0FATY8VH","3KVQ0UJWPX71V463XQYDOZYIDLRW5D","","","img/flower1.png","74","436.69999998807907","1","1","3","1,1,0,0,1,1,1,0,1",""
"null","","html-keyboard-response","255","196375","0.0-255.0","3KXIR214I52Z9P2QW3VYKJ83GZU42D","A3I40B0FATY8VH","3KVQ0UJWPX71V463XQYDOZYIDLRW5D","","","<img src=""img/flower1.png"" style=""width:200px; border:14px solid green;"">","null","","","","","",""
"250.60000002384186","","image-keyboard-response","256","196626","0.0-256.0","3KXIR214I52Z9P2QW3VYKJ83GZU42D","A3I40B0FATY8VH","3KVQ0UJWPX71V463XQYDOZYIDLRW5D","","","img/flower1.png","74","251","1","1","3","1,1,0,0,1,1,1,0,1",""
"null","","html-keyboard-response","257","196940","0.0-257.0","3KXIR214I52Z9P2QW3VYKJ83GZU42D","A3I40B0FATY8VH","3KVQ0UJWPX71V463XQYDOZYIDLRW5D","","","<img src=""img/flower1.png"" style=""width:200px; border:14px solid green;"">","null","","","","","",""
"410.89999997615814","","image-keyboard-response","258","197352","0.0-258.0","3KXIR214I52Z9P2QW3VYKJ83GZU42D","A3I40B0FATY8VH","3KVQ0UJWPX71V463XQYDOZYIDLRW5D","","","img/flower3.png","74","411.7000000476837","1","0","2","1,1,0,0,1,1,1,0,1",""
"null","","html-keyboard-response","259","197653","0.0-259.0","3KXIR214I52Z9P2QW3VYKJ83GZU42D","A3I40B0FATY8VH","3KVQ0UJWPX71V463XQYDOZYIDLRW5D","","","<img src=""img/flower3.png"" style=""width:200px;border:14px solid red;"">","null","","","","","",""
"94.60000002384186","","image-keyboard-response","260","197748","0.0-260.0","3KXIR214I52Z9P2QW3VYKJ83GZU42D","A3I40B0FATY8VH","3KVQ0UJWPX71V463XQYDOZYIDLRW5D","","","img/flower6.png","76","95.29999995231628","3","0","1","1,1,0,0,1,1,1,0,1",""
"null","","html-keyboard-response","261","198052","0.0-261.0","3KXIR214I52Z9P2QW3VYKJ83GZU42D","A3I40B0FATY8VH","3KVQ0UJWPX71V463XQYDOZYIDLRW5D","","","<img src=""img/flower6.png"" style=""width:200px;border:14px solid red;"">","null","","","","","",""
"327.5","","image-keyboard-response","262","198380","0.0-262.0","3KXIR214I52Z9P2QW3VYKJ83GZU42D","A3I40B0FATY8VH","3KVQ0UJWPX71V463XQYDOZYIDLRW5D","","","img/flower6.png","74","328","1","1","1","1,1,0,0,1,1,1,0,1",""
"null","","html-keyboard-response","263","198681","0.0-263.0","3KXIR214I52Z9P2QW3VYKJ83GZU42D","A3I40B0FATY8VH","3KVQ0UJWPX71V463XQYDOZYIDLRW5D","","","<img src=""img/flower6.png"" style=""width:200px; border:14px solid green;"">","null","","","","","",""
"725","","image-keyboard-response","264","199407","0.0-264.0","3KXIR214I52Z9P2QW3VYKJ83GZU42D","A3I40B0FATY8VH","3KVQ0UJWPX71V463XQYDOZYIDLRW5D","","","img/flower1.png","74","725.8999999761581","1","1","3","1,1,0,0,1,1,1,0,1",""
"null","","html-keyboard-response","265","199710","0.0-265.0","3KXIR214I52Z9P2QW3VYKJ83GZU42D","A3I40B0FATY8VH","3KVQ0UJWPX71V463XQYDOZYIDLRW5D","","","<img src=""img/flower1.png"" style=""width:200px; border:14px solid green;"">","null","","","","","",""
"282.10000002384186","","image-keyboard-response","266","199993","0.0-266.0","3KXIR214I52Z9P2QW3VYKJ83GZU42D","A3I40B0FATY8VH","3KVQ0UJWPX71V463XQYDOZYIDLRW5D","","","img/flower1.png","74","282.80000001192093","1","1","3","1,1,0,0,1,1,1,0,1",""
"null","","html-keyboard-response","267","200295","0.0-267.0","3KXIR214I52Z9P2QW3VYKJ83GZU42D","A3I40B0FATY8VH","3KVQ0UJWPX71V463XQYDOZYIDLRW5D","","","<img src=""img/flower1.png"" style=""width:200px; border:14px solid green;"">","null","","","","","",""
"258.2000000476837","","image-keyboard-response","268","200555","0.0-268.0","3KXIR214I52Z9P2QW3VYKJ83GZU42D","A3I40B0FATY8VH","3KVQ0UJWPX71V463XQYDOZYIDLRW5D","","","img/flower1.png","74","259.30000001192093","1","1","3","1,1,0,0,1,1,1,0,1",""
"null","","html-keyboard-response","269","200857","0.0-269.0","3KXIR214I52Z9P2QW3VYKJ83GZU42D","A3I40B0FATY8VH","3KVQ0UJWPX71V463XQYDOZYIDLRW5D","","","<img src=""img/flower1.png"" style=""width:200px; border:14px solid green;"">","null","","","","","",""
"881.5","","image-keyboard-response","270","201740","0.0-270.0","3KXIR214I52Z9P2QW3VYKJ83GZU42D","A3I40B0FATY8VH","3KVQ0UJWPX71V463XQYDOZYIDLRW5D","","","img/flower6.png","76","882.5999999642372","3","0","1","1,1,0,0,1,1,1,0,1",""
"null","","html-keyboard-response","271","202043","0.0-271.0","3KXIR214I52Z9P2QW3VYKJ83GZU42D","A3I40B0FATY8VH","3KVQ0UJWPX71V463XQYDOZYIDLRW5D","","","<img src=""img/flower6.png"" style=""width:200px;border:14px solid red;"">","null","","","","","",""
"317.0999999642372","","image-keyboard-response","272","202362","0.0-272.0","3KXIR214I52Z9P2QW3VYKJ83GZU42D","A3I40B0FATY8VH","3KVQ0UJWPX71V463XQYDOZYIDLRW5D","","","img/flower6.png","74","318.10000002384186","1","1","1","1,1,0,0,1,1,1,0,1",""
"null","","html-keyboard-response","273","202666","0.0-273.0","3KXIR214I52Z9P2QW3VYKJ83GZU42D","A3I40B0FATY8VH","3KVQ0UJWPX71V463XQYDOZYIDLRW5D","","","<img src=""img/flower6.png"" style=""width:200px; border:14px solid green;"">","null","","","","","",""
"480.5999999642372","","image-keyboard-response","274","203148","0.0-274.0","3KXIR214I52Z9P2QW3VYKJ83GZU42D","A3I40B0FATY8VH","3KVQ0UJWPX71V463XQYDOZYIDLRW5D","","","img/flower1.png","76","481.89999997615814","3","1","3","1,1,0,0,1,1,1,0,1",""
"null","","html-keyboard-response","275","203449","0.0-275.0","3KXIR214I52Z9P2QW3VYKJ83GZU42D","A3I40B0FATY8VH","3KVQ0UJWPX71V463XQYDOZYIDLRW5D","","","<img src=""img/flower1.png"" style=""width:200px; border:14px solid green;"">","null","","","","","",""
"292.69999998807907","","image-keyboard-response","276","203743","0.0-276.0","3KXIR214I52Z9P2QW3VYKJ83GZU42D","A3I40B0FATY8VH","3KVQ0UJWPX71V463XQYDOZYIDLRW5D","","","img/flower1.png","76","293.60000002384186","3","1","3","1,1,0,0,1,1,1,0,1",""
"null","","html-keyboard-response","277","204047","0.0-277.0","3KXIR214I52Z9P2QW3VYKJ83GZU42D","A3I40B0FATY8VH","3KVQ0UJWPX71V463XQYDOZYIDLRW5D","","","<img src=""img/flower1.png"" style=""width:200px; border:14px solid green;"">","null","","","","","",""
"1240.5","","image-keyboard-response","278","205288","0.0-278.0","3KXIR214I52Z9P2QW3VYKJ83GZU42D","A3I40B0FATY8VH","3KVQ0UJWPX71V463XQYDOZYIDLRW5D","","","img/flower6.png","74","1240.699999988079","1","1","1","1,1,0,0,1,1,1,0,1",""
"null","","html-keyboard-response","279","205590","0.0-279.0","3KXIR214I52Z9P2QW3VYKJ83GZU42D","A3I40B0FATY8VH","3KVQ0UJWPX71V463XQYDOZYIDLRW5D","","","<img src=""img/flower6.png"" style=""width:200px; border:14px solid green;"">","null","","","","","",""
"257.10000002384186","","image-keyboard-response","280","205848","0.0-280.0","3KXIR214I52Z9P2QW3VYKJ83GZU42D","A3I40B0FATY8VH","3KVQ0UJWPX71V463XQYDOZYIDLRW5D","","","img/flower6.png","74","257.80000001192093","1","1","1","1,1,0,0,1,1,1,0,1",""
"null","","html-keyboard-response","281","206150","0.0-281.0","3KXIR214I52Z9P2QW3VYKJ83GZU42D","A3I40B0FATY8VH","3KVQ0UJWPX71V463XQYDOZYIDLRW5D","","","<img src=""img/flower6.png"" style=""width:200px; border:14px solid green;"">","null","","","","","",""
"195.5","","image-keyboard-response","282","206346","0.0-282.0","3KXIR214I52Z9P2QW3VYKJ83GZU42D","A3I40B0FATY8VH","3KVQ0UJWPX71V463XQYDOZYIDLRW5D","","","img/flower3.png","74","196.0999999642372","1","0","2","1,1,0,0,1,1,1,0,1",""
"null","","html-keyboard-response","283","206647","0.0-283.0","3KXIR214I52Z9P2QW3VYKJ83GZU42D","A3I40B0FATY8VH","3KVQ0UJWPX71V463XQYDOZYIDLRW5D","","","<img src=""img/flower3.png"" style=""width:200px;border:14px solid red;"">","null","","","","","",""
"330.69999998807907","","image-keyboard-response","284","206980","0.0-284.0","3KXIR214I52Z9P2QW3VYKJ83GZU42D","A3I40B0FATY8VH","3KVQ0UJWPX71V463XQYDOZYIDLRW5D","","","img/flower3.png","76","332","3","1","2","1,1,0,0,1,1,1,0,1",""
"null","","html-keyboard-response","285","207282","0.0-285.0","3KXIR214I52Z9P2QW3VYKJ83GZU42D","A3I40B0FATY8VH","3KVQ0UJWPX71V463XQYDOZYIDLRW5D","","","<img src=""img/flower3.png"" style=""width:200px; border:14px solid green;"">","null","","","","","",""
"230.9000000357628","","image-keyboard-response","286","207514","0.0-286.0","3KXIR214I52Z9P2QW3VYKJ83GZU42D","A3I40B0FATY8VH","3KVQ0UJWPX71V463XQYDOZYIDLRW5D","","","img/flower1.png","76","232","3","1","3","1,1,0,0,1,1,1,0,1",""
"null","","html-keyboard-response","287","207816","0.0-287.0","3KXIR214I52Z9P2QW3VYKJ83GZU42D","A3I40B0FATY8VH","3KVQ0UJWPX71V463XQYDOZYIDLRW5D","","","<img src=""img/flower1.png"" style=""width:200px; border:14px solid green;"">","null","","","","","",""
"172.60000002384186","","image-keyboard-response","288","207990","0.0-288.0","3KXIR214I52Z9P2QW3VYKJ83GZU42D","A3I40B0FATY8VH","3KVQ0UJWPX71V463XQYDOZYIDLRW5D","","","img/flower6.png","76","173.79999995231628","3","0","1","1,1,0,0,1,1,1,0,1",""
"null","","html-keyboard-response","289","208292","0.0-289.0","3KXIR214I52Z9P2QW3VYKJ83GZU42D","A3I40B0FATY8VH","3KVQ0UJWPX71V463XQYDOZYIDLRW5D","","","<img src=""img/flower6.png"" style=""width:200px;border:14px solid red;"">","null","","","","","",""
"871.6999999880791","","image-keyboard-response","290","209164","0.0-290.0","3KXIR214I52Z9P2QW3VYKJ83GZU42D","A3I40B0FATY8VH","3KVQ0UJWPX71V463XQYDOZYIDLRW5D","","","img/flower3.png","76","872.3000000119209","3","1","2","1,1,0,0,1,1,1,0,1",""
"null","","html-keyboard-response","291","209466","0.0-291.0","3KXIR214I52Z9P2QW3VYKJ83GZU42D","A3I40B0FATY8VH","3KVQ0UJWPX71V463XQYDOZYIDLRW5D","","","<img src=""img/flower3.png"" style=""width:200px; border:14px solid green;"">","null","","","","","",""
"534.5","","image-keyboard-response","292","210001","0.0-292.0","3KXIR214I52Z9P2QW3VYKJ83GZU42D","A3I40B0FATY8VH","3KVQ0UJWPX71V463XQYDOZYIDLRW5D","","","img/flower1.png","76","534.8999999761581","3","1","3","1,1,0,0,1,1,1,0,1",""
"null","","html-keyboard-response","293","210301","0.0-293.0","3KXIR214I52Z9P2QW3VYKJ83GZU42D","A3I40B0FATY8VH","3KVQ0UJWPX71V463XQYDOZYIDLRW5D","","","<img src=""img/flower1.png"" style=""width:200px; border:14px solid green;"">","null","","","","","",""
"516.8999999761581","","image-keyboard-response","294","210819","0.0-294.0","3KXIR214I52Z9P2QW3VYKJ83GZU42D","A3I40B0FATY8VH","3KVQ0UJWPX71V463XQYDOZYIDLRW5D","","","img/flower3.png","76","517.3999999761581","3","1","2","1,1,0,0,1,1,1,0,1",""
"null","","html-keyboard-response","295","211121","0.0-295.0","3KXIR214I52Z9P2QW3VYKJ83GZU42D","A3I40B0FATY8VH","3KVQ0UJWPX71V463XQYDOZYIDLRW5D","","","<img src=""img/flower3.png"" style=""width:200px; border:14px solid green;"">","null","","","","","",""
"504.30000001192093","","image-keyboard-response","296","211626","0.0-296.0","3KXIR214I52Z9P2QW3VYKJ83GZU42D","A3I40B0FATY8VH","3KVQ0UJWPX71V463XQYDOZYIDLRW5D","","","img/flower6.png","74","504.80000001192093","1","1","1","1,1,0,0,1,1,1,0,1",""
"null","","html-keyboard-response","297","211927","0.0-297.0","3KXIR214I52Z9P2QW3VYKJ83GZU42D","A3I40B0FATY8VH","3KVQ0UJWPX71V463XQYDOZYIDLRW5D","","","<img src=""img/flower6.png"" style=""width:200px; border:14px solid green;"">","null","","","","","",""
"375.69999998807907","","image-keyboard-response","298","212304","0.0-298.0","3KXIR214I52Z9P2QW3VYKJ83GZU42D","A3I40B0FATY8VH","3KVQ0UJWPX71V463XQYDOZYIDLRW5D","","","img/flower6.png","74","376.89999997615814","1","1","1","1,1,0,0,1,1,1,0,1",""
"null","","html-keyboard-response","299","212608","0.0-299.0","3KXIR214I52Z9P2QW3VYKJ83GZU42D","A3I40B0FATY8VH","3KVQ0UJWPX71V463XQYDOZYIDLRW5D","","","<img src=""img/flower6.png"" style=""width:200px; border:14px solid green;"">","null","","","","","",""
"405.0999999642372","","image-keyboard-response","300","213014","0.0-300.0","3KXIR214I52Z9P2QW3VYKJ83GZU42D","A3I40B0FATY8VH","3KVQ0UJWPX71V463XQYDOZYIDLRW5D","","","img/flower1.png","76","406.2999999523163","3","1","3","1,1,0,0,1,1,1,0,1",""
"null","","html-keyboard-response","301","213317","0.0-301.0","3KXIR214I52Z9P2QW3VYKJ83GZU42D","A3I40B0FATY8VH","3KVQ0UJWPX71V463XQYDOZYIDLRW5D","","","<img src=""img/flower1.png"" style=""width:200px; border:14px solid green;"">","null","","","","","",""
"269.7999999523163","","image-keyboard-response","302","213588","0.0-302.0","3KXIR214I52Z9P2QW3VYKJ83GZU42D","A3I40B0FATY8VH","3KVQ0UJWPX71V463XQYDOZYIDLRW5D","","","img/flower3.png","76","270.2000000476837","3","1","2","1,1,0,0,1,1,1,0,1",""
"null","","html-keyboard-response","303","213890","0.0-303.0","3KXIR214I52Z9P2QW3VYKJ83GZU42D","A3I40B0FATY8VH","3KVQ0UJWPX71V463XQYDOZYIDLRW5D","","","<img src=""img/flower3.png"" style=""width:200px; border:14px solid green;"">","null","","","","","",""
"412.5","","image-keyboard-response","304","214303","0.0-304.0","3KXIR214I52Z9P2QW3VYKJ83GZU42D","A3I40B0FATY8VH","3KVQ0UJWPX71V463XQYDOZYIDLRW5D","","","img/flower1.png","76","413.39999997615814","3","1","3","1,1,0,0,1,1,1,0,1",""
"null","","html-keyboard-response","305","214606","0.0-305.0","3KXIR214I52Z9P2QW3VYKJ83GZU42D","A3I40B0FATY8VH","3KVQ0UJWPX71V463XQYDOZYIDLRW5D","","","<img src=""img/flower1.png"" style=""width:200px; border:14px solid green;"">","null","","","","","",""
"","","html-keyboard-response","306","218529","0.0-306.0","3KXIR214I52Z9P2QW3VYKJ83GZU42D","A3I40B0FATY8VH","3KVQ0UJWPX71V463XQYDOZYIDLRW5D","","","","","","","","","",""
"1191","","image-keyboard-response","307","219720","0.0-307.0","3KXIR214I52Z9P2QW3VYKJ83GZU42D","A3I40B0FATY8VH","3KVQ0UJWPX71V463XQYDOZYIDLRW5D","","","img/flower4.png","75","1191.5","2","1","2","1,0.5,0.5,0.5,1,0.5,0.5,0.5,1",""
"null","","html-keyboard-response","308","220023","0.0-308.0","3KXIR214I52Z9P2QW3VYKJ83GZU42D","A3I40B0FATY8VH","3KVQ0UJWPX71V463XQYDOZYIDLRW5D","","","<img src=""img/flower4.png"" style=""width:200px; border:14px solid green;"">","null","","","","","",""
"243.5","","image-keyboard-response","309","220267","0.0-309.0","3KXIR214I52Z9P2QW3VYKJ83GZU42D","A3I40B0FATY8VH","3KVQ0UJWPX71V463XQYDOZYIDLRW5D","","","img/flower4.png","75","244","2","1","2","1,0.5,0.5,0.5,1,0.5,0.5,0.5,1",""
"null","","html-keyboard-response","310","220569","0.0-310.0","3KXIR214I52Z9P2QW3VYKJ83GZU42D","A3I40B0FATY8VH","3KVQ0UJWPX71V463XQYDOZYIDLRW5D","","","<img src=""img/flower4.png"" style=""width:200px; border:14px solid green;"">","null","","","","","",""
"132.69999998807907","","image-keyboard-response","311","220702","0.0-311.0","3KXIR214I52Z9P2QW3VYKJ83GZU42D","A3I40B0FATY8VH","3KVQ0UJWPX71V463XQYDOZYIDLRW5D","","","img/flower4.png","75","133","2","1","2","1,0.5,0.5,0.5,1,0.5,0.5,0.5,1",""
"null","","html-keyboard-response","312","221003","0.0-312.0","3KXIR214I52Z9P2QW3VYKJ83GZU42D","A3I40B0FATY8VH","3KVQ0UJWPX71V463XQYDOZYIDLRW5D","","","<img src=""img/flower4.png"" style=""width:200px; border:14px solid green;"">","null","","","","","",""
"215.39999997615814","","image-keyboard-response","313","221219","0.0-313.0","3KXIR214I52Z9P2QW3VYKJ83GZU42D","A3I40B0FATY8VH","3KVQ0UJWPX71V463XQYDOZYIDLRW5D","","","img/flower5.png","75","215.79999995231628","2","1","3","1,0.5,0.5,0.5,1,0.5,0.5,0.5,1",""
"null","","html-keyboard-response","314","221521","0.0-314.0","3KXIR214I52Z9P2QW3VYKJ83GZU42D","A3I40B0FATY8VH","3KVQ0UJWPX71V463XQYDOZYIDLRW5D","","","<img src=""img/flower5.png"" style=""width:200px; border:14px solid green;"">","null","","","","","",""
"535.4000000357628","","image-keyboard-response","315","222058","0.0-315.0","3KXIR214I52Z9P2QW3VYKJ83GZU42D","A3I40B0FATY8VH","3KVQ0UJWPX71V463XQYDOZYIDLRW5D","","","img/flower4.png","75","537","2","1","2","1,0.5,0.5,0.5,1,0.5,0.5,0.5,1",""
"null","","html-keyboard-response","316","222360","0.0-316.0","3KXIR214I52Z9P2QW3VYKJ83GZU42D","A3I40B0FATY8VH","3KVQ0UJWPX71V463XQYDOZYIDLRW5D","","","<img src=""img/flower4.png"" style=""width:200px; border:14px solid green;"">","null","","","","","",""
"211.80000001192093","","image-keyboard-response","317","222572","0.0-317.0","3KXIR214I52Z9P2QW3VYKJ83GZU42D","A3I40B0FATY8VH","3KVQ0UJWPX71V463XQYDOZYIDLRW5D","","","img/flower4.png","75","212.60000002384186","2","1","2","1,0.5,0.5,0.5,1,0.5,0.5,0.5,1",""
"null","","html-keyboard-response","318","222877","0.0-318.0","3KXIR214I52Z9P2QW3VYKJ83GZU42D","A3I40B0FATY8VH","3KVQ0UJWPX71V463XQYDOZYIDLRW5D","","","<img src=""img/flower4.png"" style=""width:200px; border:14px solid green;"">","null","","","","","",""
"148.30000001192093","","image-keyboard-response","319","223026","0.0-319.0","3KXIR214I52Z9P2QW3VYKJ83GZU42D","A3I40B0FATY8VH","3KVQ0UJWPX71V463XQYDOZYIDLRW5D","","","img/flower4.png","75","148.80000001192093","2","1","2","1,0.5,0.5,0.5,1,0.5,0.5,0.5,1",""
"null","","html-keyboard-response","320","223328","0.0-320.0","3KXIR214I52Z9P2QW3VYKJ83GZU42D","A3I40B0FATY8VH","3KVQ0UJWPX71V463XQYDOZYIDLRW5D","","","<img src=""img/flower4.png"" style=""width:200px; border:14px solid green;"">","null","","","","","",""
"150.10000002384186","","image-keyboard-response","321","223478","0.0-321.0","3KXIR214I52Z9P2QW3VYKJ83GZU42D","A3I40B0FATY8VH","3KVQ0UJWPX71V463XQYDOZYIDLRW5D","","","img/flower5.png","75","150.4000000357628","2","0","3","1,0.5,0.5,0.5,1,0.5,0.5,0.5,1",""
"null","","html-keyboard-response","322","223780","0.0-322.0","3KXIR214I52Z9P2QW3VYKJ83GZU42D","A3I40B0FATY8VH","3KVQ0UJWPX71V463XQYDOZYIDLRW5D","","","<img src=""img/flower5.png"" style=""width:200px;border:14px solid red;"">","null","","","","","",""
"328.0999999642372","","image-keyboard-response","323","224109","0.0-323.0","3KXIR214I52Z9P2QW3VYKJ83GZU42D","A3I40B0FATY8VH","3KVQ0UJWPX71V463XQYDOZYIDLRW5D","","","img/flower5.png","74","328.9000000357628","1","0","3","1,0.5,0.5,0.5,1,0.5,0.5,0.5,1",""
"null","","html-keyboard-response","324","224413","0.0-324.0","3KXIR214I52Z9P2QW3VYKJ83GZU42D","A3I40B0FATY8VH","3KVQ0UJWPX71V463XQYDOZYIDLRW5D","","","<img src=""img/flower5.png"" style=""width:200px;border:14px solid red;"">","null","","","","","",""
"770.1000000238419","","image-keyboard-response","325","225184","0.0-325.0","3KXIR214I52Z9P2QW3VYKJ83GZU42D","A3I40B0FATY8VH","3KVQ0UJWPX71V463XQYDOZYIDLRW5D","","","img/flower2.png","76","770.5999999642372","3","1","1","1,0.5,0.5,0.5,1,0.5,0.5,0.5,1",""
"null","","html-keyboard-response","326","225486","0.0-326.0","3KXIR214I52Z9P2QW3VYKJ83GZU42D","A3I40B0FATY8VH","3KVQ0UJWPX71V463XQYDOZYIDLRW5D","","","<img src=""img/flower2.png"" style=""width:200px; border:14px solid green;"">","null","","","","","",""
"104.69999998807907","","image-keyboard-response","327","225591","0.0-327.0","3KXIR214I52Z9P2QW3VYKJ83GZU42D","A3I40B0FATY8VH","3KVQ0UJWPX71V463XQYDOZYIDLRW5D","","","img/flower5.png","76","105.20000004768372","3","1","3","1,0.5,0.5,0.5,1,0.5,0.5,0.5,1",""
"null","","html-keyboard-response","328","225893","0.0-328.0","3KXIR214I52Z9P2QW3VYKJ83GZU42D","A3I40B0FATY8VH","3KVQ0UJWPX71V463XQYDOZYIDLRW5D","","","<img src=""img/flower5.png"" style=""width:200px; border:14px solid green;"">","null","","","","","",""
"899","","image-keyboard-response","329","226793","0.0-329.0","3KXIR214I52Z9P2QW3VYKJ83GZU42D","A3I40B0FATY8VH","3KVQ0UJWPX71V463XQYDOZYIDLRW5D","","","img/flower4.png","75","899.6000000238419","2","1","2","1,0.5,0.5,0.5,1,0.5,0.5,0.5,1",""
"null","","html-keyboard-response","330","227096","0.0-330.0","3KXIR214I52Z9P2QW3VYKJ83GZU42D","A3I40B0FATY8VH","3KVQ0UJWPX71V463XQYDOZYIDLRW5D","","","<img src=""img/flower4.png"" style=""width:200px; border:14px solid green;"">","null","","","","","",""
"215.5999999642372","","image-keyboard-response","331","227312","0.0-331.0","3KXIR214I52Z9P2QW3VYKJ83GZU42D","A3I40B0FATY8VH","3KVQ0UJWPX71V463XQYDOZYIDLRW5D","","","img/flower4.png","75","216.4000000357628","2","1","2","1,0.5,0.5,0.5,1,0.5,0.5,0.5,1",""
"null","","html-keyboard-response","332","227616","0.0-332.0","3KXIR214I52Z9P2QW3VYKJ83GZU42D","A3I40B0FATY8VH","3KVQ0UJWPX71V463XQYDOZYIDLRW5D","","","<img src=""img/flower4.png"" style=""width:200px; border:14px solid green;"">","null","","","","","",""
"178.5","","image-keyboard-response","333","227795","0.0-333.0","3KXIR214I52Z9P2QW3VYKJ83GZU42D","A3I40B0FATY8VH","3KVQ0UJWPX71V463XQYDOZYIDLRW5D","","","img/flower2.png","75","179","2","1","1","1,0.5,0.5,0.5,1,0.5,0.5,0.5,1",""
"null","","html-keyboard-response","334","228096","0.0-334.0","3KXIR214I52Z9P2QW3VYKJ83GZU42D","A3I40B0FATY8VH","3KVQ0UJWPX71V463XQYDOZYIDLRW5D","","","<img src=""img/flower2.png"" style=""width:200px; border:14px solid green;"">","null","","","","","",""
"842.8000000119209","","image-keyboard-response","335","228939","0.0-335.0","3KXIR214I52Z9P2QW3VYKJ83GZU42D","A3I40B0FATY8VH","3KVQ0UJWPX71V463XQYDOZYIDLRW5D","","","img/flower4.png","75","843.0999999642372","2","1","2","1,0.5,0.5,0.5,1,0.5,0.5,0.5,1",""
"null","","html-keyboard-response","336","229241","0.0-336.0","3KXIR214I52Z9P2QW3VYKJ83GZU42D","A3I40B0FATY8VH","3KVQ0UJWPX71V463XQYDOZYIDLRW5D","","","<img src=""img/flower4.png"" style=""width:200px; border:14px solid green;"">","null","","","","","",""
"472.89999997615814","","image-keyboard-response","337","229715","0.0-337.0","3KXIR214I52Z9P2QW3VYKJ83GZU42D","A3I40B0FATY8VH","3KVQ0UJWPX71V463XQYDOZYIDLRW5D","","","img/flower5.png","76","473.69999998807907","3","1","3","1,0.5,0.5,0.5,1,0.5,0.5,0.5,1",""
"null","","html-keyboard-response","338","230017","0.0-338.0","3KXIR214I52Z9P2QW3VYKJ83GZU42D","A3I40B0FATY8VH","3KVQ0UJWPX71V463XQYDOZYIDLRW5D","","","<img src=""img/flower5.png"" style=""width:200px; border:14px solid green;"">","null","","","","","",""
"809.9000000357628","","image-keyboard-response","339","230828","0.0-339.0","3KXIR214I52Z9P2QW3VYKJ83GZU42D","A3I40B0FATY8VH","3KVQ0UJWPX71V463XQYDOZYIDLRW5D","","","img/flower4.png","75","810.5999999642372","2","1","2","1,0.5,0.5,0.5,1,0.5,0.5,0.5,1",""
"null","","html-keyboard-response","340","231130","0.0-340.0","3KXIR214I52Z9P2QW3VYKJ83GZU42D","A3I40B0FATY8VH","3KVQ0UJWPX71V463XQYDOZYIDLRW5D","","","<img src=""img/flower4.png"" style=""width:200px; border:14px solid green;"">","null","","","","","",""
"537.6999999880791","","image-keyboard-response","341","231669","0.0-341.0","3KXIR214I52Z9P2QW3VYKJ83GZU42D","A3I40B0FATY8VH","3KVQ0UJWPX71V463XQYDOZYIDLRW5D","","","img/flower2.png","74","539","1","1","1","1,0.5,0.5,0.5,1,0.5,0.5,0.5,1",""
"null","","html-keyboard-response","342","231971","0.0-342.0","3KXIR214I52Z9P2QW3VYKJ83GZU42D","A3I40B0FATY8VH","3KVQ0UJWPX71V463XQYDOZYIDLRW5D","","","<img src=""img/flower2.png"" style=""width:200px; border:14px solid green;"">","null","","","","","",""
"310.4000000357628","","image-keyboard-response","343","232283","0.0-343.0","3KXIR214I52Z9P2QW3VYKJ83GZU42D","A3I40B0FATY8VH","3KVQ0UJWPX71V463XQYDOZYIDLRW5D","","","img/flower2.png","74","311.30000001192093","1","1","1","1,0.5,0.5,0.5,1,0.5,0.5,0.5,1",""
"null","","html-keyboard-response","344","232585","0.0-344.0","3KXIR214I52Z9P2QW3VYKJ83GZU42D","A3I40B0FATY8VH","3KVQ0UJWPX71V463XQYDOZYIDLRW5D","","","<img src=""img/flower2.png"" style=""width:200px; border:14px solid green;"">","null","","","","","",""
"193.0999999642372","","image-keyboard-response","345","232779","0.0-345.0","3KXIR214I52Z9P2QW3VYKJ83GZU42D","A3I40B0FATY8VH","3KVQ0UJWPX71V463XQYDOZYIDLRW5D","","","img/flower4.png","74","193.5999999642372","1","1","2","1,0.5,0.5,0.5,1,0.5,0.5,0.5,1",""
"null","","html-keyboard-response","346","233081","0.0-346.0","3KXIR214I52Z9P2QW3VYKJ83GZU42D","A3I40B0FATY8VH","3KVQ0UJWPX71V463XQYDOZYIDLRW5D","","","<img src=""img/flower4.png"" style=""width:200px; border:14px solid green;"">","null","","","","","",""
"873.6000000238419","","image-keyboard-response","347","233955","0.0-347.0","3KXIR214I52Z9P2QW3VYKJ83GZU42D","A3I40B0FATY8VH","3KVQ0UJWPX71V463XQYDOZYIDLRW5D","","","img/flower5.png","76","874.3000000119209","3","1","3","1,0.5,0.5,0.5,1,0.5,0.5,0.5,1",""
"null","","html-keyboard-response","348","234258","0.0-348.0","3KXIR214I52Z9P2QW3VYKJ83GZU42D","A3I40B0FATY8VH","3KVQ0UJWPX71V463XQYDOZYIDLRW5D","","","<img src=""img/flower5.png"" style=""width:200px; border:14px solid green;"">","null","","","","","",""
"572.3999999761581","","image-keyboard-response","349","234831","0.0-349.0","3KXIR214I52Z9P2QW3VYKJ83GZU42D","A3I40B0FATY8VH","3KVQ0UJWPX71V463XQYDOZYIDLRW5D","","","img/flower4.png","75","573.0999999642372","2","1","2","1,0.5,0.5,0.5,1,0.5,0.5,0.5,1",""
"null","","html-keyboard-response","350","235133","0.0-350.0","3KXIR214I52Z9P2QW3VYKJ83GZU42D","A3I40B0FATY8VH","3KVQ0UJWPX71V463XQYDOZYIDLRW5D","","","<img src=""img/flower4.png"" style=""width:200px; border:14px solid green;"">","null","","","","","",""
"446.89999997615814","","image-keyboard-response","351","235581","0.0-351.0","3KXIR214I52Z9P2QW3VYKJ83GZU42D","A3I40B0FATY8VH","3KVQ0UJWPX71V463XQYDOZYIDLRW5D","","","img/flower5.png","76","447.4000000357628","3","1","3","1,0.5,0.5,0.5,1,0.5,0.5,0.5,1",""
"null","","html-keyboard-response","352","235883","0.0-352.0","3KXIR214I52Z9P2QW3VYKJ83GZU42D","A3I40B0FATY8VH","3KVQ0UJWPX71V463XQYDOZYIDLRW5D","","","<img src=""img/flower5.png"" style=""width:200px; border:14px solid green;"">","null","","","","","",""
"510.89999997615814","","image-keyboard-response","353","236396","0.0-353.0","3KXIR214I52Z9P2QW3VYKJ83GZU42D","A3I40B0FATY8VH","3KVQ0UJWPX71V463XQYDOZYIDLRW5D","","","img/flower2.png","75","512.0999999642372","2","0","1","1,0.5,0.5,0.5,1,0.5,0.5,0.5,1",""
"null","","html-keyboard-response","354","236698","0.0-354.0","3KXIR214I52Z9P2QW3VYKJ83GZU42D","A3I40B0FATY8VH","3KVQ0UJWPX71V463XQYDOZYIDLRW5D","","","<img src=""img/flower2.png"" style=""width:200px;border:14px solid red;"">","null","","","","","",""
"482.19999998807907","","image-keyboard-response","355","237181","0.0-355.0","3KXIR214I52Z9P2QW3VYKJ83GZU42D","A3I40B0FATY8VH","3KVQ0UJWPX71V463XQYDOZYIDLRW5D","","","img/flower4.png","74","482.69999998807907","1","0","2","1,0.5,0.5,0.5,1,0.5,0.5,0.5,1",""
"null","","html-keyboard-response","356","237483","0.0-356.0","3KXIR214I52Z9P2QW3VYKJ83GZU42D","A3I40B0FATY8VH","3KVQ0UJWPX71V463XQYDOZYIDLRW5D","","","<img src=""img/flower4.png"" style=""width:200px;border:14px solid red;"">","null","","","","","",""
"688.5999999642372","","image-keyboard-response","357","238173","0.0-357.0","3KXIR214I52Z9P2QW3VYKJ83GZU42D","A3I40B0FATY8VH","3KVQ0UJWPX71V463XQYDOZYIDLRW5D","","","img/flower2.png","74","689.3000000119209","1","1","1","1,0.5,0.5,0.5,1,0.5,0.5,0.5,1",""
"null","","html-keyboard-response","358","238476","0.0-358.0","3KXIR214I52Z9P2QW3VYKJ83GZU42D","A3I40B0FATY8VH","3KVQ0UJWPX71V463XQYDOZYIDLRW5D","","","<img src=""img/flower2.png"" style=""width:200px; border:14px solid green;"">","null","","","","","",""
"289.19999998807907","","image-keyboard-response","359","238767","0.0-359.0","3KXIR214I52Z9P2QW3VYKJ83GZU42D","A3I40B0FATY8VH","3KVQ0UJWPX71V463XQYDOZYIDLRW5D","","","img/flower2.png","74","290.69999998807907","1","1","1","1,0.5,0.5,0.5,1,0.5,0.5,0.5,1",""
"null","","html-keyboard-response","360","239069","0.0-360.0","3KXIR214I52Z9P2QW3VYKJ83GZU42D","A3I40B0FATY8VH","3KVQ0UJWPX71V463XQYDOZYIDLRW5D","","","<img src=""img/flower2.png"" style=""width:200px; border:14px solid green;"">","null","","","","","",""
"692.1999999880791","","image-keyboard-response","361","239761","0.0-361.0","3KXIR214I52Z9P2QW3VYKJ83GZU42D","A3I40B0FATY8VH","3KVQ0UJWPX71V463XQYDOZYIDLRW5D","","","img/flower5.png","76","692.7000000476837","3","1","3","1,0.5,0.5,0.5,1,0.5,0.5,0.5,1",""
"null","","html-keyboard-response","362","240063","0.0-362.0","3KXIR214I52Z9P2QW3VYKJ83GZU42D","A3I40B0FATY8VH","3KVQ0UJWPX71V463XQYDOZYIDLRW5D","","","<img src=""img/flower5.png"" style=""width:200px; border:14px solid green;"">","null","","","","","",""
"610.3000000119209","","image-keyboard-response","363","240674","0.0-363.0","3KXIR214I52Z9P2QW3VYKJ83GZU42D","A3I40B0FATY8VH","3KVQ0UJWPX71V463XQYDOZYIDLRW5D","","","img/flower2.png","74","611.1999999880791","1","1","1","1,0.5,0.5,0.5,1,0.5,0.5,0.5,1",""
"null","","html-keyboard-response","364","240978","0.0-364.0","3KXIR214I52Z9P2QW3VYKJ83GZU42D","A3I40B0FATY8VH","3KVQ0UJWPX71V463XQYDOZYIDLRW5D","","","<img src=""img/flower2.png"" style=""width:200px; border:14px solid green;"">","null","","","","","",""
"299.80000001192093","","image-keyboard-response","365","241278","0.0-365.0","3KXIR214I52Z9P2QW3VYKJ83GZU42D","A3I40B0FATY8VH","3KVQ0UJWPX71V463XQYDOZYIDLRW5D","","","img/flower2.png","74","300.19999998807907","1","1","1","1,0.5,0.5,0.5,1,0.5,0.5,0.5,1",""
"null","","html-keyboard-response","366","241580","0.0-366.0","3KXIR214I52Z9P2QW3VYKJ83GZU42D","A3I40B0FATY8VH","3KVQ0UJWPX71V463XQYDOZYIDLRW5D","","","<img src=""img/flower2.png"" style=""width:200px; border:14px solid green;"">","null","","","","","",""
"644.8000000119209","","image-keyboard-response","367","242226","0.0-367.0","3KXIR214I52Z9P2QW3VYKJ83GZU42D","A3I40B0FATY8VH","3KVQ0UJWPX71V463XQYDOZYIDLRW5D","","","img/flower4.png","75","645.1999999880791","2","1","2","1,0.5,0.5,0.5,1,0.5,0.5,0.5,1",""
"null","","html-keyboard-response","368","242528","0.0-368.0","3KXIR214I52Z9P2QW3VYKJ83GZU42D","A3I40B0FATY8VH","3KVQ0UJWPX71V463XQYDOZYIDLRW5D","","","<img src=""img/flower4.png"" style=""width:200px; border:14px solid green;"">","null","","","","","",""
"419.5","","image-keyboard-response","369","242949","0.0-369.0","3KXIR214I52Z9P2QW3VYKJ83GZU42D","A3I40B0FATY8VH","3KVQ0UJWPX71V463XQYDOZYIDLRW5D","","","img/flower2.png","74","420.60000002384186","1","1","1","1,0.5,0.5,0.5,1,0.5,0.5,0.5,1",""
"null","","html-keyboard-response","370","243252","0.0-370.0","3KXIR214I52Z9P2QW3VYKJ83GZU42D","A3I40B0FATY8VH","3KVQ0UJWPX71V463XQYDOZYIDLRW5D","","","<img src=""img/flower2.png"" style=""width:200px; border:14px solid green;"">","null","","","","","",""
"267","","image-keyboard-response","371","243521","0.0-371.0","3KXIR214I52Z9P2QW3VYKJ83GZU42D","A3I40B0FATY8VH","3KVQ0UJWPX71V463XQYDOZYIDLRW5D","","","img/flower2.png","74","268.19999998807907","1","1","1","1,0.5,0.5,0.5,1,0.5,0.5,0.5,1",""
"null","","html-keyboard-response","372","243823","0.0-372.0","3KXIR214I52Z9P2QW3VYKJ83GZU42D","A3I40B0FATY8VH","3KVQ0UJWPX71V463XQYDOZYIDLRW5D","","","<img src=""img/flower2.png"" style=""width:200px; border:14px solid green;"">","null","","","","","",""
"243.29999995231628","","image-keyboard-response","373","244067","0.0-373.0","3KXIR214I52Z9P2QW3VYKJ83GZU42D","A3I40B0FATY8VH","3KVQ0UJWPX71V463XQYDOZYIDLRW5D","","","img/flower2.png","74","244","1","1","1","1,0.5,0.5,0.5,1,0.5,0.5,0.5,1",""
"null","","html-keyboard-response","374","244370","0.0-374.0","3KXIR214I52Z9P2QW3VYKJ83GZU42D","A3I40B0FATY8VH","3KVQ0UJWPX71V463XQYDOZYIDLRW5D","","","<img src=""img/flower2.png"" style=""width:200px; border:14px solid green;"">","null","","","","","",""
"253.19999998807907","","image-keyboard-response","375","244624","0.0-375.0","3KXIR214I52Z9P2QW3VYKJ83GZU42D","A3I40B0FATY8VH","3KVQ0UJWPX71V463XQYDOZYIDLRW5D","","","img/flower2.png","74","253.69999998807907","1","1","1","1,0.5,0.5,0.5,1,0.5,0.5,0.5,1",""
"null","","html-keyboard-response","376","244927","0.0-376.0","3KXIR214I52Z9P2QW3VYKJ83GZU42D","A3I40B0FATY8VH","3KVQ0UJWPX71V463XQYDOZYIDLRW5D","","","<img src=""img/flower2.png"" style=""width:200px; border:14px solid green;"">","null","","","","","",""
"265.5","","image-keyboard-response","377","245193","0.0-377.0","3KXIR214I52Z9P2QW3VYKJ83GZU42D","A3I40B0FATY8VH","3KVQ0UJWPX71V463XQYDOZYIDLRW5D","","","img/flower2.png","74","266.2999999523163","1","1","1","1,0.5,0.5,0.5,1,0.5,0.5,0.5,1",""
"null","","html-keyboard-response","378","245495","0.0-378.0","3KXIR214I52Z9P2QW3VYKJ83GZU42D","A3I40B0FATY8VH","3KVQ0UJWPX71V463XQYDOZYIDLRW5D","","","<img src=""img/flower2.png"" style=""width:200px; border:14px solid green;"">","null","","","","","",""
"629.5","","image-keyboard-response","379","246126","0.0-379.0","3KXIR214I52Z9P2QW3VYKJ83GZU42D","A3I40B0FATY8VH","3KVQ0UJWPX71V463XQYDOZYIDLRW5D","","","img/flower4.png","75","630.6999999880791","2","1","2","1,0.5,0.5,0.5,1,0.5,0.5,0.5,1",""
"null","","html-keyboard-response","380","246427","0.0-380.0","3KXIR214I52Z9P2QW3VYKJ83GZU42D","A3I40B0FATY8VH","3KVQ0UJWPX71V463XQYDOZYIDLRW5D","","","<img src=""img/flower4.png"" style=""width:200px; border:14px solid green;"">","null","","","","","",""
"557.5999999642372","","image-keyboard-response","381","246985","0.0-381.0","3KXIR214I52Z9P2QW3VYKJ83GZU42D","A3I40B0FATY8VH","3KVQ0UJWPX71V463XQYDOZYIDLRW5D","","","img/flower5.png","76","557.9000000357628","3","1","3","1,0.5,0.5,0.5,1,0.5,0.5,0.5,1",""
"null","","html-keyboard-response","382","247288","0.0-382.0","3KXIR214I52Z9P2QW3VYKJ83GZU42D","A3I40B0FATY8VH","3KVQ0UJWPX71V463XQYDOZYIDLRW5D","","","<img src=""img/flower5.png"" style=""width:200px; border:14px solid green;"">","null","","","","","",""
"815.5","","image-keyboard-response","383","248104","0.0-383.0","3KXIR214I52Z9P2QW3VYKJ83GZU42D","A3I40B0FATY8VH","3KVQ0UJWPX71V463XQYDOZYIDLRW5D","","","img/flower4.png","74","816","1","0","2","1,0.5,0.5,0.5,1,0.5,0.5,0.5,1",""
"null","","html-keyboard-response","384","248406","0.0-384.0","3KXIR214I52Z9P2QW3VYKJ83GZU42D","A3I40B0FATY8VH","3KVQ0UJWPX71V463XQYDOZYIDLRW5D","","","<img src=""img/flower4.png"" style=""width:200px;border:14px solid red;"">","null","","","","","",""
"659.1999999880791","","image-keyboard-response","385","249067","0.0-385.0","3KXIR214I52Z9P2QW3VYKJ83GZU42D","A3I40B0FATY8VH","3KVQ0UJWPX71V463XQYDOZYIDLRW5D","","","img/flower5.png","76","660.6999999880791","3","1","3","1,0.5,0.5,0.5,1,0.5,0.5,0.5,1",""
"null","","html-keyboard-response","386","249370","0.0-386.0","3KXIR214I52Z9P2QW3VYKJ83GZU42D","A3I40B0FATY8VH","3KVQ0UJWPX71V463XQYDOZYIDLRW5D","","","<img src=""img/flower5.png"" style=""width:200px; border:14px solid green;"">","null","","","","","",""
"773.4000000357628","","image-keyboard-response","387","250145","0.0-387.0","3KXIR214I52Z9P2QW3VYKJ83GZU42D","A3I40B0FATY8VH","3KVQ0UJWPX71V463XQYDOZYIDLRW5D","","","img/flower4.png","75","774.5","2","1","2","1,0.5,0.5,0.5,1,0.5,0.5,0.5,1",""
"null","","html-keyboard-response","388","250447","0.0-388.0","3KXIR214I52Z9P2QW3VYKJ83GZU42D","A3I40B0FATY8VH","3KVQ0UJWPX71V463XQYDOZYIDLRW5D","","","<img src=""img/flower4.png"" style=""width:200px; border:14px solid green;"">","null","","","","","",""
"643.0999999642372","","image-keyboard-response","389","251091","0.0-389.0","3KXIR214I52Z9P2QW3VYKJ83GZU42D","A3I40B0FATY8VH","3KVQ0UJWPX71V463XQYDOZYIDLRW5D","","","img/flower2.png","74","643.6999999880791","1","1","1","1,0.5,0.5,0.5,1,0.5,0.5,0.5,1",""
"null","","html-keyboard-response","390","251393","0.0-390.0","3KXIR214I52Z9P2QW3VYKJ83GZU42D","A3I40B0FATY8VH","3KVQ0UJWPX71V463XQYDOZYIDLRW5D","","","<img src=""img/flower2.png"" style=""width:200px; border:14px solid green;"">","null","","","","","",""
"305.5999999642372","","image-keyboard-response","391","251699","0.0-391.0","3KXIR214I52Z9P2QW3VYKJ83GZU42D","A3I40B0FATY8VH","3KVQ0UJWPX71V463XQYDOZYIDLRW5D","","","img/flower2.png","74","305.9000000357628","1","1","1","1,0.5,0.5,0.5,1,0.5,0.5,0.5,1",""
"null","","html-keyboard-response","392","252001","0.0-392.0","3KXIR214I52Z9P2QW3VYKJ83GZU42D","A3I40B0FATY8VH","3KVQ0UJWPX71V463XQYDOZYIDLRW5D","","","<img src=""img/flower2.png"" style=""width:200px; border:14px solid green;"">","null","","","","","",""
"582.6999999880791","","image-keyboard-response","393","252584","0.0-393.0","3KXIR214I52Z9P2QW3VYKJ83GZU42D","A3I40B0FATY8VH","3KVQ0UJWPX71V463XQYDOZYIDLRW5D","","","img/flower5.png","76","583.5","3","1","3","1,0.5,0.5,0.5,1,0.5,0.5,0.5,1",""
"null","","html-keyboard-response","394","252886","0.0-394.0","3KXIR214I52Z9P2QW3VYKJ83GZU42D","A3I40B0FATY8VH","3KVQ0UJWPX71V463XQYDOZYIDLRW5D","","","<img src=""img/flower5.png"" style=""width:200px; border:14px solid green;"">","null","","","","","",""
"877.6999999880791","","image-keyboard-response","395","253765","0.0-395.0","3KXIR214I52Z9P2QW3VYKJ83GZU42D","A3I40B0FATY8VH","3KVQ0UJWPX71V463XQYDOZYIDLRW5D","","","img/flower4.png","75","878.0999999642372","2","1","2","1,0.5,0.5,0.5,1,0.5,0.5,0.5,1",""
"null","","html-keyboard-response","396","254066","0.0-396.0","3KXIR214I52Z9P2QW3VYKJ83GZU42D","A3I40B0FATY8VH","3KVQ0UJWPX71V463XQYDOZYIDLRW5D","","","<img src=""img/flower4.png"" style=""width:200px; border:14px solid green;"">","null","","","","","",""
"284.5999999642372","","image-keyboard-response","397","254352","0.0-397.0","3KXIR214I52Z9P2QW3VYKJ83GZU42D","A3I40B0FATY8VH","3KVQ0UJWPX71V463XQYDOZYIDLRW5D","","","img/flower4.png","75","285.7999999523163","2","1","2","1,0.5,0.5,0.5,1,0.5,0.5,0.5,1",""
"null","","html-keyboard-response","398","254655","0.0-398.0","3KXIR214I52Z9P2QW3VYKJ83GZU42D","A3I40B0FATY8VH","3KVQ0UJWPX71V463XQYDOZYIDLRW5D","","","<img src=""img/flower4.png"" style=""width:200px; border:14px solid green;"">","null","","","","","",""
"180.80000001192093","","image-keyboard-response","399","254837","0.0-399.0","3KXIR214I52Z9P2QW3VYKJ83GZU42D","A3I40B0FATY8VH","3KVQ0UJWPX71V463XQYDOZYIDLRW5D","","","img/flower4.png","75","181.29999995231628","2","1","2","1,0.5,0.5,0.5,1,0.5,0.5,0.5,1",""
"null","","html-keyboard-response","400","255139","0.0-400.0","3KXIR214I52Z9P2QW3VYKJ83GZU42D","A3I40B0FATY8VH","3KVQ0UJWPX71V463XQYDOZYIDLRW5D","","","<img src=""img/flower4.png"" style=""width:200px; border:14px solid green;"">","null","","","","","",""
"606.5","","image-keyboard-response","401","255746","0.0-401.0","3KXIR214I52Z9P2QW3VYKJ83GZU42D","A3I40B0FATY8VH","3KVQ0UJWPX71V463XQYDOZYIDLRW5D","","","img/flower2.png","74","607.3999999761581","1","1","1","1,0.5,0.5,0.5,1,0.5,0.5,0.5,1",""
"null","","html-keyboard-response","402","256050","0.0-402.0","3KXIR214I52Z9P2QW3VYKJ83GZU42D","A3I40B0FATY8VH","3KVQ0UJWPX71V463XQYDOZYIDLRW5D","","","<img src=""img/flower2.png"" style=""width:200px; border:14px solid green;"">","null","","","","","",""
"322.60000002384186","","image-keyboard-response","403","256374","0.0-403.0","3KXIR214I52Z9P2QW3VYKJ83GZU42D","A3I40B0FATY8VH","3KVQ0UJWPX71V463XQYDOZYIDLRW5D","","","img/flower2.png","74","323.2999999523163","1","1","1","1,0.5,0.5,0.5,1,0.5,0.5,0.5,1",""
"null","","html-keyboard-response","404","256674","0.0-404.0","3KXIR214I52Z9P2QW3VYKJ83GZU42D","A3I40B0FATY8VH","3KVQ0UJWPX71V463XQYDOZYIDLRW5D","","","<img src=""img/flower2.png"" style=""width:200px; border:14px solid green;"">","null","","","","","",""
"471.5999999642372","","image-keyboard-response","405","257147","0.0-405.0","3KXIR214I52Z9P2QW3VYKJ83GZU42D","A3I40B0FATY8VH","3KVQ0UJWPX71V463XQYDOZYIDLRW5D","","","img/flower5.png","76","472.2000000476837","3","1","3","1,0.5,0.5,0.5,1,0.5,0.5,0.5,1",""
