"success","trial_type","trial_index","time_elapsed","internal_node_id","assignmentID","mturkID","hitID","view_history","rt","stimulus","key_press","reactionTime","a","r","s","cond","reward_cond","reward_cond_actual","reward_matrix_idx","responses"
"true","fullscreen","0","4483","0.0-0.0","3E7TUJ2EGD8N956IANB6XAAN0NZD94","A3ITZNJQUTIZ4C","3ECKRY5B1QIH1N6NFX1ECCW5ZDKIZQ","","","","","","","","","","","","",""
"","instructions","1","84754","0.0-1.0","3E7TUJ2EGD8N956IANB6XAAN0NZD94","A3ITZNJQUTIZ4C","3ECKRY5B1QIH1N6NFX1ECCW5ZDKIZQ","[{""page_index"":0,""viewing_time"":47258.59999996424},{""page_index"":1,""viewing_time"":4413.5},{""page_index"":2,""viewing_time"":4800},{""page_index"":3,""viewing_time"":2977.900000035763},{""page_index"":4,""viewing_time"":5419.899999976158},{""page_index"":5,""viewing_time"":2214.100000023842},{""page_index"":6,""viewing_time"":6018},{""page_index"":7,""viewing_time"":7164.099999964237}]","80267.19999998808","","","","","","","","","","",""
"","image-keyboard-response","2","85740","0.0-2.0","3E7TUJ2EGD8N956IANB6XAAN0NZD94","A3ITZNJQUTIZ4C","3ECKRY5B1QIH1N6NFX1ECCW5ZDKIZQ","","983.5","img/flower2.png","76","985.6000000238419","3","0","2","1","1,0.333,0.333,0.333,1,0.333,0.333,0.333,1","1,0.333,0.333,0.333,1,0.333,0.333,0.333,1","1",""
"","html-keyboard-response","3","86049","0.0-3.0","3E7TUJ2EGD8N956IANB6XAAN0NZD94","A3ITZNJQUTIZ4C","3ECKRY5B1QIH1N6NFX1ECCW5ZDKIZQ","","null","<img src=""img/flower2.png"" style=""width:200px;border:14px solid red;"">","null","","","","","","","","",""
"","image-keyboard-response","4","86668","0.0-4.0","3E7TUJ2EGD8N956IANB6XAAN0NZD94","A3ITZNJQUTIZ4C","3ECKRY5B1QIH1N6NFX1ECCW5ZDKIZQ","","617.4000000357628","img/flower4.png","75","618.8999999761581","2","0","1","1","1,0.333,0.333,0.333,1,0.333,0.333,0.333,1","1,0.333,0.333,0.333,1,0.333,0.333,0.333,1","1",""
"","html-keyboard-response","5","86973","0.0-5.0","3E7TUJ2EGD8N956IANB6XAAN0NZD94","A3ITZNJQUTIZ4C","3ECKRY5B1QIH1N6NFX1ECCW5ZDKIZQ","","null","<img src=""img/flower4.png"" style=""width:200px;border:14px solid red;"">","null","","","","","","","","",""
"","image-keyboard-response","6","87732","0.0-6.0","3E7TUJ2EGD8N956IANB6XAAN0NZD94","A3ITZNJQUTIZ4C","3ECKRY5B1QIH1N6NFX1ECCW5ZDKIZQ","","757.7000000476837","img/flower4.png","74","759","1","1","1","1","1,0.333,0.333,0.333,1,0.333,0.333,0.333,1","1,0.333,0.333,0.333,1,0.333,0.333,0.333,1","1",""
"","html-keyboard-response","7","88037","0.0-7.0","3E7TUJ2EGD8N956IANB6XAAN0NZD94","A3ITZNJQUTIZ4C","3ECKRY5B1QIH1N6NFX1ECCW5ZDKIZQ","","null","<img src=""img/flower4.png"" style=""width:200px; border:14px solid green;"">","null","","","","","","","","",""
"","image-keyboard-response","8","88775","0.0-8.0","3E7TUJ2EGD8N956IANB6XAAN0NZD94","A3ITZNJQUTIZ4C","3ECKRY5B1QIH1N6NFX1ECCW5ZDKIZQ","","736.8000000119209","img/flower3.png","76","738.1999999880791","3","1","3","1","1,0.333,0.333,0.333,1,0.333,0.333,0.333,1","1,0.333,0.333,0.333,1,0.333,0.333,0.333,1","1",""
"","html-keyboard-response","9","89078","0.0-9.0","3E7TUJ2EGD8N956IANB6XAAN0NZD94","A3ITZNJQUTIZ4C","3ECKRY5B1QIH1N6NFX1ECCW5ZDKIZQ","","null","<img src=""img/flower3.png"" style=""width:200px; border:14px solid green;"">","null","","","","","","","","",""
"","image-keyboard-response","10","89870","0.0-10.0","3E7TUJ2EGD8N956IANB6XAAN0NZD94","A3ITZNJQUTIZ4C","3ECKRY5B1QIH1N6NFX1ECCW5ZDKIZQ","","789.9000000357628","img/flower2.png","75","791.3999999761581","2","1","2","1","1,0.333,0.333,0.333,1,0.333,0.333,0.333,1","1,0.333,0.333,0.333,1,0.333,0.333,0.333,1","1",""
"","html-keyboard-response","11","90178","0.0-11.0","3E7TUJ2EGD8N956IANB6XAAN0NZD94","A3ITZNJQUTIZ4C","3ECKRY5B1QIH1N6NFX1ECCW5ZDKIZQ","","null","<img src=""img/flower2.png"" style=""width:200px; border:14px solid green;"">","null","","","","","","","","",""
"","image-keyboard-response","12","91067","0.0-12.0","3E7TUJ2EGD8N956IANB6XAAN0NZD94","A3ITZNJQUTIZ4C","3ECKRY5B1QIH1N6NFX1ECCW5ZDKIZQ","","886.9000000357628","img/flower4.png","74","888.1999999880791","1","1","1","1","1,0.333,0.333,0.333,1,0.333,0.333,0.333,1","1,0.333,0.333,0.333,1,0.333,0.333,0.333,1","1",""
"","html-keyboard-response","13","91381","0.0-13.0","3E7TUJ2EGD8N956IANB6XAAN0NZD94","A3ITZNJQUTIZ4C","3ECKRY5B1QIH1N6NFX1ECCW5ZDKIZQ","","null","<img src=""img/flower4.png"" style=""width:200px; border:14px solid green;"">","null","","","","","","","","",""
"","image-keyboard-response","14","92108","0.0-14.0","3E7TUJ2EGD8N956IANB6XAAN0NZD94","A3ITZNJQUTIZ4C","3ECKRY5B1QIH1N6NFX1ECCW5ZDKIZQ","","726","img/flower2.png","75","727.1999999880791","2","1","2","1","1,0.333,0.333,0.333,1,0.333,0.333,0.333,1","1,0.333,0.333,0.333,1,0.333,0.333,0.333,1","1",""
"","html-keyboard-response","15","92421","0.0-15.0","3E7TUJ2EGD8N956IANB6XAAN0NZD94","A3ITZNJQUTIZ4C","3ECKRY5B1QIH1N6NFX1ECCW5ZDKIZQ","","null","<img src=""img/flower2.png"" style=""width:200px; border:14px solid green;"">","null","","","","","","","","",""
"","image-keyboard-response","16","93006","0.0-16.0","3E7TUJ2EGD8N956IANB6XAAN0NZD94","A3ITZNJQUTIZ4C","3ECKRY5B1QIH1N6NFX1ECCW5ZDKIZQ","","582.8999999761581","img/flower3.png","76","584.1999999880791","3","1","3","1","1,0.333,0.333,0.333,1,0.333,0.333,0.333,1","1,0.333,0.333,0.333,1,0.333,0.333,0.333,1","1",""
"","html-keyboard-response","17","93315","0.0-17.0","3E7TUJ2EGD8N956IANB6XAAN0NZD94","A3ITZNJQUTIZ4C","3ECKRY5B1QIH1N6NFX1ECCW5ZDKIZQ","","null","<img src=""img/flower3.png"" style=""width:200px; border:14px solid green;"">","null","","","","","","","","",""
"","image-keyboard-response","18","93870","0.0-18.0","3E7TUJ2EGD8N956IANB6XAAN0NZD94","A3ITZNJQUTIZ4C","3ECKRY5B1QIH1N6NFX1ECCW5ZDKIZQ","","552.9000000357628","img/flower2.png","75","554.3000000119209","2","1","2","1","1,0.333,0.333,0.333,1,0.333,0.333,0.333,1","1,0.333,0.333,0.333,1,0.333,0.333,0.333,1","1",""
"","html-keyboard-response","19","94173","0.0-19.0","3E7TUJ2EGD8N956IANB6XAAN0NZD94","A3ITZNJQUTIZ4C","3ECKRY5B1QIH1N6NFX1ECCW5ZDKIZQ","","null","<img src=""img/flower2.png"" style=""width:200px; border:14px solid green;"">","null","","","","","","","","",""
"","image-keyboard-response","20","94956","0.0-20.0","3E7TUJ2EGD8N956IANB6XAAN0NZD94","A3ITZNJQUTIZ4C","3ECKRY5B1QIH1N6NFX1ECCW5ZDKIZQ","","781.6000000238419","img/flower3.png","74","783","1","1","3","1","1,0.333,0.333,0.333,1,0.333,0.333,0.333,1","1,0.333,0.333,0.333,1,0.333,0.333,0.333,1","1",""
"","html-keyboard-response","21","95266","0.0-21.0","3E7TUJ2EGD8N956IANB6XAAN0NZD94","A3ITZNJQUTIZ4C","3ECKRY5B1QIH1N6NFX1ECCW5ZDKIZQ","","null","<img src=""img/flower3.png"" style=""width:200px; border:14px solid green;"">","null","","","","","","","","",""
"","image-keyboard-response","22","95897","0.0-22.0","3E7TUJ2EGD8N956IANB6XAAN0NZD94","A3ITZNJQUTIZ4C","3ECKRY5B1QIH1N6NFX1ECCW5ZDKIZQ","","629.8000000119209","img/flower3.png","74","631.1999999880791","1","1","3","1","1,0.333,0.333,0.333,1,0.333,0.333,0.333,1","1,0.333,0.333,0.333,1,0.333,0.333,0.333,1","1",""
"","html-keyboard-response","23","96211","0.0-23.0","3E7TUJ2EGD8N956IANB6XAAN0NZD94","A3ITZNJQUTIZ4C","3ECKRY5B1QIH1N6NFX1ECCW5ZDKIZQ","","null","<img src=""img/flower3.png"" style=""width:200px; border:14px solid green;"">","null","","","","","","","","",""
"","image-keyboard-response","24","96634","0.0-24.0","3E7TUJ2EGD8N956IANB6XAAN0NZD94","A3ITZNJQUTIZ4C","3ECKRY5B1QIH1N6NFX1ECCW5ZDKIZQ","","420.80000001192093","img/flower3.png","74","422.0999999642372","1","1","3","1","1,0.333,0.333,0.333,1,0.333,0.333,0.333,1","1,0.333,0.333,0.333,1,0.333,0.333,0.333,1","1",""
"","html-keyboard-response","25","96945","0.0-25.0","3E7TUJ2EGD8N956IANB6XAAN0NZD94","A3ITZNJQUTIZ4C","3ECKRY5B1QIH1N6NFX1ECCW5ZDKIZQ","","null","<img src=""img/flower3.png"" style=""width:200px; border:14px solid green;"">","null","","","","","","","","",""
"","image-keyboard-response","26","97471","0.0-26.0","3E7TUJ2EGD8N956IANB6XAAN0NZD94","A3ITZNJQUTIZ4C","3ECKRY5B1QIH1N6NFX1ECCW5ZDKIZQ","","524.6999999880791","img/flower3.png","74","526.1999999880791","1","0","3","1","1,0.333,0.333,0.333,1,0.333,0.333,0.333,1","1,0.333,0.333,0.333,1,0.333,0.333,0.333,1","1",""
"","html-keyboard-response","27","97780","0.0-27.0","3E7TUJ2EGD8N956IANB6XAAN0NZD94","A3ITZNJQUTIZ4C","3ECKRY5B1QIH1N6NFX1ECCW5ZDKIZQ","","null","<img src=""img/flower3.png"" style=""width:200px;border:14px solid red;"">","null","","","","","","","","",""
"","image-keyboard-response","28","98171","0.0-28.0","3E7TUJ2EGD8N956IANB6XAAN0NZD94","A3ITZNJQUTIZ4C","3ECKRY5B1QIH1N6NFX1ECCW5ZDKIZQ","","390","img/flower3.png","74","390.89999997615814","1","0","3","1","1,0.333,0.333,0.333,1,0.333,0.333,0.333,1","1,0.333,0.333,0.333,1,0.333,0.333,0.333,1","1",""
"","html-keyboard-response","29","98477","0.0-29.0","3E7TUJ2EGD8N956IANB6XAAN0NZD94","A3ITZNJQUTIZ4C","3ECKRY5B1QIH1N6NFX1ECCW5ZDKIZQ","","null","<img src=""img/flower3.png"" style=""width:200px;border:14px solid red;"">","null","","","","","","","","",""
"","image-keyboard-response","30","99396","0.0-30.0","3E7TUJ2EGD8N956IANB6XAAN0NZD94","A3ITZNJQUTIZ4C","3ECKRY5B1QIH1N6NFX1ECCW5ZDKIZQ","","917.3000000119209","img/flower4.png","76","918.7000000476837","3","0","1","1","1,0.333,0.333,0.333,1,0.333,0.333,0.333,1","1,0.333,0.333,0.333,1,0.333,0.333,0.333,1","1",""
"","html-keyboard-response","31","99701","0.0-31.0","3E7TUJ2EGD8N956IANB6XAAN0NZD94","A3ITZNJQUTIZ4C","3ECKRY5B1QIH1N6NFX1ECCW5ZDKIZQ","","null","<img src=""img/flower4.png"" style=""width:200px;border:14px solid red;"">","null","","","","","","","","",""
"","image-keyboard-response","32","100570","0.0-32.0","3E7TUJ2EGD8N956IANB6XAAN0NZD94","A3ITZNJQUTIZ4C","3ECKRY5B1QIH1N6NFX1ECCW5ZDKIZQ","","867.3999999761581","img/flower3.png","74","868.8000000119209","1","1","3","1","1,0.333,0.333,0.333,1,0.333,0.333,0.333,1","1,0.333,0.333,0.333,1,0.333,0.333,0.333,1","1",""
"","html-keyboard-response","33","100873","0.0-33.0","3E7TUJ2EGD8N956IANB6XAAN0NZD94","A3ITZNJQUTIZ4C","3ECKRY5B1QIH1N6NFX1ECCW5ZDKIZQ","","null","<img src=""img/flower3.png"" style=""width:200px; border:14px solid green;"">","null","","","","","","","","",""
"","image-keyboard-response","34","101449","0.0-34.0","3E7TUJ2EGD8N956IANB6XAAN0NZD94","A3ITZNJQUTIZ4C","3ECKRY5B1QIH1N6NFX1ECCW5ZDKIZQ","","574.4000000357628","img/flower2.png","75","575.9000000357628","2","1","2","1","1,0.333,0.333,0.333,1,0.333,0.333,0.333,1","1,0.333,0.333,0.333,1,0.333,0.333,0.333,1","1",""
"","html-keyboard-response","35","101753","0.0-35.0","3E7TUJ2EGD8N956IANB6XAAN0NZD94","A3ITZNJQUTIZ4C","3ECKRY5B1QIH1N6NFX1ECCW5ZDKIZQ","","null","<img src=""img/flower2.png"" style=""width:200px; border:14px solid green;"">","null","","","","","","","","",""
"","image-keyboard-response","36","102197","0.0-36.0","3E7TUJ2EGD8N956IANB6XAAN0NZD94","A3ITZNJQUTIZ4C","3ECKRY5B1QIH1N6NFX1ECCW5ZDKIZQ","","442.60000002384186","img/flower2.png","75","444.10000002384186","2","1","2","1","1,0.333,0.333,0.333,1,0.333,0.333,0.333,1","1,0.333,0.333,0.333,1,0.333,0.333,0.333,1","1",""
"","html-keyboard-response","37","102501","0.0-37.0","3E7TUJ2EGD8N956IANB6XAAN0NZD94","A3ITZNJQUTIZ4C","3ECKRY5B1QIH1N6NFX1ECCW5ZDKIZQ","","null","<img src=""img/flower2.png"" style=""width:200px; border:14px solid green;"">","null","","","","","","","","",""
"","image-keyboard-response","38","102903","0.0-38.0","3E7TUJ2EGD8N956IANB6XAAN0NZD94","A3ITZNJQUTIZ4C","3ECKRY5B1QIH1N6NFX1ECCW5ZDKIZQ","","400.0999999642372","img/flower2.png","75","401.5999999642372","2","1","2","1","1,0.333,0.333,0.333,1,0.333,0.333,0.333,1","1,0.333,0.333,0.333,1,0.333,0.333,0.333,1","1",""
"","html-keyboard-response","39","103210","0.0-39.0","3E7TUJ2EGD8N956IANB6XAAN0NZD94","A3ITZNJQUTIZ4C","3ECKRY5B1QIH1N6NFX1ECCW5ZDKIZQ","","null","<img src=""img/flower2.png"" style=""width:200px; border:14px solid green;"">","null","","","","","","","","",""
"","image-keyboard-response","40","103603","0.0-40.0","3E7TUJ2EGD8N956IANB6XAAN0NZD94","A3ITZNJQUTIZ4C","3ECKRY5B1QIH1N6NFX1ECCW5ZDKIZQ","","391.10000002384186","img/flower2.png","75","392.5","2","1","2","1","1,0.333,0.333,0.333,1,0.333,0.333,0.333,1","1,0.333,0.333,0.333,1,0.333,0.333,0.333,1","1",""
"","html-keyboard-response","41","103914","0.0-41.0","3E7TUJ2EGD8N956IANB6XAAN0NZD94","A3ITZNJQUTIZ4C","3ECKRY5B1QIH1N6NFX1ECCW5ZDKIZQ","","null","<img src=""img/flower2.png"" style=""width:200px; border:14px solid green;"">","null","","","","","","","","",""
"","image-keyboard-response","42","104704","0.0-42.0","3E7TUJ2EGD8N956IANB6XAAN0NZD94","A3ITZNJQUTIZ4C","3ECKRY5B1QIH1N6NFX1ECCW5ZDKIZQ","","788.1000000238419","img/flower3.png","74","789.5","1","0","3","1","1,0.333,0.333,0.333,1,0.333,0.333,0.333,1","1,0.333,0.333,0.333,1,0.333,0.333,0.333,1","1",""
"","html-keyboard-response","43","105007","0.0-43.0","3E7TUJ2EGD8N956IANB6XAAN0NZD94","A3ITZNJQUTIZ4C","3ECKRY5B1QIH1N6NFX1ECCW5ZDKIZQ","","null","<img src=""img/flower3.png"" style=""width:200px;border:14px solid red;"">","null","","","","","","","","",""
"","image-keyboard-response","44","106060","0.0-44.0","3E7TUJ2EGD8N956IANB6XAAN0NZD94","A3ITZNJQUTIZ4C","3ECKRY5B1QIH1N6NFX1ECCW5ZDKIZQ","","1051.199999988079","img/flower2.png","75","1052.5","2","1","2","1","1,0.333,0.333,0.333,1,0.333,0.333,0.333,1","1,0.333,0.333,0.333,1,0.333,0.333,0.333,1","1",""
"","html-keyboard-response","45","106375","0.0-45.0","3E7TUJ2EGD8N956IANB6XAAN0NZD94","A3ITZNJQUTIZ4C","3ECKRY5B1QIH1N6NFX1ECCW5ZDKIZQ","","null","<img src=""img/flower2.png"" style=""width:200px; border:14px solid green;"">","null","","","","","","","","",""
"","image-keyboard-response","46","106777","0.0-46.0","3E7TUJ2EGD8N956IANB6XAAN0NZD94","A3ITZNJQUTIZ4C","3ECKRY5B1QIH1N6NFX1ECCW5ZDKIZQ","","399.9000000357628","img/flower2.png","75","401.19999998807907","2","1","2","1","1,0.333,0.333,0.333,1,0.333,0.333,0.333,1","1,0.333,0.333,0.333,1,0.333,0.333,0.333,1","1",""
"","html-keyboard-response","47","107086","0.0-47.0","3E7TUJ2EGD8N956IANB6XAAN0NZD94","A3ITZNJQUTIZ4C","3ECKRY5B1QIH1N6NFX1ECCW5ZDKIZQ","","null","<img src=""img/flower2.png"" style=""width:200px; border:14px solid green;"">","null","","","","","","","","",""
"","image-keyboard-response","48","107799","0.0-48.0","3E7TUJ2EGD8N956IANB6XAAN0NZD94","A3ITZNJQUTIZ4C","3ECKRY5B1QIH1N6NFX1ECCW5ZDKIZQ","","712.8000000119209","img/flower4.png","76","713.6999999880791","3","1","1","1","1,0.333,0.333,0.333,1,0.333,0.333,0.333,1","1,0.333,0.333,0.333,1,0.333,0.333,0.333,1","1",""
"","html-keyboard-response","49","108105","0.0-49.0","3E7TUJ2EGD8N956IANB6XAAN0NZD94","A3ITZNJQUTIZ4C","3ECKRY5B1QIH1N6NFX1ECCW5ZDKIZQ","","null","<img src=""img/flower4.png"" style=""width:200px; border:14px solid green;"">","null","","","","","","","","",""
"","image-keyboard-response","50","108613","0.0-50.0","3E7TUJ2EGD8N956IANB6XAAN0NZD94","A3ITZNJQUTIZ4C","3ECKRY5B1QIH1N6NFX1ECCW5ZDKIZQ","","506.5","img/flower4.png","76","507.69999998807907","3","1","1","1","1,0.333,0.333,0.333,1,0.333,0.333,0.333,1","1,0.333,0.333,0.333,1,0.333,0.333,0.333,1","1",""
"","html-keyboard-response","51","108918","0.0-51.0","3E7TUJ2EGD8N956IANB6XAAN0NZD94","A3ITZNJQUTIZ4C","3ECKRY5B1QIH1N6NFX1ECCW5ZDKIZQ","","null","<img src=""img/flower4.png"" style=""width:200px; border:14px solid green;"">","null","","","","","","","","",""
"","image-keyboard-response","52","109478","0.0-52.0","3E7TUJ2EGD8N956IANB6XAAN0NZD94","A3ITZNJQUTIZ4C","3ECKRY5B1QIH1N6NFX1ECCW5ZDKIZQ","","558.5","img/flower2.png","75","559.8999999761581","2","1","2","1","1,0.333,0.333,0.333,1,0.333,0.333,0.333,1","1,0.333,0.333,0.333,1,0.333,0.333,0.333,1","1",""
"","html-keyboard-response","53","109783","0.0-53.0","3E7TUJ2EGD8N956IANB6XAAN0NZD94","A3ITZNJQUTIZ4C","3ECKRY5B1QIH1N6NFX1ECCW5ZDKIZQ","","null","<img src=""img/flower2.png"" style=""width:200px; border:14px solid green;"">","null","","","","","","","","",""
"","image-keyboard-response","54","110861","0.0-54.0","3E7TUJ2EGD8N956IANB6XAAN0NZD94","A3ITZNJQUTIZ4C","3ECKRY5B1QIH1N6NFX1ECCW5ZDKIZQ","","1076.800000011921","img/flower3.png","74","1078.0999999642372","1","1","3","1","1,0.333,0.333,0.333,1,0.333,0.333,0.333,1","1,0.333,0.333,0.333,1,0.333,0.333,0.333,1","1",""
"","html-keyboard-response","55","111167","0.0-55.0","3E7TUJ2EGD8N956IANB6XAAN0NZD94","A3ITZNJQUTIZ4C","3ECKRY5B1QIH1N6NFX1ECCW5ZDKIZQ","","null","<img src=""img/flower3.png"" style=""width:200px; border:14px solid green;"">","null","","","","","","","","",""
"","image-keyboard-response","56","111924","0.0-56.0","3E7TUJ2EGD8N956IANB6XAAN0NZD94","A3ITZNJQUTIZ4C","3ECKRY5B1QIH1N6NFX1ECCW5ZDKIZQ","","755.1999999880791","img/flower2.png","75","756.7000000476837","2","1","2","1","1,0.333,0.333,0.333,1,0.333,0.333,0.333,1","1,0.333,0.333,0.333,1,0.333,0.333,0.333,1","1",""
"","html-keyboard-response","57","112237","0.0-57.0","3E7TUJ2EGD8N956IANB6XAAN0NZD94","A3ITZNJQUTIZ4C","3ECKRY5B1QIH1N6NFX1ECCW5ZDKIZQ","","null","<img src=""img/flower2.png"" style=""width:200px; border:14px solid green;"">","null","","","","","","","","",""
"","image-keyboard-response","58","113139","0.0-58.0","3E7TUJ2EGD8N956IANB6XAAN0NZD94","A3ITZNJQUTIZ4C","3ECKRY5B1QIH1N6NFX1ECCW5ZDKIZQ","","900.1000000238419","img/flower3.png","74","901.6000000238419","1","1","3","1","1,0.333,0.333,0.333,1,0.333,0.333,0.333,1","1,0.333,0.333,0.333,1,0.333,0.333,0.333,1","1",""
"","html-keyboard-response","59","113460","0.0-59.0","3E7TUJ2EGD8N956IANB6XAAN0NZD94","A3ITZNJQUTIZ4C","3ECKRY5B1QIH1N6NFX1ECCW5ZDKIZQ","","null","<img src=""img/flower3.png"" style=""width:200px; border:14px solid green;"">","null","","","","","","","","",""
"","image-keyboard-response","60","114031","0.0-60.0","3E7TUJ2EGD8N956IANB6XAAN0NZD94","A3ITZNJQUTIZ4C","3ECKRY5B1QIH1N6NFX1ECCW5ZDKIZQ","","569.3000000119209","img/flower2.png","75","570.3999999761581","2","1","2","1","1,0.333,0.333,0.333,1,0.333,0.333,0.333,1","1,0.333,0.333,0.333,1,0.333,0.333,0.333,1","1",""
"","html-keyboard-response","61","114341","0.0-61.0","3E7TUJ2EGD8N956IANB6XAAN0NZD94","A3ITZNJQUTIZ4C","3ECKRY5B1QIH1N6NFX1ECCW5ZDKIZQ","","null","<img src=""img/flower2.png"" style=""width:200px; border:14px solid green;"">","null","","","","","","","","",""
"","image-keyboard-response","62","114837","0.0-62.0","3E7TUJ2EGD8N956IANB6XAAN0NZD94","A3ITZNJQUTIZ4C","3ECKRY5B1QIH1N6NFX1ECCW5ZDKIZQ","","495.39999997615814","img/flower2.png","75","496.69999998807907","2","1","2","1","1,0.333,0.333,0.333,1,0.333,0.333,0.333,1","1,0.333,0.333,0.333,1,0.333,0.333,0.333,1","1",""
"","html-keyboard-response","63","115153","0.0-63.0","3E7TUJ2EGD8N956IANB6XAAN0NZD94","A3ITZNJQUTIZ4C","3ECKRY5B1QIH1N6NFX1ECCW5ZDKIZQ","","null","<img src=""img/flower2.png"" style=""width:200px; border:14px solid green;"">","null","","","","","","","","",""
"","image-keyboard-response","64","115597","0.0-64.0","3E7TUJ2EGD8N956IANB6XAAN0NZD94","A3ITZNJQUTIZ4C","3ECKRY5B1QIH1N6NFX1ECCW5ZDKIZQ","","440","img/flower2.png","75","443.30000001192093","2","1","2","1","1,0.333,0.333,0.333,1,0.333,0.333,0.333,1","1,0.333,0.333,0.333,1,0.333,0.333,0.333,1","1",""
"","html-keyboard-response","65","115901","0.0-65.0","3E7TUJ2EGD8N956IANB6XAAN0NZD94","A3ITZNJQUTIZ4C","3ECKRY5B1QIH1N6NFX1ECCW5ZDKIZQ","","null","<img src=""img/flower2.png"" style=""width:200px; border:14px solid green;"">","null","","","","","","","","",""
"","image-keyboard-response","66","116892","0.0-66.0","3E7TUJ2EGD8N956IANB6XAAN0NZD94","A3ITZNJQUTIZ4C","3ECKRY5B1QIH1N6NFX1ECCW5ZDKIZQ","","987.6999999880791","img/flower3.png","74","991.1999999880791","1","0","3","1","1,0.333,0.333,0.333,1,0.333,0.333,0.333,1","1,0.333,0.333,0.333,1,0.333,0.333,0.333,1","1",""
"","html-keyboard-response","67","117205","0.0-67.0","3E7TUJ2EGD8N956IANB6XAAN0NZD94","A3ITZNJQUTIZ4C","3ECKRY5B1QIH1N6NFX1ECCW5ZDKIZQ","","null","<img src=""img/flower3.png"" style=""width:200px;border:14px solid red;"">","null","","","","","","","","",""
"","image-keyboard-response","68","117706","0.0-68.0","3E7TUJ2EGD8N956IANB6XAAN0NZD94","A3ITZNJQUTIZ4C","3ECKRY5B1QIH1N6NFX1ECCW5ZDKIZQ","","499.30000001192093","img/flower3.png","74","500.30000001192093","1","1","3","1","1,0.333,0.333,0.333,1,0.333,0.333,0.333,1","1,0.333,0.333,0.333,1,0.333,0.333,0.333,1","1",""
"","html-keyboard-response","69","118013","0.0-69.0","3E7TUJ2EGD8N956IANB6XAAN0NZD94","A3ITZNJQUTIZ4C","3ECKRY5B1QIH1N6NFX1ECCW5ZDKIZQ","","null","<img src=""img/flower3.png"" style=""width:200px; border:14px solid green;"">","null","","","","","","","","",""
"","image-keyboard-response","70","118347","0.0-70.0","3E7TUJ2EGD8N956IANB6XAAN0NZD94","A3ITZNJQUTIZ4C","3ECKRY5B1QIH1N6NFX1ECCW5ZDKIZQ","","331.9000000357628","img/flower3.png","74","333.19999998807907","1","1","3","1","1,0.333,0.333,0.333,1,0.333,0.333,0.333,1","1,0.333,0.333,0.333,1,0.333,0.333,0.333,1","1",""
"","html-keyboard-response","71","118649","0.0-71.0","3E7TUJ2EGD8N956IANB6XAAN0NZD94","A3ITZNJQUTIZ4C","3ECKRY5B1QIH1N6NFX1ECCW5ZDKIZQ","","null","<img src=""img/flower3.png"" style=""width:200px; border:14px solid green;"">","null","","","","","","","","",""
"","image-keyboard-response","72","119303","0.0-72.0","3E7TUJ2EGD8N956IANB6XAAN0NZD94","A3ITZNJQUTIZ4C","3ECKRY5B1QIH1N6NFX1ECCW5ZDKIZQ","","653.0999999642372","img/flower2.png","75","654.4000000357628","2","1","2","1","1,0.333,0.333,0.333,1,0.333,0.333,0.333,1","1,0.333,0.333,0.333,1,0.333,0.333,0.333,1","1",""
"","html-keyboard-response","73","119609","0.0-73.0","3E7TUJ2EGD8N956IANB6XAAN0NZD94","A3ITZNJQUTIZ4C","3ECKRY5B1QIH1N6NFX1ECCW5ZDKIZQ","","null","<img src=""img/flower2.png"" style=""width:200px; border:14px solid green;"">","null","","","","","","","","",""
"","image-keyboard-response","74","120148","0.0-74.0","3E7TUJ2EGD8N956IANB6XAAN0NZD94","A3ITZNJQUTIZ4C","3ECKRY5B1QIH1N6NFX1ECCW5ZDKIZQ","","537.5","img/flower4.png","76","538.4000000357628","3","0","1","1","1,0.333,0.333,0.333,1,0.333,0.333,0.333,1","1,0.333,0.333,0.333,1,0.333,0.333,0.333,1","1",""
"","html-keyboard-response","75","120459","0.0-75.0","3E7TUJ2EGD8N956IANB6XAAN0NZD94","A3ITZNJQUTIZ4C","3ECKRY5B1QIH1N6NFX1ECCW5ZDKIZQ","","null","<img src=""img/flower4.png"" style=""width:200px;border:14px solid red;"">","null","","","","","","","","",""
"","image-keyboard-response","76","121423","0.0-76.0","3E7TUJ2EGD8N956IANB6XAAN0NZD94","A3ITZNJQUTIZ4C","3ECKRY5B1QIH1N6NFX1ECCW5ZDKIZQ","","961.9000000357628","img/flower3.png","74","963.1999999880791","1","0","3","1","1,0.333,0.333,0.333,1,0.333,0.333,0.333,1","1,0.333,0.333,0.333,1,0.333,0.333,0.333,1","1",""
"","html-keyboard-response","77","121725","0.0-77.0","3E7TUJ2EGD8N956IANB6XAAN0NZD94","A3ITZNJQUTIZ4C","3ECKRY5B1QIH1N6NFX1ECCW5ZDKIZQ","","null","<img src=""img/flower3.png"" style=""width:200px;border:14px solid red;"">","null","","","","","","","","",""
"","image-keyboard-response","78","122705","0.0-78.0","3E7TUJ2EGD8N956IANB6XAAN0NZD94","A3ITZNJQUTIZ4C","3ECKRY5B1QIH1N6NFX1ECCW5ZDKIZQ","","978.8999999761581","img/flower4.png","76","979.9000000357628","3","1","1","1","1,0.333,0.333,0.333,1,0.333,0.333,0.333,1","1,0.333,0.333,0.333,1,0.333,0.333,0.333,1","1",""
"","html-keyboard-response","79","123009","0.0-79.0","3E7TUJ2EGD8N956IANB6XAAN0NZD94","A3ITZNJQUTIZ4C","3ECKRY5B1QIH1N6NFX1ECCW5ZDKIZQ","","null","<img src=""img/flower4.png"" style=""width:200px; border:14px solid green;"">","null","","","","","","","","",""
"","image-keyboard-response","80","123462","0.0-80.0","3E7TUJ2EGD8N956IANB6XAAN0NZD94","A3ITZNJQUTIZ4C","3ECKRY5B1QIH1N6NFX1ECCW5ZDKIZQ","","451.5999999642372","img/flower4.png","76","453","3","1","1","1","1,0.333,0.333,0.333,1,0.333,0.333,0.333,1","1,0.333,0.333,0.333,1,0.333,0.333,0.333,1","1",""
"","html-keyboard-response","81","123771","0.0-81.0","3E7TUJ2EGD8N956IANB6XAAN0NZD94","A3ITZNJQUTIZ4C","3ECKRY5B1QIH1N6NFX1ECCW5ZDKIZQ","","null","<img src=""img/flower4.png"" style=""width:200px; border:14px solid green;"">","null","","","","","","","","",""
"","image-keyboard-response","82","124571","0.0-82.0","3E7TUJ2EGD8N956IANB6XAAN0NZD94","A3ITZNJQUTIZ4C","3ECKRY5B1QIH1N6NFX1ECCW5ZDKIZQ","","798.6000000238419","img/flower3.png","74","799.8000000119209","1","1","3","1","1,0.333,0.333,0.333,1,0.333,0.333,0.333,1","1,0.333,0.333,0.333,1,0.333,0.333,0.333,1","1",""
"","html-keyboard-response","83","124876","0.0-83.0","3E7TUJ2EGD8N956IANB6XAAN0NZD94","A3ITZNJQUTIZ4C","3ECKRY5B1QIH1N6NFX1ECCW5ZDKIZQ","","null","<img src=""img/flower3.png"" style=""width:200px; border:14px solid green;"">","null","","","","","","","","",""
"","image-keyboard-response","84","125330","0.0-84.0","3E7TUJ2EGD8N956IANB6XAAN0NZD94","A3ITZNJQUTIZ4C","3ECKRY5B1QIH1N6NFX1ECCW5ZDKIZQ","","452.5","img/flower3.png","74","453.80000001192093","1","1","3","1","1,0.333,0.333,0.333,1,0.333,0.333,0.333,1","1,0.333,0.333,0.333,1,0.333,0.333,0.333,1","1",""
"","html-keyboard-response","85","125638","0.0-85.0","3E7TUJ2EGD8N956IANB6XAAN0NZD94","A3ITZNJQUTIZ4C","3ECKRY5B1QIH1N6NFX1ECCW5ZDKIZQ","","null","<img src=""img/flower3.png"" style=""width:200px; border:14px solid green;"">","null","","","","","","","","",""
"","image-keyboard-response","86","126802","0.0-86.0","3E7TUJ2EGD8N956IANB6XAAN0NZD94","A3ITZNJQUTIZ4C","3ECKRY5B1QIH1N6NFX1ECCW5ZDKIZQ","","1162.1000000238419","img/flower4.png","76","1163.4000000357628","3","0","1","1","1,0.333,0.333,0.333,1,0.333,0.333,0.333,1","1,0.333,0.333,0.333,1,0.333,0.333,0.333,1","1",""
"","html-keyboard-response","87","127112","0.0-87.0","3E7TUJ2EGD8N956IANB6XAAN0NZD94","A3ITZNJQUTIZ4C","3ECKRY5B1QIH1N6NFX1ECCW5ZDKIZQ","","null","<img src=""img/flower4.png"" style=""width:200px;border:14px solid red;"">","null","","","","","","","","",""
"","image-keyboard-response","88","127548","0.0-88.0","3E7TUJ2EGD8N956IANB6XAAN0NZD94","A3ITZNJQUTIZ4C","3ECKRY5B1QIH1N6NFX1ECCW5ZDKIZQ","","434.5","img/flower4.png","76","436.0999999642372","3","1","1","1","1,0.333,0.333,0.333,1,0.333,0.333,0.333,1","1,0.333,0.333,0.333,1,0.333,0.333,0.333,1","1",""
"","html-keyboard-response","89","127858","0.0-89.0","3E7TUJ2EGD8N956IANB6XAAN0NZD94","A3ITZNJQUTIZ4C","3ECKRY5B1QIH1N6NFX1ECCW5ZDKIZQ","","null","<img src=""img/flower4.png"" style=""width:200px; border:14px solid green;"">","null","","","","","","","","",""
"","image-keyboard-response","90","128500","0.0-90.0","3E7TUJ2EGD8N956IANB6XAAN0NZD94","A3ITZNJQUTIZ4C","3ECKRY5B1QIH1N6NFX1ECCW5ZDKIZQ","","641.2999999523163","img/flower2.png","75","642.5","2","1","2","1","1,0.333,0.333,0.333,1,0.333,0.333,0.333,1","1,0.333,0.333,0.333,1,0.333,0.333,0.333,1","1",""
"","html-keyboard-response","91","128803","0.0-91.0","3E7TUJ2EGD8N956IANB6XAAN0NZD94","A3ITZNJQUTIZ4C","3ECKRY5B1QIH1N6NFX1ECCW5ZDKIZQ","","null","<img src=""img/flower2.png"" style=""width:200px; border:14px solid green;"">","null","","","","","","","","",""
"","image-keyboard-response","92","129244","0.0-92.0","3E7TUJ2EGD8N956IANB6XAAN0NZD94","A3ITZNJQUTIZ4C","3ECKRY5B1QIH1N6NFX1ECCW5ZDKIZQ","","440.19999998807907","img/flower2.png","75","441.39999997615814","2","1","2","1","1,0.333,0.333,0.333,1,0.333,0.333,0.333,1","1,0.333,0.333,0.333,1,0.333,0.333,0.333,1","1",""
"","html-keyboard-response","93","129551","0.0-93.0","3E7TUJ2EGD8N956IANB6XAAN0NZD94","A3ITZNJQUTIZ4C","3ECKRY5B1QIH1N6NFX1ECCW5ZDKIZQ","","null","<img src=""img/flower2.png"" style=""width:200px; border:14px solid green;"">","null","","","","","","","","",""
"","image-keyboard-response","94","130323","0.0-94.0","3E7TUJ2EGD8N956IANB6XAAN0NZD94","A3ITZNJQUTIZ4C","3ECKRY5B1QIH1N6NFX1ECCW5ZDKIZQ","","769.9000000357628","img/flower3.png","74","771.3999999761581","1","1","3","1","1,0.333,0.333,0.333,1,0.333,0.333,0.333,1","1,0.333,0.333,0.333,1,0.333,0.333,0.333,1","1",""
"","html-keyboard-response","95","130628","0.0-95.0","3E7TUJ2EGD8N956IANB6XAAN0NZD94","A3ITZNJQUTIZ4C","3ECKRY5B1QIH1N6NFX1ECCW5ZDKIZQ","","null","<img src=""img/flower3.png"" style=""width:200px; border:14px solid green;"">","null","","","","","","","","",""
"","image-keyboard-response","96","131553","0.0-96.0","3E7TUJ2EGD8N956IANB6XAAN0NZD94","A3ITZNJQUTIZ4C","3ECKRY5B1QIH1N6NFX1ECCW5ZDKIZQ","","922.5999999642372","img/flower4.png","76","923.9000000357628","3","0","1","1","1,0.333,0.333,0.333,1,0.333,0.333,0.333,1","1,0.333,0.333,0.333,1,0.333,0.333,0.333,1","1",""
"","html-keyboard-response","97","131865","0.0-97.0","3E7TUJ2EGD8N956IANB6XAAN0NZD94","A3ITZNJQUTIZ4C","3ECKRY5B1QIH1N6NFX1ECCW5ZDKIZQ","","null","<img src=""img/flower4.png"" style=""width:200px;border:14px solid red;"">","null","","","","","","","","",""
"","image-keyboard-response","98","132057","0.0-98.0","3E7TUJ2EGD8N956IANB6XAAN0NZD94","A3ITZNJQUTIZ4C","3ECKRY5B1QIH1N6NFX1ECCW5ZDKIZQ","","191","img/flower2.png","76","192","3","1","2","1","1,0.333,0.333,0.333,1,0.333,0.333,0.333,1","1,0.333,0.333,0.333,1,0.333,0.333,0.333,1","1",""
"","html-keyboard-response","99","132363","0.0-99.0","3E7TUJ2EGD8N956IANB6XAAN0NZD94","A3ITZNJQUTIZ4C","3ECKRY5B1QIH1N6NFX1ECCW5ZDKIZQ","","null","<img src=""img/flower2.png"" style=""width:200px; border:14px solid green;"">","null","","","","","","","","",""
"","image-keyboard-response","100","132750","0.0-100.0","3E7TUJ2EGD8N956IANB6XAAN0NZD94","A3ITZNJQUTIZ4C","3ECKRY5B1QIH1N6NFX1ECCW5ZDKIZQ","","386.39999997615814","img/flower4.png","75","387.19999998807907","2","0","1","1","1,0.333,0.333,0.333,1,0.333,0.333,0.333,1","1,0.333,0.333,0.333,1,0.333,0.333,0.333,1","1",""
"","html-keyboard-response","101","133059","0.0-101.0","3E7TUJ2EGD8N956IANB6XAAN0NZD94","A3ITZNJQUTIZ4C","3ECKRY5B1QIH1N6NFX1ECCW5ZDKIZQ","","null","<img src=""img/flower4.png"" style=""width:200px;border:14px solid red;"">","null","","","","","","","","",""
"","image-keyboard-response","102","134595","0.0-102.0","3E7TUJ2EGD8N956IANB6XAAN0NZD94","A3ITZNJQUTIZ4C","3ECKRY5B1QIH1N6NFX1ECCW5ZDKIZQ","","1534.5","img/flower4.png","76","1535.699999988079","3","0","1","1","1,0.333,0.333,0.333,1,0.333,0.333,0.333,1","1,0.333,0.333,0.333,1,0.333,0.333,0.333,1","1",""
"","html-keyboard-response","103","134898","0.0-103.0","3E7TUJ2EGD8N956IANB6XAAN0NZD94","A3ITZNJQUTIZ4C","3ECKRY5B1QIH1N6NFX1ECCW5ZDKIZQ","","null","<img src=""img/flower4.png"" style=""width:200px;border:14px solid red;"">","null","","","","","","","","",""
"","image-keyboard-response","104","135852","0.0-104.0","3E7TUJ2EGD8N956IANB6XAAN0NZD94","A3ITZNJQUTIZ4C","3ECKRY5B1QIH1N6NFX1ECCW5ZDKIZQ","","952.3000000119209","img/flower2.png","75","953.6999999880791","2","1","2","1","1,0.333,0.333,0.333,1,0.333,0.333,0.333,1","1,0.333,0.333,0.333,1,0.333,0.333,0.333,1","1",""
"","html-keyboard-response","105","136159","0.0-105.0","3E7TUJ2EGD8N956IANB6XAAN0NZD94","A3ITZNJQUTIZ4C","3ECKRY5B1QIH1N6NFX1ECCW5ZDKIZQ","","null","<img src=""img/flower2.png"" style=""width:200px; border:14px solid green;"">","null","","","","","","","","",""
"","image-keyboard-response","106","136991","0.0-106.0","3E7TUJ2EGD8N956IANB6XAAN0NZD94","A3ITZNJQUTIZ4C","3ECKRY5B1QIH1N6NFX1ECCW5ZDKIZQ","","830.3999999761581","img/flower4.png","76","831.6999999880791","3","1","1","1","1,0.333,0.333,0.333,1,0.333,0.333,0.333,1","1,0.333,0.333,0.333,1,0.333,0.333,0.333,1","1",""
"","html-keyboard-response","107","137296","0.0-107.0","3E7TUJ2EGD8N956IANB6XAAN0NZD94","A3ITZNJQUTIZ4C","3ECKRY5B1QIH1N6NFX1ECCW5ZDKIZQ","","null","<img src=""img/flower4.png"" style=""width:200px; border:14px solid green;"">","null","","","","","","","","",""
"","image-keyboard-response","108","138005","0.0-108.0","3E7TUJ2EGD8N956IANB6XAAN0NZD94","A3ITZNJQUTIZ4C","3ECKRY5B1QIH1N6NFX1ECCW5ZDKIZQ","","707.4000000357628","img/flower2.png","75","708.6999999880791","2","1","2","1","1,0.333,0.333,0.333,1,0.333,0.333,0.333,1","1,0.333,0.333,0.333,1,0.333,0.333,0.333,1","1",""
"","html-keyboard-response","109","138311","0.0-109.0","3E7TUJ2EGD8N956IANB6XAAN0NZD94","A3ITZNJQUTIZ4C","3ECKRY5B1QIH1N6NFX1ECCW5ZDKIZQ","","null","<img src=""img/flower2.png"" style=""width:200px; border:14px solid green;"">","null","","","","","","","","",""
"","image-keyboard-response","110","139230","0.0-110.0","3E7TUJ2EGD8N956IANB6XAAN0NZD94","A3ITZNJQUTIZ4C","3ECKRY5B1QIH1N6NFX1ECCW5ZDKIZQ","","918.4000000357628","img/flower3.png","74","919.1999999880791","1","1","3","1","1,0.333,0.333,0.333,1,0.333,0.333,0.333,1","1,0.333,0.333,0.333,1,0.333,0.333,0.333,1","1",""
"","html-keyboard-response","111","139542","0.0-111.0","3E7TUJ2EGD8N956IANB6XAAN0NZD94","A3ITZNJQUTIZ4C","3ECKRY5B1QIH1N6NFX1ECCW5ZDKIZQ","","null","<img src=""img/flower3.png"" style=""width:200px; border:14px solid green;"">","null","","","","","","","","",""
"","image-keyboard-response","112","140560","0.0-112.0","3E7TUJ2EGD8N956IANB6XAAN0NZD94","A3ITZNJQUTIZ4C","3ECKRY5B1QIH1N6NFX1ECCW5ZDKIZQ","","1017.5","img/flower4.png","76","1018.4000000357628","3","1","1","1","1,0.333,0.333,0.333,1,0.333,0.333,0.333,1","1,0.333,0.333,0.333,1,0.333,0.333,0.333,1","1",""
"","html-keyboard-response","113","140875","0.0-113.0","3E7TUJ2EGD8N956IANB6XAAN0NZD94","A3ITZNJQUTIZ4C","3ECKRY5B1QIH1N6NFX1ECCW5ZDKIZQ","","null","<img src=""img/flower4.png"" style=""width:200px; border:14px solid green;"">","null","","","","","","","","",""
"","image-keyboard-response","114","141426","0.0-114.0","3E7TUJ2EGD8N956IANB6XAAN0NZD94","A3ITZNJQUTIZ4C","3ECKRY5B1QIH1N6NFX1ECCW5ZDKIZQ","","548.4000000357628","img/flower4.png","76","549.8999999761581","3","1","1","1","1,0.333,0.333,0.333,1,0.333,0.333,0.333,1","1,0.333,0.333,0.333,1,0.333,0.333,0.333,1","1",""
"","html-keyboard-response","115","141734","0.0-115.0","3E7TUJ2EGD8N956IANB6XAAN0NZD94","A3ITZNJQUTIZ4C","3ECKRY5B1QIH1N6NFX1ECCW5ZDKIZQ","","null","<img src=""img/flower4.png"" style=""width:200px; border:14px solid green;"">","null","","","","","","","","",""
"","image-keyboard-response","116","142315","0.0-116.0","3E7TUJ2EGD8N956IANB6XAAN0NZD94","A3ITZNJQUTIZ4C","3ECKRY5B1QIH1N6NFX1ECCW5ZDKIZQ","","579.5","img/flower2.png","75","581.1000000238419","2","1","2","1","1,0.333,0.333,0.333,1,0.333,0.333,0.333,1","1,0.333,0.333,0.333,1,0.333,0.333,0.333,1","1",""
"","html-keyboard-response","117","142619","0.0-117.0","3E7TUJ2EGD8N956IANB6XAAN0NZD94","A3ITZNJQUTIZ4C","3ECKRY5B1QIH1N6NFX1ECCW5ZDKIZQ","","null","<img src=""img/flower2.png"" style=""width:200px; border:14px solid green;"">","null","","","","","","","","",""
"","image-keyboard-response","118","143601","0.0-118.0","3E7TUJ2EGD8N956IANB6XAAN0NZD94","A3ITZNJQUTIZ4C","3ECKRY5B1QIH1N6NFX1ECCW5ZDKIZQ","","980.4000000357628","img/flower4.png","76","981.6999999880791","3","0","1","1","1,0.333,0.333,0.333,1,0.333,0.333,0.333,1","1,0.333,0.333,0.333,1,0.333,0.333,0.333,1","1",""
"","html-keyboard-response","119","143909","0.0-119.0","3E7TUJ2EGD8N956IANB6XAAN0NZD94","A3ITZNJQUTIZ4C","3ECKRY5B1QIH1N6NFX1ECCW5ZDKIZQ","","null","<img src=""img/flower4.png"" style=""width:200px;border:14px solid red;"">","null","","","","","","","","",""
"","image-keyboard-response","120","144648","0.0-120.0","3E7TUJ2EGD8N956IANB6XAAN0NZD94","A3ITZNJQUTIZ4C","3ECKRY5B1QIH1N6NFX1ECCW5ZDKIZQ","","736.6999999880791","img/flower2.png","75","738.1999999880791","2","1","2","1","1,0.333,0.333,0.333,1,0.333,0.333,0.333,1","1,0.333,0.333,0.333,1,0.333,0.333,0.333,1","1",""
"","html-keyboard-response","121","144949","0.0-121.0","3E7TUJ2EGD8N956IANB6XAAN0NZD94","A3ITZNJQUTIZ4C","3ECKRY5B1QIH1N6NFX1ECCW5ZDKIZQ","","null","<img src=""img/flower2.png"" style=""width:200px; border:14px solid green;"">","null","","","","","","","","",""
"","image-keyboard-response","122","145798","0.0-122.0","3E7TUJ2EGD8N956IANB6XAAN0NZD94","A3ITZNJQUTIZ4C","3ECKRY5B1QIH1N6NFX1ECCW5ZDKIZQ","","847","img/flower4.png","75","848.1999999880791","2","0","1","1","1,0.333,0.333,0.333,1,0.333,0.333,0.333,1","1,0.333,0.333,0.333,1,0.333,0.333,0.333,1","1",""
"","html-keyboard-response","123","146113","0.0-123.0","3E7TUJ2EGD8N956IANB6XAAN0NZD94","A3ITZNJQUTIZ4C","3ECKRY5B1QIH1N6NFX1ECCW5ZDKIZQ","","null","<img src=""img/flower4.png"" style=""width:200px;border:14px solid red;"">","null","","","","","","","","",""
"","image-keyboard-response","124","147616","0.0-124.0","3E7TUJ2EGD8N956IANB6XAAN0NZD94","A3ITZNJQUTIZ4C","3ECKRY5B1QIH1N6NFX1ECCW5ZDKIZQ","","1502","img/flower3.png","74","1503.1000000238419","1","1","3","1","1,0.333,0.333,0.333,1,0.333,0.333,0.333,1","1,0.333,0.333,0.333,1,0.333,0.333,0.333,1","1",""
"","html-keyboard-response","125","147923","0.0-125.0","3E7TUJ2EGD8N956IANB6XAAN0NZD94","A3ITZNJQUTIZ4C","3ECKRY5B1QIH1N6NFX1ECCW5ZDKIZQ","","null","<img src=""img/flower3.png"" style=""width:200px; border:14px solid green;"">","null","","","","","","","","",""
"","image-keyboard-response","126","148969","0.0-126.0","3E7TUJ2EGD8N956IANB6XAAN0NZD94","A3ITZNJQUTIZ4C","3ECKRY5B1QIH1N6NFX1ECCW5ZDKIZQ","","1044.4000000357628","img/flower4.png","76","1045.800000011921","3","0","1","1","1,0.333,0.333,0.333,1,0.333,0.333,0.333,1","1,0.333,0.333,0.333,1,0.333,0.333,0.333,1","1",""
"","html-keyboard-response","127","149279","0.0-127.0","3E7TUJ2EGD8N956IANB6XAAN0NZD94","A3ITZNJQUTIZ4C","3ECKRY5B1QIH1N6NFX1ECCW5ZDKIZQ","","null","<img src=""img/flower4.png"" style=""width:200px;border:14px solid red;"">","null","","","","","","","","",""
"","image-keyboard-response","128","149748","0.0-128.0","3E7TUJ2EGD8N956IANB6XAAN0NZD94","A3ITZNJQUTIZ4C","3ECKRY5B1QIH1N6NFX1ECCW5ZDKIZQ","","466.5","img/flower4.png","76","468.19999998807907","3","1","1","1","1,0.333,0.333,0.333,1,0.333,0.333,0.333,1","1,0.333,0.333,0.333,1,0.333,0.333,0.333,1","1",""
"","html-keyboard-response","129","150062","0.0-129.0","3E7TUJ2EGD8N956IANB6XAAN0NZD94","A3ITZNJQUTIZ4C","3ECKRY5B1QIH1N6NFX1ECCW5ZDKIZQ","","null","<img src=""img/flower4.png"" style=""width:200px; border:14px solid green;"">","null","","","","","","","","",""
"","image-keyboard-response","130","150865","0.0-130.0","3E7TUJ2EGD8N956IANB6XAAN0NZD94","A3ITZNJQUTIZ4C","3ECKRY5B1QIH1N6NFX1ECCW5ZDKIZQ","","802.2999999523163","img/flower3.png","74","803.1999999880791","1","0","3","1","1,0.333,0.333,0.333,1,0.333,0.333,0.333,1","1,0.333,0.333,0.333,1,0.333,0.333,0.333,1","1",""
"","html-keyboard-response","131","151168","0.0-131.0","3E7TUJ2EGD8N956IANB6XAAN0NZD94","A3ITZNJQUTIZ4C","3ECKRY5B1QIH1N6NFX1ECCW5ZDKIZQ","","null","<img src=""img/flower3.png"" style=""width:200px;border:14px solid red;"">","null","","","","","","","","",""
"","image-keyboard-response","132","151801","0.0-132.0","3E7TUJ2EGD8N956IANB6XAAN0NZD94","A3ITZNJQUTIZ4C","3ECKRY5B1QIH1N6NFX1ECCW5ZDKIZQ","","631","img/flower2.png","75","632.1999999880791","2","1","2","1","1,0.333,0.333,0.333,1,0.333,0.333,0.333,1","1,0.333,0.333,0.333,1,0.333,0.333,0.333,1","1",""
"","html-keyboard-response","133","152106","0.0-133.0","3E7TUJ2EGD8N956IANB6XAAN0NZD94","A3ITZNJQUTIZ4C","3ECKRY5B1QIH1N6NFX1ECCW5ZDKIZQ","","null","<img src=""img/flower2.png"" style=""width:200px; border:14px solid green;"">","null","","","","","","","","",""
"","image-keyboard-response","134","153169","0.0-134.0","3E7TUJ2EGD8N956IANB6XAAN0NZD94","A3ITZNJQUTIZ4C","3ECKRY5B1QIH1N6NFX1ECCW5ZDKIZQ","","1061.300000011921","img/flower3.png","74","1062.5","1","1","3","1","1,0.333,0.333,0.333,1,0.333,0.333,0.333,1","1,0.333,0.333,0.333,1,0.333,0.333,0.333,1","1",""
"","html-keyboard-response","135","153482","0.0-135.0","3E7TUJ2EGD8N956IANB6XAAN0NZD94","A3ITZNJQUTIZ4C","3ECKRY5B1QIH1N6NFX1ECCW5ZDKIZQ","","null","<img src=""img/flower3.png"" style=""width:200px; border:14px solid green;"">","null","","","","","","","","",""
"","image-keyboard-response","136","153989","0.0-136.0","3E7TUJ2EGD8N956IANB6XAAN0NZD94","A3ITZNJQUTIZ4C","3ECKRY5B1QIH1N6NFX1ECCW5ZDKIZQ","","504.89999997615814","img/flower3.png","74","506.10000002384186","1","0","3","1","1,0.333,0.333,0.333,1,0.333,0.333,0.333,1","1,0.333,0.333,0.333,1,0.333,0.333,0.333,1","1",""
"","html-keyboard-response","137","154293","0.0-137.0","3E7TUJ2EGD8N956IANB6XAAN0NZD94","A3ITZNJQUTIZ4C","3ECKRY5B1QIH1N6NFX1ECCW5ZDKIZQ","","null","<img src=""img/flower3.png"" style=""width:200px;border:14px solid red;"">","null","","","","","","","","",""
"","image-keyboard-response","138","154919","0.0-138.0","3E7TUJ2EGD8N956IANB6XAAN0NZD94","A3ITZNJQUTIZ4C","3ECKRY5B1QIH1N6NFX1ECCW5ZDKIZQ","","624.6000000238419","img/flower2.png","75","625.5999999642372","2","1","2","1","1,0.333,0.333,0.333,1,0.333,0.333,0.333,1","1,0.333,0.333,0.333,1,0.333,0.333,0.333,1","1",""
"","html-keyboard-response","139","155227","0.0-139.0","3E7TUJ2EGD8N956IANB6XAAN0NZD94","A3ITZNJQUTIZ4C","3ECKRY5B1QIH1N6NFX1ECCW5ZDKIZQ","","null","<img src=""img/flower2.png"" style=""width:200px; border:14px solid green;"">","null","","","","","","","","",""
"","image-keyboard-response","140","155994","0.0-140.0","3E7TUJ2EGD8N956IANB6XAAN0NZD94","A3ITZNJQUTIZ4C","3ECKRY5B1QIH1N6NFX1ECCW5ZDKIZQ","","765.5","img/flower3.png","74","766.8000000119209","1","0","3","1","1,0.333,0.333,0.333,1,0.333,0.333,0.333,1","1,0.333,0.333,0.333,1,0.333,0.333,0.333,1","1",""
"","html-keyboard-response","141","156297","0.0-141.0","3E7TUJ2EGD8N956IANB6XAAN0NZD94","A3ITZNJQUTIZ4C","3ECKRY5B1QIH1N6NFX1ECCW5ZDKIZQ","","null","<img src=""img/flower3.png"" style=""width:200px;border:14px solid red;"">","null","","","","","","","","",""
"","image-keyboard-response","142","156920","0.0-142.0","3E7TUJ2EGD8N956IANB6XAAN0NZD94","A3ITZNJQUTIZ4C","3ECKRY5B1QIH1N6NFX1ECCW5ZDKIZQ","","621.5","img/flower2.png","75","623","2","1","2","1","1,0.333,0.333,0.333,1,0.333,0.333,0.333,1","1,0.333,0.333,0.333,1,0.333,0.333,0.333,1","1",""
"","html-keyboard-response","143","157233","0.0-143.0","3E7TUJ2EGD8N956IANB6XAAN0NZD94","A3ITZNJQUTIZ4C","3ECKRY5B1QIH1N6NFX1ECCW5ZDKIZQ","","null","<img src=""img/flower2.png"" style=""width:200px; border:14px solid green;"">","null","","","","","","","","",""
"","image-keyboard-response","144","158041","0.0-144.0","3E7TUJ2EGD8N956IANB6XAAN0NZD94","A3ITZNJQUTIZ4C","3ECKRY5B1QIH1N6NFX1ECCW5ZDKIZQ","","806.3000000119209","img/flower4.png","76","807.5999999642372","3","0","1","1","1,0.333,0.333,0.333,1,0.333,0.333,0.333,1","1,0.333,0.333,0.333,1,0.333,0.333,0.333,1","1",""
"","html-keyboard-response","145","158353","0.0-145.0","3E7TUJ2EGD8N956IANB6XAAN0NZD94","A3ITZNJQUTIZ4C","3ECKRY5B1QIH1N6NFX1ECCW5ZDKIZQ","","null","<img src=""img/flower4.png"" style=""width:200px;border:14px solid red;"">","null","","","","","","","","",""
"","image-keyboard-response","146","159008","0.0-146.0","3E7TUJ2EGD8N956IANB6XAAN0NZD94","A3ITZNJQUTIZ4C","3ECKRY5B1QIH1N6NFX1ECCW5ZDKIZQ","","654","img/flower2.png","75","655","2","1","2","1","1,0.333,0.333,0.333,1,0.333,0.333,0.333,1","1,0.333,0.333,0.333,1,0.333,0.333,0.333,1","1",""
"","html-keyboard-response","147","159315","0.0-147.0","3E7TUJ2EGD8N956IANB6XAAN0NZD94","A3ITZNJQUTIZ4C","3ECKRY5B1QIH1N6NFX1ECCW5ZDKIZQ","","null","<img src=""img/flower2.png"" style=""width:200px; border:14px solid green;"">","null","","","","","","","","",""
"","image-keyboard-response","148","160260","0.0-148.0","3E7TUJ2EGD8N956IANB6XAAN0NZD94","A3ITZNJQUTIZ4C","3ECKRY5B1QIH1N6NFX1ECCW5ZDKIZQ","","943.5","img/flower3.png","74","945","1","0","3","1","1,0.333,0.333,0.333,1,0.333,0.333,0.333,1","1,0.333,0.333,0.333,1,0.333,0.333,0.333,1","1",""
"","html-keyboard-response","149","160567","0.0-149.0","3E7TUJ2EGD8N956IANB6XAAN0NZD94","A3ITZNJQUTIZ4C","3ECKRY5B1QIH1N6NFX1ECCW5ZDKIZQ","","null","<img src=""img/flower3.png"" style=""width:200px;border:14px solid red;"">","null","","","","","","","","",""
"","image-keyboard-response","150","161197","0.0-150.0","3E7TUJ2EGD8N956IANB6XAAN0NZD94","A3ITZNJQUTIZ4C","3ECKRY5B1QIH1N6NFX1ECCW5ZDKIZQ","","629.1999999880791","img/flower3.png","74","630.5","1","0","3","1","1,0.333,0.333,0.333,1,0.333,0.333,0.333,1","1,0.333,0.333,0.333,1,0.333,0.333,0.333,1","1",""
"","html-keyboard-response","151","161505","0.0-151.0","3E7TUJ2EGD8N956IANB6XAAN0NZD94","A3ITZNJQUTIZ4C","3ECKRY5B1QIH1N6NFX1ECCW5ZDKIZQ","","null","<img src=""img/flower3.png"" style=""width:200px;border:14px solid red;"">","null","","","","","","","","",""
"","image-keyboard-response","152","162065","0.0-152.0","3E7TUJ2EGD8N956IANB6XAAN0NZD94","A3ITZNJQUTIZ4C","3ECKRY5B1QIH1N6NFX1ECCW5ZDKIZQ","","558.8000000119209","img/flower2.png","75","560.4000000357628","2","1","2","1","1,0.333,0.333,0.333,1,0.333,0.333,0.333,1","1,0.333,0.333,0.333,1,0.333,0.333,0.333,1","1",""
"","html-keyboard-response","153","162368","0.0-153.0","3E7TUJ2EGD8N956IANB6XAAN0NZD94","A3ITZNJQUTIZ4C","3ECKRY5B1QIH1N6NFX1ECCW5ZDKIZQ","","null","<img src=""img/flower2.png"" style=""width:200px; border:14px solid green;"">","null","","","","","","","","",""
"","image-keyboard-response","154","162934","0.0-154.0","3E7TUJ2EGD8N956IANB6XAAN0NZD94","A3ITZNJQUTIZ4C","3ECKRY5B1QIH1N6NFX1ECCW5ZDKIZQ","","564.3000000119209","img/flower2.png","75","565.8999999761581","2","1","2","1","1,0.333,0.333,0.333,1,0.333,0.333,0.333,1","1,0.333,0.333,0.333,1,0.333,0.333,0.333,1","1",""
"","html-keyboard-response","155","163240","0.0-155.0","3E7TUJ2EGD8N956IANB6XAAN0NZD94","A3ITZNJQUTIZ4C","3ECKRY5B1QIH1N6NFX1ECCW5ZDKIZQ","","null","<img src=""img/flower2.png"" style=""width:200px; border:14px solid green;"">","null","","","","","","","","",""
"","image-keyboard-response","156","163993","0.0-156.0","3E7TUJ2EGD8N956IANB6XAAN0NZD94","A3ITZNJQUTIZ4C","3ECKRY5B1QIH1N6NFX1ECCW5ZDKIZQ","","751.7999999523163","img/flower4.png","76","753.1000000238419","3","0","1","1","1,0.333,0.333,0.333,1,0.333,0.333,0.333,1","1,0.333,0.333,0.333,1,0.333,0.333,0.333,1","1",""
"","html-keyboard-response","157","164308","0.0-157.0","3E7TUJ2EGD8N956IANB6XAAN0NZD94","A3ITZNJQUTIZ4C","3ECKRY5B1QIH1N6NFX1ECCW5ZDKIZQ","","null","<img src=""img/flower4.png"" style=""width:200px;border:14px solid red;"">","null","","","","","","","","",""
"","image-keyboard-response","158","165429","0.0-158.0","3E7TUJ2EGD8N956IANB6XAAN0NZD94","A3ITZNJQUTIZ4C","3ECKRY5B1QIH1N6NFX1ECCW5ZDKIZQ","","1120","img/flower3.png","74","1120.9000000357628","1","0","3","1","1,0.333,0.333,0.333,1,0.333,0.333,0.333,1","1,0.333,0.333,0.333,1,0.333,0.333,0.333,1","1",""
"","html-keyboard-response","159","165740","0.0-159.0","3E7TUJ2EGD8N956IANB6XAAN0NZD94","A3ITZNJQUTIZ4C","3ECKRY5B1QIH1N6NFX1ECCW5ZDKIZQ","","null","<img src=""img/flower3.png"" style=""width:200px;border:14px solid red;"">","null","","","","","","","","",""
"","image-keyboard-response","160","166325","0.0-160.0","3E7TUJ2EGD8N956IANB6XAAN0NZD94","A3ITZNJQUTIZ4C","3ECKRY5B1QIH1N6NFX1ECCW5ZDKIZQ","","584.1999999880791","img/flower2.png","75","585.3000000119209","2","1","2","1","1,0.333,0.333,0.333,1,0.333,0.333,0.333,1","1,0.333,0.333,0.333,1,0.333,0.333,0.333,1","1",""
"","html-keyboard-response","161","166632","0.0-161.0","3E7TUJ2EGD8N956IANB6XAAN0NZD94","A3ITZNJQUTIZ4C","3ECKRY5B1QIH1N6NFX1ECCW5ZDKIZQ","","null","<img src=""img/flower2.png"" style=""width:200px; border:14px solid green;"">","null","","","","","","","","",""
"","image-keyboard-response","162","167480","0.0-162.0","3E7TUJ2EGD8N956IANB6XAAN0NZD94","A3ITZNJQUTIZ4C","3ECKRY5B1QIH1N6NFX1ECCW5ZDKIZQ","","845.6000000238419","img/flower4.png","76","846.8999999761581","3","0","1","1","1,0.333,0.333,0.333,1,0.333,0.333,0.333,1","1,0.333,0.333,0.333,1,0.333,0.333,0.333,1","1",""
"","html-keyboard-response","163","167782","0.0-163.0","3E7TUJ2EGD8N956IANB6XAAN0NZD94","A3ITZNJQUTIZ4C","3ECKRY5B1QIH1N6NFX1ECCW5ZDKIZQ","","null","<img src=""img/flower4.png"" style=""width:200px;border:14px solid red;"">","null","","","","","","","","",""
"","image-keyboard-response","164","168608","0.0-164.0","3E7TUJ2EGD8N956IANB6XAAN0NZD94","A3ITZNJQUTIZ4C","3ECKRY5B1QIH1N6NFX1ECCW5ZDKIZQ","","824","img/flower4.png","76","825.3000000119209","3","1","1","1","1,0.333,0.333,0.333,1,0.333,0.333,0.333,1","1,0.333,0.333,0.333,1,0.333,0.333,0.333,1","1",""
"","html-keyboard-response","165","168916","0.0-165.0","3E7TUJ2EGD8N956IANB6XAAN0NZD94","A3ITZNJQUTIZ4C","3ECKRY5B1QIH1N6NFX1ECCW5ZDKIZQ","","null","<img src=""img/flower4.png"" style=""width:200px; border:14px solid green;"">","null","","","","","","","","",""
"","image-keyboard-response","166","169768","0.0-166.0","3E7TUJ2EGD8N956IANB6XAAN0NZD94","A3ITZNJQUTIZ4C","3ECKRY5B1QIH1N6NFX1ECCW5ZDKIZQ","","850","img/flower3.png","74","851.3000000119209","1","0","3","1","1,0.333,0.333,0.333,1,0.333,0.333,0.333,1","1,0.333,0.333,0.333,1,0.333,0.333,0.333,1","1",""
"","html-keyboard-response","167","170074","0.0-167.0","3E7TUJ2EGD8N956IANB6XAAN0NZD94","A3ITZNJQUTIZ4C","3ECKRY5B1QIH1N6NFX1ECCW5ZDKIZQ","","null","<img src=""img/flower3.png"" style=""width:200px;border:14px solid red;"">","null","","","","","","","","",""
"","image-keyboard-response","168","170673","0.0-168.0","3E7TUJ2EGD8N956IANB6XAAN0NZD94","A3ITZNJQUTIZ4C","3ECKRY5B1QIH1N6NFX1ECCW5ZDKIZQ","","597.2000000476837","img/flower4.png","75","598.3999999761581","2","0","1","1","1,0.333,0.333,0.333,1,0.333,0.333,0.333,1","1,0.333,0.333,0.333,1,0.333,0.333,0.333,1","1",""
"","html-keyboard-response","169","170976","0.0-169.0","3E7TUJ2EGD8N956IANB6XAAN0NZD94","A3ITZNJQUTIZ4C","3ECKRY5B1QIH1N6NFX1ECCW5ZDKIZQ","","null","<img src=""img/flower4.png"" style=""width:200px;border:14px solid red;"">","null","","","","","","","","",""
"","image-keyboard-response","170","171901","0.0-170.0","3E7TUJ2EGD8N956IANB6XAAN0NZD94","A3ITZNJQUTIZ4C","3ECKRY5B1QIH1N6NFX1ECCW5ZDKIZQ","","924","img/flower3.png","75","925.3000000119209","2","1","3","1","1,0.333,0.333,0.333,1,0.333,0.333,0.333,1","1,0.333,0.333,0.333,1,0.333,0.333,0.333,1","1",""
"","html-keyboard-response","171","172213","0.0-171.0","3E7TUJ2EGD8N956IANB6XAAN0NZD94","A3ITZNJQUTIZ4C","3ECKRY5B1QIH1N6NFX1ECCW5ZDKIZQ","","null","<img src=""img/flower3.png"" style=""width:200px; border:14px solid green;"">","null","","","","","","","","",""
"","image-keyboard-response","172","173651","0.0-172.0","3E7TUJ2EGD8N956IANB6XAAN0NZD94","A3ITZNJQUTIZ4C","3ECKRY5B1QIH1N6NFX1ECCW5ZDKIZQ","","1436.5","img/flower4.png","76","1437.699999988079","3","1","1","1","1,0.333,0.333,0.333,1,0.333,0.333,0.333,1","1,0.333,0.333,0.333,1,0.333,0.333,0.333,1","1",""
"","html-keyboard-response","173","173956","0.0-173.0","3E7TUJ2EGD8N956IANB6XAAN0NZD94","A3ITZNJQUTIZ4C","3ECKRY5B1QIH1N6NFX1ECCW5ZDKIZQ","","null","<img src=""img/flower4.png"" style=""width:200px; border:14px solid green;"">","null","","","","","","","","",""
"","image-keyboard-response","174","174852","0.0-174.0","3E7TUJ2EGD8N956IANB6XAAN0NZD94","A3ITZNJQUTIZ4C","3ECKRY5B1QIH1N6NFX1ECCW5ZDKIZQ","","894.3000000119209","img/flower3.png","75","895","2","0","3","1","1,0.333,0.333,0.333,1,0.333,0.333,0.333,1","1,0.333,0.333,0.333,1,0.333,0.333,0.333,1","1",""
"","html-keyboard-response","175","175157","0.0-175.0","3E7TUJ2EGD8N956IANB6XAAN0NZD94","A3ITZNJQUTIZ4C","3ECKRY5B1QIH1N6NFX1ECCW5ZDKIZQ","","null","<img src=""img/flower3.png"" style=""width:200px;border:14px solid red;"">","null","","","","","","","","",""
"","image-keyboard-response","176","175807","0.0-176.0","3E7TUJ2EGD8N956IANB6XAAN0NZD94","A3ITZNJQUTIZ4C","3ECKRY5B1QIH1N6NFX1ECCW5ZDKIZQ","","647.6000000238419","img/flower4.png","76","649.1000000238419","3","0","1","1","1,0.333,0.333,0.333,1,0.333,0.333,0.333,1","1,0.333,0.333,0.333,1,0.333,0.333,0.333,1","1",""
"","html-keyboard-response","177","176118","0.0-177.0","3E7TUJ2EGD8N956IANB6XAAN0NZD94","A3ITZNJQUTIZ4C","3ECKRY5B1QIH1N6NFX1ECCW5ZDKIZQ","","null","<img src=""img/flower4.png"" style=""width:200px;border:14px solid red;"">","null","","","","","","","","",""
"","image-keyboard-response","178","176801","0.0-178.0","3E7TUJ2EGD8N956IANB6XAAN0NZD94","A3ITZNJQUTIZ4C","3ECKRY5B1QIH1N6NFX1ECCW5ZDKIZQ","","681.3000000119209","img/flower4.png","76","682.6999999880791","3","0","1","1","1,0.333,0.333,0.333,1,0.333,0.333,0.333,1","1,0.333,0.333,0.333,1,0.333,0.333,0.333,1","1",""
"","html-keyboard-response","179","177116","0.0-179.0","3E7TUJ2EGD8N956IANB6XAAN0NZD94","A3ITZNJQUTIZ4C","3ECKRY5B1QIH1N6NFX1ECCW5ZDKIZQ","","null","<img src=""img/flower4.png"" style=""width:200px;border:14px solid red;"">","null","","","","","","","","",""
"","image-keyboard-response","180","177912","0.0-180.0","3E7TUJ2EGD8N956IANB6XAAN0NZD94","A3ITZNJQUTIZ4C","3ECKRY5B1QIH1N6NFX1ECCW5ZDKIZQ","","794.5","img/flower4.png","74","795.6999999880791","1","1","1","1","1,0.333,0.333,0.333,1,0.333,0.333,0.333,1","1,0.333,0.333,0.333,1,0.333,0.333,0.333,1","1",""
"","html-keyboard-response","181","178221","0.0-181.0","3E7TUJ2EGD8N956IANB6XAAN0NZD94","A3ITZNJQUTIZ4C","3ECKRY5B1QIH1N6NFX1ECCW5ZDKIZQ","","null","<img src=""img/flower4.png"" style=""width:200px; border:14px solid green;"">","null","","","","","","","","",""
"","html-keyboard-response","182","185645","0.0-182.0","3E7TUJ2EGD8N956IANB6XAAN0NZD94","A3ITZNJQUTIZ4C","3ECKRY5B1QIH1N6NFX1ECCW5ZDKIZQ","","","","","","","","","","","","",""
"","image-keyboard-response","183","186552","0.0-183.0","3E7TUJ2EGD8N956IANB6XAAN0NZD94","A3ITZNJQUTIZ4C","3ECKRY5B1QIH1N6NFX1ECCW5ZDKIZQ","","905.8999999761581","img/flower5.png","74","907.1999999880791","1","1","2","2","1,0,0,1,1,0,1,0,1","0,0,1,1,0,1,0,1,1","2",""
"","html-keyboard-response","184","186855","0.0-184.0","3E7TUJ2EGD8N956IANB6XAAN0NZD94","A3ITZNJQUTIZ4C","3ECKRY5B1QIH1N6NFX1ECCW5ZDKIZQ","","null","<img src=""img/flower5.png"" style=""width:200px; border:14px solid green;"">","null","","","","","","","","",""
"","image-keyboard-response","185","187446","0.0-185.0","3E7TUJ2EGD8N956IANB6XAAN0NZD94","A3ITZNJQUTIZ4C","3ECKRY5B1QIH1N6NFX1ECCW5ZDKIZQ","","590.1000000238419","img/flower5.png","74","591.6999999880791","1","1","2","2","1,0,0,1,1,0,1,0,1","0,0,1,1,0,1,0,1,1","2",""
"","html-keyboard-response","186","187755","0.0-186.0","3E7TUJ2EGD8N956IANB6XAAN0NZD94","A3ITZNJQUTIZ4C","3ECKRY5B1QIH1N6NFX1ECCW5ZDKIZQ","","null","<img src=""img/flower5.png"" style=""width:200px; border:14px solid green;"">","null","","","","","","","","",""
"","image-keyboard-response","187","188338","0.0-187.0","3E7TUJ2EGD8N956IANB6XAAN0NZD94","A3ITZNJQUTIZ4C","3ECKRY5B1QIH1N6NFX1ECCW5ZDKIZQ","","581.6999999880791","img/flower5.png","74","582.8000000119209","1","1","2","2","1,0,0,1,1,0,1,0,1","0,0,1,1,0,1,0,1,1","2",""
"","html-keyboard-response","188","188644","0.0-188.0","3E7TUJ2EGD8N956IANB6XAAN0NZD94","A3ITZNJQUTIZ4C","3ECKRY5B1QIH1N6NFX1ECCW5ZDKIZQ","","null","<img src=""img/flower5.png"" style=""width:200px; border:14px solid green;"">","null","","","","","","","","",""
"","image-keyboard-response","189","189362","0.0-189.0","3E7TUJ2EGD8N956IANB6XAAN0NZD94","A3ITZNJQUTIZ4C","3ECKRY5B1QIH1N6NFX1ECCW5ZDKIZQ","","716.1999999880791","img/flower6.png","75","717.6999999880791","2","0","1","2","1,0,0,1,1,0,1,0,1","0,0,1,1,0,1,0,1,1","2",""
"","html-keyboard-response","190","189664","0.0-190.0","3E7TUJ2EGD8N956IANB6XAAN0NZD94","A3ITZNJQUTIZ4C","3ECKRY5B1QIH1N6NFX1ECCW5ZDKIZQ","","null","<img src=""img/flower6.png"" style=""width:200px;border:14px solid red;"">","null","","","","","","","","",""
"","image-keyboard-response","191","190865","0.0-191.0","3E7TUJ2EGD8N956IANB6XAAN0NZD94","A3ITZNJQUTIZ4C","3ECKRY5B1QIH1N6NFX1ECCW5ZDKIZQ","","1199.4000000357628","img/flower1.png","75","1200.300000011921","2","1","3","2","1,0,0,1,1,0,1,0,1","0,0,1,1,0,1,0,1,1","2",""
"","html-keyboard-response","192","191170","0.0-192.0","3E7TUJ2EGD8N956IANB6XAAN0NZD94","A3ITZNJQUTIZ4C","3ECKRY5B1QIH1N6NFX1ECCW5ZDKIZQ","","null","<img src=""img/flower1.png"" style=""width:200px; border:14px solid green;"">","null","","","","","","","","",""
"","image-keyboard-response","193","191796","0.0-193.0","3E7TUJ2EGD8N956IANB6XAAN0NZD94","A3ITZNJQUTIZ4C","3ECKRY5B1QIH1N6NFX1ECCW5ZDKIZQ","","624.6000000238419","img/flower6.png","76","625.7999999523163","3","1","1","2","1,0,0,1,1,0,1,0,1","0,0,1,1,0,1,0,1,1","2",""
"","html-keyboard-response","194","192106","0.0-194.0","3E7TUJ2EGD8N956IANB6XAAN0NZD94","A3ITZNJQUTIZ4C","3ECKRY5B1QIH1N6NFX1ECCW5ZDKIZQ","","null","<img src=""img/flower6.png"" style=""width:200px; border:14px solid green;"">","null","","","","","","","","",""
"","image-keyboard-response","195","192821","0.0-195.0","3E7TUJ2EGD8N956IANB6XAAN0NZD94","A3ITZNJQUTIZ4C","3ECKRY5B1QIH1N6NFX1ECCW5ZDKIZQ","","713.1000000238419","img/flower1.png","75","714.3999999761581","2","1","3","2","1,0,0,1,1,0,1,0,1","0,0,1,1,0,1,0,1,1","2",""
"","html-keyboard-response","196","193133","0.0-196.0","3E7TUJ2EGD8N956IANB6XAAN0NZD94","A3ITZNJQUTIZ4C","3ECKRY5B1QIH1N6NFX1ECCW5ZDKIZQ","","null","<img src=""img/flower1.png"" style=""width:200px; border:14px solid green;"">","null","","","","","","","","",""
"","image-keyboard-response","197","193786","0.0-197.0","3E7TUJ2EGD8N956IANB6XAAN0NZD94","A3ITZNJQUTIZ4C","3ECKRY5B1QIH1N6NFX1ECCW5ZDKIZQ","","651","img/flower5.png","74","652.3000000119209","1","1","2","2","1,0,0,1,1,0,1,0,1","0,0,1,1,0,1,0,1,1","2",""
"","html-keyboard-response","198","194093","0.0-198.0","3E7TUJ2EGD8N956IANB6XAAN0NZD94","A3ITZNJQUTIZ4C","3ECKRY5B1QIH1N6NFX1ECCW5ZDKIZQ","","null","<img src=""img/flower5.png"" style=""width:200px; border:14px solid green;"">","null","","","","","","","","",""
"","image-keyboard-response","199","194535","0.0-199.0","3E7TUJ2EGD8N956IANB6XAAN0NZD94","A3ITZNJQUTIZ4C","3ECKRY5B1QIH1N6NFX1ECCW5ZDKIZQ","","439.80000001192093","img/flower5.png","74","441.30000001192093","1","1","2","2","1,0,0,1,1,0,1,0,1","0,0,1,1,0,1,0,1,1","2",""
"","html-keyboard-response","200","194838","0.0-200.0","3E7TUJ2EGD8N956IANB6XAAN0NZD94","A3ITZNJQUTIZ4C","3ECKRY5B1QIH1N6NFX1ECCW5ZDKIZQ","","null","<img src=""img/flower5.png"" style=""width:200px; border:14px solid green;"">","null","","","","","","","","",""
"","image-keyboard-response","201","195565","0.0-201.0","3E7TUJ2EGD8N956IANB6XAAN0NZD94","A3ITZNJQUTIZ4C","3ECKRY5B1QIH1N6NFX1ECCW5ZDKIZQ","","724.6999999880791","img/flower5.png","74","726.3000000119209","1","1","2","2","1,0,0,1,1,0,1,0,1","0,0,1,1,0,1,0,1,1","2",""
"","html-keyboard-response","202","195881","0.0-202.0","3E7TUJ2EGD8N956IANB6XAAN0NZD94","A3ITZNJQUTIZ4C","3ECKRY5B1QIH1N6NFX1ECCW5ZDKIZQ","","null","<img src=""img/flower5.png"" style=""width:200px; border:14px solid green;"">","null","","","","","","","","",""
"","image-keyboard-response","203","196544","0.0-203.0","3E7TUJ2EGD8N956IANB6XAAN0NZD94","A3ITZNJQUTIZ4C","3ECKRY5B1QIH1N6NFX1ECCW5ZDKIZQ","","661.5999999642372","img/flower6.png","76","663","3","1","1","2","1,0,0,1,1,0,1,0,1","0,0,1,1,0,1,0,1,1","2",""
"","html-keyboard-response","204","196849","0.0-204.0","3E7TUJ2EGD8N956IANB6XAAN0NZD94","A3ITZNJQUTIZ4C","3ECKRY5B1QIH1N6NFX1ECCW5ZDKIZQ","","null","<img src=""img/flower6.png"" style=""width:200px; border:14px solid green;"">","null","","","","","","","","",""
"","image-keyboard-response","205","197370","0.0-205.0","3E7TUJ2EGD8N956IANB6XAAN0NZD94","A3ITZNJQUTIZ4C","3ECKRY5B1QIH1N6NFX1ECCW5ZDKIZQ","","519","img/flower6.png","76","520.1999999880791","3","1","1","2","1,0,0,1,1,0,1,0,1","0,0,1,1,0,1,0,1,1","2",""
"","html-keyboard-response","206","197683","0.0-206.0","3E7TUJ2EGD8N956IANB6XAAN0NZD94","A3ITZNJQUTIZ4C","3ECKRY5B1QIH1N6NFX1ECCW5ZDKIZQ","","null","<img src=""img/flower6.png"" style=""width:200px; border:14px solid green;"">","null","","","","","","","","",""
"","image-keyboard-response","207","198368","0.0-207.0","3E7TUJ2EGD8N956IANB6XAAN0NZD94","A3ITZNJQUTIZ4C","3ECKRY5B1QIH1N6NFX1ECCW5ZDKIZQ","","683.3000000119209","img/flower1.png","75","684.6999999880791","2","1","3","2","1,0,0,1,1,0,1,0,1","0,0,1,1,0,1,0,1,1","2",""
"","html-keyboard-response","208","198672","0.0-208.0","3E7TUJ2EGD8N956IANB6XAAN0NZD94","A3ITZNJQUTIZ4C","3ECKRY5B1QIH1N6NFX1ECCW5ZDKIZQ","","null","<img src=""img/flower1.png"" style=""width:200px; border:14px solid green;"">","null","","","","","","","","",""
"","image-keyboard-response","209","199562","0.0-209.0","3E7TUJ2EGD8N956IANB6XAAN0NZD94","A3ITZNJQUTIZ4C","3ECKRY5B1QIH1N6NFX1ECCW5ZDKIZQ","","887.3999999761581","img/flower5.png","74","889","1","1","2","2","1,0,0,1,1,0,1,0,1","0,0,1,1,0,1,0,1,1","2",""
"","html-keyboard-response","210","199866","0.0-210.0","3E7TUJ2EGD8N956IANB6XAAN0NZD94","A3ITZNJQUTIZ4C","3ECKRY5B1QIH1N6NFX1ECCW5ZDKIZQ","","null","<img src=""img/flower5.png"" style=""width:200px; border:14px solid green;"">","null","","","","","","","","",""
"","image-keyboard-response","211","200608","0.0-211.0","3E7TUJ2EGD8N956IANB6XAAN0NZD94","A3ITZNJQUTIZ4C","3ECKRY5B1QIH1N6NFX1ECCW5ZDKIZQ","","740.1999999880791","img/flower1.png","75","741.3000000119209","2","1","3","2","1,0,0,1,1,0,1,0,1","0,0,1,1,0,1,0,1,1","2",""
"","html-keyboard-response","212","200922","0.0-212.0","3E7TUJ2EGD8N956IANB6XAAN0NZD94","A3ITZNJQUTIZ4C","3ECKRY5B1QIH1N6NFX1ECCW5ZDKIZQ","","null","<img src=""img/flower1.png"" style=""width:200px; border:14px solid green;"">","null","","","","","","","","",""
"","image-keyboard-response","213","201617","0.0-213.0","3E7TUJ2EGD8N956IANB6XAAN0NZD94","A3ITZNJQUTIZ4C","3ECKRY5B1QIH1N6NFX1ECCW5ZDKIZQ","","693.5","img/flower6.png","76","695.1999999880791","3","1","1","2","1,0,0,1,1,0,1,0,1","0,0,1,1,0,1,0,1,1","2",""
"","html-keyboard-response","214","201932","0.0-214.0","3E7TUJ2EGD8N956IANB6XAAN0NZD94","A3ITZNJQUTIZ4C","3ECKRY5B1QIH1N6NFX1ECCW5ZDKIZQ","","null","<img src=""img/flower6.png"" style=""width:200px; border:14px solid green;"">","null","","","","","","","","",""
"","image-keyboard-response","215","202382","0.0-215.0","3E7TUJ2EGD8N956IANB6XAAN0NZD94","A3ITZNJQUTIZ4C","3ECKRY5B1QIH1N6NFX1ECCW5ZDKIZQ","","448.30000001192093","img/flower6.png","76","449.60000002384186","3","1","1","2","1,0,0,1,1,0,1,0,1","0,0,1,1,0,1,0,1,1","2",""
"","html-keyboard-response","216","202689","0.0-216.0","3E7TUJ2EGD8N956IANB6XAAN0NZD94","A3ITZNJQUTIZ4C","3ECKRY5B1QIH1N6NFX1ECCW5ZDKIZQ","","null","<img src=""img/flower6.png"" style=""width:200px; border:14px solid green;"">","null","","","","","","","","",""
"","image-keyboard-response","217","203393","0.0-217.0","3E7TUJ2EGD8N956IANB6XAAN0NZD94","A3ITZNJQUTIZ4C","3ECKRY5B1QIH1N6NFX1ECCW5ZDKIZQ","","701.8000000119209","img/flower1.png","75","703.1999999880791","2","1","3","2","1,0,0,1,1,0,1,0,1","0,0,1,1,0,1,0,1,1","2",""
"","html-keyboard-response","218","203698","0.0-218.0","3E7TUJ2EGD8N956IANB6XAAN0NZD94","A3ITZNJQUTIZ4C","3ECKRY5B1QIH1N6NFX1ECCW5ZDKIZQ","","null","<img src=""img/flower1.png"" style=""width:200px; border:14px solid green;"">","null","","","","","","","","",""
"","image-keyboard-response","219","204345","0.0-219.0","3E7TUJ2EGD8N956IANB6XAAN0NZD94","A3ITZNJQUTIZ4C","3ECKRY5B1QIH1N6NFX1ECCW5ZDKIZQ","","643.8000000119209","img/flower6.png","76","645.5","3","1","1","2","1,0,0,1,1,0,1,0,1","0,0,1,1,0,1,0,1,1","2",""
"","html-keyboard-response","220","204652","0.0-220.0","3E7TUJ2EGD8N956IANB6XAAN0NZD94","A3ITZNJQUTIZ4C","3ECKRY5B1QIH1N6NFX1ECCW5ZDKIZQ","","null","<img src=""img/flower6.png"" style=""width:200px; border:14px solid green;"">","null","","","","","","","","",""
"","image-keyboard-response","221","205637","0.0-221.0","3E7TUJ2EGD8N956IANB6XAAN0NZD94","A3ITZNJQUTIZ4C","3ECKRY5B1QIH1N6NFX1ECCW5ZDKIZQ","","983.5","img/flower5.png","74","984.8999999761581","1","1","2","2","1,0,0,1,1,0,1,0,1","0,0,1,1,0,1,0,1,1","2",""
"","html-keyboard-response","222","205939","0.0-222.0","3E7TUJ2EGD8N956IANB6XAAN0NZD94","A3ITZNJQUTIZ4C","3ECKRY5B1QIH1N6NFX1ECCW5ZDKIZQ","","null","<img src=""img/flower5.png"" style=""width:200px; border:14px solid green;"">","null","","","","","","","","",""
"","image-keyboard-response","223","206349","0.0-223.0","3E7TUJ2EGD8N956IANB6XAAN0NZD94","A3ITZNJQUTIZ4C","3ECKRY5B1QIH1N6NFX1ECCW5ZDKIZQ","","407.80000001192093","img/flower5.png","74","409.30000001192093","1","1","2","2","1,0,0,1,1,0,1,0,1","0,0,1,1,0,1,0,1,1","2",""
"","html-keyboard-response","224","206652","0.0-224.0","3E7TUJ2EGD8N956IANB6XAAN0NZD94","A3ITZNJQUTIZ4C","3ECKRY5B1QIH1N6NFX1ECCW5ZDKIZQ","","null","<img src=""img/flower5.png"" style=""width:200px; border:14px solid green;"">","null","","","","","","","","",""
"","image-keyboard-response","225","207158","0.0-225.0","3E7TUJ2EGD8N956IANB6XAAN0NZD94","A3ITZNJQUTIZ4C","3ECKRY5B1QIH1N6NFX1ECCW5ZDKIZQ","","504.9000000357628","img/flower5.png","74","506.19999998807907","1","1","2","2","1,0,0,1,1,0,1,0,1","0,0,1,1,0,1,0,1,1","2",""
"","html-keyboard-response","226","207466","0.0-226.0","3E7TUJ2EGD8N956IANB6XAAN0NZD94","A3ITZNJQUTIZ4C","3ECKRY5B1QIH1N6NFX1ECCW5ZDKIZQ","","null","<img src=""img/flower5.png"" style=""width:200px; border:14px solid green;"">","null","","","","","","","","",""
"","image-keyboard-response","227","208024","0.0-227.0","3E7TUJ2EGD8N956IANB6XAAN0NZD94","A3ITZNJQUTIZ4C","3ECKRY5B1QIH1N6NFX1ECCW5ZDKIZQ","","555.5999999642372","img/flower5.png","74","556.9000000357628","1","1","2","2","1,0,0,1,1,0,1,0,1","0,0,1,1,0,1,0,1,1","2",""
"","html-keyboard-response","228","208328","0.0-228.0","3E7TUJ2EGD8N956IANB6XAAN0NZD94","A3ITZNJQUTIZ4C","3ECKRY5B1QIH1N6NFX1ECCW5ZDKIZQ","","null","<img src=""img/flower5.png"" style=""width:200px; border:14px solid green;"">","null","","","","","","","","",""
"","image-keyboard-response","229","209124","0.0-229.0","3E7TUJ2EGD8N956IANB6XAAN0NZD94","A3ITZNJQUTIZ4C","3ECKRY5B1QIH1N6NFX1ECCW5ZDKIZQ","","794.1999999880791","img/flower6.png","76","795.3000000119209","3","1","1","2","1,0,0,1,1,0,1,0,1","0,0,1,1,0,1,0,1,1","2",""
"","html-keyboard-response","230","209434","0.0-230.0","3E7TUJ2EGD8N956IANB6XAAN0NZD94","A3ITZNJQUTIZ4C","3ECKRY5B1QIH1N6NFX1ECCW5ZDKIZQ","","null","<img src=""img/flower6.png"" style=""width:200px; border:14px solid green;"">","null","","","","","","","","",""
"","image-keyboard-response","231","210118","0.0-231.0","3E7TUJ2EGD8N956IANB6XAAN0NZD94","A3ITZNJQUTIZ4C","3ECKRY5B1QIH1N6NFX1ECCW5ZDKIZQ","","682.7999999523163","img/flower5.png","74","683.7999999523163","1","1","2","2","1,0,0,1,1,0,1,0,1","0,0,1,1,0,1,0,1,1","2",""
"","html-keyboard-response","232","210432","0.0-232.0","3E7TUJ2EGD8N956IANB6XAAN0NZD94","A3ITZNJQUTIZ4C","3ECKRY5B1QIH1N6NFX1ECCW5ZDKIZQ","","null","<img src=""img/flower5.png"" style=""width:200px; border:14px solid green;"">","null","","","","","","","","",""
"","image-keyboard-response","233","211189","0.0-233.0","3E7TUJ2EGD8N956IANB6XAAN0NZD94","A3ITZNJQUTIZ4C","3ECKRY5B1QIH1N6NFX1ECCW5ZDKIZQ","","755.0999999642372","img/flower6.png","76","756.5","3","1","1","2","1,0,0,1,1,0,1,0,1","0,0,1,1,0,1,0,1,1","2",""
"","html-keyboard-response","234","211501","0.0-234.0","3E7TUJ2EGD8N956IANB6XAAN0NZD94","A3ITZNJQUTIZ4C","3ECKRY5B1QIH1N6NFX1ECCW5ZDKIZQ","","null","<img src=""img/flower6.png"" style=""width:200px; border:14px solid green;"">","null","","","","","","","","",""
"","image-keyboard-response","235","212291","0.0-235.0","3E7TUJ2EGD8N956IANB6XAAN0NZD94","A3ITZNJQUTIZ4C","3ECKRY5B1QIH1N6NFX1ECCW5ZDKIZQ","","788.4000000357628","img/flower1.png","75","789.6999999880791","2","1","3","2","1,0,0,1,1,0,1,0,1","0,0,1,1,0,1,0,1,1","2",""
"","html-keyboard-response","236","212600","0.0-236.0","3E7TUJ2EGD8N956IANB6XAAN0NZD94","A3ITZNJQUTIZ4C","3ECKRY5B1QIH1N6NFX1ECCW5ZDKIZQ","","null","<img src=""img/flower1.png"" style=""width:200px; border:14px solid green;"">","null","","","","","","","","",""
"","image-keyboard-response","237","213128","0.0-237.0","3E7TUJ2EGD8N956IANB6XAAN0NZD94","A3ITZNJQUTIZ4C","3ECKRY5B1QIH1N6NFX1ECCW5ZDKIZQ","","525.8999999761581","img/flower1.png","75","527.3000000119209","2","1","3","2","1,0,0,1,1,0,1,0,1","0,0,1,1,0,1,0,1,1","2",""
"","html-keyboard-response","238","213443","0.0-238.0","3E7TUJ2EGD8N956IANB6XAAN0NZD94","A3ITZNJQUTIZ4C","3ECKRY5B1QIH1N6NFX1ECCW5ZDKIZQ","","null","<img src=""img/flower1.png"" style=""width:200px; border:14px solid green;"">","null","","","","","","","","",""
"","image-keyboard-response","239","214105","0.0-239.0","3E7TUJ2EGD8N956IANB6XAAN0NZD94","A3ITZNJQUTIZ4C","3ECKRY5B1QIH1N6NFX1ECCW5ZDKIZQ","","660.8000000119209","img/flower1.png","75","662","2","1","3","2","1,0,0,1,1,0,1,0,1","0,0,1,1,0,1,0,1,1","2",""
"","html-keyboard-response","240","214424","0.0-240.0","3E7TUJ2EGD8N956IANB6XAAN0NZD94","A3ITZNJQUTIZ4C","3ECKRY5B1QIH1N6NFX1ECCW5ZDKIZQ","","null","<img src=""img/flower1.png"" style=""width:200px; border:14px solid green;"">","null","","","","","","","","",""
"","image-keyboard-response","241","215182","0.0-241.0","3E7TUJ2EGD8N956IANB6XAAN0NZD94","A3ITZNJQUTIZ4C","3ECKRY5B1QIH1N6NFX1ECCW5ZDKIZQ","","756.6999999880791","img/flower6.png","76","757.9000000357628","3","1","1","2","1,0,0,1,1,0,1,0,1","0,0,1,1,0,1,0,1,1","2",""
"","html-keyboard-response","242","215493","0.0-242.0","3E7TUJ2EGD8N956IANB6XAAN0NZD94","A3ITZNJQUTIZ4C","3ECKRY5B1QIH1N6NFX1ECCW5ZDKIZQ","","null","<img src=""img/flower6.png"" style=""width:200px; border:14px solid green;"">","null","","","","","","","","",""
"","image-keyboard-response","243","215968","0.0-243.0","3E7TUJ2EGD8N956IANB6XAAN0NZD94","A3ITZNJQUTIZ4C","3ECKRY5B1QIH1N6NFX1ECCW5ZDKIZQ","","474.2999999523163","img/flower6.png","76","475.4000000357628","3","1","1","2","1,0,0,1,1,0,1,0,1","0,0,1,1,0,1,0,1,1","2",""
"","html-keyboard-response","244","216285","0.0-244.0","3E7TUJ2EGD8N956IANB6XAAN0NZD94","A3ITZNJQUTIZ4C","3ECKRY5B1QIH1N6NFX1ECCW5ZDKIZQ","","null","<img src=""img/flower6.png"" style=""width:200px; border:14px solid green;"">","null","","","","","","","","",""
"","image-keyboard-response","245","217341","0.0-245.0","3E7TUJ2EGD8N956IANB6XAAN0NZD94","A3ITZNJQUTIZ4C","3ECKRY5B1QIH1N6NFX1ECCW5ZDKIZQ","","1054.800000011921","img/flower5.png","74","1056.4000000357628","1","1","2","2","1,0,0,1,1,0,1,0,1","0,0,1,1,0,1,0,1,1","2",""
"","html-keyboard-response","246","217652","0.0-246.0","3E7TUJ2EGD8N956IANB6XAAN0NZD94","A3ITZNJQUTIZ4C","3ECKRY5B1QIH1N6NFX1ECCW5ZDKIZQ","","null","<img src=""img/flower5.png"" style=""width:200px; border:14px solid green;"">","null","","","","","","","","",""
"","image-keyboard-response","247","218414","0.0-247.0","3E7TUJ2EGD8N956IANB6XAAN0NZD94","A3ITZNJQUTIZ4C","3ECKRY5B1QIH1N6NFX1ECCW5ZDKIZQ","","759.8999999761581","img/flower6.png","76","761.1000000238419","3","1","1","2","1,0,0,1,1,0,1,0,1","0,0,1,1,0,1,0,1,1","2",""
"","html-keyboard-response","248","218716","0.0-248.0","3E7TUJ2EGD8N956IANB6XAAN0NZD94","A3ITZNJQUTIZ4C","3ECKRY5B1QIH1N6NFX1ECCW5ZDKIZQ","","null","<img src=""img/flower6.png"" style=""width:200px; border:14px solid green;"">","null","","","","","","","","",""
"","image-keyboard-response","249","219429","0.0-249.0","3E7TUJ2EGD8N956IANB6XAAN0NZD94","A3ITZNJQUTIZ4C","3ECKRY5B1QIH1N6NFX1ECCW5ZDKIZQ","","710.8000000119209","img/flower5.png","74","712","1","1","2","2","1,0,0,1,1,0,1,0,1","0,0,1,1,0,1,0,1,1","2",""
"","html-keyboard-response","250","219743","0.0-250.0","3E7TUJ2EGD8N956IANB6XAAN0NZD94","A3ITZNJQUTIZ4C","3ECKRY5B1QIH1N6NFX1ECCW5ZDKIZQ","","null","<img src=""img/flower5.png"" style=""width:200px; border:14px solid green;"">","null","","","","","","","","",""
"","image-keyboard-response","251","220839","0.0-251.0","3E7TUJ2EGD8N956IANB6XAAN0NZD94","A3ITZNJQUTIZ4C","3ECKRY5B1QIH1N6NFX1ECCW5ZDKIZQ","","1093.6000000238419","img/flower1.png","75","1095.0999999642372","2","1","3","2","1,0,0,1,1,0,1,0,1","0,0,1,1,0,1,0,1,1","2",""
"","html-keyboard-response","252","221150","0.0-252.0","3E7TUJ2EGD8N956IANB6XAAN0NZD94","A3ITZNJQUTIZ4C","3ECKRY5B1QIH1N6NFX1ECCW5ZDKIZQ","","null","<img src=""img/flower1.png"" style=""width:200px; border:14px solid green;"">","null","","","","","","","","",""
"","image-keyboard-response","253","222040","0.0-253.0","3E7TUJ2EGD8N956IANB6XAAN0NZD94","A3ITZNJQUTIZ4C","3ECKRY5B1QIH1N6NFX1ECCW5ZDKIZQ","","889.0999999642372","img/flower5.png","74","890.4000000357628","1","1","2","2","1,0,0,1,1,0,1,0,1","0,0,1,1,0,1,0,1,1","2",""
"","html-keyboard-response","254","222350","0.0-254.0","3E7TUJ2EGD8N956IANB6XAAN0NZD94","A3ITZNJQUTIZ4C","3ECKRY5B1QIH1N6NFX1ECCW5ZDKIZQ","","null","<img src=""img/flower5.png"" style=""width:200px; border:14px solid green;"">","null","","","","","","","","",""
"","image-keyboard-response","255","223134","0.0-255.0","3E7TUJ2EGD8N956IANB6XAAN0NZD94","A3ITZNJQUTIZ4C","3ECKRY5B1QIH1N6NFX1ECCW5ZDKIZQ","","782.0999999642372","img/flower1.png","75","783.2999999523163","2","1","3","2","1,0,0,1,1,0,1,0,1","0,0,1,1,0,1,0,1,1","2",""
"","html-keyboard-response","256","223448","0.0-256.0","3E7TUJ2EGD8N956IANB6XAAN0NZD94","A3ITZNJQUTIZ4C","3ECKRY5B1QIH1N6NFX1ECCW5ZDKIZQ","","null","<img src=""img/flower1.png"" style=""width:200px; border:14px solid green;"">","null","","","","","","","","",""
"","image-keyboard-response","257","224419","0.0-257.0","3E7TUJ2EGD8N956IANB6XAAN0NZD94","A3ITZNJQUTIZ4C","3ECKRY5B1QIH1N6NFX1ECCW5ZDKIZQ","","969.3999999761581","img/flower1.png","75","970.6000000238419","2","1","3","2","1,0,0,1,1,0,1,0,1","0,0,1,1,0,1,0,1,1","2",""
"","html-keyboard-response","258","224724","0.0-258.0","3E7TUJ2EGD8N956IANB6XAAN0NZD94","A3ITZNJQUTIZ4C","3ECKRY5B1QIH1N6NFX1ECCW5ZDKIZQ","","null","<img src=""img/flower1.png"" style=""width:200px; border:14px solid green;"">","null","","","","","","","","",""
"","image-keyboard-response","259","225352","0.0-259.0","3E7TUJ2EGD8N956IANB6XAAN0NZD94","A3ITZNJQUTIZ4C","3ECKRY5B1QIH1N6NFX1ECCW5ZDKIZQ","","626.9000000357628","img/flower6.png","76","628.3000000119209","3","1","1","2","1,0,0,1,1,0,1,0,1","0,0,1,1,0,1,0,1,1","2",""
"","html-keyboard-response","260","225655","0.0-260.0","3E7TUJ2EGD8N956IANB6XAAN0NZD94","A3ITZNJQUTIZ4C","3ECKRY5B1QIH1N6NFX1ECCW5ZDKIZQ","","null","<img src=""img/flower6.png"" style=""width:200px; border:14px solid green;"">","null","","","","","","","","",""
"","image-keyboard-response","261","226617","0.0-261.0","3E7TUJ2EGD8N956IANB6XAAN0NZD94","A3ITZNJQUTIZ4C","3ECKRY5B1QIH1N6NFX1ECCW5ZDKIZQ","","960.8999999761581","img/flower5.png","74","962.4000000357628","1","1","2","2","1,0,0,1,1,0,1,0,1","0,0,1,1,0,1,0,1,1","2",""
"","html-keyboard-response","262","226930","0.0-262.0","3E7TUJ2EGD8N956IANB6XAAN0NZD94","A3ITZNJQUTIZ4C","3ECKRY5B1QIH1N6NFX1ECCW5ZDKIZQ","","null","<img src=""img/flower5.png"" style=""width:200px; border:14px solid green;"">","null","","","","","","","","",""
"","image-keyboard-response","263","227708","0.0-263.0","3E7TUJ2EGD8N956IANB6XAAN0NZD94","A3ITZNJQUTIZ4C","3ECKRY5B1QIH1N6NFX1ECCW5ZDKIZQ","","776","img/flower1.png","75","777.6999999880791","2","1","3","2","1,0,0,1,1,0,1,0,1","0,0,1,1,0,1,0,1,1","2",""
"","html-keyboard-response","264","228013","0.0-264.0","3E7TUJ2EGD8N956IANB6XAAN0NZD94","A3ITZNJQUTIZ4C","3ECKRY5B1QIH1N6NFX1ECCW5ZDKIZQ","","null","<img src=""img/flower1.png"" style=""width:200px; border:14px solid green;"">","null","","","","","","","","",""
"","image-keyboard-response","265","228485","0.0-265.0","3E7TUJ2EGD8N956IANB6XAAN0NZD94","A3ITZNJQUTIZ4C","3ECKRY5B1QIH1N6NFX1ECCW5ZDKIZQ","","470.39999997615814","img/flower1.png","75","471.89999997615814","2","1","3","2","1,0,0,1,1,0,1,0,1","0,0,1,1,0,1,0,1,1","2",""
"","html-keyboard-response","266","228789","0.0-266.0","3E7TUJ2EGD8N956IANB6XAAN0NZD94","A3ITZNJQUTIZ4C","3ECKRY5B1QIH1N6NFX1ECCW5ZDKIZQ","","null","<img src=""img/flower1.png"" style=""width:200px; border:14px solid green;"">","null","","","","","","","","",""
"","image-keyboard-response","267","229549","0.0-267.0","3E7TUJ2EGD8N956IANB6XAAN0NZD94","A3ITZNJQUTIZ4C","3ECKRY5B1QIH1N6NFX1ECCW5ZDKIZQ","","758.1999999880791","img/flower5.png","74","759.6000000238419","1","1","2","2","1,0,0,1,1,0,1,0,1","0,0,1,1,0,1,0,1,1","2",""
"","html-keyboard-response","268","229858","0.0-268.0","3E7TUJ2EGD8N956IANB6XAAN0NZD94","A3ITZNJQUTIZ4C","3ECKRY5B1QIH1N6NFX1ECCW5ZDKIZQ","","null","<img src=""img/flower5.png"" style=""width:200px; border:14px solid green;"">","null","","","","","","","","",""
"","image-keyboard-response","269","230356","0.0-269.0","3E7TUJ2EGD8N956IANB6XAAN0NZD94","A3ITZNJQUTIZ4C","3ECKRY5B1QIH1N6NFX1ECCW5ZDKIZQ","","497.2000000476837","img/flower5.png","74","498.0999999642372","1","1","2","2","1,0,0,1,1,0,1,0,1","0,0,1,1,0,1,0,1,1","2",""
"","html-keyboard-response","270","230660","0.0-270.0","3E7TUJ2EGD8N956IANB6XAAN0NZD94","A3ITZNJQUTIZ4C","3ECKRY5B1QIH1N6NFX1ECCW5ZDKIZQ","","null","<img src=""img/flower5.png"" style=""width:200px; border:14px solid green;"">","null","","","","","","","","",""
"","image-keyboard-response","271","231380","0.0-271.0","3E7TUJ2EGD8N956IANB6XAAN0NZD94","A3ITZNJQUTIZ4C","3ECKRY5B1QIH1N6NFX1ECCW5ZDKIZQ","","717.8000000119209","img/flower6.png","76","719.3000000119209","3","1","1","2","1,0,0,1,1,0,1,0,1","0,0,1,1,0,1,0,1,1","2",""
"","html-keyboard-response","272","231691","0.0-272.0","3E7TUJ2EGD8N956IANB6XAAN0NZD94","A3ITZNJQUTIZ4C","3ECKRY5B1QIH1N6NFX1ECCW5ZDKIZQ","","null","<img src=""img/flower6.png"" style=""width:200px; border:14px solid green;"">","null","","","","","","","","",""
"","image-keyboard-response","273","232117","0.0-273.0","3E7TUJ2EGD8N956IANB6XAAN0NZD94","A3ITZNJQUTIZ4C","3ECKRY5B1QIH1N6NFX1ECCW5ZDKIZQ","","424.7999999523163","img/flower6.png","76","426.2999999523163","3","1","1","2","1,0,0,1,1,0,1,0,1","0,0,1,1,0,1,0,1,1","2",""
"","html-keyboard-response","274","232424","0.0-274.0","3E7TUJ2EGD8N956IANB6XAAN0NZD94","A3ITZNJQUTIZ4C","3ECKRY5B1QIH1N6NFX1ECCW5ZDKIZQ","","null","<img src=""img/flower6.png"" style=""width:200px; border:14px solid green;"">","null","","","","","","","","",""
"","image-keyboard-response","275","233183","0.0-275.0","3E7TUJ2EGD8N956IANB6XAAN0NZD94","A3ITZNJQUTIZ4C","3ECKRY5B1QIH1N6NFX1ECCW5ZDKIZQ","","757.7000000476837","img/flower1.png","75","759.1000000238419","2","1","3","2","1,0,0,1,1,0,1,0,1","0,0,1,1,0,1,0,1,1","2",""
"","html-keyboard-response","276","233493","0.0-276.0","3E7TUJ2EGD8N956IANB6XAAN0NZD94","A3ITZNJQUTIZ4C","3ECKRY5B1QIH1N6NFX1ECCW5ZDKIZQ","","null","<img src=""img/flower1.png"" style=""width:200px; border:14px solid green;"">","null","","","","","","","","",""
"","image-keyboard-response","277","234270","0.0-277.0","3E7TUJ2EGD8N956IANB6XAAN0NZD94","A3ITZNJQUTIZ4C","3ECKRY5B1QIH1N6NFX1ECCW5ZDKIZQ","","775.3000000119209","img/flower6.png","76","776.9000000357628","3","1","1","2","1,0,0,1,1,0,1,0,1","0,0,1,1,0,1,0,1,1","2",""
"","html-keyboard-response","278","234584","0.0-278.0","3E7TUJ2EGD8N956IANB6XAAN0NZD94","A3ITZNJQUTIZ4C","3ECKRY5B1QIH1N6NFX1ECCW5ZDKIZQ","","null","<img src=""img/flower6.png"" style=""width:200px; border:14px solid green;"">","null","","","","","","","","",""
"","image-keyboard-response","279","235149","0.0-279.0","3E7TUJ2EGD8N956IANB6XAAN0NZD94","A3ITZNJQUTIZ4C","3ECKRY5B1QIH1N6NFX1ECCW5ZDKIZQ","","563.4000000357628","img/flower1.png","75","564.8000000119209","2","1","3","2","1,0,0,1,1,0,1,0,1","0,0,1,1,0,1,0,1,1","2",""
"","html-keyboard-response","280","235463","0.0-280.0","3E7TUJ2EGD8N956IANB6XAAN0NZD94","A3ITZNJQUTIZ4C","3ECKRY5B1QIH1N6NFX1ECCW5ZDKIZQ","","null","<img src=""img/flower1.png"" style=""width:200px; border:14px solid green;"">","null","","","","","","","","",""
"","image-keyboard-response","281","236101","0.0-281.0","3E7TUJ2EGD8N956IANB6XAAN0NZD94","A3ITZNJQUTIZ4C","3ECKRY5B1QIH1N6NFX1ECCW5ZDKIZQ","","636.1000000238419","img/flower6.png","76","637.5","3","1","1","2","1,0,0,1,1,0,1,0,1","0,0,1,1,0,1,0,1,1","2",""
"","html-keyboard-response","282","236415","0.0-282.0","3E7TUJ2EGD8N956IANB6XAAN0NZD94","A3ITZNJQUTIZ4C","3ECKRY5B1QIH1N6NFX1ECCW5ZDKIZQ","","null","<img src=""img/flower6.png"" style=""width:200px; border:14px solid green;"">","null","","","","","","","","",""
"","image-keyboard-response","283","236879","0.0-283.0","3E7TUJ2EGD8N956IANB6XAAN0NZD94","A3ITZNJQUTIZ4C","3ECKRY5B1QIH1N6NFX1ECCW5ZDKIZQ","","462.5","img/flower6.png","76","463.89999997615814","3","1","1","2","1,0,0,1,1,0,1,0,1","0,0,1,1,0,1,0,1,1","2",""
"","html-keyboard-response","284","237186","0.0-284.0","3E7TUJ2EGD8N956IANB6XAAN0NZD94","A3ITZNJQUTIZ4C","3ECKRY5B1QIH1N6NFX1ECCW5ZDKIZQ","","null","<img src=""img/flower6.png"" style=""width:200px; border:14px solid green;"">","null","","","","","","","","",""
"","image-keyboard-response","285","237752","0.0-285.0","3E7TUJ2EGD8N956IANB6XAAN0NZD94","A3ITZNJQUTIZ4C","3ECKRY5B1QIH1N6NFX1ECCW5ZDKIZQ","","564.3999999761581","img/flower1.png","75","565.6999999880791","2","1","3","2","1,0,0,1,1,0,1,0,1","0,0,1,1,0,1,0,1,1","2",""
"","html-keyboard-response","286","238060","0.0-286.0","3E7TUJ2EGD8N956IANB6XAAN0NZD94","A3ITZNJQUTIZ4C","3ECKRY5B1QIH1N6NFX1ECCW5ZDKIZQ","","null","<img src=""img/flower1.png"" style=""width:200px; border:14px solid green;"">","null","","","","","","","","",""
"","image-keyboard-response","287","238663","0.0-287.0","3E7TUJ2EGD8N956IANB6XAAN0NZD94","A3ITZNJQUTIZ4C","3ECKRY5B1QIH1N6NFX1ECCW5ZDKIZQ","","601.2000000476837","img/flower5.png","76","602.7000000476837","3","1","2","2","1,0,0,1,1,0,1,0,1","0,0,1,1,0,1,0,1,1","2",""
"","html-keyboard-response","288","238972","0.0-288.0","3E7TUJ2EGD8N956IANB6XAAN0NZD94","A3ITZNJQUTIZ4C","3ECKRY5B1QIH1N6NFX1ECCW5ZDKIZQ","","null","<img src=""img/flower5.png"" style=""width:200px; border:14px solid green;"">","null","","","","","","","","",""
"","image-keyboard-response","289","240015","0.0-289.0","3E7TUJ2EGD8N956IANB6XAAN0NZD94","A3ITZNJQUTIZ4C","3ECKRY5B1QIH1N6NFX1ECCW5ZDKIZQ","","1041.9000000357628","img/flower1.png","76","1042.800000011921","3","1","3","2","1,0,0,1,1,0,1,0,1","0,0,1,1,0,1,0,1,1","2",""
"","html-keyboard-response","290","240321","0.0-290.0","3E7TUJ2EGD8N956IANB6XAAN0NZD94","A3ITZNJQUTIZ4C","3ECKRY5B1QIH1N6NFX1ECCW5ZDKIZQ","","null","<img src=""img/flower1.png"" style=""width:200px; border:14px solid green;"">","null","","","","","","","","",""
"","image-keyboard-response","291","241211","0.0-291.0","3E7TUJ2EGD8N956IANB6XAAN0NZD94","A3ITZNJQUTIZ4C","3ECKRY5B1QIH1N6NFX1ECCW5ZDKIZQ","","887.0999999642372","img/flower6.png","76","890.3000000119209","3","1","1","2","1,0,0,1,1,0,1,0,1","0,0,1,1,0,1,0,1,1","2",""
"","html-keyboard-response","292","241515","0.0-292.0","3E7TUJ2EGD8N956IANB6XAAN0NZD94","A3ITZNJQUTIZ4C","3ECKRY5B1QIH1N6NFX1ECCW5ZDKIZQ","","null","<img src=""img/flower6.png"" style=""width:200px; border:14px solid green;"">","null","","","","","","","","",""
"","image-keyboard-response","293","242864","0.0-293.0","3E7TUJ2EGD8N956IANB6XAAN0NZD94","A3ITZNJQUTIZ4C","3ECKRY5B1QIH1N6NFX1ECCW5ZDKIZQ","","1347","img/flower1.png","76","1348.300000011921","3","1","3","2","1,0,0,1,1,0,1,0,1","0,0,1,1,0,1,0,1,1","2",""
"","html-keyboard-response","294","243170","0.0-294.0","3E7TUJ2EGD8N956IANB6XAAN0NZD94","A3ITZNJQUTIZ4C","3ECKRY5B1QIH1N6NFX1ECCW5ZDKIZQ","","null","<img src=""img/flower1.png"" style=""width:200px; border:14px solid green;"">","null","","","","","","","","",""
"","image-keyboard-response","295","243782","0.0-295.0","3E7TUJ2EGD8N956IANB6XAAN0NZD94","A3ITZNJQUTIZ4C","3ECKRY5B1QIH1N6NFX1ECCW5ZDKIZQ","","609.5","img/flower1.png","76","611","3","1","3","2","1,0,0,1,1,0,1,0,1","0,0,1,1,0,1,0,1,1","2",""
"","html-keyboard-response","296","244086","0.0-296.0","3E7TUJ2EGD8N956IANB6XAAN0NZD94","A3ITZNJQUTIZ4C","3ECKRY5B1QIH1N6NFX1ECCW5ZDKIZQ","","null","<img src=""img/flower1.png"" style=""width:200px; border:14px solid green;"">","null","","","","","","","","",""
"","image-keyboard-response","297","244844","0.0-297.0","3E7TUJ2EGD8N956IANB6XAAN0NZD94","A3ITZNJQUTIZ4C","3ECKRY5B1QIH1N6NFX1ECCW5ZDKIZQ","","756.8000000119209","img/flower6.png","76","757.9000000357628","3","1","1","2","1,0,0,1,1,0,1,0,1","0,0,1,1,0,1,0,1,1","2",""
"","html-keyboard-response","298","245156","0.0-298.0","3E7TUJ2EGD8N956IANB6XAAN0NZD94","A3ITZNJQUTIZ4C","3ECKRY5B1QIH1N6NFX1ECCW5ZDKIZQ","","null","<img src=""img/flower6.png"" style=""width:200px; border:14px solid green;"">","null","","","","","","","","",""
"","image-keyboard-response","299","245794","0.0-299.0","3E7TUJ2EGD8N956IANB6XAAN0NZD94","A3ITZNJQUTIZ4C","3ECKRY5B1QIH1N6NFX1ECCW5ZDKIZQ","","636.1999999880791","img/flower5.png","76","637.5","3","1","2","2","1,0,0,1,1,0,1,0,1","0,0,1,1,0,1,0,1,1","2",""
"","html-keyboard-response","300","246100","0.0-300.0","3E7TUJ2EGD8N956IANB6XAAN0NZD94","A3ITZNJQUTIZ4C","3ECKRY5B1QIH1N6NFX1ECCW5ZDKIZQ","","null","<img src=""img/flower5.png"" style=""width:200px; border:14px solid green;"">","null","","","","","","","","",""
"","image-keyboard-response","301","246639","0.0-301.0","3E7TUJ2EGD8N956IANB6XAAN0NZD94","A3ITZNJQUTIZ4C","3ECKRY5B1QIH1N6NFX1ECCW5ZDKIZQ","","536.3999999761581","img/flower5.png","76","537.8999999761581","3","1","2","2","1,0,0,1,1,0,1,0,1","0,0,1,1,0,1,0,1,1","2",""
"","html-keyboard-response","302","246943","0.0-302.0","3E7TUJ2EGD8N956IANB6XAAN0NZD94","A3ITZNJQUTIZ4C","3ECKRY5B1QIH1N6NFX1ECCW5ZDKIZQ","","null","<img src=""img/flower5.png"" style=""width:200px; border:14px solid green;"">","null","","","","","","","","",""
"","image-keyboard-response","303","247501","0.0-303.0","3E7TUJ2EGD8N956IANB6XAAN0NZD94","A3ITZNJQUTIZ4C","3ECKRY5B1QIH1N6NFX1ECCW5ZDKIZQ","","556.5","img/flower1.png","76","557.8000000119209","3","1","3","2","1,0,0,1,1,0,1,0,1","0,0,1,1,0,1,0,1,1","2",""
"","html-keyboard-response","304","247807","0.0-304.0","3E7TUJ2EGD8N956IANB6XAAN0NZD94","A3ITZNJQUTIZ4C","3ECKRY5B1QIH1N6NFX1ECCW5ZDKIZQ","","null","<img src=""img/flower1.png"" style=""width:200px; border:14px solid green;"">","null","","","","","","","","",""
"","image-keyboard-response","305","248211","0.0-305.0","3E7TUJ2EGD8N956IANB6XAAN0NZD94","A3ITZNJQUTIZ4C","3ECKRY5B1QIH1N6NFX1ECCW5ZDKIZQ","","401.89999997615814","img/flower1.png","76","403.19999998807907","3","1","3","2","1,0,0,1,1,0,1,0,1","0,0,1,1,0,1,0,1,1","2",""
"","html-keyboard-response","306","248524","0.0-306.0","3E7TUJ2EGD8N956IANB6XAAN0NZD94","A3ITZNJQUTIZ4C","3ECKRY5B1QIH1N6NFX1ECCW5ZDKIZQ","","null","<img src=""img/flower1.png"" style=""width:200px; border:14px solid green;"">","null","","","","","","","","",""
"","image-keyboard-response","307","249182","0.0-307.0","3E7TUJ2EGD8N956IANB6XAAN0NZD94","A3ITZNJQUTIZ4C","3ECKRY5B1QIH1N6NFX1ECCW5ZDKIZQ","","657.5","img/flower6.png","76","658.5999999642372","3","1","1","2","1,0,0,1,1,0,1,0,1","0,0,1,1,0,1,0,1,1","2",""
"","html-keyboard-response","308","249492","0.0-308.0","3E7TUJ2EGD8N956IANB6XAAN0NZD94","A3ITZNJQUTIZ4C","3ECKRY5B1QIH1N6NFX1ECCW5ZDKIZQ","","null","<img src=""img/flower6.png"" style=""width:200px; border:14px solid green;"">","null","","","","","","","","",""
"","image-keyboard-response","309","249844","0.0-309.0","3E7TUJ2EGD8N956IANB6XAAN0NZD94","A3ITZNJQUTIZ4C","3ECKRY5B1QIH1N6NFX1ECCW5ZDKIZQ","","350.39999997615814","img/flower1.png","76","351.5999999642372","3","1","3","2","1,0,0,1,1,0,1,0,1","0,0,1,1,0,1,0,1,1","2",""
"","html-keyboard-response","310","250162","0.0-310.0","3E7TUJ2EGD8N956IANB6XAAN0NZD94","A3ITZNJQUTIZ4C","3ECKRY5B1QIH1N6NFX1ECCW5ZDKIZQ","","null","<img src=""img/flower1.png"" style=""width:200px; border:14px solid green;"">","null","","","","","","","","",""
"","image-keyboard-response","311","250523","0.0-311.0","3E7TUJ2EGD8N956IANB6XAAN0NZD94","A3ITZNJQUTIZ4C","3ECKRY5B1QIH1N6NFX1ECCW5ZDKIZQ","","360.0999999642372","img/flower6.png","76","361.19999998807907","3","1","1","2","1,0,0,1,1,0,1,0,1","0,0,1,1,0,1,0,1,1","2",""
"","html-keyboard-response","312","250840","0.0-312.0","3E7TUJ2EGD8N956IANB6XAAN0NZD94","A3ITZNJQUTIZ4C","3ECKRY5B1QIH1N6NFX1ECCW5ZDKIZQ","","null","<img src=""img/flower6.png"" style=""width:200px; border:14px solid green;"">","null","","","","","","","","",""
"","image-keyboard-response","313","251188","0.0-313.0","3E7TUJ2EGD8N956IANB6XAAN0NZD94","A3ITZNJQUTIZ4C","3ECKRY5B1QIH1N6NFX1ECCW5ZDKIZQ","","346.30000001192093","img/flower5.png","76","347.69999998807907","3","1","2","2","1,0,0,1,1,0,1,0,1","0,0,1,1,0,1,0,1,1","2",""
"","html-keyboard-response","314","251492","0.0-314.0","3E7TUJ2EGD8N956IANB6XAAN0NZD94","A3ITZNJQUTIZ4C","3ECKRY5B1QIH1N6NFX1ECCW5ZDKIZQ","","null","<img src=""img/flower5.png"" style=""width:200px; border:14px solid green;"">","null","","","","","","","","",""
"","image-keyboard-response","315","251695","0.0-315.0","3E7TUJ2EGD8N956IANB6XAAN0NZD94","A3ITZNJQUTIZ4C","3ECKRY5B1QIH1N6NFX1ECCW5ZDKIZQ","","201.10000002384186","img/flower5.png","76","202.5","3","1","2","2","1,0,0,1,1,0,1,0,1","0,0,1,1,0,1,0,1,1","2",""
"","html-keyboard-response","316","252003","0.0-316.0","3E7TUJ2EGD8N956IANB6XAAN0NZD94","A3ITZNJQUTIZ4C","3ECKRY5B1QIH1N6NFX1ECCW5ZDKIZQ","","null","<img src=""img/flower5.png"" style=""width:200px; border:14px solid green;"">","null","","","","","","","","",""
"","image-keyboard-response","317","252316","0.0-317.0","3E7TUJ2EGD8N956IANB6XAAN0NZD94","A3ITZNJQUTIZ4C","3ECKRY5B1QIH1N6NFX1ECCW5ZDKIZQ","","311.5999999642372","img/flower1.png","76","312.60000002384186","3","1","3","2","1,0,0,1,1,0,1,0,1","0,0,1,1,0,1,0,1,1","2",""
"","html-keyboard-response","318","252620","0.0-318.0","3E7TUJ2EGD8N956IANB6XAAN0NZD94","A3ITZNJQUTIZ4C","3ECKRY5B1QIH1N6NFX1ECCW5ZDKIZQ","","null","<img src=""img/flower1.png"" style=""width:200px; border:14px solid green;"">","null","","","","","","","","",""
"","image-keyboard-response","319","252755","0.0-319.0","3E7TUJ2EGD8N956IANB6XAAN0NZD94","A3ITZNJQUTIZ4C","3ECKRY5B1QIH1N6NFX1ECCW5ZDKIZQ","","133.19999998807907","img/flower5.png","76","134.5","3","1","2","2","1,0,0,1,1,0,1,0,1","0,0,1,1,0,1,0,1,1","2",""
"","html-keyboard-response","320","253073","0.0-320.0","3E7TUJ2EGD8N956IANB6XAAN0NZD94","A3ITZNJQUTIZ4C","3ECKRY5B1QIH1N6NFX1ECCW5ZDKIZQ","","null","<img src=""img/flower5.png"" style=""width:200px; border:14px solid green;"">","null","","","","","","","","",""
"","image-keyboard-response","321","253183","0.0-321.0","3E7TUJ2EGD8N956IANB6XAAN0NZD94","A3ITZNJQUTIZ4C","3ECKRY5B1QIH1N6NFX1ECCW5ZDKIZQ","","108.60000002384186","img/flower5.png","76","109.80000001192093","3","1","2","2","1,0,0,1,1,0,1,0,1","0,0,1,1,0,1,0,1,1","2",""
"","html-keyboard-response","322","253498","0.0-322.0","3E7TUJ2EGD8N956IANB6XAAN0NZD94","A3ITZNJQUTIZ4C","3ECKRY5B1QIH1N6NFX1ECCW5ZDKIZQ","","null","<img src=""img/flower5.png"" style=""width:200px; border:14px solid green;"">","null","","","","","","","","",""
"","image-keyboard-response","323","253596","0.0-323.0","3E7TUJ2EGD8N956IANB6XAAN0NZD94","A3ITZNJQUTIZ4C","3ECKRY5B1QIH1N6NFX1ECCW5ZDKIZQ","","96.80000001192093","img/flower5.png","76","98.19999998807907","3","1","2","2","1,0,0,1,1,0,1,0,1","0,0,1,1,0,1,0,1,1","2",""
"","html-keyboard-response","324","253901","0.0-324.0","3E7TUJ2EGD8N956IANB6XAAN0NZD94","A3ITZNJQUTIZ4C","3ECKRY5B1QIH1N6NFX1ECCW5ZDKIZQ","","null","<img src=""img/flower5.png"" style=""width:200px; border:14px solid green;"">","null","","","","","","","","",""
"","image-keyboard-response","325","254005","0.0-325.0","3E7TUJ2EGD8N956IANB6XAAN0NZD94","A3ITZNJQUTIZ4C","3ECKRY5B1QIH1N6NFX1ECCW5ZDKIZQ","","102.89999997615814","img/flower5.png","76","104.40000003576279","3","1","2","2","1,0,0,1,1,0,1,0,1","0,0,1,1,0,1,0,1,1","2",""
"","html-keyboard-response","326","254318","0.0-326.0","3E7TUJ2EGD8N956IANB6XAAN0NZD94","A3ITZNJQUTIZ4C","3ECKRY5B1QIH1N6NFX1ECCW5ZDKIZQ","","null","<img src=""img/flower5.png"" style=""width:200px; border:14px solid green;"">","null","","","","","","","","",""
"","image-keyboard-response","327","254394","0.0-327.0","3E7TUJ2EGD8N956IANB6XAAN0NZD94","A3ITZNJQUTIZ4C","3ECKRY5B1QIH1N6NFX1ECCW5ZDKIZQ","","74.59999996423721","img/flower6.png","76","75.80000001192093","3","1","1","2","1,0,0,1,1,0,1,0,1","0,0,1,1,0,1,0,1,1","2",""
"","html-keyboard-response","328","254699","0.0-328.0","3E7TUJ2EGD8N956IANB6XAAN0NZD94","A3ITZNJQUTIZ4C","3ECKRY5B1QIH1N6NFX1ECCW5ZDKIZQ","","null","<img src=""img/flower6.png"" style=""width:200px; border:14px solid green;"">","null","","","","","","","","",""
"","image-keyboard-response","329","254925","0.0-329.0","3E7TUJ2EGD8N956IANB6XAAN0NZD94","A3ITZNJQUTIZ4C","3ECKRY5B1QIH1N6NFX1ECCW5ZDKIZQ","","223.80000001192093","img/flower6.png","76","225.39999997615814","3","1","1","2","1,0,0,1,1,0,1,0,1","0,0,1,1,0,1,0,1,1","2",""
"","html-keyboard-response","330","255234","0.0-330.0","3E7TUJ2EGD8N956IANB6XAAN0NZD94","A3ITZNJQUTIZ4C","3ECKRY5B1QIH1N6NFX1ECCW5ZDKIZQ","","null","<img src=""img/flower6.png"" style=""width:200px; border:14px solid green;"">","null","","","","","","","","",""
"","image-keyboard-response","331","255281","0.0-331.0","3E7TUJ2EGD8N956IANB6XAAN0NZD94","A3ITZNJQUTIZ4C","3ECKRY5B1QIH1N6NFX1ECCW5ZDKIZQ","","44.40000003576279","img/flower6.png","76","45.60000002384186","3","1","1","2","1,0,0,1,1,0,1,0,1","0,0,1,1,0,1,0,1,1","2",""
"","html-keyboard-response","332","255593","0.0-332.0","3E7TUJ2EGD8N956IANB6XAAN0NZD94","A3ITZNJQUTIZ4C","3ECKRY5B1QIH1N6NFX1ECCW5ZDKIZQ","","null","<img src=""img/flower6.png"" style=""width:200px; border:14px solid green;"">","null","","","","","","","","",""
"","image-keyboard-response","333","255627","0.0-333.0","3E7TUJ2EGD8N956IANB6XAAN0NZD94","A3ITZNJQUTIZ4C","3ECKRY5B1QIH1N6NFX1ECCW5ZDKIZQ","","32.700000047683716","img/flower6.png","76","34.10000002384186","3","1","1","2","1,0,0,1,1,0,1,0,1","0,0,1,1,0,1,0,1,1","2",""
"","html-keyboard-response","334","255931","0.0-334.0","3E7TUJ2EGD8N956IANB6XAAN0NZD94","A3ITZNJQUTIZ4C","3ECKRY5B1QIH1N6NFX1ECCW5ZDKIZQ","","null","<img src=""img/flower6.png"" style=""width:200px; border:14px solid green;"">","null","","","","","","","","",""
"","image-keyboard-response","335","255951","0.0-335.0","3E7TUJ2EGD8N956IANB6XAAN0NZD94","A3ITZNJQUTIZ4C","3ECKRY5B1QIH1N6NFX1ECCW5ZDKIZQ","","19.599999964237213","img/flower5.png","76","20.5","3","1","2","2","1,0,0,1,1,0,1,0,1","0,0,1,1,0,1,0,1,1","2",""
"","html-keyboard-response","336","256253","0.0-336.0","3E7TUJ2EGD8N956IANB6XAAN0NZD94","A3ITZNJQUTIZ4C","3ECKRY5B1QIH1N6NFX1ECCW5ZDKIZQ","","null","<img src=""img/flower5.png"" style=""width:200px; border:14px solid green;"">","null","","","","","","","","",""
"","image-keyboard-response","337","256528","0.0-337.0","3E7TUJ2EGD8N956IANB6XAAN0NZD94","A3ITZNJQUTIZ4C","3ECKRY5B1QIH1N6NFX1ECCW5ZDKIZQ","","272.80000001192093","img/flower1.png","76","274.0999999642372","3","1","3","2","1,0,0,1,1,0,1,0,1","0,0,1,1,0,1,0,1,1","2",""
"","html-keyboard-response","338","256838","0.0-338.0","3E7TUJ2EGD8N956IANB6XAAN0NZD94","A3ITZNJQUTIZ4C","3ECKRY5B1QIH1N6NFX1ECCW5ZDKIZQ","","null","<img src=""img/flower1.png"" style=""width:200px; border:14px solid green;"">","null","","","","","","","","",""
"","image-keyboard-response","339","257082","0.0-339.0","3E7TUJ2EGD8N956IANB6XAAN0NZD94","A3ITZNJQUTIZ4C","3ECKRY5B1QIH1N6NFX1ECCW5ZDKIZQ","","241.69999998807907","img/flower1.png","76","243.0999999642372","3","1","3","2","1,0,0,1,1,0,1,0,1","0,0,1,1,0,1,0,1,1","2",""
"","html-keyboard-response","340","257388","0.0-340.0","3E7TUJ2EGD8N956IANB6XAAN0NZD94","A3ITZNJQUTIZ4C","3ECKRY5B1QIH1N6NFX1ECCW5ZDKIZQ","","null","<img src=""img/flower1.png"" style=""width:200px; border:14px solid green;"">","null","","","","","","","","",""
"","image-keyboard-response","341","257503","0.0-341.0","3E7TUJ2EGD8N956IANB6XAAN0NZD94","A3ITZNJQUTIZ4C","3ECKRY5B1QIH1N6NFX1ECCW5ZDKIZQ","","112.80000001192093","img/flower1.png","76","114.39999997615814","3","1","3","2","1,0,0,1,1,0,1,0,1","0,0,1,1,0,1,0,1,1","2",""
"","html-keyboard-response","342","257821","0.0-342.0","3E7TUJ2EGD8N956IANB6XAAN0NZD94","A3ITZNJQUTIZ4C","3ECKRY5B1QIH1N6NFX1ECCW5ZDKIZQ","","null","<img src=""img/flower1.png"" style=""width:200px; border:14px solid green;"">","null","","","","","","","","",""
"","image-keyboard-response","343","257864","0.0-343.0","3E7TUJ2EGD8N956IANB6XAAN0NZD94","A3ITZNJQUTIZ4C","3ECKRY5B1QIH1N6NFX1ECCW5ZDKIZQ","","41.39999997615814","img/flower1.png","76","42.80000001192093","3","1","3","2","1,0,0,1,1,0,1,0,1","0,0,1,1,0,1,0,1,1","2",""
"","html-keyboard-response","344","258166","0.0-344.0","3E7TUJ2EGD8N956IANB6XAAN0NZD94","A3ITZNJQUTIZ4C","3ECKRY5B1QIH1N6NFX1ECCW5ZDKIZQ","","null","<img src=""img/flower1.png"" style=""width:200px; border:14px solid green;"">","null","","","","","","","","",""
"","image-keyboard-response","345","258195","0.0-345.0","3E7TUJ2EGD8N956IANB6XAAN0NZD94","A3ITZNJQUTIZ4C","3ECKRY5B1QIH1N6NFX1ECCW5ZDKIZQ","","27.400000035762787","img/flower6.png","76","28.69999998807907","3","1","1","2","1,0,0,1,1,0,1,0,1","0,0,1,1,0,1,0,1,1","2",""
"","html-keyboard-response","346","258501","0.0-346.0","3E7TUJ2EGD8N956IANB6XAAN0NZD94","A3ITZNJQUTIZ4C","3ECKRY5B1QIH1N6NFX1ECCW5ZDKIZQ","","null","<img src=""img/flower6.png"" style=""width:200px; border:14px solid green;"">","null","","","","","","","","",""
"","image-keyboard-response","347","258818","0.0-347.0","3E7TUJ2EGD8N956IANB6XAAN0NZD94","A3ITZNJQUTIZ4C","3ECKRY5B1QIH1N6NFX1ECCW5ZDKIZQ","","315.2999999523163","img/flower6.png","76","316.5","3","1","1","2","1,0,0,1,1,0,1,0,1","0,0,1,1,0,1,0,1,1","2",""
"","html-keyboard-response","348","259124","0.0-348.0","3E7TUJ2EGD8N956IANB6XAAN0NZD94","A3ITZNJQUTIZ4C","3ECKRY5B1QIH1N6NFX1ECCW5ZDKIZQ","","null","<img src=""img/flower6.png"" style=""width:200px; border:14px solid green;"">","null","","","","","","","","",""
"","image-keyboard-response","349","259192","0.0-349.0","3E7TUJ2EGD8N956IANB6XAAN0NZD94","A3ITZNJQUTIZ4C","3ECKRY5B1QIH1N6NFX1ECCW5ZDKIZQ","","66.19999998807907","img/flower5.png","76","67.59999996423721","3","1","2","2","1,0,0,1,1,0,1,0,1","0,0,1,1,0,1,0,1,1","2",""
"","html-keyboard-response","350","259498","0.0-350.0","3E7TUJ2EGD8N956IANB6XAAN0NZD94","A3ITZNJQUTIZ4C","3ECKRY5B1QIH1N6NFX1ECCW5ZDKIZQ","","null","<img src=""img/flower5.png"" style=""width:200px; border:14px solid green;"">","null","","","","","","","","",""
"","image-keyboard-response","351","259579","0.0-351.0","3E7TUJ2EGD8N956IANB6XAAN0NZD94","A3ITZNJQUTIZ4C","3ECKRY5B1QIH1N6NFX1ECCW5ZDKIZQ","","79.30000001192093","img/flower1.png","76","80.69999998807907","3","1","3","2","1,0,0,1,1,0,1,0,1","0,0,1,1,0,1,0,1,1","2",""
"","html-keyboard-response","352","259886","0.0-352.0","3E7TUJ2EGD8N956IANB6XAAN0NZD94","A3ITZNJQUTIZ4C","3ECKRY5B1QIH1N6NFX1ECCW5ZDKIZQ","","null","<img src=""img/flower1.png"" style=""width:200px; border:14px solid green;"">","null","","","","","","","","",""
"","image-keyboard-response","353","259943","0.0-353.0","3E7TUJ2EGD8N956IANB6XAAN0NZD94","A3ITZNJQUTIZ4C","3ECKRY5B1QIH1N6NFX1ECCW5ZDKIZQ","","55.30000001192093","img/flower6.png","76","56.700000047683716","3","1","1","2","1,0,0,1,1,0,1,0,1","0,0,1,1,0,1,0,1,1","2",""
"","html-keyboard-response","354","260245","0.0-354.0","3E7TUJ2EGD8N956IANB6XAAN0NZD94","A3ITZNJQUTIZ4C","3ECKRY5B1QIH1N6NFX1ECCW5ZDKIZQ","","null","<img src=""img/flower6.png"" style=""width:200px; border:14px solid green;"">","null","","","","","","","","",""
"","image-keyboard-response","355","260519","0.0-355.0","3E7TUJ2EGD8N956IANB6XAAN0NZD94","A3ITZNJQUTIZ4C","3ECKRY5B1QIH1N6NFX1ECCW5ZDKIZQ","","271.89999997615814","img/flower1.png","76","273.60000002384186","3","1","3","2","1,0,0,1,1,0,1,0,1","0,0,1,1,0,1,0,1,1","2",""
"","html-keyboard-response","356","260824","0.0-356.0","3E7TUJ2EGD8N956IANB6XAAN0NZD94","A3ITZNJQUTIZ4C","3ECKRY5B1QIH1N6NFX1ECCW5ZDKIZQ","","null","<img src=""img/flower1.png"" style=""width:200px; border:14px solid green;"">","null","","","","","","","","",""
"","image-keyboard-response","357","260832","0.0-357.0","3E7TUJ2EGD8N956IANB6XAAN0NZD94","A3ITZNJQUTIZ4C","3ECKRY5B1QIH1N6NFX1ECCW5ZDKIZQ","","5.700000047683716","img/flower1.png","76","7.5","3","1","3","2","1,0,0,1,1,0,1,0,1","0,0,1,1,0,1,0,1,1","2",""
"","html-keyboard-response","358","261145","0.0-358.0","3E7TUJ2EGD8N956IANB6XAAN0NZD94","A3ITZNJQUTIZ4C","3ECKRY5B1QIH1N6NFX1ECCW5ZDKIZQ","","null","<img src=""img/flower1.png"" style=""width:200px; border:14px solid green;"">","null","","","","","","","","",""
"","image-keyboard-response","359","261151","0.0-359.0","3E7TUJ2EGD8N956IANB6XAAN0NZD94","A3ITZNJQUTIZ4C","3ECKRY5B1QIH1N6NFX1ECCW5ZDKIZQ","","3.700000047683716","img/flower5.png","76","5.300000011920929","3","1","2","2","1,0,0,1,1,0,1,0,1","0,0,1,1,0,1,0,1,1","2",""
"","html-keyboard-response","360","261454","0.0-360.0","3E7TUJ2EGD8N956IANB6XAAN0NZD94","A3ITZNJQUTIZ4C","3ECKRY5B1QIH1N6NFX1ECCW5ZDKIZQ","","null","<img src=""img/flower5.png"" style=""width:200px; border:14px solid green;"">","null","","","","","","","","",""
"","image-keyboard-response","361","261488","0.0-361.0","3E7TUJ2EGD8N956IANB6XAAN0NZD94","A3ITZNJQUTIZ4C","3ECKRY5B1QIH1N6NFX1ECCW5ZDKIZQ","","32.09999996423721","img/flower6.png","76","33.5","3","1","1","2","1,0,0,1,1,0,1,0,1","0,0,1,1,0,1,0,1,1","2",""
"","html-keyboard-response","362","261790","0.0-362.0","3E7TUJ2EGD8N956IANB6XAAN0NZD94","A3ITZNJQUTIZ4C","3ECKRY5B1QIH1N6NFX1ECCW5ZDKIZQ","","null","<img src=""img/flower6.png"" style=""width:200px; border:14px solid green;"">","null","","","","","","","","",""
