"success","trial_type","trial_index","time_elapsed","internal_node_id","assignmentID","mturkID","hitID","view_history","rt","stimulus","key_press","reactionTime","a","r","s","cond","reward_cond","reward_cond_actual","reward_matrix_idx","responses"
"true","fullscreen","0","4797","0.0-0.0","3TE3O85731U6AV4O7FRBSCJD9J3R2L","A3IXFZZ3JWTCPW","3WRBLBQ2GRU63BU2LFOJL1G32T90GO","","","","","","","","","","","","",""
"","instructions","1","38288","0.0-1.0","3TE3O85731U6AV4O7FRBSCJD9J3R2L","A3IXFZZ3JWTCPW","3WRBLBQ2GRU63BU2LFOJL1G32T90GO","[{""page_index"":0,""viewing_time"":3184.399999999907},{""page_index"":1,""viewing_time"":3737.6999999997206},{""page_index"":2,""viewing_time"":3866.3000000002794},{""page_index"":3,""viewing_time"":3481.600000000093},{""page_index"":4,""viewing_time"":11404.399999999907},{""page_index"":5,""viewing_time"":2808},{""page_index"":6,""viewing_time"":2047.5},{""page_index"":7,""viewing_time"":2957.100000000093}]","33488.39999999991","","","","","","","","","","",""
"","image-keyboard-response","2","40292","0.0-2.0","3TE3O85731U6AV4O7FRBSCJD9J3R2L","A3IXFZZ3JWTCPW","3WRBLBQ2GRU63BU2LFOJL1G32T90GO","","","img/flower3.png","","2003","-1","0","1","2","1,0,0,1,1,0,1,0,1","0,1,0,0,1,1,1,1,0","3",""
"","html-keyboard-response","3","40595","0.0-3.0","3TE3O85731U6AV4O7FRBSCJD9J3R2L","A3IXFZZ3JWTCPW","3WRBLBQ2GRU63BU2LFOJL1G32T90GO","","null","<img src=""img/flower3.png"" style=""width:200px;border:14px solid red;"">","null","","","","","","","","",""
"","image-keyboard-response","4","42308","0.0-4.0","3TE3O85731U6AV4O7FRBSCJD9J3R2L","A3IXFZZ3JWTCPW","3WRBLBQ2GRU63BU2LFOJL1G32T90GO","","1707.5999999996275","img/flower4.png","75","1709","2","1","2","2","1,0,0,1,1,0,1,0,1","0,1,0,0,1,1,1,1,0","3",""
"","html-keyboard-response","5","42611","0.0-5.0","3TE3O85731U6AV4O7FRBSCJD9J3R2L","A3IXFZZ3JWTCPW","3WRBLBQ2GRU63BU2LFOJL1G32T90GO","","null","<img src=""img/flower4.png"" style=""width:200px; border:14px solid green;"">","null","","","","","","","","",""
"","image-keyboard-response","6","44613","0.0-6.0","3TE3O85731U6AV4O7FRBSCJD9J3R2L","A3IXFZZ3JWTCPW","3WRBLBQ2GRU63BU2LFOJL1G32T90GO","","","img/flower6.png","","2001.7999999998137","-1","0","3","2","1,0,0,1,1,0,1,0,1","0,1,0,0,1,1,1,1,0","3",""
"","html-keyboard-response","7","44915","0.0-7.0","3TE3O85731U6AV4O7FRBSCJD9J3R2L","A3IXFZZ3JWTCPW","3WRBLBQ2GRU63BU2LFOJL1G32T90GO","","null","<img src=""img/flower6.png"" style=""width:200px;border:14px solid red;"">","null","","","","","","","","",""
"","image-keyboard-response","8","45334","0.0-8.0","3TE3O85731U6AV4O7FRBSCJD9J3R2L","A3IXFZZ3JWTCPW","3WRBLBQ2GRU63BU2LFOJL1G32T90GO","","415.79999999981374","img/flower6.png","75","417.60000000009313","2","1","3","2","1,0,0,1,1,0,1,0,1","0,1,0,0,1,1,1,1,0","3",""
"","html-keyboard-response","9","45636","0.0-9.0","3TE3O85731U6AV4O7FRBSCJD9J3R2L","A3IXFZZ3JWTCPW","3WRBLBQ2GRU63BU2LFOJL1G32T90GO","","null","<img src=""img/flower6.png"" style=""width:200px; border:14px solid green;"">","null","","","","","","","","",""
"","image-keyboard-response","10","46484","0.0-10.0","3TE3O85731U6AV4O7FRBSCJD9J3R2L","A3IXFZZ3JWTCPW","3WRBLBQ2GRU63BU2LFOJL1G32T90GO","","845.1999999997206","img/flower6.png","75","846.6999999997206","2","1","3","2","1,0,0,1,1,0,1,0,1","0,1,0,0,1,1,1,1,0","3",""
"","html-keyboard-response","11","46787","0.0-11.0","3TE3O85731U6AV4O7FRBSCJD9J3R2L","A3IXFZZ3JWTCPW","3WRBLBQ2GRU63BU2LFOJL1G32T90GO","","null","<img src=""img/flower6.png"" style=""width:200px; border:14px solid green;"">","null","","","","","","","","",""
"","image-keyboard-response","12","47473","0.0-12.0","3TE3O85731U6AV4O7FRBSCJD9J3R2L","A3IXFZZ3JWTCPW","3WRBLBQ2GRU63BU2LFOJL1G32T90GO","","683.3999999999069","img/flower4.png","74","685.1000000000931","1","0","2","2","1,0,0,1,1,0,1,0,1","0,1,0,0,1,1,1,1,0","3",""
"","html-keyboard-response","13","47775","0.0-13.0","3TE3O85731U6AV4O7FRBSCJD9J3R2L","A3IXFZZ3JWTCPW","3WRBLBQ2GRU63BU2LFOJL1G32T90GO","","null","<img src=""img/flower4.png"" style=""width:200px;border:14px solid red;"">","null","","","","","","","","",""
"","image-keyboard-response","14","48053","0.0-14.0","3TE3O85731U6AV4O7FRBSCJD9J3R2L","A3IXFZZ3JWTCPW","3WRBLBQ2GRU63BU2LFOJL1G32T90GO","","276.60000000009313","img/flower4.png","74","277.6999999997206","1","0","2","2","1,0,0,1,1,0,1,0,1","0,1,0,0,1,1,1,1,0","3",""
"","html-keyboard-response","15","48355","0.0-15.0","3TE3O85731U6AV4O7FRBSCJD9J3R2L","A3IXFZZ3JWTCPW","3WRBLBQ2GRU63BU2LFOJL1G32T90GO","","null","<img src=""img/flower4.png"" style=""width:200px;border:14px solid red;"">","null","","","","","","","","",""
"","image-keyboard-response","16","48628","0.0-16.0","3TE3O85731U6AV4O7FRBSCJD9J3R2L","A3IXFZZ3JWTCPW","3WRBLBQ2GRU63BU2LFOJL1G32T90GO","","271.1999999997206","img/flower3.png","76","272.60000000009313","3","0","1","2","1,0,0,1,1,0,1,0,1","0,1,0,0,1,1,1,1,0","3",""
"","html-keyboard-response","17","48930","0.0-17.0","3TE3O85731U6AV4O7FRBSCJD9J3R2L","A3IXFZZ3JWTCPW","3WRBLBQ2GRU63BU2LFOJL1G32T90GO","","null","<img src=""img/flower3.png"" style=""width:200px;border:14px solid red;"">","null","","","","","","","","",""
"","image-keyboard-response","18","49584","0.0-18.0","3TE3O85731U6AV4O7FRBSCJD9J3R2L","A3IXFZZ3JWTCPW","3WRBLBQ2GRU63BU2LFOJL1G32T90GO","","651.5999999996275","img/flower3.png","76","652.9000000003725","3","0","1","2","1,0,0,1,1,0,1,0,1","0,1,0,0,1,1,1,1,0","3",""
"","html-keyboard-response","19","49885","0.0-19.0","3TE3O85731U6AV4O7FRBSCJD9J3R2L","A3IXFZZ3JWTCPW","3WRBLBQ2GRU63BU2LFOJL1G32T90GO","","null","<img src=""img/flower3.png"" style=""width:200px;border:14px solid red;"">","null","","","","","","","","",""
"","image-keyboard-response","20","50283","0.0-20.0","3TE3O85731U6AV4O7FRBSCJD9J3R2L","A3IXFZZ3JWTCPW","3WRBLBQ2GRU63BU2LFOJL1G32T90GO","","396.10000000009313","img/flower3.png","76","397.29999999981374","3","0","1","2","1,0,0,1,1,0,1,0,1","0,1,0,0,1,1,1,1,0","3",""
"","html-keyboard-response","21","50585","0.0-21.0","3TE3O85731U6AV4O7FRBSCJD9J3R2L","A3IXFZZ3JWTCPW","3WRBLBQ2GRU63BU2LFOJL1G32T90GO","","null","<img src=""img/flower3.png"" style=""width:200px;border:14px solid red;"">","null","","","","","","","","",""
"","image-keyboard-response","22","51507","0.0-22.0","3TE3O85731U6AV4O7FRBSCJD9J3R2L","A3IXFZZ3JWTCPW","3WRBLBQ2GRU63BU2LFOJL1G32T90GO","","920","img/flower6.png","75","921.6000000000931","2","1","3","2","1,0,0,1,1,0,1,0,1","0,1,0,0,1,1,1,1,0","3",""
"","html-keyboard-response","23","51809","0.0-23.0","3TE3O85731U6AV4O7FRBSCJD9J3R2L","A3IXFZZ3JWTCPW","3WRBLBQ2GRU63BU2LFOJL1G32T90GO","","null","<img src=""img/flower6.png"" style=""width:200px; border:14px solid green;"">","null","","","","","","","","",""
"","image-keyboard-response","24","52516","0.0-24.0","3TE3O85731U6AV4O7FRBSCJD9J3R2L","A3IXFZZ3JWTCPW","3WRBLBQ2GRU63BU2LFOJL1G32T90GO","","704.6000000000931","img/flower4.png","74","705.8999999999069","1","0","2","2","1,0,0,1,1,0,1,0,1","0,1,0,0,1,1,1,1,0","3",""
"","html-keyboard-response","25","52818","0.0-25.0","3TE3O85731U6AV4O7FRBSCJD9J3R2L","A3IXFZZ3JWTCPW","3WRBLBQ2GRU63BU2LFOJL1G32T90GO","","null","<img src=""img/flower4.png"" style=""width:200px;border:14px solid red;"">","null","","","","","","","","",""
"","image-keyboard-response","26","53808","0.0-26.0","3TE3O85731U6AV4O7FRBSCJD9J3R2L","A3IXFZZ3JWTCPW","3WRBLBQ2GRU63BU2LFOJL1G32T90GO","","987.7999999998137","img/flower6.png","75","989.2000000001863","2","1","3","2","1,0,0,1,1,0,1,0,1","0,1,0,0,1,1,1,1,0","3",""
"","html-keyboard-response","27","54109","0.0-27.0","3TE3O85731U6AV4O7FRBSCJD9J3R2L","A3IXFZZ3JWTCPW","3WRBLBQ2GRU63BU2LFOJL1G32T90GO","","null","<img src=""img/flower6.png"" style=""width:200px; border:14px solid green;"">","null","","","","","","","","",""
"","image-keyboard-response","28","54650","0.0-28.0","3TE3O85731U6AV4O7FRBSCJD9J3R2L","A3IXFZZ3JWTCPW","3WRBLBQ2GRU63BU2LFOJL1G32T90GO","","538.5999999996275","img/flower6.png","75","539.8000000002794","2","1","3","2","1,0,0,1,1,0,1,0,1","0,1,0,0,1,1,1,1,0","3",""
"","html-keyboard-response","29","54952","0.0-29.0","3TE3O85731U6AV4O7FRBSCJD9J3R2L","A3IXFZZ3JWTCPW","3WRBLBQ2GRU63BU2LFOJL1G32T90GO","","null","<img src=""img/flower6.png"" style=""width:200px; border:14px solid green;"">","null","","","","","","","","",""
"","image-keyboard-response","30","55413","0.0-30.0","3TE3O85731U6AV4O7FRBSCJD9J3R2L","A3IXFZZ3JWTCPW","3WRBLBQ2GRU63BU2LFOJL1G32T90GO","","459.70000000018626","img/flower6.png","75","461.09999999962747","2","1","3","2","1,0,0,1,1,0,1,0,1","0,1,0,0,1,1,1,1,0","3",""
"","html-keyboard-response","31","55715","0.0-31.0","3TE3O85731U6AV4O7FRBSCJD9J3R2L","A3IXFZZ3JWTCPW","3WRBLBQ2GRU63BU2LFOJL1G32T90GO","","null","<img src=""img/flower6.png"" style=""width:200px; border:14px solid green;"">","null","","","","","","","","",""
"","image-keyboard-response","32","56535","0.0-32.0","3TE3O85731U6AV4O7FRBSCJD9J3R2L","A3IXFZZ3JWTCPW","3WRBLBQ2GRU63BU2LFOJL1G32T90GO","","818.7000000001863","img/flower4.png","76","819.7999999998137","3","1","2","2","1,0,0,1,1,0,1,0,1","0,1,0,0,1,1,1,1,0","3",""
"","html-keyboard-response","33","56837","0.0-33.0","3TE3O85731U6AV4O7FRBSCJD9J3R2L","A3IXFZZ3JWTCPW","3WRBLBQ2GRU63BU2LFOJL1G32T90GO","","null","<img src=""img/flower4.png"" style=""width:200px; border:14px solid green;"">","null","","","","","","","","",""
"","image-keyboard-response","34","57262","0.0-34.0","3TE3O85731U6AV4O7FRBSCJD9J3R2L","A3IXFZZ3JWTCPW","3WRBLBQ2GRU63BU2LFOJL1G32T90GO","","422.70000000018626","img/flower3.png","76","424","3","0","1","2","1,0,0,1,1,0,1,0,1","0,1,0,0,1,1,1,1,0","3",""
"","html-keyboard-response","35","57563","0.0-35.0","3TE3O85731U6AV4O7FRBSCJD9J3R2L","A3IXFZZ3JWTCPW","3WRBLBQ2GRU63BU2LFOJL1G32T90GO","","null","<img src=""img/flower3.png"" style=""width:200px;border:14px solid red;"">","null","","","","","","","","",""
"","image-keyboard-response","36","59351","0.0-36.0","3TE3O85731U6AV4O7FRBSCJD9J3R2L","A3IXFZZ3JWTCPW","3WRBLBQ2GRU63BU2LFOJL1G32T90GO","","1786.3000000002794","img/flower4.png","74","1787.3999999999069","1","0","2","2","1,0,0,1,1,0,1,0,1","0,1,0,0,1,1,1,1,0","3",""
"","html-keyboard-response","37","59653","0.0-37.0","3TE3O85731U6AV4O7FRBSCJD9J3R2L","A3IXFZZ3JWTCPW","3WRBLBQ2GRU63BU2LFOJL1G32T90GO","","null","<img src=""img/flower4.png"" style=""width:200px;border:14px solid red;"">","null","","","","","","","","",""
"","image-keyboard-response","38","60692","0.0-38.0","3TE3O85731U6AV4O7FRBSCJD9J3R2L","A3IXFZZ3JWTCPW","3WRBLBQ2GRU63BU2LFOJL1G32T90GO","","1037.5","img/flower3.png","75","1038.6999999997206","2","1","1","2","1,0,0,1,1,0,1,0,1","0,1,0,0,1,1,1,1,0","3",""
"","html-keyboard-response","39","60994","0.0-39.0","3TE3O85731U6AV4O7FRBSCJD9J3R2L","A3IXFZZ3JWTCPW","3WRBLBQ2GRU63BU2LFOJL1G32T90GO","","null","<img src=""img/flower3.png"" style=""width:200px; border:14px solid green;"">","null","","","","","","","","",""
"","image-keyboard-response","40","61796","0.0-40.0","3TE3O85731U6AV4O7FRBSCJD9J3R2L","A3IXFZZ3JWTCPW","3WRBLBQ2GRU63BU2LFOJL1G32T90GO","","799.3999999999069","img/flower4.png","74","800.5","1","0","2","2","1,0,0,1,1,0,1,0,1","0,1,0,0,1,1,1,1,0","3",""
"","html-keyboard-response","41","62097","0.0-41.0","3TE3O85731U6AV4O7FRBSCJD9J3R2L","A3IXFZZ3JWTCPW","3WRBLBQ2GRU63BU2LFOJL1G32T90GO","","null","<img src=""img/flower4.png"" style=""width:200px;border:14px solid red;"">","null","","","","","","","","",""
"","image-keyboard-response","42","62720","0.0-42.0","3TE3O85731U6AV4O7FRBSCJD9J3R2L","A3IXFZZ3JWTCPW","3WRBLBQ2GRU63BU2LFOJL1G32T90GO","","621.1000000000931","img/flower3.png","75","622.2999999998137","2","1","1","2","1,0,0,1,1,0,1,0,1","0,1,0,0,1,1,1,1,0","3",""
"","html-keyboard-response","43","63023","0.0-43.0","3TE3O85731U6AV4O7FRBSCJD9J3R2L","A3IXFZZ3JWTCPW","3WRBLBQ2GRU63BU2LFOJL1G32T90GO","","null","<img src=""img/flower3.png"" style=""width:200px; border:14px solid green;"">","null","","","","","","","","",""
"","image-keyboard-response","44","63425","0.0-44.0","3TE3O85731U6AV4O7FRBSCJD9J3R2L","A3IXFZZ3JWTCPW","3WRBLBQ2GRU63BU2LFOJL1G32T90GO","","400.5","img/flower3.png","74","401.60000000009313","1","0","1","2","1,0,0,1,1,0,1,0,1","0,1,0,0,1,1,1,1,0","3",""
"","html-keyboard-response","45","63727","0.0-45.0","3TE3O85731U6AV4O7FRBSCJD9J3R2L","A3IXFZZ3JWTCPW","3WRBLBQ2GRU63BU2LFOJL1G32T90GO","","null","<img src=""img/flower3.png"" style=""width:200px;border:14px solid red;"">","null","","","","","","","","",""
"","image-keyboard-response","46","64019","0.0-46.0","3TE3O85731U6AV4O7FRBSCJD9J3R2L","A3IXFZZ3JWTCPW","3WRBLBQ2GRU63BU2LFOJL1G32T90GO","","290.60000000009313","img/flower4.png","76","291.6999999997206","3","1","2","2","1,0,0,1,1,0,1,0,1","0,1,0,0,1,1,1,1,0","3",""
"","html-keyboard-response","47","64321","0.0-47.0","3TE3O85731U6AV4O7FRBSCJD9J3R2L","A3IXFZZ3JWTCPW","3WRBLBQ2GRU63BU2LFOJL1G32T90GO","","null","<img src=""img/flower4.png"" style=""width:200px; border:14px solid green;"">","null","","","","","","","","",""
"","image-keyboard-response","48","64374","0.0-48.0","3TE3O85731U6AV4O7FRBSCJD9J3R2L","A3IXFZZ3JWTCPW","3WRBLBQ2GRU63BU2LFOJL1G32T90GO","","50.90000000037253","img/flower6.png","74","52.200000000186265","1","1","3","2","1,0,0,1,1,0,1,0,1","0,1,0,0,1,1,1,1,0","3",""
"","html-keyboard-response","49","64676","0.0-49.0","3TE3O85731U6AV4O7FRBSCJD9J3R2L","A3IXFZZ3JWTCPW","3WRBLBQ2GRU63BU2LFOJL1G32T90GO","","null","<img src=""img/flower6.png"" style=""width:200px; border:14px solid green;"">","null","","","","","","","","",""
"","image-keyboard-response","50","64795","0.0-50.0","3TE3O85731U6AV4O7FRBSCJD9J3R2L","A3IXFZZ3JWTCPW","3WRBLBQ2GRU63BU2LFOJL1G32T90GO","","117.59999999962747","img/flower3.png","76","118.8000000002794","3","0","1","2","1,0,0,1,1,0,1,0,1","0,1,0,0,1,1,1,1,0","3",""
"","html-keyboard-response","51","65097","0.0-51.0","3TE3O85731U6AV4O7FRBSCJD9J3R2L","A3IXFZZ3JWTCPW","3WRBLBQ2GRU63BU2LFOJL1G32T90GO","","null","<img src=""img/flower3.png"" style=""width:200px;border:14px solid red;"">","null","","","","","","","","",""
"","image-keyboard-response","52","65151","0.0-52.0","3TE3O85731U6AV4O7FRBSCJD9J3R2L","A3IXFZZ3JWTCPW","3WRBLBQ2GRU63BU2LFOJL1G32T90GO","","53","img/flower3.png","75","54.10000000009313","2","1","1","2","1,0,0,1,1,0,1,0,1","0,1,0,0,1,1,1,1,0","3",""
"","html-keyboard-response","53","65453","0.0-53.0","3TE3O85731U6AV4O7FRBSCJD9J3R2L","A3IXFZZ3JWTCPW","3WRBLBQ2GRU63BU2LFOJL1G32T90GO","","null","<img src=""img/flower3.png"" style=""width:200px; border:14px solid green;"">","null","","","","","","","","",""
"","image-keyboard-response","54","65471","0.0-54.0","3TE3O85731U6AV4O7FRBSCJD9J3R2L","A3IXFZZ3JWTCPW","3WRBLBQ2GRU63BU2LFOJL1G32T90GO","","15.700000000186265","img/flower3.png","74","16.899999999906868","1","0","1","2","1,0,0,1,1,0,1,0,1","0,1,0,0,1,1,1,1,0","3",""
"","html-keyboard-response","55","65773","0.0-55.0","3TE3O85731U6AV4O7FRBSCJD9J3R2L","A3IXFZZ3JWTCPW","3WRBLBQ2GRU63BU2LFOJL1G32T90GO","","null","<img src=""img/flower3.png"" style=""width:200px;border:14px solid red;"">","null","","","","","","","","",""
"","image-keyboard-response","56","65914","0.0-56.0","3TE3O85731U6AV4O7FRBSCJD9J3R2L","A3IXFZZ3JWTCPW","3WRBLBQ2GRU63BU2LFOJL1G32T90GO","","139.5","img/flower4.png","75","140.6999999997206","2","1","2","2","1,0,0,1,1,0,1,0,1","0,1,0,0,1,1,1,1,0","3",""
"","html-keyboard-response","57","66216","0.0-57.0","3TE3O85731U6AV4O7FRBSCJD9J3R2L","A3IXFZZ3JWTCPW","3WRBLBQ2GRU63BU2LFOJL1G32T90GO","","null","<img src=""img/flower4.png"" style=""width:200px; border:14px solid green;"">","null","","","","","","","","",""
"","image-keyboard-response","58","66887","0.0-58.0","3TE3O85731U6AV4O7FRBSCJD9J3R2L","A3IXFZZ3JWTCPW","3WRBLBQ2GRU63BU2LFOJL1G32T90GO","","669.3000000002794","img/flower6.png","75","670.9000000003725","2","1","3","2","1,0,0,1,1,0,1,0,1","0,1,0,0,1,1,1,1,0","3",""
"","html-keyboard-response","59","67189","0.0-59.0","3TE3O85731U6AV4O7FRBSCJD9J3R2L","A3IXFZZ3JWTCPW","3WRBLBQ2GRU63BU2LFOJL1G32T90GO","","null","<img src=""img/flower6.png"" style=""width:200px; border:14px solid green;"">","null","","","","","","","","",""
"","image-keyboard-response","60","67234","0.0-60.0","3TE3O85731U6AV4O7FRBSCJD9J3R2L","A3IXFZZ3JWTCPW","3WRBLBQ2GRU63BU2LFOJL1G32T90GO","","43.09999999962747","img/flower4.png","75","44.3000000002794","2","1","2","2","1,0,0,1,1,0,1,0,1","0,1,0,0,1,1,1,1,0","3",""
"","html-keyboard-response","61","67535","0.0-61.0","3TE3O85731U6AV4O7FRBSCJD9J3R2L","A3IXFZZ3JWTCPW","3WRBLBQ2GRU63BU2LFOJL1G32T90GO","","null","<img src=""img/flower4.png"" style=""width:200px; border:14px solid green;"">","null","","","","","","","","",""
"","image-keyboard-response","62","68384","0.0-62.0","3TE3O85731U6AV4O7FRBSCJD9J3R2L","A3IXFZZ3JWTCPW","3WRBLBQ2GRU63BU2LFOJL1G32T90GO","","846.6999999997206","img/flower6.png","75","847.7000000001863","2","1","3","2","1,0,0,1,1,0,1,0,1","0,1,0,0,1,1,1,1,0","3",""
"","html-keyboard-response","63","68686","0.0-63.0","3TE3O85731U6AV4O7FRBSCJD9J3R2L","A3IXFZZ3JWTCPW","3WRBLBQ2GRU63BU2LFOJL1G32T90GO","","null","<img src=""img/flower6.png"" style=""width:200px; border:14px solid green;"">","null","","","","","","","","",""
"","image-keyboard-response","64","69293","0.0-64.0","3TE3O85731U6AV4O7FRBSCJD9J3R2L","A3IXFZZ3JWTCPW","3WRBLBQ2GRU63BU2LFOJL1G32T90GO","","605.7000000001863","img/flower3.png","76","606.8000000002794","3","0","1","2","1,0,0,1,1,0,1,0,1","0,1,0,0,1,1,1,1,0","3",""
"","html-keyboard-response","65","69595","0.0-65.0","3TE3O85731U6AV4O7FRBSCJD9J3R2L","A3IXFZZ3JWTCPW","3WRBLBQ2GRU63BU2LFOJL1G32T90GO","","null","<img src=""img/flower3.png"" style=""width:200px;border:14px solid red;"">","null","","","","","","","","",""
"","image-keyboard-response","66","70473","0.0-66.0","3TE3O85731U6AV4O7FRBSCJD9J3R2L","A3IXFZZ3JWTCPW","3WRBLBQ2GRU63BU2LFOJL1G32T90GO","","876.5","img/flower4.png","74","877.8000000002794","1","0","2","2","1,0,0,1,1,0,1,0,1","0,1,0,0,1,1,1,1,0","3",""
"","html-keyboard-response","67","70775","0.0-67.0","3TE3O85731U6AV4O7FRBSCJD9J3R2L","A3IXFZZ3JWTCPW","3WRBLBQ2GRU63BU2LFOJL1G32T90GO","","null","<img src=""img/flower4.png"" style=""width:200px;border:14px solid red;"">","null","","","","","","","","",""
"","image-keyboard-response","68","71683","0.0-68.0","3TE3O85731U6AV4O7FRBSCJD9J3R2L","A3IXFZZ3JWTCPW","3WRBLBQ2GRU63BU2LFOJL1G32T90GO","","905.1000000000931","img/flower3.png","75","906.4000000003725","2","1","1","2","1,0,0,1,1,0,1,0,1","0,1,0,0,1,1,1,1,0","3",""
"","html-keyboard-response","69","71984","0.0-69.0","3TE3O85731U6AV4O7FRBSCJD9J3R2L","A3IXFZZ3JWTCPW","3WRBLBQ2GRU63BU2LFOJL1G32T90GO","","null","<img src=""img/flower3.png"" style=""width:200px; border:14px solid green;"">","null","","","","","","","","",""
"","image-keyboard-response","70","72414","0.0-70.0","3TE3O85731U6AV4O7FRBSCJD9J3R2L","A3IXFZZ3JWTCPW","3WRBLBQ2GRU63BU2LFOJL1G32T90GO","","425.8000000002794","img/flower3.png","75","427.3000000002794","2","1","1","2","1,0,0,1,1,0,1,0,1","0,1,0,0,1,1,1,1,0","3",""
"","html-keyboard-response","71","72716","0.0-71.0","3TE3O85731U6AV4O7FRBSCJD9J3R2L","A3IXFZZ3JWTCPW","3WRBLBQ2GRU63BU2LFOJL1G32T90GO","","null","<img src=""img/flower3.png"" style=""width:200px; border:14px solid green;"">","null","","","","","","","","",""
"","image-keyboard-response","72","73053","0.0-72.0","3TE3O85731U6AV4O7FRBSCJD9J3R2L","A3IXFZZ3JWTCPW","3WRBLBQ2GRU63BU2LFOJL1G32T90GO","","335.09999999962747","img/flower3.png","75","336.3000000002794","2","1","1","2","1,0,0,1,1,0,1,0,1","0,1,0,0,1,1,1,1,0","3",""
"","html-keyboard-response","73","73355","0.0-73.0","3TE3O85731U6AV4O7FRBSCJD9J3R2L","A3IXFZZ3JWTCPW","3WRBLBQ2GRU63BU2LFOJL1G32T90GO","","null","<img src=""img/flower3.png"" style=""width:200px; border:14px solid green;"">","null","","","","","","","","",""
"","image-keyboard-response","74","74478","0.0-74.0","3TE3O85731U6AV4O7FRBSCJD9J3R2L","A3IXFZZ3JWTCPW","3WRBLBQ2GRU63BU2LFOJL1G32T90GO","","1121","img/flower6.png","75","1122.3999999999069","2","1","3","2","1,0,0,1,1,0,1,0,1","0,1,0,0,1,1,1,1,0","3",""
"","html-keyboard-response","75","74779","0.0-75.0","3TE3O85731U6AV4O7FRBSCJD9J3R2L","A3IXFZZ3JWTCPW","3WRBLBQ2GRU63BU2LFOJL1G32T90GO","","null","<img src=""img/flower6.png"" style=""width:200px; border:14px solid green;"">","null","","","","","","","","",""
"","image-keyboard-response","76","76095","0.0-76.0","3TE3O85731U6AV4O7FRBSCJD9J3R2L","A3IXFZZ3JWTCPW","3WRBLBQ2GRU63BU2LFOJL1G32T90GO","","1313.8999999999069","img/flower3.png","74","1315","1","0","1","2","1,0,0,1,1,0,1,0,1","0,1,0,0,1,1,1,1,0","3",""
"","html-keyboard-response","77","76397","0.0-77.0","3TE3O85731U6AV4O7FRBSCJD9J3R2L","A3IXFZZ3JWTCPW","3WRBLBQ2GRU63BU2LFOJL1G32T90GO","","null","<img src=""img/flower3.png"" style=""width:200px;border:14px solid red;"">","null","","","","","","","","",""
"","image-keyboard-response","78","77108","0.0-78.0","3TE3O85731U6AV4O7FRBSCJD9J3R2L","A3IXFZZ3JWTCPW","3WRBLBQ2GRU63BU2LFOJL1G32T90GO","","709.6000000000931","img/flower6.png","75","710.6000000000931","2","1","3","2","1,0,0,1,1,0,1,0,1","0,1,0,0,1,1,1,1,0","3",""
"","html-keyboard-response","79","77410","0.0-79.0","3TE3O85731U6AV4O7FRBSCJD9J3R2L","A3IXFZZ3JWTCPW","3WRBLBQ2GRU63BU2LFOJL1G32T90GO","","null","<img src=""img/flower6.png"" style=""width:200px; border:14px solid green;"">","null","","","","","","","","",""
"","image-keyboard-response","80","78391","0.0-80.0","3TE3O85731U6AV4O7FRBSCJD9J3R2L","A3IXFZZ3JWTCPW","3WRBLBQ2GRU63BU2LFOJL1G32T90GO","","979.8999999999069","img/flower3.png","76","981","3","0","1","2","1,0,0,1,1,0,1,0,1","0,1,0,0,1,1,1,1,0","3",""
"","html-keyboard-response","81","78693","0.0-81.0","3TE3O85731U6AV4O7FRBSCJD9J3R2L","A3IXFZZ3JWTCPW","3WRBLBQ2GRU63BU2LFOJL1G32T90GO","","null","<img src=""img/flower3.png"" style=""width:200px;border:14px solid red;"">","null","","","","","","","","",""
"","image-keyboard-response","82","79149","0.0-82.0","3TE3O85731U6AV4O7FRBSCJD9J3R2L","A3IXFZZ3JWTCPW","3WRBLBQ2GRU63BU2LFOJL1G32T90GO","","454.3000000002794","img/flower6.png","74","455.5","1","1","3","2","1,0,0,1,1,0,1,0,1","0,1,0,0,1,1,1,1,0","3",""
"","html-keyboard-response","83","79451","0.0-83.0","3TE3O85731U6AV4O7FRBSCJD9J3R2L","A3IXFZZ3JWTCPW","3WRBLBQ2GRU63BU2LFOJL1G32T90GO","","null","<img src=""img/flower6.png"" style=""width:200px; border:14px solid green;"">","null","","","","","","","","",""
"","image-keyboard-response","84","79919","0.0-84.0","3TE3O85731U6AV4O7FRBSCJD9J3R2L","A3IXFZZ3JWTCPW","3WRBLBQ2GRU63BU2LFOJL1G32T90GO","","466.8000000002794","img/flower4.png","75","468","2","1","2","2","1,0,0,1,1,0,1,0,1","0,1,0,0,1,1,1,1,0","3",""
"","html-keyboard-response","85","80221","0.0-85.0","3TE3O85731U6AV4O7FRBSCJD9J3R2L","A3IXFZZ3JWTCPW","3WRBLBQ2GRU63BU2LFOJL1G32T90GO","","null","<img src=""img/flower4.png"" style=""width:200px; border:14px solid green;"">","null","","","","","","","","",""
"","image-keyboard-response","86","80317","0.0-86.0","3TE3O85731U6AV4O7FRBSCJD9J3R2L","A3IXFZZ3JWTCPW","3WRBLBQ2GRU63BU2LFOJL1G32T90GO","","93.60000000009313","img/flower3.png","76","94.8000000002794","3","0","1","2","1,0,0,1,1,0,1,0,1","0,1,0,0,1,1,1,1,0","3",""
"","html-keyboard-response","87","80618","0.0-87.0","3TE3O85731U6AV4O7FRBSCJD9J3R2L","A3IXFZZ3JWTCPW","3WRBLBQ2GRU63BU2LFOJL1G32T90GO","","null","<img src=""img/flower3.png"" style=""width:200px;border:14px solid red;"">","null","","","","","","","","",""
"","image-keyboard-response","88","80642","0.0-88.0","3TE3O85731U6AV4O7FRBSCJD9J3R2L","A3IXFZZ3JWTCPW","3WRBLBQ2GRU63BU2LFOJL1G32T90GO","","22.40000000037253","img/flower4.png","75","23.399999999906868","2","1","2","2","1,0,0,1,1,0,1,0,1","0,1,0,0,1,1,1,1,0","3",""
"","html-keyboard-response","89","80945","0.0-89.0","3TE3O85731U6AV4O7FRBSCJD9J3R2L","A3IXFZZ3JWTCPW","3WRBLBQ2GRU63BU2LFOJL1G32T90GO","","null","<img src=""img/flower4.png"" style=""width:200px; border:14px solid green;"">","null","","","","","","","","",""
"","image-keyboard-response","90","81209","0.0-90.0","3TE3O85731U6AV4O7FRBSCJD9J3R2L","A3IXFZZ3JWTCPW","3WRBLBQ2GRU63BU2LFOJL1G32T90GO","","262.20000000018626","img/flower6.png","75","263.29999999981374","2","1","3","2","1,0,0,1,1,0,1,0,1","0,1,0,0,1,1,1,1,0","3",""
"","html-keyboard-response","91","81511","0.0-91.0","3TE3O85731U6AV4O7FRBSCJD9J3R2L","A3IXFZZ3JWTCPW","3WRBLBQ2GRU63BU2LFOJL1G32T90GO","","null","<img src=""img/flower6.png"" style=""width:200px; border:14px solid green;"">","null","","","","","","","","",""
"","image-keyboard-response","92","81591","0.0-92.0","3TE3O85731U6AV4O7FRBSCJD9J3R2L","A3IXFZZ3JWTCPW","3WRBLBQ2GRU63BU2LFOJL1G32T90GO","","78.20000000018626","img/flower3.png","74","79.5","1","0","1","2","1,0,0,1,1,0,1,0,1","0,1,0,0,1,1,1,1,0","3",""
"","html-keyboard-response","93","81893","0.0-93.0","3TE3O85731U6AV4O7FRBSCJD9J3R2L","A3IXFZZ3JWTCPW","3WRBLBQ2GRU63BU2LFOJL1G32T90GO","","null","<img src=""img/flower3.png"" style=""width:200px;border:14px solid red;"">","null","","","","","","","","",""
"","image-keyboard-response","94","82047","0.0-94.0","3TE3O85731U6AV4O7FRBSCJD9J3R2L","A3IXFZZ3JWTCPW","3WRBLBQ2GRU63BU2LFOJL1G32T90GO","","152.29999999981374","img/flower6.png","74","153.39999999990687","1","1","3","2","1,0,0,1,1,0,1,0,1","0,1,0,0,1,1,1,1,0","3",""
"","html-keyboard-response","95","82349","0.0-95.0","3TE3O85731U6AV4O7FRBSCJD9J3R2L","A3IXFZZ3JWTCPW","3WRBLBQ2GRU63BU2LFOJL1G32T90GO","","null","<img src=""img/flower6.png"" style=""width:200px; border:14px solid green;"">","null","","","","","","","","",""
"","image-keyboard-response","96","82372","0.0-96.0","3TE3O85731U6AV4O7FRBSCJD9J3R2L","A3IXFZZ3JWTCPW","3WRBLBQ2GRU63BU2LFOJL1G32T90GO","","20.299999999813735","img/flower3.png","75","21.399999999906868","2","1","1","2","1,0,0,1,1,0,1,0,1","0,1,0,0,1,1,1,1,0","3",""
"","html-keyboard-response","97","82674","0.0-97.0","3TE3O85731U6AV4O7FRBSCJD9J3R2L","A3IXFZZ3JWTCPW","3WRBLBQ2GRU63BU2LFOJL1G32T90GO","","null","<img src=""img/flower3.png"" style=""width:200px; border:14px solid green;"">","null","","","","","","","","",""
"","image-keyboard-response","98","82703","0.0-98.0","3TE3O85731U6AV4O7FRBSCJD9J3R2L","A3IXFZZ3JWTCPW","3WRBLBQ2GRU63BU2LFOJL1G32T90GO","","27.799999999813735","img/flower6.png","76","29.199999999720603","3","0","3","2","1,0,0,1,1,0,1,0,1","0,1,0,0,1,1,1,1,0","3",""
"","html-keyboard-response","99","83005","0.0-99.0","3TE3O85731U6AV4O7FRBSCJD9J3R2L","A3IXFZZ3JWTCPW","3WRBLBQ2GRU63BU2LFOJL1G32T90GO","","null","<img src=""img/flower6.png"" style=""width:200px;border:14px solid red;"">","null","","","","","","","","",""
"","image-keyboard-response","100","83047","0.0-100.0","3TE3O85731U6AV4O7FRBSCJD9J3R2L","A3IXFZZ3JWTCPW","3WRBLBQ2GRU63BU2LFOJL1G32T90GO","","39.6999999997206","img/flower3.png","74","41.09999999962747","1","0","1","2","1,0,0,1,1,0,1,0,1","0,1,0,0,1,1,1,1,0","3",""
"","html-keyboard-response","101","83348","0.0-101.0","3TE3O85731U6AV4O7FRBSCJD9J3R2L","A3IXFZZ3JWTCPW","3WRBLBQ2GRU63BU2LFOJL1G32T90GO","","null","<img src=""img/flower3.png"" style=""width:200px;border:14px solid red;"">","null","","","","","","","","",""
"","image-keyboard-response","102","83401","0.0-102.0","3TE3O85731U6AV4O7FRBSCJD9J3R2L","A3IXFZZ3JWTCPW","3WRBLBQ2GRU63BU2LFOJL1G32T90GO","","51.40000000037253","img/flower3.png","74","52.39999999990687","1","0","1","2","1,0,0,1,1,0,1,0,1","0,1,0,0,1,1,1,1,0","3",""
"","html-keyboard-response","103","83703","0.0-103.0","3TE3O85731U6AV4O7FRBSCJD9J3R2L","A3IXFZZ3JWTCPW","3WRBLBQ2GRU63BU2LFOJL1G32T90GO","","null","<img src=""img/flower3.png"" style=""width:200px;border:14px solid red;"">","null","","","","","","","","",""
"","image-keyboard-response","104","83826","0.0-104.0","3TE3O85731U6AV4O7FRBSCJD9J3R2L","A3IXFZZ3JWTCPW","3WRBLBQ2GRU63BU2LFOJL1G32T90GO","","120.5","img/flower6.png","75","121.8000000002794","2","1","3","2","1,0,0,1,1,0,1,0,1","0,1,0,0,1,1,1,1,0","3",""
"","html-keyboard-response","105","84127","0.0-105.0","3TE3O85731U6AV4O7FRBSCJD9J3R2L","A3IXFZZ3JWTCPW","3WRBLBQ2GRU63BU2LFOJL1G32T90GO","","null","<img src=""img/flower6.png"" style=""width:200px; border:14px solid green;"">","null","","","","","","","","",""
"","image-keyboard-response","106","84333","0.0-106.0","3TE3O85731U6AV4O7FRBSCJD9J3R2L","A3IXFZZ3JWTCPW","3WRBLBQ2GRU63BU2LFOJL1G32T90GO","","204.20000000018626","img/flower6.png","74","205.29999999981374","1","1","3","2","1,0,0,1,1,0,1,0,1","0,1,0,0,1,1,1,1,0","3",""
"","html-keyboard-response","107","84635","0.0-107.0","3TE3O85731U6AV4O7FRBSCJD9J3R2L","A3IXFZZ3JWTCPW","3WRBLBQ2GRU63BU2LFOJL1G32T90GO","","null","<img src=""img/flower6.png"" style=""width:200px; border:14px solid green;"">","null","","","","","","","","",""
"","image-keyboard-response","108","84849","0.0-108.0","3TE3O85731U6AV4O7FRBSCJD9J3R2L","A3IXFZZ3JWTCPW","3WRBLBQ2GRU63BU2LFOJL1G32T90GO","","211.89999999990687","img/flower6.png","75","213.10000000009313","2","1","3","2","1,0,0,1,1,0,1,0,1","0,1,0,0,1,1,1,1,0","3",""
"","html-keyboard-response","109","85151","0.0-109.0","3TE3O85731U6AV4O7FRBSCJD9J3R2L","A3IXFZZ3JWTCPW","3WRBLBQ2GRU63BU2LFOJL1G32T90GO","","null","<img src=""img/flower6.png"" style=""width:200px; border:14px solid green;"">","null","","","","","","","","",""
"","image-keyboard-response","110","85209","0.0-110.0","3TE3O85731U6AV4O7FRBSCJD9J3R2L","A3IXFZZ3JWTCPW","3WRBLBQ2GRU63BU2LFOJL1G32T90GO","","56.299999999813735","img/flower4.png","75","57.39999999990687","2","1","2","2","1,0,0,1,1,0,1,0,1","0,1,0,0,1,1,1,1,0","3",""
"","html-keyboard-response","111","85510","0.0-111.0","3TE3O85731U6AV4O7FRBSCJD9J3R2L","A3IXFZZ3JWTCPW","3WRBLBQ2GRU63BU2LFOJL1G32T90GO","","null","<img src=""img/flower4.png"" style=""width:200px; border:14px solid green;"">","null","","","","","","","","",""
"","image-keyboard-response","112","85528","0.0-112.0","3TE3O85731U6AV4O7FRBSCJD9J3R2L","A3IXFZZ3JWTCPW","3WRBLBQ2GRU63BU2LFOJL1G32T90GO","","16.199999999720603","img/flower4.png","76","17.300000000279397","3","1","2","2","1,0,0,1,1,0,1,0,1","0,1,0,0,1,1,1,1,0","3",""
"","html-keyboard-response","113","85830","0.0-113.0","3TE3O85731U6AV4O7FRBSCJD9J3R2L","A3IXFZZ3JWTCPW","3WRBLBQ2GRU63BU2LFOJL1G32T90GO","","null","<img src=""img/flower4.png"" style=""width:200px; border:14px solid green;"">","null","","","","","","","","",""
"","image-keyboard-response","114","85868","0.0-114.0","3TE3O85731U6AV4O7FRBSCJD9J3R2L","A3IXFZZ3JWTCPW","3WRBLBQ2GRU63BU2LFOJL1G32T90GO","","35.89999999990687","img/flower3.png","74","37.09999999962747","1","0","1","2","1,0,0,1,1,0,1,0,1","0,1,0,0,1,1,1,1,0","3",""
"","html-keyboard-response","115","86169","0.0-115.0","3TE3O85731U6AV4O7FRBSCJD9J3R2L","A3IXFZZ3JWTCPW","3WRBLBQ2GRU63BU2LFOJL1G32T90GO","","null","<img src=""img/flower3.png"" style=""width:200px;border:14px solid red;"">","null","","","","","","","","",""
"","image-keyboard-response","116","86248","0.0-116.0","3TE3O85731U6AV4O7FRBSCJD9J3R2L","A3IXFZZ3JWTCPW","3WRBLBQ2GRU63BU2LFOJL1G32T90GO","","76.70000000018626","img/flower4.png","76","77.89999999990687","3","1","2","2","1,0,0,1,1,0,1,0,1","0,1,0,0,1,1,1,1,0","3",""
"","html-keyboard-response","117","86550","0.0-117.0","3TE3O85731U6AV4O7FRBSCJD9J3R2L","A3IXFZZ3JWTCPW","3WRBLBQ2GRU63BU2LFOJL1G32T90GO","","null","<img src=""img/flower4.png"" style=""width:200px; border:14px solid green;"">","null","","","","","","","","",""
"","image-keyboard-response","118","86576","0.0-118.0","3TE3O85731U6AV4O7FRBSCJD9J3R2L","A3IXFZZ3JWTCPW","3WRBLBQ2GRU63BU2LFOJL1G32T90GO","","24.899999999906868","img/flower4.png","76","26","3","1","2","2","1,0,0,1,1,0,1,0,1","0,1,0,0,1,1,1,1,0","3",""
"","html-keyboard-response","119","86878","0.0-119.0","3TE3O85731U6AV4O7FRBSCJD9J3R2L","A3IXFZZ3JWTCPW","3WRBLBQ2GRU63BU2LFOJL1G32T90GO","","null","<img src=""img/flower4.png"" style=""width:200px; border:14px solid green;"">","null","","","","","","","","",""
"","image-keyboard-response","120","87090","0.0-120.0","3TE3O85731U6AV4O7FRBSCJD9J3R2L","A3IXFZZ3JWTCPW","3WRBLBQ2GRU63BU2LFOJL1G32T90GO","","210","img/flower4.png","75","211.20000000018626","2","1","2","2","1,0,0,1,1,0,1,0,1","0,1,0,0,1,1,1,1,0","3",""
"","html-keyboard-response","121","87392","0.0-121.0","3TE3O85731U6AV4O7FRBSCJD9J3R2L","A3IXFZZ3JWTCPW","3WRBLBQ2GRU63BU2LFOJL1G32T90GO","","null","<img src=""img/flower4.png"" style=""width:200px; border:14px solid green;"">","null","","","","","","","","",""
"","image-keyboard-response","122","87476","0.0-122.0","3TE3O85731U6AV4O7FRBSCJD9J3R2L","A3IXFZZ3JWTCPW","3WRBLBQ2GRU63BU2LFOJL1G32T90GO","","83.10000000009313","img/flower3.png","75","84.29999999981374","2","1","1","2","1,0,0,1,1,0,1,0,1","0,1,0,0,1,1,1,1,0","3",""
"","html-keyboard-response","123","87778","0.0-123.0","3TE3O85731U6AV4O7FRBSCJD9J3R2L","A3IXFZZ3JWTCPW","3WRBLBQ2GRU63BU2LFOJL1G32T90GO","","null","<img src=""img/flower3.png"" style=""width:200px; border:14px solid green;"">","null","","","","","","","","",""
"","image-keyboard-response","124","87797","0.0-124.0","3TE3O85731U6AV4O7FRBSCJD9J3R2L","A3IXFZZ3JWTCPW","3WRBLBQ2GRU63BU2LFOJL1G32T90GO","","17.100000000093132","img/flower4.png","75","18.300000000279397","2","1","2","2","1,0,0,1,1,0,1,0,1","0,1,0,0,1,1,1,1,0","3",""
"","html-keyboard-response","125","88111","0.0-125.0","3TE3O85731U6AV4O7FRBSCJD9J3R2L","A3IXFZZ3JWTCPW","3WRBLBQ2GRU63BU2LFOJL1G32T90GO","","null","<img src=""img/flower4.png"" style=""width:200px; border:14px solid green;"">","null","","","","","","","","",""
"","image-keyboard-response","126","88221","0.0-126.0","3TE3O85731U6AV4O7FRBSCJD9J3R2L","A3IXFZZ3JWTCPW","3WRBLBQ2GRU63BU2LFOJL1G32T90GO","","108.70000000018626","img/flower3.png","75","109.70000000018626","2","1","1","2","1,0,0,1,1,0,1,0,1","0,1,0,0,1,1,1,1,0","3",""
"","html-keyboard-response","127","88523","0.0-127.0","3TE3O85731U6AV4O7FRBSCJD9J3R2L","A3IXFZZ3JWTCPW","3WRBLBQ2GRU63BU2LFOJL1G32T90GO","","null","<img src=""img/flower3.png"" style=""width:200px; border:14px solid green;"">","null","","","","","","","","",""
"","image-keyboard-response","128","88663","0.0-128.0","3TE3O85731U6AV4O7FRBSCJD9J3R2L","A3IXFZZ3JWTCPW","3WRBLBQ2GRU63BU2LFOJL1G32T90GO","","138.1999999997206","img/flower4.png","74","139.29999999981374","1","0","2","2","1,0,0,1,1,0,1,0,1","0,1,0,0,1,1,1,1,0","3",""
"","html-keyboard-response","129","88965","0.0-129.0","3TE3O85731U6AV4O7FRBSCJD9J3R2L","A3IXFZZ3JWTCPW","3WRBLBQ2GRU63BU2LFOJL1G32T90GO","","null","<img src=""img/flower4.png"" style=""width:200px;border:14px solid red;"">","null","","","","","","","","",""
"","image-keyboard-response","130","89314","0.0-130.0","3TE3O85731U6AV4O7FRBSCJD9J3R2L","A3IXFZZ3JWTCPW","3WRBLBQ2GRU63BU2LFOJL1G32T90GO","","347.20000000018626","img/flower3.png","76","348.29999999981374","3","0","1","2","1,0,0,1,1,0,1,0,1","0,1,0,0,1,1,1,1,0","3",""
"","html-keyboard-response","131","89616","0.0-131.0","3TE3O85731U6AV4O7FRBSCJD9J3R2L","A3IXFZZ3JWTCPW","3WRBLBQ2GRU63BU2LFOJL1G32T90GO","","null","<img src=""img/flower3.png"" style=""width:200px;border:14px solid red;"">","null","","","","","","","","",""
"","image-keyboard-response","132","89824","0.0-132.0","3TE3O85731U6AV4O7FRBSCJD9J3R2L","A3IXFZZ3JWTCPW","3WRBLBQ2GRU63BU2LFOJL1G32T90GO","","206.29999999981374","img/flower4.png","75","207.29999999981374","2","1","2","2","1,0,0,1,1,0,1,0,1","0,1,0,0,1,1,1,1,0","3",""
"","html-keyboard-response","133","90125","0.0-133.0","3TE3O85731U6AV4O7FRBSCJD9J3R2L","A3IXFZZ3JWTCPW","3WRBLBQ2GRU63BU2LFOJL1G32T90GO","","null","<img src=""img/flower4.png"" style=""width:200px; border:14px solid green;"">","null","","","","","","","","",""
"","image-keyboard-response","134","90296","0.0-134.0","3TE3O85731U6AV4O7FRBSCJD9J3R2L","A3IXFZZ3JWTCPW","3WRBLBQ2GRU63BU2LFOJL1G32T90GO","","168.8000000002794","img/flower6.png","76","170.10000000009313","3","0","3","2","1,0,0,1,1,0,1,0,1","0,1,0,0,1,1,1,1,0","3",""
"","html-keyboard-response","135","90598","0.0-135.0","3TE3O85731U6AV4O7FRBSCJD9J3R2L","A3IXFZZ3JWTCPW","3WRBLBQ2GRU63BU2LFOJL1G32T90GO","","null","<img src=""img/flower6.png"" style=""width:200px;border:14px solid red;"">","null","","","","","","","","",""
"","image-keyboard-response","136","90786","0.0-136.0","3TE3O85731U6AV4O7FRBSCJD9J3R2L","A3IXFZZ3JWTCPW","3WRBLBQ2GRU63BU2LFOJL1G32T90GO","","186.1999999997206","img/flower6.png","74","187.5","1","1","3","2","1,0,0,1,1,0,1,0,1","0,1,0,0,1,1,1,1,0","3",""
"","html-keyboard-response","137","91087","0.0-137.0","3TE3O85731U6AV4O7FRBSCJD9J3R2L","A3IXFZZ3JWTCPW","3WRBLBQ2GRU63BU2LFOJL1G32T90GO","","null","<img src=""img/flower6.png"" style=""width:200px; border:14px solid green;"">","null","","","","","","","","",""
"","image-keyboard-response","138","91221","0.0-138.0","3TE3O85731U6AV4O7FRBSCJD9J3R2L","A3IXFZZ3JWTCPW","3WRBLBQ2GRU63BU2LFOJL1G32T90GO","","131.6999999997206","img/flower6.png","76","132.8000000002794","3","0","3","2","1,0,0,1,1,0,1,0,1","0,1,0,0,1,1,1,1,0","3",""
"","html-keyboard-response","139","91523","0.0-139.0","3TE3O85731U6AV4O7FRBSCJD9J3R2L","A3IXFZZ3JWTCPW","3WRBLBQ2GRU63BU2LFOJL1G32T90GO","","null","<img src=""img/flower6.png"" style=""width:200px;border:14px solid red;"">","null","","","","","","","","",""
"","image-keyboard-response","140","91681","0.0-140.0","3TE3O85731U6AV4O7FRBSCJD9J3R2L","A3IXFZZ3JWTCPW","3WRBLBQ2GRU63BU2LFOJL1G32T90GO","","155.70000000018626","img/flower4.png","74","157.10000000009313","1","0","2","2","1,0,0,1,1,0,1,0,1","0,1,0,0,1,1,1,1,0","3",""
"","html-keyboard-response","141","91983","0.0-141.0","3TE3O85731U6AV4O7FRBSCJD9J3R2L","A3IXFZZ3JWTCPW","3WRBLBQ2GRU63BU2LFOJL1G32T90GO","","null","<img src=""img/flower4.png"" style=""width:200px;border:14px solid red;"">","null","","","","","","","","",""
"","image-keyboard-response","142","92071","0.0-142.0","3TE3O85731U6AV4O7FRBSCJD9J3R2L","A3IXFZZ3JWTCPW","3WRBLBQ2GRU63BU2LFOJL1G32T90GO","","87.20000000018626","img/flower3.png","76","88.3000000002794","3","0","1","2","1,0,0,1,1,0,1,0,1","0,1,0,0,1,1,1,1,0","3",""
"","html-keyboard-response","143","92373","0.0-143.0","3TE3O85731U6AV4O7FRBSCJD9J3R2L","A3IXFZZ3JWTCPW","3WRBLBQ2GRU63BU2LFOJL1G32T90GO","","null","<img src=""img/flower3.png"" style=""width:200px;border:14px solid red;"">","null","","","","","","","","",""
"","image-keyboard-response","144","92584","0.0-144.0","3TE3O85731U6AV4O7FRBSCJD9J3R2L","A3IXFZZ3JWTCPW","3WRBLBQ2GRU63BU2LFOJL1G32T90GO","","208","img/flower3.png","74","209.10000000009313","1","0","1","2","1,0,0,1,1,0,1,0,1","0,1,0,0,1,1,1,1,0","3",""
"","html-keyboard-response","145","92885","0.0-145.0","3TE3O85731U6AV4O7FRBSCJD9J3R2L","A3IXFZZ3JWTCPW","3WRBLBQ2GRU63BU2LFOJL1G32T90GO","","null","<img src=""img/flower3.png"" style=""width:200px;border:14px solid red;"">","null","","","","","","","","",""
"","image-keyboard-response","146","93019","0.0-146.0","3TE3O85731U6AV4O7FRBSCJD9J3R2L","A3IXFZZ3JWTCPW","3WRBLBQ2GRU63BU2LFOJL1G32T90GO","","131.90000000037253","img/flower6.png","75","133.10000000009313","2","1","3","2","1,0,0,1,1,0,1,0,1","0,1,0,0,1,1,1,1,0","3",""
"","html-keyboard-response","147","93321","0.0-147.0","3TE3O85731U6AV4O7FRBSCJD9J3R2L","A3IXFZZ3JWTCPW","3WRBLBQ2GRU63BU2LFOJL1G32T90GO","","null","<img src=""img/flower6.png"" style=""width:200px; border:14px solid green;"">","null","","","","","","","","",""
"","image-keyboard-response","148","93424","0.0-148.0","3TE3O85731U6AV4O7FRBSCJD9J3R2L","A3IXFZZ3JWTCPW","3WRBLBQ2GRU63BU2LFOJL1G32T90GO","","100.89999999990687","img/flower6.png","74","102","1","1","3","2","1,0,0,1,1,0,1,0,1","0,1,0,0,1,1,1,1,0","3",""
"","html-keyboard-response","149","93726","0.0-149.0","3TE3O85731U6AV4O7FRBSCJD9J3R2L","A3IXFZZ3JWTCPW","3WRBLBQ2GRU63BU2LFOJL1G32T90GO","","null","<img src=""img/flower6.png"" style=""width:200px; border:14px solid green;"">","null","","","","","","","","",""
"","image-keyboard-response","150","93926","0.0-150.0","3TE3O85731U6AV4O7FRBSCJD9J3R2L","A3IXFZZ3JWTCPW","3WRBLBQ2GRU63BU2LFOJL1G32T90GO","","198.29999999981374","img/flower4.png","75","199.5","2","1","2","2","1,0,0,1,1,0,1,0,1","0,1,0,0,1,1,1,1,0","3",""
"","html-keyboard-response","151","94228","0.0-151.0","3TE3O85731U6AV4O7FRBSCJD9J3R2L","A3IXFZZ3JWTCPW","3WRBLBQ2GRU63BU2LFOJL1G32T90GO","","null","<img src=""img/flower4.png"" style=""width:200px; border:14px solid green;"">","null","","","","","","","","",""
"","image-keyboard-response","152","94430","0.0-152.0","3TE3O85731U6AV4O7FRBSCJD9J3R2L","A3IXFZZ3JWTCPW","3WRBLBQ2GRU63BU2LFOJL1G32T90GO","","200.20000000018626","img/flower4.png","76","201.60000000009313","3","1","2","2","1,0,0,1,1,0,1,0,1","0,1,0,0,1,1,1,1,0","3",""
"","html-keyboard-response","153","94733","0.0-153.0","3TE3O85731U6AV4O7FRBSCJD9J3R2L","A3IXFZZ3JWTCPW","3WRBLBQ2GRU63BU2LFOJL1G32T90GO","","null","<img src=""img/flower4.png"" style=""width:200px; border:14px solid green;"">","null","","","","","","","","",""
"","image-keyboard-response","154","95037","0.0-154.0","3TE3O85731U6AV4O7FRBSCJD9J3R2L","A3IXFZZ3JWTCPW","3WRBLBQ2GRU63BU2LFOJL1G32T90GO","","302.39999999990687","img/flower6.png","76","303.5","3","0","3","2","1,0,0,1,1,0,1,0,1","0,1,0,0,1,1,1,1,0","3",""
"","html-keyboard-response","155","95338","0.0-155.0","3TE3O85731U6AV4O7FRBSCJD9J3R2L","A3IXFZZ3JWTCPW","3WRBLBQ2GRU63BU2LFOJL1G32T90GO","","null","<img src=""img/flower6.png"" style=""width:200px;border:14px solid red;"">","null","","","","","","","","",""
"","image-keyboard-response","156","95498","0.0-156.0","3TE3O85731U6AV4O7FRBSCJD9J3R2L","A3IXFZZ3JWTCPW","3WRBLBQ2GRU63BU2LFOJL1G32T90GO","","157.60000000009313","img/flower4.png","74","159","1","0","2","2","1,0,0,1,1,0,1,0,1","0,1,0,0,1,1,1,1,0","3",""
"","html-keyboard-response","157","95800","0.0-157.0","3TE3O85731U6AV4O7FRBSCJD9J3R2L","A3IXFZZ3JWTCPW","3WRBLBQ2GRU63BU2LFOJL1G32T90GO","","null","<img src=""img/flower4.png"" style=""width:200px;border:14px solid red;"">","null","","","","","","","","",""
"","image-keyboard-response","158","95876","0.0-158.0","3TE3O85731U6AV4O7FRBSCJD9J3R2L","A3IXFZZ3JWTCPW","3WRBLBQ2GRU63BU2LFOJL1G32T90GO","","74.60000000009313","img/flower4.png","75","75.70000000018626","2","1","2","2","1,0,0,1,1,0,1,0,1","0,1,0,0,1,1,1,1,0","3",""
"","html-keyboard-response","159","96178","0.0-159.0","3TE3O85731U6AV4O7FRBSCJD9J3R2L","A3IXFZZ3JWTCPW","3WRBLBQ2GRU63BU2LFOJL1G32T90GO","","null","<img src=""img/flower4.png"" style=""width:200px; border:14px solid green;"">","null","","","","","","","","",""
"","image-keyboard-response","160","96414","0.0-160.0","3TE3O85731U6AV4O7FRBSCJD9J3R2L","A3IXFZZ3JWTCPW","3WRBLBQ2GRU63BU2LFOJL1G32T90GO","","234","img/flower4.png","74","235","1","0","2","2","1,0,0,1,1,0,1,0,1","0,1,0,0,1,1,1,1,0","3",""
"","html-keyboard-response","161","96716","0.0-161.0","3TE3O85731U6AV4O7FRBSCJD9J3R2L","A3IXFZZ3JWTCPW","3WRBLBQ2GRU63BU2LFOJL1G32T90GO","","null","<img src=""img/flower4.png"" style=""width:200px;border:14px solid red;"">","null","","","","","","","","",""
"","image-keyboard-response","162","96845","0.0-162.0","3TE3O85731U6AV4O7FRBSCJD9J3R2L","A3IXFZZ3JWTCPW","3WRBLBQ2GRU63BU2LFOJL1G32T90GO","","127.60000000009313","img/flower4.png","76","128.89999999990687","3","1","2","2","1,0,0,1,1,0,1,0,1","0,1,0,0,1,1,1,1,0","3",""
"","html-keyboard-response","163","97147","0.0-163.0","3TE3O85731U6AV4O7FRBSCJD9J3R2L","A3IXFZZ3JWTCPW","3WRBLBQ2GRU63BU2LFOJL1G32T90GO","","null","<img src=""img/flower4.png"" style=""width:200px; border:14px solid green;"">","null","","","","","","","","",""
"","image-keyboard-response","164","97190","0.0-164.0","3TE3O85731U6AV4O7FRBSCJD9J3R2L","A3IXFZZ3JWTCPW","3WRBLBQ2GRU63BU2LFOJL1G32T90GO","","41.10000000009313","img/flower6.png","76","42.200000000186265","3","0","3","2","1,0,0,1,1,0,1,0,1","0,1,0,0,1,1,1,1,0","3",""
"","html-keyboard-response","165","97491","0.0-165.0","3TE3O85731U6AV4O7FRBSCJD9J3R2L","A3IXFZZ3JWTCPW","3WRBLBQ2GRU63BU2LFOJL1G32T90GO","","null","<img src=""img/flower6.png"" style=""width:200px;border:14px solid red;"">","null","","","","","","","","",""
"","image-keyboard-response","166","97535","0.0-166.0","3TE3O85731U6AV4O7FRBSCJD9J3R2L","A3IXFZZ3JWTCPW","3WRBLBQ2GRU63BU2LFOJL1G32T90GO","","41","img/flower6.png","74","42.299999999813735","1","1","3","2","1,0,0,1,1,0,1,0,1","0,1,0,0,1,1,1,1,0","3",""
"","html-keyboard-response","167","97837","0.0-167.0","3TE3O85731U6AV4O7FRBSCJD9J3R2L","A3IXFZZ3JWTCPW","3WRBLBQ2GRU63BU2LFOJL1G32T90GO","","null","<img src=""img/flower6.png"" style=""width:200px; border:14px solid green;"">","null","","","","","","","","",""
"","image-keyboard-response","168","98007","0.0-168.0","3TE3O85731U6AV4O7FRBSCJD9J3R2L","A3IXFZZ3JWTCPW","3WRBLBQ2GRU63BU2LFOJL1G32T90GO","","168.29999999981374","img/flower6.png","76","169.5","3","0","3","2","1,0,0,1,1,0,1,0,1","0,1,0,0,1,1,1,1,0","3",""
"","html-keyboard-response","169","98309","0.0-169.0","3TE3O85731U6AV4O7FRBSCJD9J3R2L","A3IXFZZ3JWTCPW","3WRBLBQ2GRU63BU2LFOJL1G32T90GO","","null","<img src=""img/flower6.png"" style=""width:200px;border:14px solid red;"">","null","","","","","","","","",""
"","image-keyboard-response","170","98399","0.0-170.0","3TE3O85731U6AV4O7FRBSCJD9J3R2L","A3IXFZZ3JWTCPW","3WRBLBQ2GRU63BU2LFOJL1G32T90GO","","88.3000000002794","img/flower3.png","76","89.39999999990687","3","0","1","2","1,0,0,1,1,0,1,0,1","0,1,0,0,1,1,1,1,0","3",""
"","html-keyboard-response","171","98700","0.0-171.0","3TE3O85731U6AV4O7FRBSCJD9J3R2L","A3IXFZZ3JWTCPW","3WRBLBQ2GRU63BU2LFOJL1G32T90GO","","null","<img src=""img/flower3.png"" style=""width:200px;border:14px solid red;"">","null","","","","","","","","",""
"","image-keyboard-response","172","98913","0.0-172.0","3TE3O85731U6AV4O7FRBSCJD9J3R2L","A3IXFZZ3JWTCPW","3WRBLBQ2GRU63BU2LFOJL1G32T90GO","","210.5","img/flower6.png","74","211.89999999990687","1","1","3","2","1,0,0,1,1,0,1,0,1","0,1,0,0,1,1,1,1,0","3",""
"","html-keyboard-response","173","99215","0.0-173.0","3TE3O85731U6AV4O7FRBSCJD9J3R2L","A3IXFZZ3JWTCPW","3WRBLBQ2GRU63BU2LFOJL1G32T90GO","","null","<img src=""img/flower6.png"" style=""width:200px; border:14px solid green;"">","null","","","","","","","","",""
"","image-keyboard-response","174","99258","0.0-174.0","3TE3O85731U6AV4O7FRBSCJD9J3R2L","A3IXFZZ3JWTCPW","3WRBLBQ2GRU63BU2LFOJL1G32T90GO","","41.299999999813735","img/flower4.png","75","42.799999999813735","2","1","2","2","1,0,0,1,1,0,1,0,1","0,1,0,0,1,1,1,1,0","3",""
"","html-keyboard-response","175","99560","0.0-175.0","3TE3O85731U6AV4O7FRBSCJD9J3R2L","A3IXFZZ3JWTCPW","3WRBLBQ2GRU63BU2LFOJL1G32T90GO","","null","<img src=""img/flower4.png"" style=""width:200px; border:14px solid green;"">","null","","","","","","","","",""
"","image-keyboard-response","176","99758","0.0-176.0","3TE3O85731U6AV4O7FRBSCJD9J3R2L","A3IXFZZ3JWTCPW","3WRBLBQ2GRU63BU2LFOJL1G32T90GO","","196.20000000018626","img/flower3.png","76","197.5","3","0","1","2","1,0,0,1,1,0,1,0,1","0,1,0,0,1,1,1,1,0","3",""
"","html-keyboard-response","177","100060","0.0-177.0","3TE3O85731U6AV4O7FRBSCJD9J3R2L","A3IXFZZ3JWTCPW","3WRBLBQ2GRU63BU2LFOJL1G32T90GO","","null","<img src=""img/flower3.png"" style=""width:200px;border:14px solid red;"">","null","","","","","","","","",""
"","image-keyboard-response","178","100114","0.0-178.0","3TE3O85731U6AV4O7FRBSCJD9J3R2L","A3IXFZZ3JWTCPW","3WRBLBQ2GRU63BU2LFOJL1G32T90GO","","52.799999999813735","img/flower4.png","74","53.90000000037253","1","0","2","2","1,0,0,1,1,0,1,0,1","0,1,0,0,1,1,1,1,0","3",""
"","html-keyboard-response","179","100416","0.0-179.0","3TE3O85731U6AV4O7FRBSCJD9J3R2L","A3IXFZZ3JWTCPW","3WRBLBQ2GRU63BU2LFOJL1G32T90GO","","null","<img src=""img/flower4.png"" style=""width:200px;border:14px solid red;"">","null","","","","","","","","",""
"","image-keyboard-response","180","100455","0.0-180.0","3TE3O85731U6AV4O7FRBSCJD9J3R2L","A3IXFZZ3JWTCPW","3WRBLBQ2GRU63BU2LFOJL1G32T90GO","","37","img/flower6.png","74","38.40000000037253","1","1","3","2","1,0,0,1,1,0,1,0,1","0,1,0,0,1,1,1,1,0","3",""
"","html-keyboard-response","181","100757","0.0-181.0","3TE3O85731U6AV4O7FRBSCJD9J3R2L","A3IXFZZ3JWTCPW","3WRBLBQ2GRU63BU2LFOJL1G32T90GO","","null","<img src=""img/flower6.png"" style=""width:200px; border:14px solid green;"">","null","","","","","","","","",""
"","image-keyboard-response","182","100839","0.0-182.0","3TE3O85731U6AV4O7FRBSCJD9J3R2L","A3IXFZZ3JWTCPW","3WRBLBQ2GRU63BU2LFOJL1G32T90GO","","81.20000000018626","img/flower1.png","75","82","2","1","2","1","1,0.333,0.333,0.333,1,0.333,0.333,0.333,1","1,0.333,0.333,0.333,1,0.333,0.333,0.333,1","1",""
"","html-keyboard-response","183","101141","0.0-183.0","3TE3O85731U6AV4O7FRBSCJD9J3R2L","A3IXFZZ3JWTCPW","3WRBLBQ2GRU63BU2LFOJL1G32T90GO","","null","<img src=""img/flower1.png"" style=""width:200px; border:14px solid green;"">","null","","","","","","","","",""
"","image-keyboard-response","184","101297","0.0-184.0","3TE3O85731U6AV4O7FRBSCJD9J3R2L","A3IXFZZ3JWTCPW","3WRBLBQ2GRU63BU2LFOJL1G32T90GO","","153.20000000018626","img/flower1.png","76","154.39999999990687","3","0","2","1","1,0.333,0.333,0.333,1,0.333,0.333,0.333,1","1,0.333,0.333,0.333,1,0.333,0.333,0.333,1","1",""
"","html-keyboard-response","185","101599","0.0-185.0","3TE3O85731U6AV4O7FRBSCJD9J3R2L","A3IXFZZ3JWTCPW","3WRBLBQ2GRU63BU2LFOJL1G32T90GO","","null","<img src=""img/flower1.png"" style=""width:200px;border:14px solid red;"">","null","","","","","","","","",""
"","image-keyboard-response","186","101707","0.0-186.0","3TE3O85731U6AV4O7FRBSCJD9J3R2L","A3IXFZZ3JWTCPW","3WRBLBQ2GRU63BU2LFOJL1G32T90GO","","106.79999999981374","img/flower2.png","75","108","2","0","1","1","1,0.333,0.333,0.333,1,0.333,0.333,0.333,1","1,0.333,0.333,0.333,1,0.333,0.333,0.333,1","1",""
"","html-keyboard-response","187","102009","0.0-187.0","3TE3O85731U6AV4O7FRBSCJD9J3R2L","A3IXFZZ3JWTCPW","3WRBLBQ2GRU63BU2LFOJL1G32T90GO","","null","<img src=""img/flower2.png"" style=""width:200px;border:14px solid red;"">","null","","","","","","","","",""
"","image-keyboard-response","188","102327","0.0-188.0","3TE3O85731U6AV4O7FRBSCJD9J3R2L","A3IXFZZ3JWTCPW","3WRBLBQ2GRU63BU2LFOJL1G32T90GO","","316.20000000018626","img/flower2.png","74","317.1999999997206","1","1","1","1","1,0.333,0.333,0.333,1,0.333,0.333,0.333,1","1,0.333,0.333,0.333,1,0.333,0.333,0.333,1","1",""
"","html-keyboard-response","189","102629","0.0-189.0","3TE3O85731U6AV4O7FRBSCJD9J3R2L","A3IXFZZ3JWTCPW","3WRBLBQ2GRU63BU2LFOJL1G32T90GO","","null","<img src=""img/flower2.png"" style=""width:200px; border:14px solid green;"">","null","","","","","","","","",""
"","image-keyboard-response","190","102806","0.0-190.0","3TE3O85731U6AV4O7FRBSCJD9J3R2L","A3IXFZZ3JWTCPW","3WRBLBQ2GRU63BU2LFOJL1G32T90GO","","175.5","img/flower5.png","76","176.39999999990687","3","1","3","1","1,0.333,0.333,0.333,1,0.333,0.333,0.333,1","1,0.333,0.333,0.333,1,0.333,0.333,0.333,1","1",""
"","html-keyboard-response","191","103107","0.0-191.0","3TE3O85731U6AV4O7FRBSCJD9J3R2L","A3IXFZZ3JWTCPW","3WRBLBQ2GRU63BU2LFOJL1G32T90GO","","null","<img src=""img/flower5.png"" style=""width:200px; border:14px solid green;"">","null","","","","","","","","",""
"","image-keyboard-response","192","103290","0.0-192.0","3TE3O85731U6AV4O7FRBSCJD9J3R2L","A3IXFZZ3JWTCPW","3WRBLBQ2GRU63BU2LFOJL1G32T90GO","","181.3000000002794","img/flower5.png","75","182.39999999990687","2","0","3","1","1,0.333,0.333,0.333,1,0.333,0.333,0.333,1","1,0.333,0.333,0.333,1,0.333,0.333,0.333,1","1",""
"","html-keyboard-response","193","103592","0.0-193.0","3TE3O85731U6AV4O7FRBSCJD9J3R2L","A3IXFZZ3JWTCPW","3WRBLBQ2GRU63BU2LFOJL1G32T90GO","","null","<img src=""img/flower5.png"" style=""width:200px;border:14px solid red;"">","null","","","","","","","","",""
"","image-keyboard-response","194","103830","0.0-194.0","3TE3O85731U6AV4O7FRBSCJD9J3R2L","A3IXFZZ3JWTCPW","3WRBLBQ2GRU63BU2LFOJL1G32T90GO","","236","img/flower5.png","74","237.3000000002794","1","0","3","1","1,0.333,0.333,0.333,1,0.333,0.333,0.333,1","1,0.333,0.333,0.333,1,0.333,0.333,0.333,1","1",""
"","html-keyboard-response","195","104132","0.0-195.0","3TE3O85731U6AV4O7FRBSCJD9J3R2L","A3IXFZZ3JWTCPW","3WRBLBQ2GRU63BU2LFOJL1G32T90GO","","null","<img src=""img/flower5.png"" style=""width:200px;border:14px solid red;"">","null","","","","","","","","",""
"","image-keyboard-response","196","104169","0.0-196.0","3TE3O85731U6AV4O7FRBSCJD9J3R2L","A3IXFZZ3JWTCPW","3WRBLBQ2GRU63BU2LFOJL1G32T90GO","","35.89999999990687","img/flower2.png","75","36.6999999997206","2","1","1","1","1,0.333,0.333,0.333,1,0.333,0.333,0.333,1","1,0.333,0.333,0.333,1,0.333,0.333,0.333,1","1",""
"","html-keyboard-response","197","104471","0.0-197.0","3TE3O85731U6AV4O7FRBSCJD9J3R2L","A3IXFZZ3JWTCPW","3WRBLBQ2GRU63BU2LFOJL1G32T90GO","","null","<img src=""img/flower2.png"" style=""width:200px; border:14px solid green;"">","null","","","","","","","","",""
"","image-keyboard-response","198","104719","0.0-198.0","3TE3O85731U6AV4O7FRBSCJD9J3R2L","A3IXFZZ3JWTCPW","3WRBLBQ2GRU63BU2LFOJL1G32T90GO","","247","img/flower1.png","76","248","3","0","2","1","1,0.333,0.333,0.333,1,0.333,0.333,0.333,1","1,0.333,0.333,0.333,1,0.333,0.333,0.333,1","1",""
"","html-keyboard-response","199","105021","0.0-199.0","3TE3O85731U6AV4O7FRBSCJD9J3R2L","A3IXFZZ3JWTCPW","3WRBLBQ2GRU63BU2LFOJL1G32T90GO","","null","<img src=""img/flower1.png"" style=""width:200px;border:14px solid red;"">","null","","","","","","","","",""
"","image-keyboard-response","200","105118","0.0-200.0","3TE3O85731U6AV4O7FRBSCJD9J3R2L","A3IXFZZ3JWTCPW","3WRBLBQ2GRU63BU2LFOJL1G32T90GO","","94.5","img/flower1.png","74","95.70000000018626","1","1","2","1","1,0.333,0.333,0.333,1,0.333,0.333,0.333,1","1,0.333,0.333,0.333,1,0.333,0.333,0.333,1","1",""
"","html-keyboard-response","201","105419","0.0-201.0","3TE3O85731U6AV4O7FRBSCJD9J3R2L","A3IXFZZ3JWTCPW","3WRBLBQ2GRU63BU2LFOJL1G32T90GO","","null","<img src=""img/flower1.png"" style=""width:200px; border:14px solid green;"">","null","","","","","","","","",""
"","image-keyboard-response","202","105674","0.0-202.0","3TE3O85731U6AV4O7FRBSCJD9J3R2L","A3IXFZZ3JWTCPW","3WRBLBQ2GRU63BU2LFOJL1G32T90GO","","252.79999999981374","img/flower2.png","75","253.89999999990687","2","0","1","1","1,0.333,0.333,0.333,1,0.333,0.333,0.333,1","1,0.333,0.333,0.333,1,0.333,0.333,0.333,1","1",""
"","html-keyboard-response","203","105976","0.0-203.0","3TE3O85731U6AV4O7FRBSCJD9J3R2L","A3IXFZZ3JWTCPW","3WRBLBQ2GRU63BU2LFOJL1G32T90GO","","null","<img src=""img/flower2.png"" style=""width:200px;border:14px solid red;"">","null","","","","","","","","",""
"","image-keyboard-response","204","106208","0.0-204.0","3TE3O85731U6AV4O7FRBSCJD9J3R2L","A3IXFZZ3JWTCPW","3WRBLBQ2GRU63BU2LFOJL1G32T90GO","","230.60000000009313","img/flower1.png","76","231.70000000018626","3","1","2","1","1,0.333,0.333,0.333,1,0.333,0.333,0.333,1","1,0.333,0.333,0.333,1,0.333,0.333,0.333,1","1",""
"","html-keyboard-response","205","106510","0.0-205.0","3TE3O85731U6AV4O7FRBSCJD9J3R2L","A3IXFZZ3JWTCPW","3WRBLBQ2GRU63BU2LFOJL1G32T90GO","","null","<img src=""img/flower1.png"" style=""width:200px; border:14px solid green;"">","null","","","","","","","","",""
"","image-keyboard-response","206","106538","0.0-206.0","3TE3O85731U6AV4O7FRBSCJD9J3R2L","A3IXFZZ3JWTCPW","3WRBLBQ2GRU63BU2LFOJL1G32T90GO","","26.399999999906868","img/flower1.png","76","27.5","3","0","2","1","1,0.333,0.333,0.333,1,0.333,0.333,0.333,1","1,0.333,0.333,0.333,1,0.333,0.333,0.333,1","1",""
"","html-keyboard-response","207","106840","0.0-207.0","3TE3O85731U6AV4O7FRBSCJD9J3R2L","A3IXFZZ3JWTCPW","3WRBLBQ2GRU63BU2LFOJL1G32T90GO","","null","<img src=""img/flower1.png"" style=""width:200px;border:14px solid red;"">","null","","","","","","","","",""
"","image-keyboard-response","208","106872","0.0-208.0","3TE3O85731U6AV4O7FRBSCJD9J3R2L","A3IXFZZ3JWTCPW","3WRBLBQ2GRU63BU2LFOJL1G32T90GO","","30.200000000186265","img/flower5.png","74","31.399999999906868","1","0","3","1","1,0.333,0.333,0.333,1,0.333,0.333,0.333,1","1,0.333,0.333,0.333,1,0.333,0.333,0.333,1","1",""
"","html-keyboard-response","209","107174","0.0-209.0","3TE3O85731U6AV4O7FRBSCJD9J3R2L","A3IXFZZ3JWTCPW","3WRBLBQ2GRU63BU2LFOJL1G32T90GO","","null","<img src=""img/flower5.png"" style=""width:200px;border:14px solid red;"">","null","","","","","","","","",""
"","image-keyboard-response","210","107219","0.0-210.0","3TE3O85731U6AV4O7FRBSCJD9J3R2L","A3IXFZZ3JWTCPW","3WRBLBQ2GRU63BU2LFOJL1G32T90GO","","42.89999999990687","img/flower5.png","74","44.10000000009313","1","1","3","1","1,0.333,0.333,0.333,1,0.333,0.333,0.333,1","1,0.333,0.333,0.333,1,0.333,0.333,0.333,1","1",""
"","html-keyboard-response","211","107520","0.0-211.0","3TE3O85731U6AV4O7FRBSCJD9J3R2L","A3IXFZZ3JWTCPW","3WRBLBQ2GRU63BU2LFOJL1G32T90GO","","null","<img src=""img/flower5.png"" style=""width:200px; border:14px solid green;"">","null","","","","","","","","",""
"","image-keyboard-response","212","107629","0.0-212.0","3TE3O85731U6AV4O7FRBSCJD9J3R2L","A3IXFZZ3JWTCPW","3WRBLBQ2GRU63BU2LFOJL1G32T90GO","","107","img/flower2.png","76","108.20000000018626","3","0","1","1","1,0.333,0.333,0.333,1,0.333,0.333,0.333,1","1,0.333,0.333,0.333,1,0.333,0.333,0.333,1","1",""
"","html-keyboard-response","213","107931","0.0-213.0","3TE3O85731U6AV4O7FRBSCJD9J3R2L","A3IXFZZ3JWTCPW","3WRBLBQ2GRU63BU2LFOJL1G32T90GO","","null","<img src=""img/flower2.png"" style=""width:200px;border:14px solid red;"">","null","","","","","","","","",""
"","image-keyboard-response","214","108172","0.0-214.0","3TE3O85731U6AV4O7FRBSCJD9J3R2L","A3IXFZZ3JWTCPW","3WRBLBQ2GRU63BU2LFOJL1G32T90GO","","239.70000000018626","img/flower5.png","75","241.10000000009313","2","1","3","1","1,0.333,0.333,0.333,1,0.333,0.333,0.333,1","1,0.333,0.333,0.333,1,0.333,0.333,0.333,1","1",""
"","html-keyboard-response","215","108474","0.0-215.0","3TE3O85731U6AV4O7FRBSCJD9J3R2L","A3IXFZZ3JWTCPW","3WRBLBQ2GRU63BU2LFOJL1G32T90GO","","null","<img src=""img/flower5.png"" style=""width:200px; border:14px solid green;"">","null","","","","","","","","",""
"","image-keyboard-response","216","108501","0.0-216.0","3TE3O85731U6AV4O7FRBSCJD9J3R2L","A3IXFZZ3JWTCPW","3WRBLBQ2GRU63BU2LFOJL1G32T90GO","","24.699999999720603","img/flower1.png","76","26","3","1","2","1","1,0.333,0.333,0.333,1,0.333,0.333,0.333,1","1,0.333,0.333,0.333,1,0.333,0.333,0.333,1","1",""
"","html-keyboard-response","217","108803","0.0-217.0","3TE3O85731U6AV4O7FRBSCJD9J3R2L","A3IXFZZ3JWTCPW","3WRBLBQ2GRU63BU2LFOJL1G32T90GO","","null","<img src=""img/flower1.png"" style=""width:200px; border:14px solid green;"">","null","","","","","","","","",""
"","image-keyboard-response","218","108936","0.0-218.0","3TE3O85731U6AV4O7FRBSCJD9J3R2L","A3IXFZZ3JWTCPW","3WRBLBQ2GRU63BU2LFOJL1G32T90GO","","131.1999999997206","img/flower2.png","74","132.5","1","1","1","1","1,0.333,0.333,0.333,1,0.333,0.333,0.333,1","1,0.333,0.333,0.333,1,0.333,0.333,0.333,1","1",""
"","html-keyboard-response","219","109237","0.0-219.0","3TE3O85731U6AV4O7FRBSCJD9J3R2L","A3IXFZZ3JWTCPW","3WRBLBQ2GRU63BU2LFOJL1G32T90GO","","null","<img src=""img/flower2.png"" style=""width:200px; border:14px solid green;"">","null","","","","","","","","",""
"","image-keyboard-response","220","109431","0.0-220.0","3TE3O85731U6AV4O7FRBSCJD9J3R2L","A3IXFZZ3JWTCPW","3WRBLBQ2GRU63BU2LFOJL1G32T90GO","","191.60000000009313","img/flower5.png","75","192.79999999981374","2","0","3","1","1,0.333,0.333,0.333,1,0.333,0.333,0.333,1","1,0.333,0.333,0.333,1,0.333,0.333,0.333,1","1",""
"","html-keyboard-response","221","109732","0.0-221.0","3TE3O85731U6AV4O7FRBSCJD9J3R2L","A3IXFZZ3JWTCPW","3WRBLBQ2GRU63BU2LFOJL1G32T90GO","","null","<img src=""img/flower5.png"" style=""width:200px;border:14px solid red;"">","null","","","","","","","","",""
"","image-keyboard-response","222","109911","0.0-222.0","3TE3O85731U6AV4O7FRBSCJD9J3R2L","A3IXFZZ3JWTCPW","3WRBLBQ2GRU63BU2LFOJL1G32T90GO","","176.60000000009313","img/flower1.png","76","177.70000000018626","3","0","2","1","1,0.333,0.333,0.333,1,0.333,0.333,0.333,1","1,0.333,0.333,0.333,1,0.333,0.333,0.333,1","1",""
"","html-keyboard-response","223","110213","0.0-223.0","3TE3O85731U6AV4O7FRBSCJD9J3R2L","A3IXFZZ3JWTCPW","3WRBLBQ2GRU63BU2LFOJL1G32T90GO","","null","<img src=""img/flower1.png"" style=""width:200px;border:14px solid red;"">","null","","","","","","","","",""
"","image-keyboard-response","224","110236","0.0-224.0","3TE3O85731U6AV4O7FRBSCJD9J3R2L","A3IXFZZ3JWTCPW","3WRBLBQ2GRU63BU2LFOJL1G32T90GO","","21.899999999906868","img/flower2.png","75","23.399999999906868","2","0","1","1","1,0.333,0.333,0.333,1,0.333,0.333,0.333,1","1,0.333,0.333,0.333,1,0.333,0.333,0.333,1","1",""
"","html-keyboard-response","225","110538","0.0-225.0","3TE3O85731U6AV4O7FRBSCJD9J3R2L","A3IXFZZ3JWTCPW","3WRBLBQ2GRU63BU2LFOJL1G32T90GO","","null","<img src=""img/flower2.png"" style=""width:200px;border:14px solid red;"">","null","","","","","","","","",""
"","image-keyboard-response","226","110708","0.0-226.0","3TE3O85731U6AV4O7FRBSCJD9J3R2L","A3IXFZZ3JWTCPW","3WRBLBQ2GRU63BU2LFOJL1G32T90GO","","168.3000000002794","img/flower2.png","74","169.60000000009313","1","1","1","1","1,0.333,0.333,0.333,1,0.333,0.333,0.333,1","1,0.333,0.333,0.333,1,0.333,0.333,0.333,1","1",""
"","html-keyboard-response","227","111010","0.0-227.0","3TE3O85731U6AV4O7FRBSCJD9J3R2L","A3IXFZZ3JWTCPW","3WRBLBQ2GRU63BU2LFOJL1G32T90GO","","null","<img src=""img/flower2.png"" style=""width:200px; border:14px solid green;"">","null","","","","","","","","",""
"","image-keyboard-response","228","111189","0.0-228.0","3TE3O85731U6AV4O7FRBSCJD9J3R2L","A3IXFZZ3JWTCPW","3WRBLBQ2GRU63BU2LFOJL1G32T90GO","","176.20000000018626","img/flower5.png","76","177.60000000009313","3","1","3","1","1,0.333,0.333,0.333,1,0.333,0.333,0.333,1","1,0.333,0.333,0.333,1,0.333,0.333,0.333,1","1",""
"","html-keyboard-response","229","111490","0.0-229.0","3TE3O85731U6AV4O7FRBSCJD9J3R2L","A3IXFZZ3JWTCPW","3WRBLBQ2GRU63BU2LFOJL1G32T90GO","","null","<img src=""img/flower5.png"" style=""width:200px; border:14px solid green;"">","null","","","","","","","","",""
"","image-keyboard-response","230","111661","0.0-230.0","3TE3O85731U6AV4O7FRBSCJD9J3R2L","A3IXFZZ3JWTCPW","3WRBLBQ2GRU63BU2LFOJL1G32T90GO","","168.59999999962747","img/flower5.png","75","169.8000000002794","2","1","3","1","1,0.333,0.333,0.333,1,0.333,0.333,0.333,1","1,0.333,0.333,0.333,1,0.333,0.333,0.333,1","1",""
"","html-keyboard-response","231","111962","0.0-231.0","3TE3O85731U6AV4O7FRBSCJD9J3R2L","A3IXFZZ3JWTCPW","3WRBLBQ2GRU63BU2LFOJL1G32T90GO","","null","<img src=""img/flower5.png"" style=""width:200px; border:14px solid green;"">","null","","","","","","","","",""
"","image-keyboard-response","232","112301","0.0-232.0","3TE3O85731U6AV4O7FRBSCJD9J3R2L","A3IXFZZ3JWTCPW","3WRBLBQ2GRU63BU2LFOJL1G32T90GO","","337.29999999981374","img/flower1.png","74","338.40000000037253","1","0","2","1","1,0.333,0.333,0.333,1,0.333,0.333,0.333,1","1,0.333,0.333,0.333,1,0.333,0.333,0.333,1","1",""
"","html-keyboard-response","233","112603","0.0-233.0","3TE3O85731U6AV4O7FRBSCJD9J3R2L","A3IXFZZ3JWTCPW","3WRBLBQ2GRU63BU2LFOJL1G32T90GO","","null","<img src=""img/flower1.png"" style=""width:200px;border:14px solid red;"">","null","","","","","","","","",""
"","image-keyboard-response","234","112686","0.0-234.0","3TE3O85731U6AV4O7FRBSCJD9J3R2L","A3IXFZZ3JWTCPW","3WRBLBQ2GRU63BU2LFOJL1G32T90GO","","81.20000000018626","img/flower2.png","76","82.39999999990687","3","0","1","1","1,0.333,0.333,0.333,1,0.333,0.333,0.333,1","1,0.333,0.333,0.333,1,0.333,0.333,0.333,1","1",""
"","html-keyboard-response","235","112987","0.0-235.0","3TE3O85731U6AV4O7FRBSCJD9J3R2L","A3IXFZZ3JWTCPW","3WRBLBQ2GRU63BU2LFOJL1G32T90GO","","null","<img src=""img/flower2.png"" style=""width:200px;border:14px solid red;"">","null","","","","","","","","",""
"","image-keyboard-response","236","113036","0.0-236.0","3TE3O85731U6AV4O7FRBSCJD9J3R2L","A3IXFZZ3JWTCPW","3WRBLBQ2GRU63BU2LFOJL1G32T90GO","","47","img/flower2.png","76","48.1999999997206","3","1","1","1","1,0.333,0.333,0.333,1,0.333,0.333,0.333,1","1,0.333,0.333,0.333,1,0.333,0.333,0.333,1","1",""
"","html-keyboard-response","237","113338","0.0-237.0","3TE3O85731U6AV4O7FRBSCJD9J3R2L","A3IXFZZ3JWTCPW","3WRBLBQ2GRU63BU2LFOJL1G32T90GO","","null","<img src=""img/flower2.png"" style=""width:200px; border:14px solid green;"">","null","","","","","","","","",""
"","image-keyboard-response","238","113535","0.0-238.0","3TE3O85731U6AV4O7FRBSCJD9J3R2L","A3IXFZZ3JWTCPW","3WRBLBQ2GRU63BU2LFOJL1G32T90GO","","195.20000000018626","img/flower2.png","75","196.1999999997206","2","1","1","1","1,0.333,0.333,0.333,1,0.333,0.333,0.333,1","1,0.333,0.333,0.333,1,0.333,0.333,0.333,1","1",""
"","html-keyboard-response","239","113837","0.0-239.0","3TE3O85731U6AV4O7FRBSCJD9J3R2L","A3IXFZZ3JWTCPW","3WRBLBQ2GRU63BU2LFOJL1G32T90GO","","null","<img src=""img/flower2.png"" style=""width:200px; border:14px solid green;"">","null","","","","","","","","",""
"","image-keyboard-response","240","114061","0.0-240.0","3TE3O85731U6AV4O7FRBSCJD9J3R2L","A3IXFZZ3JWTCPW","3WRBLBQ2GRU63BU2LFOJL1G32T90GO","","222.5","img/flower5.png","75","223.79999999981374","2","0","3","1","1,0.333,0.333,0.333,1,0.333,0.333,0.333,1","1,0.333,0.333,0.333,1,0.333,0.333,0.333,1","1",""
"","html-keyboard-response","241","114363","0.0-241.0","3TE3O85731U6AV4O7FRBSCJD9J3R2L","A3IXFZZ3JWTCPW","3WRBLBQ2GRU63BU2LFOJL1G32T90GO","","null","<img src=""img/flower5.png"" style=""width:200px;border:14px solid red;"">","null","","","","","","","","",""
"","image-keyboard-response","242","114524","0.0-242.0","3TE3O85731U6AV4O7FRBSCJD9J3R2L","A3IXFZZ3JWTCPW","3WRBLBQ2GRU63BU2LFOJL1G32T90GO","","159.29999999981374","img/flower5.png","75","160.39999999990687","2","1","3","1","1,0.333,0.333,0.333,1,0.333,0.333,0.333,1","1,0.333,0.333,0.333,1,0.333,0.333,0.333,1","1",""
"","html-keyboard-response","243","114826","0.0-243.0","3TE3O85731U6AV4O7FRBSCJD9J3R2L","A3IXFZZ3JWTCPW","3WRBLBQ2GRU63BU2LFOJL1G32T90GO","","null","<img src=""img/flower5.png"" style=""width:200px; border:14px solid green;"">","null","","","","","","","","",""
"","image-keyboard-response","244","114839","0.0-244.0","3TE3O85731U6AV4O7FRBSCJD9J3R2L","A3IXFZZ3JWTCPW","3WRBLBQ2GRU63BU2LFOJL1G32T90GO","","11.199999999720603","img/flower5.png","74","12.399999999906868","1","1","3","1","1,0.333,0.333,0.333,1,0.333,0.333,0.333,1","1,0.333,0.333,0.333,1,0.333,0.333,0.333,1","1",""
"","html-keyboard-response","245","115141","0.0-245.0","3TE3O85731U6AV4O7FRBSCJD9J3R2L","A3IXFZZ3JWTCPW","3WRBLBQ2GRU63BU2LFOJL1G32T90GO","","null","<img src=""img/flower5.png"" style=""width:200px; border:14px solid green;"">","null","","","","","","","","",""
"","image-keyboard-response","246","115199","0.0-246.0","3TE3O85731U6AV4O7FRBSCJD9J3R2L","A3IXFZZ3JWTCPW","3WRBLBQ2GRU63BU2LFOJL1G32T90GO","","55.89999999990687","img/flower5.png","75","57.6999999997206","2","0","3","1","1,0.333,0.333,0.333,1,0.333,0.333,0.333,1","1,0.333,0.333,0.333,1,0.333,0.333,0.333,1","1",""
"","html-keyboard-response","247","115501","0.0-247.0","3TE3O85731U6AV4O7FRBSCJD9J3R2L","A3IXFZZ3JWTCPW","3WRBLBQ2GRU63BU2LFOJL1G32T90GO","","null","<img src=""img/flower5.png"" style=""width:200px;border:14px solid red;"">","null","","","","","","","","",""
"","image-keyboard-response","248","115629","0.0-248.0","3TE3O85731U6AV4O7FRBSCJD9J3R2L","A3IXFZZ3JWTCPW","3WRBLBQ2GRU63BU2LFOJL1G32T90GO","","125.89999999990687","img/flower2.png","75","127.10000000009313","2","1","1","1","1,0.333,0.333,0.333,1,0.333,0.333,0.333,1","1,0.333,0.333,0.333,1,0.333,0.333,0.333,1","1",""
"","html-keyboard-response","249","115930","0.0-249.0","3TE3O85731U6AV4O7FRBSCJD9J3R2L","A3IXFZZ3JWTCPW","3WRBLBQ2GRU63BU2LFOJL1G32T90GO","","null","<img src=""img/flower2.png"" style=""width:200px; border:14px solid green;"">","null","","","","","","","","",""
"","image-keyboard-response","250","116222","0.0-250.0","3TE3O85731U6AV4O7FRBSCJD9J3R2L","A3IXFZZ3JWTCPW","3WRBLBQ2GRU63BU2LFOJL1G32T90GO","","290","img/flower5.png","74","291.20000000018626","1","1","3","1","1,0.333,0.333,0.333,1,0.333,0.333,0.333,1","1,0.333,0.333,0.333,1,0.333,0.333,0.333,1","1",""
"","html-keyboard-response","251","116524","0.0-251.0","3TE3O85731U6AV4O7FRBSCJD9J3R2L","A3IXFZZ3JWTCPW","3WRBLBQ2GRU63BU2LFOJL1G32T90GO","","null","<img src=""img/flower5.png"" style=""width:200px; border:14px solid green;"">","null","","","","","","","","",""
"","image-keyboard-response","252","116732","0.0-252.0","3TE3O85731U6AV4O7FRBSCJD9J3R2L","A3IXFZZ3JWTCPW","3WRBLBQ2GRU63BU2LFOJL1G32T90GO","","206.3000000002794","img/flower5.png","76","207.5","3","1","3","1","1,0.333,0.333,0.333,1,0.333,0.333,0.333,1","1,0.333,0.333,0.333,1,0.333,0.333,0.333,1","1",""
"","html-keyboard-response","253","117034","0.0-253.0","3TE3O85731U6AV4O7FRBSCJD9J3R2L","A3IXFZZ3JWTCPW","3WRBLBQ2GRU63BU2LFOJL1G32T90GO","","null","<img src=""img/flower5.png"" style=""width:200px; border:14px solid green;"">","null","","","","","","","","",""
"","image-keyboard-response","254","117149","0.0-254.0","3TE3O85731U6AV4O7FRBSCJD9J3R2L","A3IXFZZ3JWTCPW","3WRBLBQ2GRU63BU2LFOJL1G32T90GO","","114","img/flower5.png","76","115.3000000002794","3","1","3","1","1,0.333,0.333,0.333,1,0.333,0.333,0.333,1","1,0.333,0.333,0.333,1,0.333,0.333,0.333,1","1",""
"","html-keyboard-response","255","117451","0.0-255.0","3TE3O85731U6AV4O7FRBSCJD9J3R2L","A3IXFZZ3JWTCPW","3WRBLBQ2GRU63BU2LFOJL1G32T90GO","","null","<img src=""img/flower5.png"" style=""width:200px; border:14px solid green;"">","null","","","","","","","","",""
"","image-keyboard-response","256","117509","0.0-256.0","3TE3O85731U6AV4O7FRBSCJD9J3R2L","A3IXFZZ3JWTCPW","3WRBLBQ2GRU63BU2LFOJL1G32T90GO","","56.299999999813735","img/flower1.png","74","57.39999999990687","1","1","2","1","1,0.333,0.333,0.333,1,0.333,0.333,0.333,1","1,0.333,0.333,0.333,1,0.333,0.333,0.333,1","1",""
"","html-keyboard-response","257","117811","0.0-257.0","3TE3O85731U6AV4O7FRBSCJD9J3R2L","A3IXFZZ3JWTCPW","3WRBLBQ2GRU63BU2LFOJL1G32T90GO","","null","<img src=""img/flower1.png"" style=""width:200px; border:14px solid green;"">","null","","","","","","","","",""
"","image-keyboard-response","258","118006","0.0-258.0","3TE3O85731U6AV4O7FRBSCJD9J3R2L","A3IXFZZ3JWTCPW","3WRBLBQ2GRU63BU2LFOJL1G32T90GO","","192.40000000037253","img/flower5.png","74","194.39999999990687","1","0","3","1","1,0.333,0.333,0.333,1,0.333,0.333,0.333,1","1,0.333,0.333,0.333,1,0.333,0.333,0.333,1","1",""
"","html-keyboard-response","259","118308","0.0-259.0","3TE3O85731U6AV4O7FRBSCJD9J3R2L","A3IXFZZ3JWTCPW","3WRBLBQ2GRU63BU2LFOJL1G32T90GO","","null","<img src=""img/flower5.png"" style=""width:200px;border:14px solid red;"">","null","","","","","","","","",""
"","image-keyboard-response","260","118361","0.0-260.0","3TE3O85731U6AV4O7FRBSCJD9J3R2L","A3IXFZZ3JWTCPW","3WRBLBQ2GRU63BU2LFOJL1G32T90GO","","50.8000000002794","img/flower1.png","76","52.10000000009313","3","0","2","1","1,0.333,0.333,0.333,1,0.333,0.333,0.333,1","1,0.333,0.333,0.333,1,0.333,0.333,0.333,1","1",""
"","html-keyboard-response","261","118662","0.0-261.0","3TE3O85731U6AV4O7FRBSCJD9J3R2L","A3IXFZZ3JWTCPW","3WRBLBQ2GRU63BU2LFOJL1G32T90GO","","null","<img src=""img/flower1.png"" style=""width:200px;border:14px solid red;"">","null","","","","","","","","",""
"","image-keyboard-response","262","118782","0.0-262.0","3TE3O85731U6AV4O7FRBSCJD9J3R2L","A3IXFZZ3JWTCPW","3WRBLBQ2GRU63BU2LFOJL1G32T90GO","","117.5","img/flower2.png","76","118.89999999990687","3","0","1","1","1,0.333,0.333,0.333,1,0.333,0.333,0.333,1","1,0.333,0.333,0.333,1,0.333,0.333,0.333,1","1",""
"","html-keyboard-response","263","119084","0.0-263.0","3TE3O85731U6AV4O7FRBSCJD9J3R2L","A3IXFZZ3JWTCPW","3WRBLBQ2GRU63BU2LFOJL1G32T90GO","","null","<img src=""img/flower2.png"" style=""width:200px;border:14px solid red;"">","null","","","","","","","","",""
"","image-keyboard-response","264","119501","0.0-264.0","3TE3O85731U6AV4O7FRBSCJD9J3R2L","A3IXFZZ3JWTCPW","3WRBLBQ2GRU63BU2LFOJL1G32T90GO","","415.39999999990687","img/flower1.png","74","416.5","1","1","2","1","1,0.333,0.333,0.333,1,0.333,0.333,0.333,1","1,0.333,0.333,0.333,1,0.333,0.333,0.333,1","1",""
"","html-keyboard-response","265","119803","0.0-265.0","3TE3O85731U6AV4O7FRBSCJD9J3R2L","A3IXFZZ3JWTCPW","3WRBLBQ2GRU63BU2LFOJL1G32T90GO","","null","<img src=""img/flower1.png"" style=""width:200px; border:14px solid green;"">","null","","","","","","","","",""
"","image-keyboard-response","266","119839","0.0-266.0","3TE3O85731U6AV4O7FRBSCJD9J3R2L","A3IXFZZ3JWTCPW","3WRBLBQ2GRU63BU2LFOJL1G32T90GO","","34.200000000186265","img/flower2.png","74","35.39999999990687","1","1","1","1","1,0.333,0.333,0.333,1,0.333,0.333,0.333,1","1,0.333,0.333,0.333,1,0.333,0.333,0.333,1","1",""
"","html-keyboard-response","267","120141","0.0-267.0","3TE3O85731U6AV4O7FRBSCJD9J3R2L","A3IXFZZ3JWTCPW","3WRBLBQ2GRU63BU2LFOJL1G32T90GO","","null","<img src=""img/flower2.png"" style=""width:200px; border:14px solid green;"">","null","","","","","","","","",""
"","image-keyboard-response","268","120358","0.0-268.0","3TE3O85731U6AV4O7FRBSCJD9J3R2L","A3IXFZZ3JWTCPW","3WRBLBQ2GRU63BU2LFOJL1G32T90GO","","215","img/flower1.png","75","216.3000000002794","2","1","2","1","1,0.333,0.333,0.333,1,0.333,0.333,0.333,1","1,0.333,0.333,0.333,1,0.333,0.333,0.333,1","1",""
"","html-keyboard-response","269","120660","0.0-269.0","3TE3O85731U6AV4O7FRBSCJD9J3R2L","A3IXFZZ3JWTCPW","3WRBLBQ2GRU63BU2LFOJL1G32T90GO","","null","<img src=""img/flower1.png"" style=""width:200px; border:14px solid green;"">","null","","","","","","","","",""
"","image-keyboard-response","270","121017","0.0-270.0","3TE3O85731U6AV4O7FRBSCJD9J3R2L","A3IXFZZ3JWTCPW","3WRBLBQ2GRU63BU2LFOJL1G32T90GO","","354.70000000018626","img/flower1.png","75","356.10000000009313","2","1","2","1","1,0.333,0.333,0.333,1,0.333,0.333,0.333,1","1,0.333,0.333,0.333,1,0.333,0.333,0.333,1","1",""
"","html-keyboard-response","271","121320","0.0-271.0","3TE3O85731U6AV4O7FRBSCJD9J3R2L","A3IXFZZ3JWTCPW","3WRBLBQ2GRU63BU2LFOJL1G32T90GO","","null","<img src=""img/flower1.png"" style=""width:200px; border:14px solid green;"">","null","","","","","","","","",""
"","image-keyboard-response","272","121430","0.0-272.0","3TE3O85731U6AV4O7FRBSCJD9J3R2L","A3IXFZZ3JWTCPW","3WRBLBQ2GRU63BU2LFOJL1G32T90GO","","107.70000000018626","img/flower1.png","76","108.89999999990687","3","0","2","1","1,0.333,0.333,0.333,1,0.333,0.333,0.333,1","1,0.333,0.333,0.333,1,0.333,0.333,0.333,1","1",""
"","html-keyboard-response","273","121731","0.0-273.0","3TE3O85731U6AV4O7FRBSCJD9J3R2L","A3IXFZZ3JWTCPW","3WRBLBQ2GRU63BU2LFOJL1G32T90GO","","null","<img src=""img/flower1.png"" style=""width:200px;border:14px solid red;"">","null","","","","","","","","",""
"","image-keyboard-response","274","121878","0.0-274.0","3TE3O85731U6AV4O7FRBSCJD9J3R2L","A3IXFZZ3JWTCPW","3WRBLBQ2GRU63BU2LFOJL1G32T90GO","","145","img/flower1.png","74","146.29999999981374","1","0","2","1","1,0.333,0.333,0.333,1,0.333,0.333,0.333,1","1,0.333,0.333,0.333,1,0.333,0.333,0.333,1","1",""
"","html-keyboard-response","275","122180","0.0-275.0","3TE3O85731U6AV4O7FRBSCJD9J3R2L","A3IXFZZ3JWTCPW","3WRBLBQ2GRU63BU2LFOJL1G32T90GO","","null","<img src=""img/flower1.png"" style=""width:200px;border:14px solid red;"">","null","","","","","","","","",""
"","image-keyboard-response","276","122315","0.0-276.0","3TE3O85731U6AV4O7FRBSCJD9J3R2L","A3IXFZZ3JWTCPW","3WRBLBQ2GRU63BU2LFOJL1G32T90GO","","132.89999999990687","img/flower5.png","74","134.09999999962747","1","1","3","1","1,0.333,0.333,0.333,1,0.333,0.333,0.333,1","1,0.333,0.333,0.333,1,0.333,0.333,0.333,1","1",""
"","html-keyboard-response","277","122616","0.0-277.0","3TE3O85731U6AV4O7FRBSCJD9J3R2L","A3IXFZZ3JWTCPW","3WRBLBQ2GRU63BU2LFOJL1G32T90GO","","null","<img src=""img/flower5.png"" style=""width:200px; border:14px solid green;"">","null","","","","","","","","",""
"","image-keyboard-response","278","122720","0.0-278.0","3TE3O85731U6AV4O7FRBSCJD9J3R2L","A3IXFZZ3JWTCPW","3WRBLBQ2GRU63BU2LFOJL1G32T90GO","","101.60000000009313","img/flower2.png","76","102.6999999997206","3","1","1","1","1,0.333,0.333,0.333,1,0.333,0.333,0.333,1","1,0.333,0.333,0.333,1,0.333,0.333,0.333,1","1",""
"","html-keyboard-response","279","123021","0.0-279.0","3TE3O85731U6AV4O7FRBSCJD9J3R2L","A3IXFZZ3JWTCPW","3WRBLBQ2GRU63BU2LFOJL1G32T90GO","","null","<img src=""img/flower2.png"" style=""width:200px; border:14px solid green;"">","null","","","","","","","","",""
"","image-keyboard-response","280","123188","0.0-280.0","3TE3O85731U6AV4O7FRBSCJD9J3R2L","A3IXFZZ3JWTCPW","3WRBLBQ2GRU63BU2LFOJL1G32T90GO","","165.10000000009313","img/flower1.png","74","166.10000000009313","1","1","2","1","1,0.333,0.333,0.333,1,0.333,0.333,0.333,1","1,0.333,0.333,0.333,1,0.333,0.333,0.333,1","1",""
"","html-keyboard-response","281","123490","0.0-281.0","3TE3O85731U6AV4O7FRBSCJD9J3R2L","A3IXFZZ3JWTCPW","3WRBLBQ2GRU63BU2LFOJL1G32T90GO","","null","<img src=""img/flower1.png"" style=""width:200px; border:14px solid green;"">","null","","","","","","","","",""
"","image-keyboard-response","282","123614","0.0-282.0","3TE3O85731U6AV4O7FRBSCJD9J3R2L","A3IXFZZ3JWTCPW","3WRBLBQ2GRU63BU2LFOJL1G32T90GO","","122.29999999981374","img/flower5.png","75","123.70000000018626","2","0","3","1","1,0.333,0.333,0.333,1,0.333,0.333,0.333,1","1,0.333,0.333,0.333,1,0.333,0.333,0.333,1","1",""
"","html-keyboard-response","283","123916","0.0-283.0","3TE3O85731U6AV4O7FRBSCJD9J3R2L","A3IXFZZ3JWTCPW","3WRBLBQ2GRU63BU2LFOJL1G32T90GO","","null","<img src=""img/flower5.png"" style=""width:200px;border:14px solid red;"">","null","","","","","","","","",""
"","image-keyboard-response","284","124101","0.0-284.0","3TE3O85731U6AV4O7FRBSCJD9J3R2L","A3IXFZZ3JWTCPW","3WRBLBQ2GRU63BU2LFOJL1G32T90GO","","183.5","img/flower1.png","76","184.8000000002794","3","1","2","1","1,0.333,0.333,0.333,1,0.333,0.333,0.333,1","1,0.333,0.333,0.333,1,0.333,0.333,0.333,1","1",""
"","html-keyboard-response","285","124404","0.0-285.0","3TE3O85731U6AV4O7FRBSCJD9J3R2L","A3IXFZZ3JWTCPW","3WRBLBQ2GRU63BU2LFOJL1G32T90GO","","null","<img src=""img/flower1.png"" style=""width:200px; border:14px solid green;"">","null","","","","","","","","",""
"","image-keyboard-response","286","124426","0.0-286.0","3TE3O85731U6AV4O7FRBSCJD9J3R2L","A3IXFZZ3JWTCPW","3WRBLBQ2GRU63BU2LFOJL1G32T90GO","","20.5","img/flower1.png","74","21.600000000093132","1","0","2","1","1,0.333,0.333,0.333,1,0.333,0.333,0.333,1","1,0.333,0.333,0.333,1,0.333,0.333,0.333,1","1",""
"","html-keyboard-response","287","124728","0.0-287.0","3TE3O85731U6AV4O7FRBSCJD9J3R2L","A3IXFZZ3JWTCPW","3WRBLBQ2GRU63BU2LFOJL1G32T90GO","","null","<img src=""img/flower1.png"" style=""width:200px;border:14px solid red;"">","null","","","","","","","","",""
"","image-keyboard-response","288","124872","0.0-288.0","3TE3O85731U6AV4O7FRBSCJD9J3R2L","A3IXFZZ3JWTCPW","3WRBLBQ2GRU63BU2LFOJL1G32T90GO","","142.40000000037253","img/flower5.png","74","143.8000000002794","1","1","3","1","1,0.333,0.333,0.333,1,0.333,0.333,0.333,1","1,0.333,0.333,0.333,1,0.333,0.333,0.333,1","1",""
"","html-keyboard-response","289","125177","0.0-289.0","3TE3O85731U6AV4O7FRBSCJD9J3R2L","A3IXFZZ3JWTCPW","3WRBLBQ2GRU63BU2LFOJL1G32T90GO","","null","<img src=""img/flower5.png"" style=""width:200px; border:14px solid green;"">","null","","","","","","","","",""
"","image-keyboard-response","290","125189","0.0-290.0","3TE3O85731U6AV4O7FRBSCJD9J3R2L","A3IXFZZ3JWTCPW","3WRBLBQ2GRU63BU2LFOJL1G32T90GO","","10","img/flower2.png","76","11.400000000372529","3","0","1","1","1,0.333,0.333,0.333,1,0.333,0.333,0.333,1","1,0.333,0.333,0.333,1,0.333,0.333,0.333,1","1",""
"","html-keyboard-response","291","125491","0.0-291.0","3TE3O85731U6AV4O7FRBSCJD9J3R2L","A3IXFZZ3JWTCPW","3WRBLBQ2GRU63BU2LFOJL1G32T90GO","","null","<img src=""img/flower2.png"" style=""width:200px;border:14px solid red;"">","null","","","","","","","","",""
"","image-keyboard-response","292","125511","0.0-292.0","3TE3O85731U6AV4O7FRBSCJD9J3R2L","A3IXFZZ3JWTCPW","3WRBLBQ2GRU63BU2LFOJL1G32T90GO","","18.800000000279397","img/flower2.png","76","20.100000000093132","3","1","1","1","1,0.333,0.333,0.333,1,0.333,0.333,0.333,1","1,0.333,0.333,0.333,1,0.333,0.333,0.333,1","1",""
"","html-keyboard-response","293","125814","0.0-293.0","3TE3O85731U6AV4O7FRBSCJD9J3R2L","A3IXFZZ3JWTCPW","3WRBLBQ2GRU63BU2LFOJL1G32T90GO","","null","<img src=""img/flower2.png"" style=""width:200px; border:14px solid green;"">","null","","","","","","","","",""
"","image-keyboard-response","294","125967","0.0-294.0","3TE3O85731U6AV4O7FRBSCJD9J3R2L","A3IXFZZ3JWTCPW","3WRBLBQ2GRU63BU2LFOJL1G32T90GO","","150.70000000018626","img/flower1.png","75","152.39999999990687","2","1","2","1","1,0.333,0.333,0.333,1,0.333,0.333,0.333,1","1,0.333,0.333,0.333,1,0.333,0.333,0.333,1","1",""
"","html-keyboard-response","295","126269","0.0-295.0","3TE3O85731U6AV4O7FRBSCJD9J3R2L","A3IXFZZ3JWTCPW","3WRBLBQ2GRU63BU2LFOJL1G32T90GO","","null","<img src=""img/flower1.png"" style=""width:200px; border:14px solid green;"">","null","","","","","","","","",""
"","image-keyboard-response","296","126458","0.0-296.0","3TE3O85731U6AV4O7FRBSCJD9J3R2L","A3IXFZZ3JWTCPW","3WRBLBQ2GRU63BU2LFOJL1G32T90GO","","187.8000000002794","img/flower1.png","74","189.20000000018626","1","0","2","1","1,0.333,0.333,0.333,1,0.333,0.333,0.333,1","1,0.333,0.333,0.333,1,0.333,0.333,0.333,1","1",""
"","html-keyboard-response","297","126760","0.0-297.0","3TE3O85731U6AV4O7FRBSCJD9J3R2L","A3IXFZZ3JWTCPW","3WRBLBQ2GRU63BU2LFOJL1G32T90GO","","null","<img src=""img/flower1.png"" style=""width:200px;border:14px solid red;"">","null","","","","","","","","",""
"","image-keyboard-response","298","126834","0.0-298.0","3TE3O85731U6AV4O7FRBSCJD9J3R2L","A3IXFZZ3JWTCPW","3WRBLBQ2GRU63BU2LFOJL1G32T90GO","","71.8000000002794","img/flower2.png","74","73.10000000009313","1","1","1","1","1,0.333,0.333,0.333,1,0.333,0.333,0.333,1","1,0.333,0.333,0.333,1,0.333,0.333,0.333,1","1",""
"","html-keyboard-response","299","127136","0.0-299.0","3TE3O85731U6AV4O7FRBSCJD9J3R2L","A3IXFZZ3JWTCPW","3WRBLBQ2GRU63BU2LFOJL1G32T90GO","","null","<img src=""img/flower2.png"" style=""width:200px; border:14px solid green;"">","null","","","","","","","","",""
"","image-keyboard-response","300","127267","0.0-300.0","3TE3O85731U6AV4O7FRBSCJD9J3R2L","A3IXFZZ3JWTCPW","3WRBLBQ2GRU63BU2LFOJL1G32T90GO","","129.5","img/flower5.png","75","130.70000000018626","2","1","3","1","1,0.333,0.333,0.333,1,0.333,0.333,0.333,1","1,0.333,0.333,0.333,1,0.333,0.333,0.333,1","1",""
"","html-keyboard-response","301","127569","0.0-301.0","3TE3O85731U6AV4O7FRBSCJD9J3R2L","A3IXFZZ3JWTCPW","3WRBLBQ2GRU63BU2LFOJL1G32T90GO","","null","<img src=""img/flower5.png"" style=""width:200px; border:14px solid green;"">","null","","","","","","","","",""
"","image-keyboard-response","302","127851","0.0-302.0","3TE3O85731U6AV4O7FRBSCJD9J3R2L","A3IXFZZ3JWTCPW","3WRBLBQ2GRU63BU2LFOJL1G32T90GO","","280.39999999990687","img/flower5.png","76","281.5","3","1","3","1","1,0.333,0.333,0.333,1,0.333,0.333,0.333,1","1,0.333,0.333,0.333,1,0.333,0.333,0.333,1","1",""
"","html-keyboard-response","303","128153","0.0-303.0","3TE3O85731U6AV4O7FRBSCJD9J3R2L","A3IXFZZ3JWTCPW","3WRBLBQ2GRU63BU2LFOJL1G32T90GO","","null","<img src=""img/flower5.png"" style=""width:200px; border:14px solid green;"">","null","","","","","","","","",""
"","image-keyboard-response","304","128273","0.0-304.0","3TE3O85731U6AV4O7FRBSCJD9J3R2L","A3IXFZZ3JWTCPW","3WRBLBQ2GRU63BU2LFOJL1G32T90GO","","118","img/flower2.png","76","119.40000000037253","3","0","1","1","1,0.333,0.333,0.333,1,0.333,0.333,0.333,1","1,0.333,0.333,0.333,1,0.333,0.333,0.333,1","1",""
"","html-keyboard-response","305","128575","0.0-305.0","3TE3O85731U6AV4O7FRBSCJD9J3R2L","A3IXFZZ3JWTCPW","3WRBLBQ2GRU63BU2LFOJL1G32T90GO","","null","<img src=""img/flower2.png"" style=""width:200px;border:14px solid red;"">","null","","","","","","","","",""
"","image-keyboard-response","306","128768","0.0-306.0","3TE3O85731U6AV4O7FRBSCJD9J3R2L","A3IXFZZ3JWTCPW","3WRBLBQ2GRU63BU2LFOJL1G32T90GO","","190.89999999990687","img/flower5.png","76","192.09999999962747","3","1","3","1","1,0.333,0.333,0.333,1,0.333,0.333,0.333,1","1,0.333,0.333,0.333,1,0.333,0.333,0.333,1","1",""
"","html-keyboard-response","307","129069","0.0-307.0","3TE3O85731U6AV4O7FRBSCJD9J3R2L","A3IXFZZ3JWTCPW","3WRBLBQ2GRU63BU2LFOJL1G32T90GO","","null","<img src=""img/flower5.png"" style=""width:200px; border:14px solid green;"">","null","","","","","","","","",""
"","image-keyboard-response","308","129244","0.0-308.0","3TE3O85731U6AV4O7FRBSCJD9J3R2L","A3IXFZZ3JWTCPW","3WRBLBQ2GRU63BU2LFOJL1G32T90GO","","172.5","img/flower1.png","74","173.79999999981374","1","0","2","1","1,0.333,0.333,0.333,1,0.333,0.333,0.333,1","1,0.333,0.333,0.333,1,0.333,0.333,0.333,1","1",""
"","html-keyboard-response","309","129546","0.0-309.0","3TE3O85731U6AV4O7FRBSCJD9J3R2L","A3IXFZZ3JWTCPW","3WRBLBQ2GRU63BU2LFOJL1G32T90GO","","null","<img src=""img/flower1.png"" style=""width:200px;border:14px solid red;"">","null","","","","","","","","",""
"","image-keyboard-response","310","129678","0.0-310.0","3TE3O85731U6AV4O7FRBSCJD9J3R2L","A3IXFZZ3JWTCPW","3WRBLBQ2GRU63BU2LFOJL1G32T90GO","","130.6999999997206","img/flower1.png","75","131.8000000002794","2","1","2","1","1,0.333,0.333,0.333,1,0.333,0.333,0.333,1","1,0.333,0.333,0.333,1,0.333,0.333,0.333,1","1",""
"","html-keyboard-response","311","129980","0.0-311.0","3TE3O85731U6AV4O7FRBSCJD9J3R2L","A3IXFZZ3JWTCPW","3WRBLBQ2GRU63BU2LFOJL1G32T90GO","","null","<img src=""img/flower1.png"" style=""width:200px; border:14px solid green;"">","null","","","","","","","","",""
"","image-keyboard-response","312","130012","0.0-312.0","3TE3O85731U6AV4O7FRBSCJD9J3R2L","A3IXFZZ3JWTCPW","3WRBLBQ2GRU63BU2LFOJL1G32T90GO","","30.09999999962747","img/flower2.png","76","31.200000000186265","3","1","1","1","1,0.333,0.333,0.333,1,0.333,0.333,0.333,1","1,0.333,0.333,0.333,1,0.333,0.333,0.333,1","1",""
"","html-keyboard-response","313","130313","0.0-313.0","3TE3O85731U6AV4O7FRBSCJD9J3R2L","A3IXFZZ3JWTCPW","3WRBLBQ2GRU63BU2LFOJL1G32T90GO","","null","<img src=""img/flower2.png"" style=""width:200px; border:14px solid green;"">","null","","","","","","","","",""
"","image-keyboard-response","314","130667","0.0-314.0","3TE3O85731U6AV4O7FRBSCJD9J3R2L","A3IXFZZ3JWTCPW","3WRBLBQ2GRU63BU2LFOJL1G32T90GO","","351.8000000002794","img/flower5.png","76","352.89999999990687","3","1","3","1","1,0.333,0.333,0.333,1,0.333,0.333,0.333,1","1,0.333,0.333,0.333,1,0.333,0.333,0.333,1","1",""
"","html-keyboard-response","315","130969","0.0-315.0","3TE3O85731U6AV4O7FRBSCJD9J3R2L","A3IXFZZ3JWTCPW","3WRBLBQ2GRU63BU2LFOJL1G32T90GO","","null","<img src=""img/flower5.png"" style=""width:200px; border:14px solid green;"">","null","","","","","","","","",""
"","image-keyboard-response","316","131164","0.0-316.0","3TE3O85731U6AV4O7FRBSCJD9J3R2L","A3IXFZZ3JWTCPW","3WRBLBQ2GRU63BU2LFOJL1G32T90GO","","193.29999999981374","img/flower2.png","74","194.5","1","1","1","1","1,0.333,0.333,0.333,1,0.333,0.333,0.333,1","1,0.333,0.333,0.333,1,0.333,0.333,0.333,1","1",""
"","html-keyboard-response","317","131465","0.0-317.0","3TE3O85731U6AV4O7FRBSCJD9J3R2L","A3IXFZZ3JWTCPW","3WRBLBQ2GRU63BU2LFOJL1G32T90GO","","null","<img src=""img/flower2.png"" style=""width:200px; border:14px solid green;"">","null","","","","","","","","",""
"","image-keyboard-response","318","131653","0.0-318.0","3TE3O85731U6AV4O7FRBSCJD9J3R2L","A3IXFZZ3JWTCPW","3WRBLBQ2GRU63BU2LFOJL1G32T90GO","","185.29999999981374","img/flower5.png","74","186.5","1","0","3","1","1,0.333,0.333,0.333,1,0.333,0.333,0.333,1","1,0.333,0.333,0.333,1,0.333,0.333,0.333,1","1",""
"","html-keyboard-response","319","131954","0.0-319.0","3TE3O85731U6AV4O7FRBSCJD9J3R2L","A3IXFZZ3JWTCPW","3WRBLBQ2GRU63BU2LFOJL1G32T90GO","","null","<img src=""img/flower5.png"" style=""width:200px;border:14px solid red;"">","null","","","","","","","","",""
"","image-keyboard-response","320","132066","0.0-320.0","3TE3O85731U6AV4O7FRBSCJD9J3R2L","A3IXFZZ3JWTCPW","3WRBLBQ2GRU63BU2LFOJL1G32T90GO","","110.20000000018626","img/flower2.png","75","111.5","2","1","1","1","1,0.333,0.333,0.333,1,0.333,0.333,0.333,1","1,0.333,0.333,0.333,1,0.333,0.333,0.333,1","1",""
"","html-keyboard-response","321","132369","0.0-321.0","3TE3O85731U6AV4O7FRBSCJD9J3R2L","A3IXFZZ3JWTCPW","3WRBLBQ2GRU63BU2LFOJL1G32T90GO","","null","<img src=""img/flower2.png"" style=""width:200px; border:14px solid green;"">","null","","","","","","","","",""
"","image-keyboard-response","322","132583","0.0-322.0","3TE3O85731U6AV4O7FRBSCJD9J3R2L","A3IXFZZ3JWTCPW","3WRBLBQ2GRU63BU2LFOJL1G32T90GO","","213.20000000018626","img/flower2.png","76","214.10000000009313","3","1","1","1","1,0.333,0.333,0.333,1,0.333,0.333,0.333,1","1,0.333,0.333,0.333,1,0.333,0.333,0.333,1","1",""
"","html-keyboard-response","323","132885","0.0-323.0","3TE3O85731U6AV4O7FRBSCJD9J3R2L","A3IXFZZ3JWTCPW","3WRBLBQ2GRU63BU2LFOJL1G32T90GO","","null","<img src=""img/flower2.png"" style=""width:200px; border:14px solid green;"">","null","","","","","","","","",""
"","image-keyboard-response","324","133080","0.0-324.0","3TE3O85731U6AV4O7FRBSCJD9J3R2L","A3IXFZZ3JWTCPW","3WRBLBQ2GRU63BU2LFOJL1G32T90GO","","192.79999999981374","img/flower1.png","74","194.5","1","1","2","1","1,0.333,0.333,0.333,1,0.333,0.333,0.333,1","1,0.333,0.333,0.333,1,0.333,0.333,0.333,1","1",""
"","html-keyboard-response","325","133382","0.0-325.0","3TE3O85731U6AV4O7FRBSCJD9J3R2L","A3IXFZZ3JWTCPW","3WRBLBQ2GRU63BU2LFOJL1G32T90GO","","null","<img src=""img/flower1.png"" style=""width:200px; border:14px solid green;"">","null","","","","","","","","",""
"","image-keyboard-response","326","133535","0.0-326.0","3TE3O85731U6AV4O7FRBSCJD9J3R2L","A3IXFZZ3JWTCPW","3WRBLBQ2GRU63BU2LFOJL1G32T90GO","","151.5","img/flower1.png","74","152.59999999962747","1","0","2","1","1,0.333,0.333,0.333,1,0.333,0.333,0.333,1","1,0.333,0.333,0.333,1,0.333,0.333,0.333,1","1",""
"","html-keyboard-response","327","133837","0.0-327.0","3TE3O85731U6AV4O7FRBSCJD9J3R2L","A3IXFZZ3JWTCPW","3WRBLBQ2GRU63BU2LFOJL1G32T90GO","","null","<img src=""img/flower1.png"" style=""width:200px;border:14px solid red;"">","null","","","","","","","","",""
"","image-keyboard-response","328","133933","0.0-328.0","3TE3O85731U6AV4O7FRBSCJD9J3R2L","A3IXFZZ3JWTCPW","3WRBLBQ2GRU63BU2LFOJL1G32T90GO","","93.89999999990687","img/flower5.png","75","95","2","1","3","1","1,0.333,0.333,0.333,1,0.333,0.333,0.333,1","1,0.333,0.333,0.333,1,0.333,0.333,0.333,1","1",""
"","html-keyboard-response","329","134234","0.0-329.0","3TE3O85731U6AV4O7FRBSCJD9J3R2L","A3IXFZZ3JWTCPW","3WRBLBQ2GRU63BU2LFOJL1G32T90GO","","null","<img src=""img/flower5.png"" style=""width:200px; border:14px solid green;"">","null","","","","","","","","",""
"","image-keyboard-response","330","134547","0.0-330.0","3TE3O85731U6AV4O7FRBSCJD9J3R2L","A3IXFZZ3JWTCPW","3WRBLBQ2GRU63BU2LFOJL1G32T90GO","","311.3000000002794","img/flower5.png","76","312.5","3","1","3","1","1,0.333,0.333,0.333,1,0.333,0.333,0.333,1","1,0.333,0.333,0.333,1,0.333,0.333,0.333,1","1",""
"","html-keyboard-response","331","134850","0.0-331.0","3TE3O85731U6AV4O7FRBSCJD9J3R2L","A3IXFZZ3JWTCPW","3WRBLBQ2GRU63BU2LFOJL1G32T90GO","","null","<img src=""img/flower5.png"" style=""width:200px; border:14px solid green;"">","null","","","","","","","","",""
"","image-keyboard-response","332","134854","0.0-332.0","3TE3O85731U6AV4O7FRBSCJD9J3R2L","A3IXFZZ3JWTCPW","3WRBLBQ2GRU63BU2LFOJL1G32T90GO","","2.900000000372529","img/flower5.png","76","4.100000000093132","3","1","3","1","1,0.333,0.333,0.333,1,0.333,0.333,0.333,1","1,0.333,0.333,0.333,1,0.333,0.333,0.333,1","1",""
"","html-keyboard-response","333","135157","0.0-333.0","3TE3O85731U6AV4O7FRBSCJD9J3R2L","A3IXFZZ3JWTCPW","3WRBLBQ2GRU63BU2LFOJL1G32T90GO","","null","<img src=""img/flower5.png"" style=""width:200px; border:14px solid green;"">","null","","","","","","","","",""
"","image-keyboard-response","334","135267","0.0-334.0","3TE3O85731U6AV4O7FRBSCJD9J3R2L","A3IXFZZ3JWTCPW","3WRBLBQ2GRU63BU2LFOJL1G32T90GO","","108.3000000002794","img/flower1.png","74","109.39999999990687","1","1","2","1","1,0.333,0.333,0.333,1,0.333,0.333,0.333,1","1,0.333,0.333,0.333,1,0.333,0.333,0.333,1","1",""
"","html-keyboard-response","335","135569","0.0-335.0","3TE3O85731U6AV4O7FRBSCJD9J3R2L","A3IXFZZ3JWTCPW","3WRBLBQ2GRU63BU2LFOJL1G32T90GO","","null","<img src=""img/flower1.png"" style=""width:200px; border:14px solid green;"">","null","","","","","","","","",""
"","image-keyboard-response","336","135779","0.0-336.0","3TE3O85731U6AV4O7FRBSCJD9J3R2L","A3IXFZZ3JWTCPW","3WRBLBQ2GRU63BU2LFOJL1G32T90GO","","208.39999999990687","img/flower1.png","74","209.60000000009313","1","1","2","1","1,0.333,0.333,0.333,1,0.333,0.333,0.333,1","1,0.333,0.333,0.333,1,0.333,0.333,0.333,1","1",""
"","html-keyboard-response","337","136081","0.0-337.0","3TE3O85731U6AV4O7FRBSCJD9J3R2L","A3IXFZZ3JWTCPW","3WRBLBQ2GRU63BU2LFOJL1G32T90GO","","null","<img src=""img/flower1.png"" style=""width:200px; border:14px solid green;"">","null","","","","","","","","",""
"","image-keyboard-response","338","136138","0.0-338.0","3TE3O85731U6AV4O7FRBSCJD9J3R2L","A3IXFZZ3JWTCPW","3WRBLBQ2GRU63BU2LFOJL1G32T90GO","","55.89999999990687","img/flower2.png","74","57.10000000009313","1","1","1","1","1,0.333,0.333,0.333,1,0.333,0.333,0.333,1","1,0.333,0.333,0.333,1,0.333,0.333,0.333,1","1",""
"","html-keyboard-response","339","136440","0.0-339.0","3TE3O85731U6AV4O7FRBSCJD9J3R2L","A3IXFZZ3JWTCPW","3WRBLBQ2GRU63BU2LFOJL1G32T90GO","","null","<img src=""img/flower2.png"" style=""width:200px; border:14px solid green;"">","null","","","","","","","","",""
"","image-keyboard-response","340","136796","0.0-340.0","3TE3O85731U6AV4O7FRBSCJD9J3R2L","A3IXFZZ3JWTCPW","3WRBLBQ2GRU63BU2LFOJL1G32T90GO","","354","img/flower5.png","75","355.20000000018626","2","0","3","1","1,0.333,0.333,0.333,1,0.333,0.333,0.333,1","1,0.333,0.333,0.333,1,0.333,0.333,0.333,1","1",""
"","html-keyboard-response","341","137098","0.0-341.0","3TE3O85731U6AV4O7FRBSCJD9J3R2L","A3IXFZZ3JWTCPW","3WRBLBQ2GRU63BU2LFOJL1G32T90GO","","null","<img src=""img/flower5.png"" style=""width:200px;border:14px solid red;"">","null","","","","","","","","",""
"","image-keyboard-response","342","137145","0.0-342.0","3TE3O85731U6AV4O7FRBSCJD9J3R2L","A3IXFZZ3JWTCPW","3WRBLBQ2GRU63BU2LFOJL1G32T90GO","","45.39999999990687","img/flower2.png","75","46.5","2","1","1","1","1,0.333,0.333,0.333,1,0.333,0.333,0.333,1","1,0.333,0.333,0.333,1,0.333,0.333,0.333,1","1",""
"","html-keyboard-response","343","137447","0.0-343.0","3TE3O85731U6AV4O7FRBSCJD9J3R2L","A3IXFZZ3JWTCPW","3WRBLBQ2GRU63BU2LFOJL1G32T90GO","","null","<img src=""img/flower2.png"" style=""width:200px; border:14px solid green;"">","null","","","","","","","","",""
"","image-keyboard-response","344","137498","0.0-344.0","3TE3O85731U6AV4O7FRBSCJD9J3R2L","A3IXFZZ3JWTCPW","3WRBLBQ2GRU63BU2LFOJL1G32T90GO","","49.3000000002794","img/flower5.png","76","50.39999999990687","3","1","3","1","1,0.333,0.333,0.333,1,0.333,0.333,0.333,1","1,0.333,0.333,0.333,1,0.333,0.333,0.333,1","1",""
"","html-keyboard-response","345","137799","0.0-345.0","3TE3O85731U6AV4O7FRBSCJD9J3R2L","A3IXFZZ3JWTCPW","3WRBLBQ2GRU63BU2LFOJL1G32T90GO","","null","<img src=""img/flower5.png"" style=""width:200px; border:14px solid green;"">","null","","","","","","","","",""
"","image-keyboard-response","346","137804","0.0-346.0","3TE3O85731U6AV4O7FRBSCJD9J3R2L","A3IXFZZ3JWTCPW","3WRBLBQ2GRU63BU2LFOJL1G32T90GO","","2.7999999998137355","img/flower2.png","75","4.099999999627471","2","0","1","1","1,0.333,0.333,0.333,1,0.333,0.333,0.333,1","1,0.333,0.333,0.333,1,0.333,0.333,0.333,1","1",""
"","html-keyboard-response","347","138106","0.0-347.0","3TE3O85731U6AV4O7FRBSCJD9J3R2L","A3IXFZZ3JWTCPW","3WRBLBQ2GRU63BU2LFOJL1G32T90GO","","null","<img src=""img/flower2.png"" style=""width:200px;border:14px solid red;"">","null","","","","","","","","",""
"","image-keyboard-response","348","138442","0.0-348.0","3TE3O85731U6AV4O7FRBSCJD9J3R2L","A3IXFZZ3JWTCPW","3WRBLBQ2GRU63BU2LFOJL1G32T90GO","","333.29999999981374","img/flower2.png","74","335","1","1","1","1","1,0.333,0.333,0.333,1,0.333,0.333,0.333,1","1,0.333,0.333,0.333,1,0.333,0.333,0.333,1","1",""
"","html-keyboard-response","349","138743","0.0-349.0","3TE3O85731U6AV4O7FRBSCJD9J3R2L","A3IXFZZ3JWTCPW","3WRBLBQ2GRU63BU2LFOJL1G32T90GO","","null","<img src=""img/flower2.png"" style=""width:200px; border:14px solid green;"">","null","","","","","","","","",""
"","image-keyboard-response","350","138752","0.0-350.0","3TE3O85731U6AV4O7FRBSCJD9J3R2L","A3IXFZZ3JWTCPW","3WRBLBQ2GRU63BU2LFOJL1G32T90GO","","6.7000000001862645","img/flower1.png","74","7.899999999906868","1","1","2","1","1,0.333,0.333,0.333,1,0.333,0.333,0.333,1","1,0.333,0.333,0.333,1,0.333,0.333,0.333,1","1",""
"","html-keyboard-response","351","139054","0.0-351.0","3TE3O85731U6AV4O7FRBSCJD9J3R2L","A3IXFZZ3JWTCPW","3WRBLBQ2GRU63BU2LFOJL1G32T90GO","","null","<img src=""img/flower1.png"" style=""width:200px; border:14px solid green;"">","null","","","","","","","","",""
"","image-keyboard-response","352","139238","0.0-352.0","3TE3O85731U6AV4O7FRBSCJD9J3R2L","A3IXFZZ3JWTCPW","3WRBLBQ2GRU63BU2LFOJL1G32T90GO","","182","img/flower2.png","76","183.20000000018626","3","0","1","1","1,0.333,0.333,0.333,1,0.333,0.333,0.333,1","1,0.333,0.333,0.333,1,0.333,0.333,0.333,1","1",""
"","html-keyboard-response","353","139540","0.0-353.0","3TE3O85731U6AV4O7FRBSCJD9J3R2L","A3IXFZZ3JWTCPW","3WRBLBQ2GRU63BU2LFOJL1G32T90GO","","null","<img src=""img/flower2.png"" style=""width:200px;border:14px solid red;"">","null","","","","","","","","",""
"","image-keyboard-response","354","139594","0.0-354.0","3TE3O85731U6AV4O7FRBSCJD9J3R2L","A3IXFZZ3JWTCPW","3WRBLBQ2GRU63BU2LFOJL1G32T90GO","","52.6999999997206","img/flower2.png","76","53.89999999990687","3","1","1","1","1,0.333,0.333,0.333,1,0.333,0.333,0.333,1","1,0.333,0.333,0.333,1,0.333,0.333,0.333,1","1",""
"","html-keyboard-response","355","139896","0.0-355.0","3TE3O85731U6AV4O7FRBSCJD9J3R2L","A3IXFZZ3JWTCPW","3WRBLBQ2GRU63BU2LFOJL1G32T90GO","","null","<img src=""img/flower2.png"" style=""width:200px; border:14px solid green;"">","null","","","","","","","","",""
"","image-keyboard-response","356","139939","0.0-356.0","3TE3O85731U6AV4O7FRBSCJD9J3R2L","A3IXFZZ3JWTCPW","3WRBLBQ2GRU63BU2LFOJL1G32T90GO","","41.40000000037253","img/flower1.png","74","42.5","1","0","2","1","1,0.333,0.333,0.333,1,0.333,0.333,0.333,1","1,0.333,0.333,0.333,1,0.333,0.333,0.333,1","1",""
"","html-keyboard-response","357","140241","0.0-357.0","3TE3O85731U6AV4O7FRBSCJD9J3R2L","A3IXFZZ3JWTCPW","3WRBLBQ2GRU63BU2LFOJL1G32T90GO","","null","<img src=""img/flower1.png"" style=""width:200px;border:14px solid red;"">","null","","","","","","","","",""
"","image-keyboard-response","358","140413","0.0-358.0","3TE3O85731U6AV4O7FRBSCJD9J3R2L","A3IXFZZ3JWTCPW","3WRBLBQ2GRU63BU2LFOJL1G32T90GO","","170","img/flower1.png","74","171.10000000009313","1","0","2","1","1,0.333,0.333,0.333,1,0.333,0.333,0.333,1","1,0.333,0.333,0.333,1,0.333,0.333,0.333,1","1",""
"","html-keyboard-response","359","140715","0.0-359.0","3TE3O85731U6AV4O7FRBSCJD9J3R2L","A3IXFZZ3JWTCPW","3WRBLBQ2GRU63BU2LFOJL1G32T90GO","","null","<img src=""img/flower1.png"" style=""width:200px;border:14px solid red;"">","null","","","","","","","","",""
"","image-keyboard-response","360","140953","0.0-360.0","3TE3O85731U6AV4O7FRBSCJD9J3R2L","A3IXFZZ3JWTCPW","3WRBLBQ2GRU63BU2LFOJL1G32T90GO","","236.1999999997206","img/flower2.png","75","237.3000000002794","2","0","1","1","1,0.333,0.333,0.333,1,0.333,0.333,0.333,1","1,0.333,0.333,0.333,1,0.333,0.333,0.333,1","1",""
"","html-keyboard-response","361","141254","0.0-361.0","3TE3O85731U6AV4O7FRBSCJD9J3R2L","A3IXFZZ3JWTCPW","3WRBLBQ2GRU63BU2LFOJL1G32T90GO","","null","<img src=""img/flower2.png"" style=""width:200px;border:14px solid red;"">","null","","","","","","","","",""
"","html-keyboard-response","362","144366","0.0-362.0","3TE3O85731U6AV4O7FRBSCJD9J3R2L","A3IXFZZ3JWTCPW","3WRBLBQ2GRU63BU2LFOJL1G32T90GO","","","","","","","","","","","","",""
"","instructions","363","146543","0.0-363.0","3TE3O85731U6AV4O7FRBSCJD9J3R2L","A3IXFZZ3JWTCPW","3WRBLBQ2GRU63BU2LFOJL1G32T90GO","[{""page_index"":0,""viewing_time"":2175.399999999907}]","2175.899999999907","","","","","","","","","","",""
"","survey-text","364","160534","0.0-364.0","3TE3O85731U6AV4O7FRBSCJD9J3R2L","A3IXFZZ3JWTCPW","3WRBLBQ2GRU63BU2LFOJL1G32T90GO","","13984.5","","","","","","","","","","","{""Q0"":""A3IXFZZ3JWTCPW""}"
