"success","trial_type","trial_index","time_elapsed","internal_node_id","assignmentID","mturkID","hitID","view_history","rt","stimulus","key_press","reactionTime","a","r","s","cond","reward_cond","reward_cond_actual","reward_matrix_idx","responses"
"true","fullscreen","0","3231","0.0-0.0","37TRT2X24RDJ0KL7I3BDRE0QSTABJ8","A3JI3B5GTVA95F","3S1L4CQSFXRWQOWP2XFUSMS4AZDFAL","","","","","","","","","","","","",""
"","instructions","1","29234","0.0-1.0","37TRT2X24RDJ0KL7I3BDRE0QSTABJ8","A3JI3B5GTVA95F","3S1L4CQSFXRWQOWP2XFUSMS4AZDFAL","[{""page_index"":0,""viewing_time"":1802},{""page_index"":1,""viewing_time"":4592},{""page_index"":2,""viewing_time"":1698},{""page_index"":3,""viewing_time"":2698},{""page_index"":4,""viewing_time"":5458},{""page_index"":5,""viewing_time"":2036},{""page_index"":6,""viewing_time"":3442},{""page_index"":7,""viewing_time"":4274}]","26000","","","","","","","","","","",""
"","image-keyboard-response","2","31020","0.0-2.0","37TRT2X24RDJ0KL7I3BDRE0QSTABJ8","A3JI3B5GTVA95F","3S1L4CQSFXRWQOWP2XFUSMS4AZDFAL","","1781","img/flower1.png","74","1783","1","1","2","2","1,0,0,1,1,0,1,0,1","0,0,1,1,0,1,0,1,1","2",""
"","html-keyboard-response","3","31329","0.0-3.0","37TRT2X24RDJ0KL7I3BDRE0QSTABJ8","A3JI3B5GTVA95F","3S1L4CQSFXRWQOWP2XFUSMS4AZDFAL","","null","<img src=""img/flower1.png"" style=""width:200px; border:14px solid green;"">","null","","","","","","","","",""
"","image-keyboard-response","4","31739","0.0-4.0","37TRT2X24RDJ0KL7I3BDRE0QSTABJ8","A3JI3B5GTVA95F","3S1L4CQSFXRWQOWP2XFUSMS4AZDFAL","","408","img/flower1.png","74","409","1","1","2","2","1,0,0,1,1,0,1,0,1","0,0,1,1,0,1,0,1,1","2",""
"","html-keyboard-response","5","32048","0.0-5.0","37TRT2X24RDJ0KL7I3BDRE0QSTABJ8","A3JI3B5GTVA95F","3S1L4CQSFXRWQOWP2XFUSMS4AZDFAL","","null","<img src=""img/flower1.png"" style=""width:200px; border:14px solid green;"">","null","","","","","","","","",""
"","image-keyboard-response","6","32619","0.0-6.0","37TRT2X24RDJ0KL7I3BDRE0QSTABJ8","A3JI3B5GTVA95F","3S1L4CQSFXRWQOWP2XFUSMS4AZDFAL","","568","img/flower2.png","75","571","2","1","3","2","1,0,0,1,1,0,1,0,1","0,0,1,1,0,1,0,1,1","2",""
"","html-keyboard-response","7","32929","0.0-7.0","37TRT2X24RDJ0KL7I3BDRE0QSTABJ8","A3JI3B5GTVA95F","3S1L4CQSFXRWQOWP2XFUSMS4AZDFAL","","null","<img src=""img/flower2.png"" style=""width:200px; border:14px solid green;"">","null","","","","","","","","",""
"","image-keyboard-response","8","33587","0.0-8.0","37TRT2X24RDJ0KL7I3BDRE0QSTABJ8","A3JI3B5GTVA95F","3S1L4CQSFXRWQOWP2XFUSMS4AZDFAL","","657","img/flower1.png","75","659","2","0","2","2","1,0,0,1,1,0,1,0,1","0,0,1,1,0,1,0,1,1","2",""
"","html-keyboard-response","9","33888","0.0-9.0","37TRT2X24RDJ0KL7I3BDRE0QSTABJ8","A3JI3B5GTVA95F","3S1L4CQSFXRWQOWP2XFUSMS4AZDFAL","","null","<img src=""img/flower1.png"" style=""width:200px;border:14px solid red;"">","null","","","","","","","","",""
"","image-keyboard-response","10","34347","0.0-10.0","37TRT2X24RDJ0KL7I3BDRE0QSTABJ8","A3JI3B5GTVA95F","3S1L4CQSFXRWQOWP2XFUSMS4AZDFAL","","456","img/flower1.png","74","458","1","1","2","2","1,0,0,1,1,0,1,0,1","0,0,1,1,0,1,0,1,1","2",""
"","html-keyboard-response","11","34649","0.0-11.0","37TRT2X24RDJ0KL7I3BDRE0QSTABJ8","A3JI3B5GTVA95F","3S1L4CQSFXRWQOWP2XFUSMS4AZDFAL","","null","<img src=""img/flower1.png"" style=""width:200px; border:14px solid green;"">","null","","","","","","","","",""
"","image-keyboard-response","12","35362","0.0-12.0","37TRT2X24RDJ0KL7I3BDRE0QSTABJ8","A3JI3B5GTVA95F","3S1L4CQSFXRWQOWP2XFUSMS4AZDFAL","","713","img/flower2.png","75","714","2","1","3","2","1,0,0,1,1,0,1,0,1","0,0,1,1,0,1,0,1,1","2",""
"","html-keyboard-response","13","35669","0.0-13.0","37TRT2X24RDJ0KL7I3BDRE0QSTABJ8","A3JI3B5GTVA95F","3S1L4CQSFXRWQOWP2XFUSMS4AZDFAL","","null","<img src=""img/flower2.png"" style=""width:200px; border:14px solid green;"">","null","","","","","","","","",""
"","image-keyboard-response","14","36507","0.0-14.0","37TRT2X24RDJ0KL7I3BDRE0QSTABJ8","A3JI3B5GTVA95F","3S1L4CQSFXRWQOWP2XFUSMS4AZDFAL","","836","img/flower5.png","76","838","3","1","1","2","1,0,0,1,1,0,1,0,1","0,0,1,1,0,1,0,1,1","2",""
"","html-keyboard-response","15","36808","0.0-15.0","37TRT2X24RDJ0KL7I3BDRE0QSTABJ8","A3JI3B5GTVA95F","3S1L4CQSFXRWQOWP2XFUSMS4AZDFAL","","null","<img src=""img/flower5.png"" style=""width:200px; border:14px solid green;"">","null","","","","","","","","",""
"","image-keyboard-response","16","37139","0.0-16.0","37TRT2X24RDJ0KL7I3BDRE0QSTABJ8","A3JI3B5GTVA95F","3S1L4CQSFXRWQOWP2XFUSMS4AZDFAL","","329","img/flower5.png","76","329","3","1","1","2","1,0,0,1,1,0,1,0,1","0,0,1,1,0,1,0,1,1","2",""
"","html-keyboard-response","17","37449","0.0-17.0","37TRT2X24RDJ0KL7I3BDRE0QSTABJ8","A3JI3B5GTVA95F","3S1L4CQSFXRWQOWP2XFUSMS4AZDFAL","","null","<img src=""img/flower5.png"" style=""width:200px; border:14px solid green;"">","null","","","","","","","","",""
"","image-keyboard-response","18","38083","0.0-18.0","37TRT2X24RDJ0KL7I3BDRE0QSTABJ8","A3JI3B5GTVA95F","3S1L4CQSFXRWQOWP2XFUSMS4AZDFAL","","633","img/flower2.png","75","634","2","1","3","2","1,0,0,1,1,0,1,0,1","0,0,1,1,0,1,0,1,1","2",""
"","html-keyboard-response","19","38388","0.0-19.0","37TRT2X24RDJ0KL7I3BDRE0QSTABJ8","A3JI3B5GTVA95F","3S1L4CQSFXRWQOWP2XFUSMS4AZDFAL","","null","<img src=""img/flower2.png"" style=""width:200px; border:14px solid green;"">","null","","","","","","","","",""
"","image-keyboard-response","20","38715","0.0-20.0","37TRT2X24RDJ0KL7I3BDRE0QSTABJ8","A3JI3B5GTVA95F","3S1L4CQSFXRWQOWP2XFUSMS4AZDFAL","","326","img/flower2.png","75","326","2","1","3","2","1,0,0,1,1,0,1,0,1","0,0,1,1,0,1,0,1,1","2",""
"","html-keyboard-response","21","39018","0.0-21.0","37TRT2X24RDJ0KL7I3BDRE0QSTABJ8","A3JI3B5GTVA95F","3S1L4CQSFXRWQOWP2XFUSMS4AZDFAL","","null","<img src=""img/flower2.png"" style=""width:200px; border:14px solid green;"">","null","","","","","","","","",""
"","image-keyboard-response","22","39499","0.0-22.0","37TRT2X24RDJ0KL7I3BDRE0QSTABJ8","A3JI3B5GTVA95F","3S1L4CQSFXRWQOWP2XFUSMS4AZDFAL","","479","img/flower5.png","74","480","1","0","1","2","1,0,0,1,1,0,1,0,1","0,0,1,1,0,1,0,1,1","2",""
"","html-keyboard-response","23","39808","0.0-23.0","37TRT2X24RDJ0KL7I3BDRE0QSTABJ8","A3JI3B5GTVA95F","3S1L4CQSFXRWQOWP2XFUSMS4AZDFAL","","null","<img src=""img/flower5.png"" style=""width:200px;border:14px solid red;"">","null","","","","","","","","",""
"","image-keyboard-response","24","40514","0.0-24.0","37TRT2X24RDJ0KL7I3BDRE0QSTABJ8","A3JI3B5GTVA95F","3S1L4CQSFXRWQOWP2XFUSMS4AZDFAL","","706","img/flower1.png","74","706","1","1","2","2","1,0,0,1,1,0,1,0,1","0,0,1,1,0,1,0,1,1","2",""
"","html-keyboard-response","25","40818","0.0-25.0","37TRT2X24RDJ0KL7I3BDRE0QSTABJ8","A3JI3B5GTVA95F","3S1L4CQSFXRWQOWP2XFUSMS4AZDFAL","","null","<img src=""img/flower1.png"" style=""width:200px; border:14px solid green;"">","null","","","","","","","","",""
"","image-keyboard-response","26","41506","0.0-26.0","37TRT2X24RDJ0KL7I3BDRE0QSTABJ8","A3JI3B5GTVA95F","3S1L4CQSFXRWQOWP2XFUSMS4AZDFAL","","687","img/flower2.png","75","687","2","1","3","2","1,0,0,1,1,0,1,0,1","0,0,1,1,0,1,0,1,1","2",""
"","html-keyboard-response","27","41808","0.0-27.0","37TRT2X24RDJ0KL7I3BDRE0QSTABJ8","A3JI3B5GTVA95F","3S1L4CQSFXRWQOWP2XFUSMS4AZDFAL","","null","<img src=""img/flower2.png"" style=""width:200px; border:14px solid green;"">","null","","","","","","","","",""
"","image-keyboard-response","28","42130","0.0-28.0","37TRT2X24RDJ0KL7I3BDRE0QSTABJ8","A3JI3B5GTVA95F","3S1L4CQSFXRWQOWP2XFUSMS4AZDFAL","","321","img/flower2.png","75","322","2","1","3","2","1,0,0,1,1,0,1,0,1","0,0,1,1,0,1,0,1,1","2",""
"","html-keyboard-response","29","42438","0.0-29.0","37TRT2X24RDJ0KL7I3BDRE0QSTABJ8","A3JI3B5GTVA95F","3S1L4CQSFXRWQOWP2XFUSMS4AZDFAL","","null","<img src=""img/flower2.png"" style=""width:200px; border:14px solid green;"">","null","","","","","","","","",""
"","image-keyboard-response","30","42898","0.0-30.0","37TRT2X24RDJ0KL7I3BDRE0QSTABJ8","A3JI3B5GTVA95F","3S1L4CQSFXRWQOWP2XFUSMS4AZDFAL","","459","img/flower1.png","76","460","3","1","2","2","1,0,0,1,1,0,1,0,1","0,0,1,1,0,1,0,1,1","2",""
"","html-keyboard-response","31","43208","0.0-31.0","37TRT2X24RDJ0KL7I3BDRE0QSTABJ8","A3JI3B5GTVA95F","3S1L4CQSFXRWQOWP2XFUSMS4AZDFAL","","null","<img src=""img/flower1.png"" style=""width:200px; border:14px solid green;"">","null","","","","","","","","",""
"","image-keyboard-response","32","44002","0.0-32.0","37TRT2X24RDJ0KL7I3BDRE0QSTABJ8","A3JI3B5GTVA95F","3S1L4CQSFXRWQOWP2XFUSMS4AZDFAL","","795","img/flower5.png","76","795","3","1","1","2","1,0,0,1,1,0,1,0,1","0,0,1,1,0,1,0,1,1","2",""
"","html-keyboard-response","33","44308","0.0-33.0","37TRT2X24RDJ0KL7I3BDRE0QSTABJ8","A3JI3B5GTVA95F","3S1L4CQSFXRWQOWP2XFUSMS4AZDFAL","","null","<img src=""img/flower5.png"" style=""width:200px; border:14px solid green;"">","null","","","","","","","","",""
"","image-keyboard-response","34","44811","0.0-34.0","37TRT2X24RDJ0KL7I3BDRE0QSTABJ8","A3JI3B5GTVA95F","3S1L4CQSFXRWQOWP2XFUSMS4AZDFAL","","501","img/flower1.png","76","503","3","1","2","2","1,0,0,1,1,0,1,0,1","0,0,1,1,0,1,0,1,1","2",""
"","html-keyboard-response","35","45118","0.0-35.0","37TRT2X24RDJ0KL7I3BDRE0QSTABJ8","A3JI3B5GTVA95F","3S1L4CQSFXRWQOWP2XFUSMS4AZDFAL","","null","<img src=""img/flower1.png"" style=""width:200px; border:14px solid green;"">","null","","","","","","","","",""
"","image-keyboard-response","36","45442","0.0-36.0","37TRT2X24RDJ0KL7I3BDRE0QSTABJ8","A3JI3B5GTVA95F","3S1L4CQSFXRWQOWP2XFUSMS4AZDFAL","","324","img/flower5.png","76","324","3","1","1","2","1,0,0,1,1,0,1,0,1","0,0,1,1,0,1,0,1,1","2",""
"","html-keyboard-response","37","45749","0.0-37.0","37TRT2X24RDJ0KL7I3BDRE0QSTABJ8","A3JI3B5GTVA95F","3S1L4CQSFXRWQOWP2XFUSMS4AZDFAL","","null","<img src=""img/flower5.png"" style=""width:200px; border:14px solid green;"">","null","","","","","","","","",""
"","image-keyboard-response","38","46050","0.0-38.0","37TRT2X24RDJ0KL7I3BDRE0QSTABJ8","A3JI3B5GTVA95F","3S1L4CQSFXRWQOWP2XFUSMS4AZDFAL","","302","img/flower1.png","76","302","3","1","2","2","1,0,0,1,1,0,1,0,1","0,0,1,1,0,1,0,1,1","2",""
"","html-keyboard-response","39","46359","0.0-39.0","37TRT2X24RDJ0KL7I3BDRE0QSTABJ8","A3JI3B5GTVA95F","3S1L4CQSFXRWQOWP2XFUSMS4AZDFAL","","null","<img src=""img/flower1.png"" style=""width:200px; border:14px solid green;"">","null","","","","","","","","",""
"","image-keyboard-response","40","46683","0.0-40.0","37TRT2X24RDJ0KL7I3BDRE0QSTABJ8","A3JI3B5GTVA95F","3S1L4CQSFXRWQOWP2XFUSMS4AZDFAL","","323","img/flower2.png","76","323","3","1","3","2","1,0,0,1,1,0,1,0,1","0,0,1,1,0,1,0,1,1","2",""
"","html-keyboard-response","41","46988","0.0-41.0","37TRT2X24RDJ0KL7I3BDRE0QSTABJ8","A3JI3B5GTVA95F","3S1L4CQSFXRWQOWP2XFUSMS4AZDFAL","","null","<img src=""img/flower2.png"" style=""width:200px; border:14px solid green;"">","null","","","","","","","","",""
"","image-keyboard-response","42","47402","0.0-42.0","37TRT2X24RDJ0KL7I3BDRE0QSTABJ8","A3JI3B5GTVA95F","3S1L4CQSFXRWQOWP2XFUSMS4AZDFAL","","413","img/flower2.png","76","415","3","1","3","2","1,0,0,1,1,0,1,0,1","0,0,1,1,0,1,0,1,1","2",""
"","html-keyboard-response","43","47708","0.0-43.0","37TRT2X24RDJ0KL7I3BDRE0QSTABJ8","A3JI3B5GTVA95F","3S1L4CQSFXRWQOWP2XFUSMS4AZDFAL","","null","<img src=""img/flower2.png"" style=""width:200px; border:14px solid green;"">","null","","","","","","","","",""
"","image-keyboard-response","44","47963","0.0-44.0","37TRT2X24RDJ0KL7I3BDRE0QSTABJ8","A3JI3B5GTVA95F","3S1L4CQSFXRWQOWP2XFUSMS4AZDFAL","","253","img/flower2.png","76","254","3","1","3","2","1,0,0,1,1,0,1,0,1","0,0,1,1,0,1,0,1,1","2",""
"","html-keyboard-response","45","48268","0.0-45.0","37TRT2X24RDJ0KL7I3BDRE0QSTABJ8","A3JI3B5GTVA95F","3S1L4CQSFXRWQOWP2XFUSMS4AZDFAL","","null","<img src=""img/flower2.png"" style=""width:200px; border:14px solid green;"">","null","","","","","","","","",""
"","image-keyboard-response","46","48499","0.0-46.0","37TRT2X24RDJ0KL7I3BDRE0QSTABJ8","A3JI3B5GTVA95F","3S1L4CQSFXRWQOWP2XFUSMS4AZDFAL","","229","img/flower2.png","76","230","3","1","3","2","1,0,0,1,1,0,1,0,1","0,0,1,1,0,1,0,1,1","2",""
"","html-keyboard-response","47","48808","0.0-47.0","37TRT2X24RDJ0KL7I3BDRE0QSTABJ8","A3JI3B5GTVA95F","3S1L4CQSFXRWQOWP2XFUSMS4AZDFAL","","null","<img src=""img/flower2.png"" style=""width:200px; border:14px solid green;"">","null","","","","","","","","",""
"","image-keyboard-response","48","49130","0.0-48.0","37TRT2X24RDJ0KL7I3BDRE0QSTABJ8","A3JI3B5GTVA95F","3S1L4CQSFXRWQOWP2XFUSMS4AZDFAL","","321","img/flower2.png","76","322","3","1","3","2","1,0,0,1,1,0,1,0,1","0,0,1,1,0,1,0,1,1","2",""
"","html-keyboard-response","49","49438","0.0-49.0","37TRT2X24RDJ0KL7I3BDRE0QSTABJ8","A3JI3B5GTVA95F","3S1L4CQSFXRWQOWP2XFUSMS4AZDFAL","","null","<img src=""img/flower2.png"" style=""width:200px; border:14px solid green;"">","null","","","","","","","","",""
"","image-keyboard-response","50","50098","0.0-50.0","37TRT2X24RDJ0KL7I3BDRE0QSTABJ8","A3JI3B5GTVA95F","3S1L4CQSFXRWQOWP2XFUSMS4AZDFAL","","659","img/flower1.png","75","659","2","0","2","2","1,0,0,1,1,0,1,0,1","0,0,1,1,0,1,0,1,1","2",""
"","html-keyboard-response","51","50408","0.0-51.0","37TRT2X24RDJ0KL7I3BDRE0QSTABJ8","A3JI3B5GTVA95F","3S1L4CQSFXRWQOWP2XFUSMS4AZDFAL","","null","<img src=""img/flower1.png"" style=""width:200px;border:14px solid red;"">","null","","","","","","","","",""
"","image-keyboard-response","52","50930","0.0-52.0","37TRT2X24RDJ0KL7I3BDRE0QSTABJ8","A3JI3B5GTVA95F","3S1L4CQSFXRWQOWP2XFUSMS4AZDFAL","","522","img/flower2.png","76","523","3","1","3","2","1,0,0,1,1,0,1,0,1","0,0,1,1,0,1,0,1,1","2",""
"","html-keyboard-response","53","51238","0.0-53.0","37TRT2X24RDJ0KL7I3BDRE0QSTABJ8","A3JI3B5GTVA95F","3S1L4CQSFXRWQOWP2XFUSMS4AZDFAL","","null","<img src=""img/flower2.png"" style=""width:200px; border:14px solid green;"">","null","","","","","","","","",""
"","image-keyboard-response","54","51426","0.0-54.0","37TRT2X24RDJ0KL7I3BDRE0QSTABJ8","A3JI3B5GTVA95F","3S1L4CQSFXRWQOWP2XFUSMS4AZDFAL","","188","img/flower1.png","76","188","3","1","2","2","1,0,0,1,1,0,1,0,1","0,0,1,1,0,1,0,1,1","2",""
"","html-keyboard-response","55","51728","0.0-55.0","37TRT2X24RDJ0KL7I3BDRE0QSTABJ8","A3JI3B5GTVA95F","3S1L4CQSFXRWQOWP2XFUSMS4AZDFAL","","null","<img src=""img/flower1.png"" style=""width:200px; border:14px solid green;"">","null","","","","","","","","",""
"","image-keyboard-response","56","52258","0.0-56.0","37TRT2X24RDJ0KL7I3BDRE0QSTABJ8","A3JI3B5GTVA95F","3S1L4CQSFXRWQOWP2XFUSMS4AZDFAL","","530","img/flower1.png","76","531","3","1","2","2","1,0,0,1,1,0,1,0,1","0,0,1,1,0,1,0,1,1","2",""
"","html-keyboard-response","57","52568","0.0-57.0","37TRT2X24RDJ0KL7I3BDRE0QSTABJ8","A3JI3B5GTVA95F","3S1L4CQSFXRWQOWP2XFUSMS4AZDFAL","","null","<img src=""img/flower1.png"" style=""width:200px; border:14px solid green;"">","null","","","","","","","","",""
"","image-keyboard-response","58","52867","0.0-58.0","37TRT2X24RDJ0KL7I3BDRE0QSTABJ8","A3JI3B5GTVA95F","3S1L4CQSFXRWQOWP2XFUSMS4AZDFAL","","297","img/flower1.png","76","299","3","1","2","2","1,0,0,1,1,0,1,0,1","0,0,1,1,0,1,0,1,1","2",""
"","html-keyboard-response","59","53168","0.0-59.0","37TRT2X24RDJ0KL7I3BDRE0QSTABJ8","A3JI3B5GTVA95F","3S1L4CQSFXRWQOWP2XFUSMS4AZDFAL","","null","<img src=""img/flower1.png"" style=""width:200px; border:14px solid green;"">","null","","","","","","","","",""
"","image-keyboard-response","60","53386","0.0-60.0","37TRT2X24RDJ0KL7I3BDRE0QSTABJ8","A3JI3B5GTVA95F","3S1L4CQSFXRWQOWP2XFUSMS4AZDFAL","","218","img/flower1.png","76","218","3","1","2","2","1,0,0,1,1,0,1,0,1","0,0,1,1,0,1,0,1,1","2",""
"","html-keyboard-response","61","53687","0.0-61.0","37TRT2X24RDJ0KL7I3BDRE0QSTABJ8","A3JI3B5GTVA95F","3S1L4CQSFXRWQOWP2XFUSMS4AZDFAL","","null","<img src=""img/flower1.png"" style=""width:200px; border:14px solid green;"">","null","","","","","","","","",""
"","image-keyboard-response","62","53883","0.0-62.0","37TRT2X24RDJ0KL7I3BDRE0QSTABJ8","A3JI3B5GTVA95F","3S1L4CQSFXRWQOWP2XFUSMS4AZDFAL","","194","img/flower1.png","76","194","3","1","2","2","1,0,0,1,1,0,1,0,1","0,0,1,1,0,1,0,1,1","2",""
"","html-keyboard-response","63","54188","0.0-63.0","37TRT2X24RDJ0KL7I3BDRE0QSTABJ8","A3JI3B5GTVA95F","3S1L4CQSFXRWQOWP2XFUSMS4AZDFAL","","null","<img src=""img/flower1.png"" style=""width:200px; border:14px solid green;"">","null","","","","","","","","",""
"","image-keyboard-response","64","54394","0.0-64.0","37TRT2X24RDJ0KL7I3BDRE0QSTABJ8","A3JI3B5GTVA95F","3S1L4CQSFXRWQOWP2XFUSMS4AZDFAL","","205","img/flower5.png","76","207","3","1","1","2","1,0,0,1,1,0,1,0,1","0,0,1,1,0,1,0,1,1","2",""
"","html-keyboard-response","65","54698","0.0-65.0","37TRT2X24RDJ0KL7I3BDRE0QSTABJ8","A3JI3B5GTVA95F","3S1L4CQSFXRWQOWP2XFUSMS4AZDFAL","","null","<img src=""img/flower5.png"" style=""width:200px; border:14px solid green;"">","null","","","","","","","","",""
"","image-keyboard-response","66","55274","0.0-66.0","37TRT2X24RDJ0KL7I3BDRE0QSTABJ8","A3JI3B5GTVA95F","3S1L4CQSFXRWQOWP2XFUSMS4AZDFAL","","576","img/flower2.png","76","576","3","1","3","2","1,0,0,1,1,0,1,0,1","0,0,1,1,0,1,0,1,1","2",""
"","html-keyboard-response","67","55578","0.0-67.0","37TRT2X24RDJ0KL7I3BDRE0QSTABJ8","A3JI3B5GTVA95F","3S1L4CQSFXRWQOWP2XFUSMS4AZDFAL","","null","<img src=""img/flower2.png"" style=""width:200px; border:14px solid green;"">","null","","","","","","","","",""
"","image-keyboard-response","68","56514","0.0-68.0","37TRT2X24RDJ0KL7I3BDRE0QSTABJ8","A3JI3B5GTVA95F","3S1L4CQSFXRWQOWP2XFUSMS4AZDFAL","","936","img/flower5.png","76","936","3","1","1","2","1,0,0,1,1,0,1,0,1","0,0,1,1,0,1,0,1,1","2",""
"","html-keyboard-response","69","56817","0.0-69.0","37TRT2X24RDJ0KL7I3BDRE0QSTABJ8","A3JI3B5GTVA95F","3S1L4CQSFXRWQOWP2XFUSMS4AZDFAL","","null","<img src=""img/flower5.png"" style=""width:200px; border:14px solid green;"">","null","","","","","","","","",""
"","image-keyboard-response","70","57162","0.0-70.0","37TRT2X24RDJ0KL7I3BDRE0QSTABJ8","A3JI3B5GTVA95F","3S1L4CQSFXRWQOWP2XFUSMS4AZDFAL","","343","img/flower5.png","76","344","3","1","1","2","1,0,0,1,1,0,1,0,1","0,0,1,1,0,1,0,1,1","2",""
"","html-keyboard-response","71","57467","0.0-71.0","37TRT2X24RDJ0KL7I3BDRE0QSTABJ8","A3JI3B5GTVA95F","3S1L4CQSFXRWQOWP2XFUSMS4AZDFAL","","null","<img src=""img/flower5.png"" style=""width:200px; border:14px solid green;"">","null","","","","","","","","",""
"","image-keyboard-response","72","57770","0.0-72.0","37TRT2X24RDJ0KL7I3BDRE0QSTABJ8","A3JI3B5GTVA95F","3S1L4CQSFXRWQOWP2XFUSMS4AZDFAL","","302","img/flower5.png","76","302","3","1","1","2","1,0,0,1,1,0,1,0,1","0,0,1,1,0,1,0,1,1","2",""
"","html-keyboard-response","73","58077","0.0-73.0","37TRT2X24RDJ0KL7I3BDRE0QSTABJ8","A3JI3B5GTVA95F","3S1L4CQSFXRWQOWP2XFUSMS4AZDFAL","","null","<img src=""img/flower5.png"" style=""width:200px; border:14px solid green;"">","null","","","","","","","","",""
"","image-keyboard-response","74","58538","0.0-74.0","37TRT2X24RDJ0KL7I3BDRE0QSTABJ8","A3JI3B5GTVA95F","3S1L4CQSFXRWQOWP2XFUSMS4AZDFAL","","460","img/flower2.png","75","461","2","1","3","2","1,0,0,1,1,0,1,0,1","0,0,1,1,0,1,0,1,1","2",""
"","html-keyboard-response","75","58847","0.0-75.0","37TRT2X24RDJ0KL7I3BDRE0QSTABJ8","A3JI3B5GTVA95F","3S1L4CQSFXRWQOWP2XFUSMS4AZDFAL","","null","<img src=""img/flower2.png"" style=""width:200px; border:14px solid green;"">","null","","","","","","","","",""
"","image-keyboard-response","76","59706","0.0-76.0","37TRT2X24RDJ0KL7I3BDRE0QSTABJ8","A3JI3B5GTVA95F","3S1L4CQSFXRWQOWP2XFUSMS4AZDFAL","","858","img/flower5.png","76","858","3","1","1","2","1,0,0,1,1,0,1,0,1","0,0,1,1,0,1,0,1,1","2",""
"","html-keyboard-response","77","60008","0.0-77.0","37TRT2X24RDJ0KL7I3BDRE0QSTABJ8","A3JI3B5GTVA95F","3S1L4CQSFXRWQOWP2XFUSMS4AZDFAL","","null","<img src=""img/flower5.png"" style=""width:200px; border:14px solid green;"">","null","","","","","","","","",""
"","image-keyboard-response","78","60898","0.0-78.0","37TRT2X24RDJ0KL7I3BDRE0QSTABJ8","A3JI3B5GTVA95F","3S1L4CQSFXRWQOWP2XFUSMS4AZDFAL","","889","img/flower1.png","74","890","1","1","2","2","1,0,0,1,1,0,1,0,1","0,0,1,1,0,1,0,1,1","2",""
"","html-keyboard-response","79","61208","0.0-79.0","37TRT2X24RDJ0KL7I3BDRE0QSTABJ8","A3JI3B5GTVA95F","3S1L4CQSFXRWQOWP2XFUSMS4AZDFAL","","null","<img src=""img/flower1.png"" style=""width:200px; border:14px solid green;"">","null","","","","","","","","",""
"","image-keyboard-response","80","61530","0.0-80.0","37TRT2X24RDJ0KL7I3BDRE0QSTABJ8","A3JI3B5GTVA95F","3S1L4CQSFXRWQOWP2XFUSMS4AZDFAL","","321","img/flower1.png","74","322","1","1","2","2","1,0,0,1,1,0,1,0,1","0,0,1,1,0,1,0,1,1","2",""
"","html-keyboard-response","81","61837","0.0-81.0","37TRT2X24RDJ0KL7I3BDRE0QSTABJ8","A3JI3B5GTVA95F","3S1L4CQSFXRWQOWP2XFUSMS4AZDFAL","","null","<img src=""img/flower1.png"" style=""width:200px; border:14px solid green;"">","null","","","","","","","","",""
"","image-keyboard-response","82","62538","0.0-82.0","37TRT2X24RDJ0KL7I3BDRE0QSTABJ8","A3JI3B5GTVA95F","3S1L4CQSFXRWQOWP2XFUSMS4AZDFAL","","700","img/flower5.png","76","701","3","1","1","2","1,0,0,1,1,0,1,0,1","0,0,1,1,0,1,0,1,1","2",""
"","html-keyboard-response","83","62847","0.0-83.0","37TRT2X24RDJ0KL7I3BDRE0QSTABJ8","A3JI3B5GTVA95F","3S1L4CQSFXRWQOWP2XFUSMS4AZDFAL","","null","<img src=""img/flower5.png"" style=""width:200px; border:14px solid green;"">","null","","","","","","","","",""
"","image-keyboard-response","84","63641","0.0-84.0","37TRT2X24RDJ0KL7I3BDRE0QSTABJ8","A3JI3B5GTVA95F","3S1L4CQSFXRWQOWP2XFUSMS4AZDFAL","","792","img/flower1.png","74","794","1","1","2","2","1,0,0,1,1,0,1,0,1","0,0,1,1,0,1,0,1,1","2",""
"","html-keyboard-response","85","63949","0.0-85.0","37TRT2X24RDJ0KL7I3BDRE0QSTABJ8","A3JI3B5GTVA95F","3S1L4CQSFXRWQOWP2XFUSMS4AZDFAL","","null","<img src=""img/flower1.png"" style=""width:200px; border:14px solid green;"">","null","","","","","","","","",""
"","image-keyboard-response","86","64499","0.0-86.0","37TRT2X24RDJ0KL7I3BDRE0QSTABJ8","A3JI3B5GTVA95F","3S1L4CQSFXRWQOWP2XFUSMS4AZDFAL","","546","img/flower5.png","76","547","3","1","1","2","1,0,0,1,1,0,1,0,1","0,0,1,1,0,1,0,1,1","2",""
"","html-keyboard-response","87","64808","0.0-87.0","37TRT2X24RDJ0KL7I3BDRE0QSTABJ8","A3JI3B5GTVA95F","3S1L4CQSFXRWQOWP2XFUSMS4AZDFAL","","null","<img src=""img/flower5.png"" style=""width:200px; border:14px solid green;"">","null","","","","","","","","",""
"","image-keyboard-response","88","65082","0.0-88.0","37TRT2X24RDJ0KL7I3BDRE0QSTABJ8","A3JI3B5GTVA95F","3S1L4CQSFXRWQOWP2XFUSMS4AZDFAL","","273","img/flower2.png","76","274","3","1","3","2","1,0,0,1,1,0,1,0,1","0,0,1,1,0,1,0,1,1","2",""
"","html-keyboard-response","89","65387","0.0-89.0","37TRT2X24RDJ0KL7I3BDRE0QSTABJ8","A3JI3B5GTVA95F","3S1L4CQSFXRWQOWP2XFUSMS4AZDFAL","","null","<img src=""img/flower2.png"" style=""width:200px; border:14px solid green;"">","null","","","","","","","","",""
"","image-keyboard-response","90","65666","0.0-90.0","37TRT2X24RDJ0KL7I3BDRE0QSTABJ8","A3JI3B5GTVA95F","3S1L4CQSFXRWQOWP2XFUSMS4AZDFAL","","277","img/flower2.png","76","277","3","1","3","2","1,0,0,1,1,0,1,0,1","0,0,1,1,0,1,0,1,1","2",""
"","html-keyboard-response","91","65974","0.0-91.0","37TRT2X24RDJ0KL7I3BDRE0QSTABJ8","A3JI3B5GTVA95F","3S1L4CQSFXRWQOWP2XFUSMS4AZDFAL","","null","<img src=""img/flower2.png"" style=""width:200px; border:14px solid green;"">","null","","","","","","","","",""
"","image-keyboard-response","92","66138","0.0-92.0","37TRT2X24RDJ0KL7I3BDRE0QSTABJ8","A3JI3B5GTVA95F","3S1L4CQSFXRWQOWP2XFUSMS4AZDFAL","","162","img/flower1.png","76","162","3","1","2","2","1,0,0,1,1,0,1,0,1","0,0,1,1,0,1,0,1,1","2",""
"","html-keyboard-response","93","66444","0.0-93.0","37TRT2X24RDJ0KL7I3BDRE0QSTABJ8","A3JI3B5GTVA95F","3S1L4CQSFXRWQOWP2XFUSMS4AZDFAL","","null","<img src=""img/flower1.png"" style=""width:200px; border:14px solid green;"">","null","","","","","","","","",""
"","image-keyboard-response","94","67042","0.0-94.0","37TRT2X24RDJ0KL7I3BDRE0QSTABJ8","A3JI3B5GTVA95F","3S1L4CQSFXRWQOWP2XFUSMS4AZDFAL","","597","img/flower1.png","74","597","1","1","2","2","1,0,0,1,1,0,1,0,1","0,0,1,1,0,1,0,1,1","2",""
"","html-keyboard-response","95","67347","0.0-95.0","37TRT2X24RDJ0KL7I3BDRE0QSTABJ8","A3JI3B5GTVA95F","3S1L4CQSFXRWQOWP2XFUSMS4AZDFAL","","null","<img src=""img/flower1.png"" style=""width:200px; border:14px solid green;"">","null","","","","","","","","",""
"","image-keyboard-response","96","67690","0.0-96.0","37TRT2X24RDJ0KL7I3BDRE0QSTABJ8","A3JI3B5GTVA95F","3S1L4CQSFXRWQOWP2XFUSMS4AZDFAL","","342","img/flower1.png","74","343","1","1","2","2","1,0,0,1,1,0,1,0,1","0,0,1,1,0,1,0,1,1","2",""
"","html-keyboard-response","97","67997","0.0-97.0","37TRT2X24RDJ0KL7I3BDRE0QSTABJ8","A3JI3B5GTVA95F","3S1L4CQSFXRWQOWP2XFUSMS4AZDFAL","","null","<img src=""img/flower1.png"" style=""width:200px; border:14px solid green;"">","null","","","","","","","","",""
"","image-keyboard-response","98","68730","0.0-98.0","37TRT2X24RDJ0KL7I3BDRE0QSTABJ8","A3JI3B5GTVA95F","3S1L4CQSFXRWQOWP2XFUSMS4AZDFAL","","733","img/flower5.png","76","733","3","1","1","2","1,0,0,1,1,0,1,0,1","0,0,1,1,0,1,0,1,1","2",""
"","html-keyboard-response","99","69038","0.0-99.0","37TRT2X24RDJ0KL7I3BDRE0QSTABJ8","A3JI3B5GTVA95F","3S1L4CQSFXRWQOWP2XFUSMS4AZDFAL","","null","<img src=""img/flower5.png"" style=""width:200px; border:14px solid green;"">","null","","","","","","","","",""
"","image-keyboard-response","100","69378","0.0-100.0","37TRT2X24RDJ0KL7I3BDRE0QSTABJ8","A3JI3B5GTVA95F","3S1L4CQSFXRWQOWP2XFUSMS4AZDFAL","","339","img/flower5.png","76","340","3","1","1","2","1,0,0,1,1,0,1,0,1","0,0,1,1,0,1,0,1,1","2",""
"","html-keyboard-response","101","69688","0.0-101.0","37TRT2X24RDJ0KL7I3BDRE0QSTABJ8","A3JI3B5GTVA95F","3S1L4CQSFXRWQOWP2XFUSMS4AZDFAL","","null","<img src=""img/flower5.png"" style=""width:200px; border:14px solid green;"">","null","","","","","","","","",""
"","image-keyboard-response","102","70458","0.0-102.0","37TRT2X24RDJ0KL7I3BDRE0QSTABJ8","A3JI3B5GTVA95F","3S1L4CQSFXRWQOWP2XFUSMS4AZDFAL","","769","img/flower1.png","74","770","1","1","2","2","1,0,0,1,1,0,1,0,1","0,0,1,1,0,1,0,1,1","2",""
"","html-keyboard-response","103","70760","0.0-103.0","37TRT2X24RDJ0KL7I3BDRE0QSTABJ8","A3JI3B5GTVA95F","3S1L4CQSFXRWQOWP2XFUSMS4AZDFAL","","null","<img src=""img/flower1.png"" style=""width:200px; border:14px solid green;"">","null","","","","","","","","",""
"","image-keyboard-response","104","71338","0.0-104.0","37TRT2X24RDJ0KL7I3BDRE0QSTABJ8","A3JI3B5GTVA95F","3S1L4CQSFXRWQOWP2XFUSMS4AZDFAL","","578","img/flower2.png","74","578","1","0","3","2","1,0,0,1,1,0,1,0,1","0,0,1,1,0,1,0,1,1","2",""
"","html-keyboard-response","105","71647","0.0-105.0","37TRT2X24RDJ0KL7I3BDRE0QSTABJ8","A3JI3B5GTVA95F","3S1L4CQSFXRWQOWP2XFUSMS4AZDFAL","","null","<img src=""img/flower2.png"" style=""width:200px;border:14px solid red;"">","null","","","","","","","","",""
"","image-keyboard-response","106","72554","0.0-106.0","37TRT2X24RDJ0KL7I3BDRE0QSTABJ8","A3JI3B5GTVA95F","3S1L4CQSFXRWQOWP2XFUSMS4AZDFAL","","907","img/flower5.png","76","907","3","1","1","2","1,0,0,1,1,0,1,0,1","0,0,1,1,0,1,0,1,1","2",""
"","html-keyboard-response","107","72857","0.0-107.0","37TRT2X24RDJ0KL7I3BDRE0QSTABJ8","A3JI3B5GTVA95F","3S1L4CQSFXRWQOWP2XFUSMS4AZDFAL","","null","<img src=""img/flower5.png"" style=""width:200px; border:14px solid green;"">","null","","","","","","","","",""
"","image-keyboard-response","108","73002","0.0-108.0","37TRT2X24RDJ0KL7I3BDRE0QSTABJ8","A3JI3B5GTVA95F","3S1L4CQSFXRWQOWP2XFUSMS4AZDFAL","","144","img/flower2.png","76","145","3","1","3","2","1,0,0,1,1,0,1,0,1","0,0,1,1,0,1,0,1,1","2",""
"","html-keyboard-response","109","73307","0.0-109.0","37TRT2X24RDJ0KL7I3BDRE0QSTABJ8","A3JI3B5GTVA95F","3S1L4CQSFXRWQOWP2XFUSMS4AZDFAL","","null","<img src=""img/flower2.png"" style=""width:200px; border:14px solid green;"">","null","","","","","","","","",""
"","image-keyboard-response","110","73609","0.0-110.0","37TRT2X24RDJ0KL7I3BDRE0QSTABJ8","A3JI3B5GTVA95F","3S1L4CQSFXRWQOWP2XFUSMS4AZDFAL","","302","img/flower2.png","76","304","3","1","3","2","1,0,0,1,1,0,1,0,1","0,0,1,1,0,1,0,1,1","2",""
"","html-keyboard-response","111","73917","0.0-111.0","37TRT2X24RDJ0KL7I3BDRE0QSTABJ8","A3JI3B5GTVA95F","3S1L4CQSFXRWQOWP2XFUSMS4AZDFAL","","null","<img src=""img/flower2.png"" style=""width:200px; border:14px solid green;"">","null","","","","","","","","",""
"","image-keyboard-response","112","74218","0.0-112.0","37TRT2X24RDJ0KL7I3BDRE0QSTABJ8","A3JI3B5GTVA95F","3S1L4CQSFXRWQOWP2XFUSMS4AZDFAL","","301","img/flower2.png","76","301","3","1","3","2","1,0,0,1,1,0,1,0,1","0,0,1,1,0,1,0,1,1","2",""
"","html-keyboard-response","113","74526","0.0-113.0","37TRT2X24RDJ0KL7I3BDRE0QSTABJ8","A3JI3B5GTVA95F","3S1L4CQSFXRWQOWP2XFUSMS4AZDFAL","","null","<img src=""img/flower2.png"" style=""width:200px; border:14px solid green;"">","null","","","","","","","","",""
"","image-keyboard-response","114","74690","0.0-114.0","37TRT2X24RDJ0KL7I3BDRE0QSTABJ8","A3JI3B5GTVA95F","3S1L4CQSFXRWQOWP2XFUSMS4AZDFAL","","163","img/flower5.png","76","163","3","1","1","2","1,0,0,1,1,0,1,0,1","0,0,1,1,0,1,0,1,1","2",""
"","html-keyboard-response","115","74996","0.0-115.0","37TRT2X24RDJ0KL7I3BDRE0QSTABJ8","A3JI3B5GTVA95F","3S1L4CQSFXRWQOWP2XFUSMS4AZDFAL","","null","<img src=""img/flower5.png"" style=""width:200px; border:14px solid green;"">","null","","","","","","","","",""
"","image-keyboard-response","116","75322","0.0-116.0","37TRT2X24RDJ0KL7I3BDRE0QSTABJ8","A3JI3B5GTVA95F","3S1L4CQSFXRWQOWP2XFUSMS4AZDFAL","","325","img/flower5.png","76","325","3","1","1","2","1,0,0,1,1,0,1,0,1","0,0,1,1,0,1,0,1,1","2",""
"","html-keyboard-response","117","75627","0.0-117.0","37TRT2X24RDJ0KL7I3BDRE0QSTABJ8","A3JI3B5GTVA95F","3S1L4CQSFXRWQOWP2XFUSMS4AZDFAL","","null","<img src=""img/flower5.png"" style=""width:200px; border:14px solid green;"">","null","","","","","","","","",""
"","image-keyboard-response","118","75858","0.0-118.0","37TRT2X24RDJ0KL7I3BDRE0QSTABJ8","A3JI3B5GTVA95F","3S1L4CQSFXRWQOWP2XFUSMS4AZDFAL","","229","img/flower2.png","76","231","3","1","3","2","1,0,0,1,1,0,1,0,1","0,0,1,1,0,1,0,1,1","2",""
"","html-keyboard-response","119","76167","0.0-119.0","37TRT2X24RDJ0KL7I3BDRE0QSTABJ8","A3JI3B5GTVA95F","3S1L4CQSFXRWQOWP2XFUSMS4AZDFAL","","null","<img src=""img/flower2.png"" style=""width:200px; border:14px solid green;"">","null","","","","","","","","",""
"","image-keyboard-response","120","76354","0.0-120.0","37TRT2X24RDJ0KL7I3BDRE0QSTABJ8","A3JI3B5GTVA95F","3S1L4CQSFXRWQOWP2XFUSMS4AZDFAL","","187","img/flower2.png","76","188","3","1","3","2","1,0,0,1,1,0,1,0,1","0,0,1,1,0,1,0,1,1","2",""
"","html-keyboard-response","121","76656","0.0-121.0","37TRT2X24RDJ0KL7I3BDRE0QSTABJ8","A3JI3B5GTVA95F","3S1L4CQSFXRWQOWP2XFUSMS4AZDFAL","","null","<img src=""img/flower2.png"" style=""width:200px; border:14px solid green;"">","null","","","","","","","","",""
"","image-keyboard-response","122","76986","0.0-122.0","37TRT2X24RDJ0KL7I3BDRE0QSTABJ8","A3JI3B5GTVA95F","3S1L4CQSFXRWQOWP2XFUSMS4AZDFAL","","328","img/flower2.png","76","329","3","1","3","2","1,0,0,1,1,0,1,0,1","0,0,1,1,0,1,0,1,1","2",""
"","html-keyboard-response","123","77286","0.0-123.0","37TRT2X24RDJ0KL7I3BDRE0QSTABJ8","A3JI3B5GTVA95F","3S1L4CQSFXRWQOWP2XFUSMS4AZDFAL","","null","<img src=""img/flower2.png"" style=""width:200px; border:14px solid green;"">","null","","","","","","","","",""
"","image-keyboard-response","124","77841","0.0-124.0","37TRT2X24RDJ0KL7I3BDRE0QSTABJ8","A3JI3B5GTVA95F","3S1L4CQSFXRWQOWP2XFUSMS4AZDFAL","","555","img/flower1.png","74","555","1","1","2","2","1,0,0,1,1,0,1,0,1","0,0,1,1,0,1,0,1,1","2",""
"","html-keyboard-response","125","78146","0.0-125.0","37TRT2X24RDJ0KL7I3BDRE0QSTABJ8","A3JI3B5GTVA95F","3S1L4CQSFXRWQOWP2XFUSMS4AZDFAL","","null","<img src=""img/flower1.png"" style=""width:200px; border:14px solid green;"">","null","","","","","","","","",""
"","image-keyboard-response","126","78810","0.0-126.0","37TRT2X24RDJ0KL7I3BDRE0QSTABJ8","A3JI3B5GTVA95F","3S1L4CQSFXRWQOWP2XFUSMS4AZDFAL","","662","img/flower5.png","76","662","3","1","1","2","1,0,0,1,1,0,1,0,1","0,0,1,1,0,1,0,1,1","2",""
"","html-keyboard-response","127","79117","0.0-127.0","37TRT2X24RDJ0KL7I3BDRE0QSTABJ8","A3JI3B5GTVA95F","3S1L4CQSFXRWQOWP2XFUSMS4AZDFAL","","null","<img src=""img/flower5.png"" style=""width:200px; border:14px solid green;"">","null","","","","","","","","",""
"","image-keyboard-response","128","79481","0.0-128.0","37TRT2X24RDJ0KL7I3BDRE0QSTABJ8","A3JI3B5GTVA95F","3S1L4CQSFXRWQOWP2XFUSMS4AZDFAL","","364","img/flower5.png","76","364","3","1","1","2","1,0,0,1,1,0,1,0,1","0,0,1,1,0,1,0,1,1","2",""
"","html-keyboard-response","129","79786","0.0-129.0","37TRT2X24RDJ0KL7I3BDRE0QSTABJ8","A3JI3B5GTVA95F","3S1L4CQSFXRWQOWP2XFUSMS4AZDFAL","","null","<img src=""img/flower5.png"" style=""width:200px; border:14px solid green;"">","null","","","","","","","","",""
"","image-keyboard-response","130","80114","0.0-130.0","37TRT2X24RDJ0KL7I3BDRE0QSTABJ8","A3JI3B5GTVA95F","3S1L4CQSFXRWQOWP2XFUSMS4AZDFAL","","326","img/flower5.png","76","327","3","1","1","2","1,0,0,1,1,0,1,0,1","0,0,1,1,0,1,0,1,1","2",""
"","html-keyboard-response","131","80417","0.0-131.0","37TRT2X24RDJ0KL7I3BDRE0QSTABJ8","A3JI3B5GTVA95F","3S1L4CQSFXRWQOWP2XFUSMS4AZDFAL","","null","<img src=""img/flower5.png"" style=""width:200px; border:14px solid green;"">","null","","","","","","","","",""
"","image-keyboard-response","132","80898","0.0-132.0","37TRT2X24RDJ0KL7I3BDRE0QSTABJ8","A3JI3B5GTVA95F","3S1L4CQSFXRWQOWP2XFUSMS4AZDFAL","","481","img/flower2.png","76","481","3","1","3","2","1,0,0,1,1,0,1,0,1","0,0,1,1,0,1,0,1,1","2",""
"","html-keyboard-response","133","81206","0.0-133.0","37TRT2X24RDJ0KL7I3BDRE0QSTABJ8","A3JI3B5GTVA95F","3S1L4CQSFXRWQOWP2XFUSMS4AZDFAL","","null","<img src=""img/flower2.png"" style=""width:200px; border:14px solid green;"">","null","","","","","","","","",""
"","image-keyboard-response","134","81642","0.0-134.0","37TRT2X24RDJ0KL7I3BDRE0QSTABJ8","A3JI3B5GTVA95F","3S1L4CQSFXRWQOWP2XFUSMS4AZDFAL","","435","img/flower5.png","76","435","3","1","1","2","1,0,0,1,1,0,1,0,1","0,0,1,1,0,1,0,1,1","2",""
"","html-keyboard-response","135","81946","0.0-135.0","37TRT2X24RDJ0KL7I3BDRE0QSTABJ8","A3JI3B5GTVA95F","3S1L4CQSFXRWQOWP2XFUSMS4AZDFAL","","null","<img src=""img/flower5.png"" style=""width:200px; border:14px solid green;"">","null","","","","","","","","",""
"","image-keyboard-response","136","82434","0.0-136.0","37TRT2X24RDJ0KL7I3BDRE0QSTABJ8","A3JI3B5GTVA95F","3S1L4CQSFXRWQOWP2XFUSMS4AZDFAL","","486","img/flower2.png","76","488","3","1","3","2","1,0,0,1,1,0,1,0,1","0,0,1,1,0,1,0,1,1","2",""
"","html-keyboard-response","137","82736","0.0-137.0","37TRT2X24RDJ0KL7I3BDRE0QSTABJ8","A3JI3B5GTVA95F","3S1L4CQSFXRWQOWP2XFUSMS4AZDFAL","","null","<img src=""img/flower2.png"" style=""width:200px; border:14px solid green;"">","null","","","","","","","","",""
"","image-keyboard-response","138","83034","0.0-138.0","37TRT2X24RDJ0KL7I3BDRE0QSTABJ8","A3JI3B5GTVA95F","3S1L4CQSFXRWQOWP2XFUSMS4AZDFAL","","296","img/flower2.png","76","298","3","1","3","2","1,0,0,1,1,0,1,0,1","0,0,1,1,0,1,0,1,1","2",""
"","html-keyboard-response","139","83336","0.0-139.0","37TRT2X24RDJ0KL7I3BDRE0QSTABJ8","A3JI3B5GTVA95F","3S1L4CQSFXRWQOWP2XFUSMS4AZDFAL","","null","<img src=""img/flower2.png"" style=""width:200px; border:14px solid green;"">","null","","","","","","","","",""
"","image-keyboard-response","140","84098","0.0-140.0","37TRT2X24RDJ0KL7I3BDRE0QSTABJ8","A3JI3B5GTVA95F","3S1L4CQSFXRWQOWP2XFUSMS4AZDFAL","","761","img/flower1.png","74","761","1","1","2","2","1,0,0,1,1,0,1,0,1","0,0,1,1,0,1,0,1,1","2",""
"","html-keyboard-response","141","84406","0.0-141.0","37TRT2X24RDJ0KL7I3BDRE0QSTABJ8","A3JI3B5GTVA95F","3S1L4CQSFXRWQOWP2XFUSMS4AZDFAL","","null","<img src=""img/flower1.png"" style=""width:200px; border:14px solid green;"">","null","","","","","","","","",""
"","image-keyboard-response","142","84969","0.0-142.0","37TRT2X24RDJ0KL7I3BDRE0QSTABJ8","A3JI3B5GTVA95F","3S1L4CQSFXRWQOWP2XFUSMS4AZDFAL","","563","img/flower2.png","76","563","3","1","3","2","1,0,0,1,1,0,1,0,1","0,0,1,1,0,1,0,1,1","2",""
"","html-keyboard-response","143","85276","0.0-143.0","37TRT2X24RDJ0KL7I3BDRE0QSTABJ8","A3JI3B5GTVA95F","3S1L4CQSFXRWQOWP2XFUSMS4AZDFAL","","null","<img src=""img/flower2.png"" style=""width:200px; border:14px solid green;"">","null","","","","","","","","",""
"","image-keyboard-response","144","85986","0.0-144.0","37TRT2X24RDJ0KL7I3BDRE0QSTABJ8","A3JI3B5GTVA95F","3S1L4CQSFXRWQOWP2XFUSMS4AZDFAL","","709","img/flower5.png","76","709","3","1","1","2","1,0,0,1,1,0,1,0,1","0,0,1,1,0,1,0,1,1","2",""
"","html-keyboard-response","145","86286","0.0-145.0","37TRT2X24RDJ0KL7I3BDRE0QSTABJ8","A3JI3B5GTVA95F","3S1L4CQSFXRWQOWP2XFUSMS4AZDFAL","","null","<img src=""img/flower5.png"" style=""width:200px; border:14px solid green;"">","null","","","","","","","","",""
"","image-keyboard-response","146","86569","0.0-146.0","37TRT2X24RDJ0KL7I3BDRE0QSTABJ8","A3JI3B5GTVA95F","3S1L4CQSFXRWQOWP2XFUSMS4AZDFAL","","282","img/flower5.png","76","283","3","1","1","2","1,0,0,1,1,0,1,0,1","0,0,1,1,0,1,0,1,1","2",""
"","html-keyboard-response","147","86876","0.0-147.0","37TRT2X24RDJ0KL7I3BDRE0QSTABJ8","A3JI3B5GTVA95F","3S1L4CQSFXRWQOWP2XFUSMS4AZDFAL","","null","<img src=""img/flower5.png"" style=""width:200px; border:14px solid green;"">","null","","","","","","","","",""
"","image-keyboard-response","148","87377","0.0-148.0","37TRT2X24RDJ0KL7I3BDRE0QSTABJ8","A3JI3B5GTVA95F","3S1L4CQSFXRWQOWP2XFUSMS4AZDFAL","","500","img/flower1.png","76","501","3","1","2","2","1,0,0,1,1,0,1,0,1","0,0,1,1,0,1,0,1,1","2",""
"","html-keyboard-response","149","87686","0.0-149.0","37TRT2X24RDJ0KL7I3BDRE0QSTABJ8","A3JI3B5GTVA95F","3S1L4CQSFXRWQOWP2XFUSMS4AZDFAL","","null","<img src=""img/flower1.png"" style=""width:200px; border:14px solid green;"">","null","","","","","","","","",""
"","image-keyboard-response","150","88321","0.0-150.0","37TRT2X24RDJ0KL7I3BDRE0QSTABJ8","A3JI3B5GTVA95F","3S1L4CQSFXRWQOWP2XFUSMS4AZDFAL","","634","img/flower5.png","76","636","3","1","1","2","1,0,0,1,1,0,1,0,1","0,0,1,1,0,1,0,1,1","2",""
"","html-keyboard-response","151","88626","0.0-151.0","37TRT2X24RDJ0KL7I3BDRE0QSTABJ8","A3JI3B5GTVA95F","3S1L4CQSFXRWQOWP2XFUSMS4AZDFAL","","null","<img src=""img/flower5.png"" style=""width:200px; border:14px solid green;"">","null","","","","","","","","",""
"","image-keyboard-response","152","89273","0.0-152.0","37TRT2X24RDJ0KL7I3BDRE0QSTABJ8","A3JI3B5GTVA95F","3S1L4CQSFXRWQOWP2XFUSMS4AZDFAL","","646","img/flower1.png","74","646","1","1","2","2","1,0,0,1,1,0,1,0,1","0,0,1,1,0,1,0,1,1","2",""
"","html-keyboard-response","153","89576","0.0-153.0","37TRT2X24RDJ0KL7I3BDRE0QSTABJ8","A3JI3B5GTVA95F","3S1L4CQSFXRWQOWP2XFUSMS4AZDFAL","","null","<img src=""img/flower1.png"" style=""width:200px; border:14px solid green;"">","null","","","","","","","","",""
"","image-keyboard-response","154","90121","0.0-154.0","37TRT2X24RDJ0KL7I3BDRE0QSTABJ8","A3JI3B5GTVA95F","3S1L4CQSFXRWQOWP2XFUSMS4AZDFAL","","545","img/flower2.png","76","546","3","1","3","2","1,0,0,1,1,0,1,0,1","0,0,1,1,0,1,0,1,1","2",""
"","html-keyboard-response","155","90426","0.0-155.0","37TRT2X24RDJ0KL7I3BDRE0QSTABJ8","A3JI3B5GTVA95F","3S1L4CQSFXRWQOWP2XFUSMS4AZDFAL","","null","<img src=""img/flower2.png"" style=""width:200px; border:14px solid green;"">","null","","","","","","","","",""
"","image-keyboard-response","156","90641","0.0-156.0","37TRT2X24RDJ0KL7I3BDRE0QSTABJ8","A3JI3B5GTVA95F","3S1L4CQSFXRWQOWP2XFUSMS4AZDFAL","","214","img/flower2.png","76","215","3","1","3","2","1,0,0,1,1,0,1,0,1","0,0,1,1,0,1,0,1,1","2",""
"","html-keyboard-response","157","90946","0.0-157.0","37TRT2X24RDJ0KL7I3BDRE0QSTABJ8","A3JI3B5GTVA95F","3S1L4CQSFXRWQOWP2XFUSMS4AZDFAL","","null","<img src=""img/flower2.png"" style=""width:200px; border:14px solid green;"">","null","","","","","","","","",""
"","image-keyboard-response","158","91161","0.0-158.0","37TRT2X24RDJ0KL7I3BDRE0QSTABJ8","A3JI3B5GTVA95F","3S1L4CQSFXRWQOWP2XFUSMS4AZDFAL","","214","img/flower5.png","76","215","3","1","1","2","1,0,0,1,1,0,1,0,1","0,0,1,1,0,1,0,1,1","2",""
"","html-keyboard-response","159","91467","0.0-159.0","37TRT2X24RDJ0KL7I3BDRE0QSTABJ8","A3JI3B5GTVA95F","3S1L4CQSFXRWQOWP2XFUSMS4AZDFAL","","null","<img src=""img/flower5.png"" style=""width:200px; border:14px solid green;"">","null","","","","","","","","",""
"","image-keyboard-response","160","91674","0.0-160.0","37TRT2X24RDJ0KL7I3BDRE0QSTABJ8","A3JI3B5GTVA95F","3S1L4CQSFXRWQOWP2XFUSMS4AZDFAL","","206","img/flower5.png","76","206","3","1","1","2","1,0,0,1,1,0,1,0,1","0,0,1,1,0,1,0,1,1","2",""
"","html-keyboard-response","161","91976","0.0-161.0","37TRT2X24RDJ0KL7I3BDRE0QSTABJ8","A3JI3B5GTVA95F","3S1L4CQSFXRWQOWP2XFUSMS4AZDFAL","","null","<img src=""img/flower5.png"" style=""width:200px; border:14px solid green;"">","null","","","","","","","","",""
"","image-keyboard-response","162","92193","0.0-162.0","37TRT2X24RDJ0KL7I3BDRE0QSTABJ8","A3JI3B5GTVA95F","3S1L4CQSFXRWQOWP2XFUSMS4AZDFAL","","217","img/flower5.png","76","217","3","1","1","2","1,0,0,1,1,0,1,0,1","0,0,1,1,0,1,0,1,1","2",""
"","html-keyboard-response","163","92496","0.0-163.0","37TRT2X24RDJ0KL7I3BDRE0QSTABJ8","A3JI3B5GTVA95F","3S1L4CQSFXRWQOWP2XFUSMS4AZDFAL","","null","<img src=""img/flower5.png"" style=""width:200px; border:14px solid green;"">","null","","","","","","","","",""
"","image-keyboard-response","164","93186","0.0-164.0","37TRT2X24RDJ0KL7I3BDRE0QSTABJ8","A3JI3B5GTVA95F","3S1L4CQSFXRWQOWP2XFUSMS4AZDFAL","","689","img/flower1.png","74","689","1","1","2","2","1,0,0,1,1,0,1,0,1","0,0,1,1,0,1,0,1,1","2",""
"","html-keyboard-response","165","93486","0.0-165.0","37TRT2X24RDJ0KL7I3BDRE0QSTABJ8","A3JI3B5GTVA95F","3S1L4CQSFXRWQOWP2XFUSMS4AZDFAL","","null","<img src=""img/flower1.png"" style=""width:200px; border:14px solid green;"">","null","","","","","","","","",""
"","image-keyboard-response","166","93954","0.0-166.0","37TRT2X24RDJ0KL7I3BDRE0QSTABJ8","A3JI3B5GTVA95F","3S1L4CQSFXRWQOWP2XFUSMS4AZDFAL","","466","img/flower2.png","76","467","3","1","3","2","1,0,0,1,1,0,1,0,1","0,0,1,1,0,1,0,1,1","2",""
"","html-keyboard-response","167","94256","0.0-167.0","37TRT2X24RDJ0KL7I3BDRE0QSTABJ8","A3JI3B5GTVA95F","3S1L4CQSFXRWQOWP2XFUSMS4AZDFAL","","null","<img src=""img/flower2.png"" style=""width:200px; border:14px solid green;"">","null","","","","","","","","",""
"","image-keyboard-response","168","94937","0.0-168.0","37TRT2X24RDJ0KL7I3BDRE0QSTABJ8","A3JI3B5GTVA95F","3S1L4CQSFXRWQOWP2XFUSMS4AZDFAL","","681","img/flower5.png","76","681","3","1","1","2","1,0,0,1,1,0,1,0,1","0,0,1,1,0,1,0,1,1","2",""
"","html-keyboard-response","169","95246","0.0-169.0","37TRT2X24RDJ0KL7I3BDRE0QSTABJ8","A3JI3B5GTVA95F","3S1L4CQSFXRWQOWP2XFUSMS4AZDFAL","","null","<img src=""img/flower5.png"" style=""width:200px; border:14px solid green;"">","null","","","","","","","","",""
"","image-keyboard-response","170","95545","0.0-170.0","37TRT2X24RDJ0KL7I3BDRE0QSTABJ8","A3JI3B5GTVA95F","3S1L4CQSFXRWQOWP2XFUSMS4AZDFAL","","299","img/flower1.png","76","299","3","1","2","2","1,0,0,1,1,0,1,0,1","0,0,1,1,0,1,0,1,1","2",""
"","html-keyboard-response","171","95846","0.0-171.0","37TRT2X24RDJ0KL7I3BDRE0QSTABJ8","A3JI3B5GTVA95F","3S1L4CQSFXRWQOWP2XFUSMS4AZDFAL","","null","<img src=""img/flower1.png"" style=""width:200px; border:14px solid green;"">","null","","","","","","","","",""
"","image-keyboard-response","172","96241","0.0-172.0","37TRT2X24RDJ0KL7I3BDRE0QSTABJ8","A3JI3B5GTVA95F","3S1L4CQSFXRWQOWP2XFUSMS4AZDFAL","","394","img/flower1.png","74","395","1","1","2","2","1,0,0,1,1,0,1,0,1","0,0,1,1,0,1,0,1,1","2",""
"","html-keyboard-response","173","96546","0.0-173.0","37TRT2X24RDJ0KL7I3BDRE0QSTABJ8","A3JI3B5GTVA95F","3S1L4CQSFXRWQOWP2XFUSMS4AZDFAL","","null","<img src=""img/flower1.png"" style=""width:200px; border:14px solid green;"">","null","","","","","","","","",""
"","image-keyboard-response","174","96921","0.0-174.0","37TRT2X24RDJ0KL7I3BDRE0QSTABJ8","A3JI3B5GTVA95F","3S1L4CQSFXRWQOWP2XFUSMS4AZDFAL","","375","img/flower1.png","74","375","1","1","2","2","1,0,0,1,1,0,1,0,1","0,0,1,1,0,1,0,1,1","2",""
"","html-keyboard-response","175","97226","0.0-175.0","37TRT2X24RDJ0KL7I3BDRE0QSTABJ8","A3JI3B5GTVA95F","3S1L4CQSFXRWQOWP2XFUSMS4AZDFAL","","null","<img src=""img/flower1.png"" style=""width:200px; border:14px solid green;"">","null","","","","","","","","",""
"","image-keyboard-response","176","97729","0.0-176.0","37TRT2X24RDJ0KL7I3BDRE0QSTABJ8","A3JI3B5GTVA95F","3S1L4CQSFXRWQOWP2XFUSMS4AZDFAL","","502","img/flower5.png","76","503","3","1","1","2","1,0,0,1,1,0,1,0,1","0,0,1,1,0,1,0,1,1","2",""
"","html-keyboard-response","177","98036","0.0-177.0","37TRT2X24RDJ0KL7I3BDRE0QSTABJ8","A3JI3B5GTVA95F","3S1L4CQSFXRWQOWP2XFUSMS4AZDFAL","","null","<img src=""img/flower5.png"" style=""width:200px; border:14px solid green;"">","null","","","","","","","","",""
"","image-keyboard-response","178","98313","0.0-178.0","37TRT2X24RDJ0KL7I3BDRE0QSTABJ8","A3JI3B5GTVA95F","3S1L4CQSFXRWQOWP2XFUSMS4AZDFAL","","277","img/flower1.png","76","278","3","1","2","2","1,0,0,1,1,0,1,0,1","0,0,1,1,0,1,0,1,1","2",""
"","html-keyboard-response","179","98616","0.0-179.0","37TRT2X24RDJ0KL7I3BDRE0QSTABJ8","A3JI3B5GTVA95F","3S1L4CQSFXRWQOWP2XFUSMS4AZDFAL","","null","<img src=""img/flower1.png"" style=""width:200px; border:14px solid green;"">","null","","","","","","","","",""
"","image-keyboard-response","180","99217","0.0-180.0","37TRT2X24RDJ0KL7I3BDRE0QSTABJ8","A3JI3B5GTVA95F","3S1L4CQSFXRWQOWP2XFUSMS4AZDFAL","","601","img/flower5.png","76","601","3","1","1","2","1,0,0,1,1,0,1,0,1","0,0,1,1,0,1,0,1,1","2",""
"","html-keyboard-response","181","99526","0.0-181.0","37TRT2X24RDJ0KL7I3BDRE0QSTABJ8","A3JI3B5GTVA95F","3S1L4CQSFXRWQOWP2XFUSMS4AZDFAL","","null","<img src=""img/flower5.png"" style=""width:200px; border:14px solid green;"">","null","","","","","","","","",""
"","image-keyboard-response","182","100809","0.0-182.0","37TRT2X24RDJ0KL7I3BDRE0QSTABJ8","A3JI3B5GTVA95F","3S1L4CQSFXRWQOWP2XFUSMS4AZDFAL","","1282","img/flower4.png","75","1283","2","0","3","1","1,0.333,0.333,0.333,1,0.333,0.333,0.333,1","1,0.333,0.333,0.333,1,0.333,0.333,0.333,1","1",""
"","html-keyboard-response","183","101116","0.0-183.0","37TRT2X24RDJ0KL7I3BDRE0QSTABJ8","A3JI3B5GTVA95F","3S1L4CQSFXRWQOWP2XFUSMS4AZDFAL","","null","<img src=""img/flower4.png"" style=""width:200px;border:14px solid red;"">","null","","","","","","","","",""
"","image-keyboard-response","184","101937","0.0-184.0","37TRT2X24RDJ0KL7I3BDRE0QSTABJ8","A3JI3B5GTVA95F","3S1L4CQSFXRWQOWP2XFUSMS4AZDFAL","","820","img/flower6.png","76","820","3","0","2","1","1,0.333,0.333,0.333,1,0.333,0.333,0.333,1","1,0.333,0.333,0.333,1,0.333,0.333,0.333,1","1",""
"","html-keyboard-response","185","102246","0.0-185.0","37TRT2X24RDJ0KL7I3BDRE0QSTABJ8","A3JI3B5GTVA95F","3S1L4CQSFXRWQOWP2XFUSMS4AZDFAL","","null","<img src=""img/flower6.png"" style=""width:200px;border:14px solid red;"">","null","","","","","","","","",""
"","image-keyboard-response","186","103305","0.0-186.0","37TRT2X24RDJ0KL7I3BDRE0QSTABJ8","A3JI3B5GTVA95F","3S1L4CQSFXRWQOWP2XFUSMS4AZDFAL","","1058","img/flower3.png","74","1058","1","1","1","1","1,0.333,0.333,0.333,1,0.333,0.333,0.333,1","1,0.333,0.333,0.333,1,0.333,0.333,0.333,1","1",""
"","html-keyboard-response","187","103606","0.0-187.0","37TRT2X24RDJ0KL7I3BDRE0QSTABJ8","A3JI3B5GTVA95F","3S1L4CQSFXRWQOWP2XFUSMS4AZDFAL","","null","<img src=""img/flower3.png"" style=""width:200px; border:14px solid green;"">","null","","","","","","","","",""
"","image-keyboard-response","188","104593","0.0-188.0","37TRT2X24RDJ0KL7I3BDRE0QSTABJ8","A3JI3B5GTVA95F","3S1L4CQSFXRWQOWP2XFUSMS4AZDFAL","","987","img/flower6.png","75","987","2","1","2","1","1,0.333,0.333,0.333,1,0.333,0.333,0.333,1","1,0.333,0.333,0.333,1,0.333,0.333,0.333,1","1",""
"","html-keyboard-response","189","104895","0.0-189.0","37TRT2X24RDJ0KL7I3BDRE0QSTABJ8","A3JI3B5GTVA95F","3S1L4CQSFXRWQOWP2XFUSMS4AZDFAL","","null","<img src=""img/flower6.png"" style=""width:200px; border:14px solid green;"">","null","","","","","","","","",""
"","image-keyboard-response","190","105673","0.0-190.0","37TRT2X24RDJ0KL7I3BDRE0QSTABJ8","A3JI3B5GTVA95F","3S1L4CQSFXRWQOWP2XFUSMS4AZDFAL","","777","img/flower3.png","75","778","2","0","1","1","1,0.333,0.333,0.333,1,0.333,0.333,0.333,1","1,0.333,0.333,0.333,1,0.333,0.333,0.333,1","1",""
"","html-keyboard-response","191","105976","0.0-191.0","37TRT2X24RDJ0KL7I3BDRE0QSTABJ8","A3JI3B5GTVA95F","3S1L4CQSFXRWQOWP2XFUSMS4AZDFAL","","null","<img src=""img/flower3.png"" style=""width:200px;border:14px solid red;"">","null","","","","","","","","",""
"","image-keyboard-response","192","106433","0.0-192.0","37TRT2X24RDJ0KL7I3BDRE0QSTABJ8","A3JI3B5GTVA95F","3S1L4CQSFXRWQOWP2XFUSMS4AZDFAL","","456","img/flower3.png","76","457","3","0","1","1","1,0.333,0.333,0.333,1,0.333,0.333,0.333,1","1,0.333,0.333,0.333,1,0.333,0.333,0.333,1","1",""
"","html-keyboard-response","193","106736","0.0-193.0","37TRT2X24RDJ0KL7I3BDRE0QSTABJ8","A3JI3B5GTVA95F","3S1L4CQSFXRWQOWP2XFUSMS4AZDFAL","","null","<img src=""img/flower3.png"" style=""width:200px;border:14px solid red;"">","null","","","","","","","","",""
"","image-keyboard-response","194","107449","0.0-194.0","37TRT2X24RDJ0KL7I3BDRE0QSTABJ8","A3JI3B5GTVA95F","3S1L4CQSFXRWQOWP2XFUSMS4AZDFAL","","713","img/flower4.png","74","714","1","1","3","1","1,0.333,0.333,0.333,1,0.333,0.333,0.333,1","1,0.333,0.333,0.333,1,0.333,0.333,0.333,1","1",""
"","html-keyboard-response","195","107755","0.0-195.0","37TRT2X24RDJ0KL7I3BDRE0QSTABJ8","A3JI3B5GTVA95F","3S1L4CQSFXRWQOWP2XFUSMS4AZDFAL","","null","<img src=""img/flower4.png"" style=""width:200px; border:14px solid green;"">","null","","","","","","","","",""
"","image-keyboard-response","196","108257","0.0-196.0","37TRT2X24RDJ0KL7I3BDRE0QSTABJ8","A3JI3B5GTVA95F","3S1L4CQSFXRWQOWP2XFUSMS4AZDFAL","","501","img/flower3.png","74","501","1","1","1","1","1,0.333,0.333,0.333,1,0.333,0.333,0.333,1","1,0.333,0.333,0.333,1,0.333,0.333,0.333,1","1",""
"","html-keyboard-response","197","108566","0.0-197.0","37TRT2X24RDJ0KL7I3BDRE0QSTABJ8","A3JI3B5GTVA95F","3S1L4CQSFXRWQOWP2XFUSMS4AZDFAL","","null","<img src=""img/flower3.png"" style=""width:200px; border:14px solid green;"">","null","","","","","","","","",""
"","image-keyboard-response","198","109161","0.0-198.0","37TRT2X24RDJ0KL7I3BDRE0QSTABJ8","A3JI3B5GTVA95F","3S1L4CQSFXRWQOWP2XFUSMS4AZDFAL","","595","img/flower4.png","74","595","1","1","3","1","1,0.333,0.333,0.333,1,0.333,0.333,0.333,1","1,0.333,0.333,0.333,1,0.333,0.333,0.333,1","1",""
"","html-keyboard-response","199","109466","0.0-199.0","37TRT2X24RDJ0KL7I3BDRE0QSTABJ8","A3JI3B5GTVA95F","3S1L4CQSFXRWQOWP2XFUSMS4AZDFAL","","null","<img src=""img/flower4.png"" style=""width:200px; border:14px solid green;"">","null","","","","","","","","",""
"","image-keyboard-response","200","109808","0.0-200.0","37TRT2X24RDJ0KL7I3BDRE0QSTABJ8","A3JI3B5GTVA95F","3S1L4CQSFXRWQOWP2XFUSMS4AZDFAL","","343","img/flower4.png","74","343","1","0","3","1","1,0.333,0.333,0.333,1,0.333,0.333,0.333,1","1,0.333,0.333,0.333,1,0.333,0.333,0.333,1","1",""
"","html-keyboard-response","201","110116","0.0-201.0","37TRT2X24RDJ0KL7I3BDRE0QSTABJ8","A3JI3B5GTVA95F","3S1L4CQSFXRWQOWP2XFUSMS4AZDFAL","","null","<img src=""img/flower4.png"" style=""width:200px;border:14px solid red;"">","null","","","","","","","","",""
"","image-keyboard-response","202","110601","0.0-202.0","37TRT2X24RDJ0KL7I3BDRE0QSTABJ8","A3JI3B5GTVA95F","3S1L4CQSFXRWQOWP2XFUSMS4AZDFAL","","483","img/flower4.png","74","485","1","1","3","1","1,0.333,0.333,0.333,1,0.333,0.333,0.333,1","1,0.333,0.333,0.333,1,0.333,0.333,0.333,1","1",""
"","html-keyboard-response","203","110906","0.0-203.0","37TRT2X24RDJ0KL7I3BDRE0QSTABJ8","A3JI3B5GTVA95F","3S1L4CQSFXRWQOWP2XFUSMS4AZDFAL","","null","<img src=""img/flower4.png"" style=""width:200px; border:14px solid green;"">","null","","","","","","","","",""
"","image-keyboard-response","204","111248","0.0-204.0","37TRT2X24RDJ0KL7I3BDRE0QSTABJ8","A3JI3B5GTVA95F","3S1L4CQSFXRWQOWP2XFUSMS4AZDFAL","","342","img/flower4.png","74","343","1","0","3","1","1,0.333,0.333,0.333,1,0.333,0.333,0.333,1","1,0.333,0.333,0.333,1,0.333,0.333,0.333,1","1",""
"","html-keyboard-response","205","111555","0.0-205.0","37TRT2X24RDJ0KL7I3BDRE0QSTABJ8","A3JI3B5GTVA95F","3S1L4CQSFXRWQOWP2XFUSMS4AZDFAL","","null","<img src=""img/flower4.png"" style=""width:200px;border:14px solid red;"">","null","","","","","","","","",""
"","image-keyboard-response","206","112264","0.0-206.0","37TRT2X24RDJ0KL7I3BDRE0QSTABJ8","A3JI3B5GTVA95F","3S1L4CQSFXRWQOWP2XFUSMS4AZDFAL","","709","img/flower3.png","74","709","1","1","1","1","1,0.333,0.333,0.333,1,0.333,0.333,0.333,1","1,0.333,0.333,0.333,1,0.333,0.333,0.333,1","1",""
"","html-keyboard-response","207","112566","0.0-207.0","37TRT2X24RDJ0KL7I3BDRE0QSTABJ8","A3JI3B5GTVA95F","3S1L4CQSFXRWQOWP2XFUSMS4AZDFAL","","null","<img src=""img/flower3.png"" style=""width:200px; border:14px solid green;"">","null","","","","","","","","",""
"","image-keyboard-response","208","113161","0.0-208.0","37TRT2X24RDJ0KL7I3BDRE0QSTABJ8","A3JI3B5GTVA95F","3S1L4CQSFXRWQOWP2XFUSMS4AZDFAL","","595","img/flower4.png","74","595","1","0","3","1","1,0.333,0.333,0.333,1,0.333,0.333,0.333,1","1,0.333,0.333,0.333,1,0.333,0.333,0.333,1","1",""
"","html-keyboard-response","209","113466","0.0-209.0","37TRT2X24RDJ0KL7I3BDRE0QSTABJ8","A3JI3B5GTVA95F","3S1L4CQSFXRWQOWP2XFUSMS4AZDFAL","","null","<img src=""img/flower4.png"" style=""width:200px;border:14px solid red;"">","null","","","","","","","","",""
"","image-keyboard-response","210","113841","0.0-210.0","37TRT2X24RDJ0KL7I3BDRE0QSTABJ8","A3JI3B5GTVA95F","3S1L4CQSFXRWQOWP2XFUSMS4AZDFAL","","375","img/flower4.png","74","375","1","0","3","1","1,0.333,0.333,0.333,1,0.333,0.333,0.333,1","1,0.333,0.333,0.333,1,0.333,0.333,0.333,1","1",""
"","html-keyboard-response","211","114145","0.0-211.0","37TRT2X24RDJ0KL7I3BDRE0QSTABJ8","A3JI3B5GTVA95F","3S1L4CQSFXRWQOWP2XFUSMS4AZDFAL","","null","<img src=""img/flower4.png"" style=""width:200px;border:14px solid red;"">","null","","","","","","","","",""
"","image-keyboard-response","212","114337","0.0-212.0","37TRT2X24RDJ0KL7I3BDRE0QSTABJ8","A3JI3B5GTVA95F","3S1L4CQSFXRWQOWP2XFUSMS4AZDFAL","","189","img/flower4.png","75","189","2","0","3","1","1,0.333,0.333,0.333,1,0.333,0.333,0.333,1","1,0.333,0.333,0.333,1,0.333,0.333,0.333,1","1",""
"","html-keyboard-response","213","114646","0.0-213.0","37TRT2X24RDJ0KL7I3BDRE0QSTABJ8","A3JI3B5GTVA95F","3S1L4CQSFXRWQOWP2XFUSMS4AZDFAL","","null","<img src=""img/flower4.png"" style=""width:200px;border:14px solid red;"">","null","","","","","","","","",""
"","image-keyboard-response","214","114897","0.0-214.0","37TRT2X24RDJ0KL7I3BDRE0QSTABJ8","A3JI3B5GTVA95F","3S1L4CQSFXRWQOWP2XFUSMS4AZDFAL","","250","img/flower4.png","76","251","3","1","3","1","1,0.333,0.333,0.333,1,0.333,0.333,0.333,1","1,0.333,0.333,0.333,1,0.333,0.333,0.333,1","1",""
"","html-keyboard-response","215","115206","0.0-215.0","37TRT2X24RDJ0KL7I3BDRE0QSTABJ8","A3JI3B5GTVA95F","3S1L4CQSFXRWQOWP2XFUSMS4AZDFAL","","null","<img src=""img/flower4.png"" style=""width:200px; border:14px solid green;"">","null","","","","","","","","",""
"","image-keyboard-response","216","116201","0.0-216.0","37TRT2X24RDJ0KL7I3BDRE0QSTABJ8","A3JI3B5GTVA95F","3S1L4CQSFXRWQOWP2XFUSMS4AZDFAL","","994","img/flower6.png","75","995","2","1","2","1","1,0.333,0.333,0.333,1,0.333,0.333,0.333,1","1,0.333,0.333,0.333,1,0.333,0.333,0.333,1","1",""
"","html-keyboard-response","217","116503","0.0-217.0","37TRT2X24RDJ0KL7I3BDRE0QSTABJ8","A3JI3B5GTVA95F","3S1L4CQSFXRWQOWP2XFUSMS4AZDFAL","","null","<img src=""img/flower6.png"" style=""width:200px; border:14px solid green;"">","null","","","","","","","","",""
"","image-keyboard-response","218","117192","0.0-218.0","37TRT2X24RDJ0KL7I3BDRE0QSTABJ8","A3JI3B5GTVA95F","3S1L4CQSFXRWQOWP2XFUSMS4AZDFAL","","689","img/flower4.png","76","691","3","1","3","1","1,0.333,0.333,0.333,1,0.333,0.333,0.333,1","1,0.333,0.333,0.333,1,0.333,0.333,0.333,1","1",""
"","html-keyboard-response","219","117495","0.0-219.0","37TRT2X24RDJ0KL7I3BDRE0QSTABJ8","A3JI3B5GTVA95F","3S1L4CQSFXRWQOWP2XFUSMS4AZDFAL","","null","<img src=""img/flower4.png"" style=""width:200px; border:14px solid green;"">","null","","","","","","","","",""
"","image-keyboard-response","220","118137","0.0-220.0","37TRT2X24RDJ0KL7I3BDRE0QSTABJ8","A3JI3B5GTVA95F","3S1L4CQSFXRWQOWP2XFUSMS4AZDFAL","","641","img/flower6.png","75","642","2","1","2","1","1,0.333,0.333,0.333,1,0.333,0.333,0.333,1","1,0.333,0.333,0.333,1,0.333,0.333,0.333,1","1",""
"","html-keyboard-response","221","118444","0.0-221.0","37TRT2X24RDJ0KL7I3BDRE0QSTABJ8","A3JI3B5GTVA95F","3S1L4CQSFXRWQOWP2XFUSMS4AZDFAL","","null","<img src=""img/flower6.png"" style=""width:200px; border:14px solid green;"">","null","","","","","","","","",""
"","image-keyboard-response","222","119280","0.0-222.0","37TRT2X24RDJ0KL7I3BDRE0QSTABJ8","A3JI3B5GTVA95F","3S1L4CQSFXRWQOWP2XFUSMS4AZDFAL","","835","img/flower3.png","74","836","1","1","1","1","1,0.333,0.333,0.333,1,0.333,0.333,0.333,1","1,0.333,0.333,0.333,1,0.333,0.333,0.333,1","1",""
"","html-keyboard-response","223","119586","0.0-223.0","37TRT2X24RDJ0KL7I3BDRE0QSTABJ8","A3JI3B5GTVA95F","3S1L4CQSFXRWQOWP2XFUSMS4AZDFAL","","null","<img src=""img/flower3.png"" style=""width:200px; border:14px solid green;"">","null","","","","","","","","",""
"","image-keyboard-response","224","120000","0.0-224.0","37TRT2X24RDJ0KL7I3BDRE0QSTABJ8","A3JI3B5GTVA95F","3S1L4CQSFXRWQOWP2XFUSMS4AZDFAL","","415","img/flower3.png","74","416","1","1","1","1","1,0.333,0.333,0.333,1,0.333,0.333,0.333,1","1,0.333,0.333,0.333,1,0.333,0.333,0.333,1","1",""
"","html-keyboard-response","225","120308","0.0-225.0","37TRT2X24RDJ0KL7I3BDRE0QSTABJ8","A3JI3B5GTVA95F","3S1L4CQSFXRWQOWP2XFUSMS4AZDFAL","","null","<img src=""img/flower3.png"" style=""width:200px; border:14px solid green;"">","null","","","","","","","","",""
"","image-keyboard-response","226","121080","0.0-226.0","37TRT2X24RDJ0KL7I3BDRE0QSTABJ8","A3JI3B5GTVA95F","3S1L4CQSFXRWQOWP2XFUSMS4AZDFAL","","772","img/flower6.png","75","773","2","1","2","1","1,0.333,0.333,0.333,1,0.333,0.333,0.333,1","1,0.333,0.333,0.333,1,0.333,0.333,0.333,1","1",""
"","html-keyboard-response","227","121385","0.0-227.0","37TRT2X24RDJ0KL7I3BDRE0QSTABJ8","A3JI3B5GTVA95F","3S1L4CQSFXRWQOWP2XFUSMS4AZDFAL","","null","<img src=""img/flower6.png"" style=""width:200px; border:14px solid green;"">","null","","","","","","","","",""
"","image-keyboard-response","228","122209","0.0-228.0","37TRT2X24RDJ0KL7I3BDRE0QSTABJ8","A3JI3B5GTVA95F","3S1L4CQSFXRWQOWP2XFUSMS4AZDFAL","","822","img/flower4.png","74","824","1","1","3","1","1,0.333,0.333,0.333,1,0.333,0.333,0.333,1","1,0.333,0.333,0.333,1,0.333,0.333,0.333,1","1",""
"","html-keyboard-response","229","122515","0.0-229.0","37TRT2X24RDJ0KL7I3BDRE0QSTABJ8","A3JI3B5GTVA95F","3S1L4CQSFXRWQOWP2XFUSMS4AZDFAL","","null","<img src=""img/flower4.png"" style=""width:200px; border:14px solid green;"">","null","","","","","","","","",""
"","image-keyboard-response","230","122817","0.0-230.0","37TRT2X24RDJ0KL7I3BDRE0QSTABJ8","A3JI3B5GTVA95F","3S1L4CQSFXRWQOWP2XFUSMS4AZDFAL","","301","img/flower4.png","74","301","1","0","3","1","1,0.333,0.333,0.333,1,0.333,0.333,0.333,1","1,0.333,0.333,0.333,1,0.333,0.333,0.333,1","1",""
"","html-keyboard-response","231","123125","0.0-231.0","37TRT2X24RDJ0KL7I3BDRE0QSTABJ8","A3JI3B5GTVA95F","3S1L4CQSFXRWQOWP2XFUSMS4AZDFAL","","null","<img src=""img/flower4.png"" style=""width:200px;border:14px solid red;"">","null","","","","","","","","",""
"","image-keyboard-response","232","123536","0.0-232.0","37TRT2X24RDJ0KL7I3BDRE0QSTABJ8","A3JI3B5GTVA95F","3S1L4CQSFXRWQOWP2XFUSMS4AZDFAL","","411","img/flower4.png","76","412","3","1","3","1","1,0.333,0.333,0.333,1,0.333,0.333,0.333,1","1,0.333,0.333,0.333,1,0.333,0.333,0.333,1","1",""
"","html-keyboard-response","233","123846","0.0-233.0","37TRT2X24RDJ0KL7I3BDRE0QSTABJ8","A3JI3B5GTVA95F","3S1L4CQSFXRWQOWP2XFUSMS4AZDFAL","","null","<img src=""img/flower4.png"" style=""width:200px; border:14px solid green;"">","null","","","","","","","","",""
"","image-keyboard-response","234","124592","0.0-234.0","37TRT2X24RDJ0KL7I3BDRE0QSTABJ8","A3JI3B5GTVA95F","3S1L4CQSFXRWQOWP2XFUSMS4AZDFAL","","747","img/flower6.png","75","747","2","1","2","1","1,0.333,0.333,0.333,1,0.333,0.333,0.333,1","1,0.333,0.333,0.333,1,0.333,0.333,0.333,1","1",""
"","html-keyboard-response","235","124895","0.0-235.0","37TRT2X24RDJ0KL7I3BDRE0QSTABJ8","A3JI3B5GTVA95F","3S1L4CQSFXRWQOWP2XFUSMS4AZDFAL","","null","<img src=""img/flower6.png"" style=""width:200px; border:14px solid green;"">","null","","","","","","","","",""
"","image-keyboard-response","236","125497","0.0-236.0","37TRT2X24RDJ0KL7I3BDRE0QSTABJ8","A3JI3B5GTVA95F","3S1L4CQSFXRWQOWP2XFUSMS4AZDFAL","","599","img/flower4.png","74","601","1","0","3","1","1,0.333,0.333,0.333,1,0.333,0.333,0.333,1","1,0.333,0.333,0.333,1,0.333,0.333,0.333,1","1",""
"","html-keyboard-response","237","125806","0.0-237.0","37TRT2X24RDJ0KL7I3BDRE0QSTABJ8","A3JI3B5GTVA95F","3S1L4CQSFXRWQOWP2XFUSMS4AZDFAL","","null","<img src=""img/flower4.png"" style=""width:200px;border:14px solid red;"">","null","","","","","","","","",""
"","image-keyboard-response","238","126529","0.0-238.0","37TRT2X24RDJ0KL7I3BDRE0QSTABJ8","A3JI3B5GTVA95F","3S1L4CQSFXRWQOWP2XFUSMS4AZDFAL","","723","img/flower3.png","74","723","1","1","1","1","1,0.333,0.333,0.333,1,0.333,0.333,0.333,1","1,0.333,0.333,0.333,1,0.333,0.333,0.333,1","1",""
"","html-keyboard-response","239","126835","0.0-239.0","37TRT2X24RDJ0KL7I3BDRE0QSTABJ8","A3JI3B5GTVA95F","3S1L4CQSFXRWQOWP2XFUSMS4AZDFAL","","null","<img src=""img/flower3.png"" style=""width:200px; border:14px solid green;"">","null","","","","","","","","",""
"","image-keyboard-response","240","127185","0.0-240.0","37TRT2X24RDJ0KL7I3BDRE0QSTABJ8","A3JI3B5GTVA95F","3S1L4CQSFXRWQOWP2XFUSMS4AZDFAL","","349","img/flower3.png","74","349","1","1","1","1","1,0.333,0.333,0.333,1,0.333,0.333,0.333,1","1,0.333,0.333,0.333,1,0.333,0.333,0.333,1","1",""
"","html-keyboard-response","241","127485","0.0-241.0","37TRT2X24RDJ0KL7I3BDRE0QSTABJ8","A3JI3B5GTVA95F","3S1L4CQSFXRWQOWP2XFUSMS4AZDFAL","","null","<img src=""img/flower3.png"" style=""width:200px; border:14px solid green;"">","null","","","","","","","","",""
"","image-keyboard-response","242","128240","0.0-242.0","37TRT2X24RDJ0KL7I3BDRE0QSTABJ8","A3JI3B5GTVA95F","3S1L4CQSFXRWQOWP2XFUSMS4AZDFAL","","754","img/flower6.png","75","755","2","1","2","1","1,0.333,0.333,0.333,1,0.333,0.333,0.333,1","1,0.333,0.333,0.333,1,0.333,0.333,0.333,1","1",""
"","html-keyboard-response","243","128545","0.0-243.0","37TRT2X24RDJ0KL7I3BDRE0QSTABJ8","A3JI3B5GTVA95F","3S1L4CQSFXRWQOWP2XFUSMS4AZDFAL","","null","<img src=""img/flower6.png"" style=""width:200px; border:14px solid green;"">","null","","","","","","","","",""
"","image-keyboard-response","244","129208","0.0-244.0","37TRT2X24RDJ0KL7I3BDRE0QSTABJ8","A3JI3B5GTVA95F","3S1L4CQSFXRWQOWP2XFUSMS4AZDFAL","","663","img/flower3.png","74","663","1","1","1","1","1,0.333,0.333,0.333,1,0.333,0.333,0.333,1","1,0.333,0.333,0.333,1,0.333,0.333,0.333,1","1",""
"","html-keyboard-response","245","129515","0.0-245.0","37TRT2X24RDJ0KL7I3BDRE0QSTABJ8","A3JI3B5GTVA95F","3S1L4CQSFXRWQOWP2XFUSMS4AZDFAL","","null","<img src=""img/flower3.png"" style=""width:200px; border:14px solid green;"">","null","","","","","","","","",""
"","image-keyboard-response","246","130192","0.0-246.0","37TRT2X24RDJ0KL7I3BDRE0QSTABJ8","A3JI3B5GTVA95F","3S1L4CQSFXRWQOWP2XFUSMS4AZDFAL","","676","img/flower4.png","76","676","3","1","3","1","1,0.333,0.333,0.333,1,0.333,0.333,0.333,1","1,0.333,0.333,0.333,1,0.333,0.333,0.333,1","1",""
"","html-keyboard-response","247","130495","0.0-247.0","37TRT2X24RDJ0KL7I3BDRE0QSTABJ8","A3JI3B5GTVA95F","3S1L4CQSFXRWQOWP2XFUSMS4AZDFAL","","null","<img src=""img/flower4.png"" style=""width:200px; border:14px solid green;"">","null","","","","","","","","",""
"","image-keyboard-response","248","131232","0.0-248.0","37TRT2X24RDJ0KL7I3BDRE0QSTABJ8","A3JI3B5GTVA95F","3S1L4CQSFXRWQOWP2XFUSMS4AZDFAL","","736","img/flower3.png","74","738","1","1","1","1","1,0.333,0.333,0.333,1,0.333,0.333,0.333,1","1,0.333,0.333,0.333,1,0.333,0.333,0.333,1","1",""
"","html-keyboard-response","249","131535","0.0-249.0","37TRT2X24RDJ0KL7I3BDRE0QSTABJ8","A3JI3B5GTVA95F","3S1L4CQSFXRWQOWP2XFUSMS4AZDFAL","","null","<img src=""img/flower3.png"" style=""width:200px; border:14px solid green;"">","null","","","","","","","","",""
"","image-keyboard-response","250","132288","0.0-250.0","37TRT2X24RDJ0KL7I3BDRE0QSTABJ8","A3JI3B5GTVA95F","3S1L4CQSFXRWQOWP2XFUSMS4AZDFAL","","752","img/flower6.png","75","754","2","1","2","1","1,0.333,0.333,0.333,1,0.333,0.333,0.333,1","1,0.333,0.333,0.333,1,0.333,0.333,0.333,1","1",""
"","html-keyboard-response","251","132595","0.0-251.0","37TRT2X24RDJ0KL7I3BDRE0QSTABJ8","A3JI3B5GTVA95F","3S1L4CQSFXRWQOWP2XFUSMS4AZDFAL","","null","<img src=""img/flower6.png"" style=""width:200px; border:14px solid green;"">","null","","","","","","","","",""
"","image-keyboard-response","252","133321","0.0-252.0","37TRT2X24RDJ0KL7I3BDRE0QSTABJ8","A3JI3B5GTVA95F","3S1L4CQSFXRWQOWP2XFUSMS4AZDFAL","","724","img/flower3.png","74","725","1","1","1","1","1,0.333,0.333,0.333,1,0.333,0.333,0.333,1","1,0.333,0.333,0.333,1,0.333,0.333,0.333,1","1",""
"","html-keyboard-response","253","133625","0.0-253.0","37TRT2X24RDJ0KL7I3BDRE0QSTABJ8","A3JI3B5GTVA95F","3S1L4CQSFXRWQOWP2XFUSMS4AZDFAL","","null","<img src=""img/flower3.png"" style=""width:200px; border:14px solid green;"">","null","","","","","","","","",""
"","image-keyboard-response","254","134249","0.0-254.0","37TRT2X24RDJ0KL7I3BDRE0QSTABJ8","A3JI3B5GTVA95F","3S1L4CQSFXRWQOWP2XFUSMS4AZDFAL","","623","img/flower6.png","75","623","2","1","2","1","1,0.333,0.333,0.333,1,0.333,0.333,0.333,1","1,0.333,0.333,0.333,1,0.333,0.333,0.333,1","1",""
"","html-keyboard-response","255","134555","0.0-255.0","37TRT2X24RDJ0KL7I3BDRE0QSTABJ8","A3JI3B5GTVA95F","3S1L4CQSFXRWQOWP2XFUSMS4AZDFAL","","null","<img src=""img/flower6.png"" style=""width:200px; border:14px solid green;"">","null","","","","","","","","",""
"","image-keyboard-response","256","135216","0.0-256.0","37TRT2X24RDJ0KL7I3BDRE0QSTABJ8","A3JI3B5GTVA95F","3S1L4CQSFXRWQOWP2XFUSMS4AZDFAL","","660","img/flower4.png","76","661","3","1","3","1","1,0.333,0.333,0.333,1,0.333,0.333,0.333,1","1,0.333,0.333,0.333,1,0.333,0.333,0.333,1","1",""
"","html-keyboard-response","257","135525","0.0-257.0","37TRT2X24RDJ0KL7I3BDRE0QSTABJ8","A3JI3B5GTVA95F","3S1L4CQSFXRWQOWP2XFUSMS4AZDFAL","","null","<img src=""img/flower4.png"" style=""width:200px; border:14px solid green;"">","null","","","","","","","","",""
"","image-keyboard-response","258","136000","0.0-258.0","37TRT2X24RDJ0KL7I3BDRE0QSTABJ8","A3JI3B5GTVA95F","3S1L4CQSFXRWQOWP2XFUSMS4AZDFAL","","474","img/flower4.png","76","475","3","1","3","1","1,0.333,0.333,0.333,1,0.333,0.333,0.333,1","1,0.333,0.333,0.333,1,0.333,0.333,0.333,1","1",""
"","html-keyboard-response","259","136305","0.0-259.0","37TRT2X24RDJ0KL7I3BDRE0QSTABJ8","A3JI3B5GTVA95F","3S1L4CQSFXRWQOWP2XFUSMS4AZDFAL","","null","<img src=""img/flower4.png"" style=""width:200px; border:14px solid green;"">","null","","","","","","","","",""
"","image-keyboard-response","260","136656","0.0-260.0","37TRT2X24RDJ0KL7I3BDRE0QSTABJ8","A3JI3B5GTVA95F","3S1L4CQSFXRWQOWP2XFUSMS4AZDFAL","","350","img/flower4.png","76","351","3","1","3","1","1,0.333,0.333,0.333,1,0.333,0.333,0.333,1","1,0.333,0.333,0.333,1,0.333,0.333,0.333,1","1",""
"","html-keyboard-response","261","136965","0.0-261.0","37TRT2X24RDJ0KL7I3BDRE0QSTABJ8","A3JI3B5GTVA95F","3S1L4CQSFXRWQOWP2XFUSMS4AZDFAL","","null","<img src=""img/flower4.png"" style=""width:200px; border:14px solid green;"">","null","","","","","","","","",""
"","image-keyboard-response","262","137304","0.0-262.0","37TRT2X24RDJ0KL7I3BDRE0QSTABJ8","A3JI3B5GTVA95F","3S1L4CQSFXRWQOWP2XFUSMS4AZDFAL","","338","img/flower4.png","76","338","3","1","3","1","1,0.333,0.333,0.333,1,0.333,0.333,0.333,1","1,0.333,0.333,0.333,1,0.333,0.333,0.333,1","1",""
"","html-keyboard-response","263","137605","0.0-263.0","37TRT2X24RDJ0KL7I3BDRE0QSTABJ8","A3JI3B5GTVA95F","3S1L4CQSFXRWQOWP2XFUSMS4AZDFAL","","null","<img src=""img/flower4.png"" style=""width:200px; border:14px solid green;"">","null","","","","","","","","",""
"","image-keyboard-response","264","138112","0.0-264.0","37TRT2X24RDJ0KL7I3BDRE0QSTABJ8","A3JI3B5GTVA95F","3S1L4CQSFXRWQOWP2XFUSMS4AZDFAL","","506","img/flower3.png","74","506","1","1","1","1","1,0.333,0.333,0.333,1,0.333,0.333,0.333,1","1,0.333,0.333,0.333,1,0.333,0.333,0.333,1","1",""
"","html-keyboard-response","265","138415","0.0-265.0","37TRT2X24RDJ0KL7I3BDRE0QSTABJ8","A3JI3B5GTVA95F","3S1L4CQSFXRWQOWP2XFUSMS4AZDFAL","","null","<img src=""img/flower3.png"" style=""width:200px; border:14px solid green;"">","null","","","","","","","","",""
"","image-keyboard-response","266","138816","0.0-266.0","37TRT2X24RDJ0KL7I3BDRE0QSTABJ8","A3JI3B5GTVA95F","3S1L4CQSFXRWQOWP2XFUSMS4AZDFAL","","401","img/flower3.png","74","402","1","1","1","1","1,0.333,0.333,0.333,1,0.333,0.333,0.333,1","1,0.333,0.333,0.333,1,0.333,0.333,0.333,1","1",""
"","html-keyboard-response","267","139125","0.0-267.0","37TRT2X24RDJ0KL7I3BDRE0QSTABJ8","A3JI3B5GTVA95F","3S1L4CQSFXRWQOWP2XFUSMS4AZDFAL","","null","<img src=""img/flower3.png"" style=""width:200px; border:14px solid green;"">","null","","","","","","","","",""
"","image-keyboard-response","268","139760","0.0-268.0","37TRT2X24RDJ0KL7I3BDRE0QSTABJ8","A3JI3B5GTVA95F","3S1L4CQSFXRWQOWP2XFUSMS4AZDFAL","","634","img/flower6.png","75","635","2","1","2","1","1,0.333,0.333,0.333,1,0.333,0.333,0.333,1","1,0.333,0.333,0.333,1,0.333,0.333,0.333,1","1",""
"","html-keyboard-response","269","140065","0.0-269.0","37TRT2X24RDJ0KL7I3BDRE0QSTABJ8","A3JI3B5GTVA95F","3S1L4CQSFXRWQOWP2XFUSMS4AZDFAL","","null","<img src=""img/flower6.png"" style=""width:200px; border:14px solid green;"">","null","","","","","","","","",""
"","image-keyboard-response","270","140680","0.0-270.0","37TRT2X24RDJ0KL7I3BDRE0QSTABJ8","A3JI3B5GTVA95F","3S1L4CQSFXRWQOWP2XFUSMS4AZDFAL","","614","img/flower4.png","76","615","3","1","3","1","1,0.333,0.333,0.333,1,0.333,0.333,0.333,1","1,0.333,0.333,0.333,1,0.333,0.333,0.333,1","1",""
"","html-keyboard-response","271","140985","0.0-271.0","37TRT2X24RDJ0KL7I3BDRE0QSTABJ8","A3JI3B5GTVA95F","3S1L4CQSFXRWQOWP2XFUSMS4AZDFAL","","null","<img src=""img/flower4.png"" style=""width:200px; border:14px solid green;"">","null","","","","","","","","",""
"","image-keyboard-response","272","141736","0.0-272.0","37TRT2X24RDJ0KL7I3BDRE0QSTABJ8","A3JI3B5GTVA95F","3S1L4CQSFXRWQOWP2XFUSMS4AZDFAL","","750","img/flower6.png","75","752","2","1","2","1","1,0.333,0.333,0.333,1,0.333,0.333,0.333,1","1,0.333,0.333,0.333,1,0.333,0.333,0.333,1","1",""
"","html-keyboard-response","273","142045","0.0-273.0","37TRT2X24RDJ0KL7I3BDRE0QSTABJ8","A3JI3B5GTVA95F","3S1L4CQSFXRWQOWP2XFUSMS4AZDFAL","","null","<img src=""img/flower6.png"" style=""width:200px; border:14px solid green;"">","null","","","","","","","","",""
"","image-keyboard-response","274","142568","0.0-274.0","37TRT2X24RDJ0KL7I3BDRE0QSTABJ8","A3JI3B5GTVA95F","3S1L4CQSFXRWQOWP2XFUSMS4AZDFAL","","522","img/flower4.png","76","523","3","1","3","1","1,0.333,0.333,0.333,1,0.333,0.333,0.333,1","1,0.333,0.333,0.333,1,0.333,0.333,0.333,1","1",""
"","html-keyboard-response","275","142875","0.0-275.0","37TRT2X24RDJ0KL7I3BDRE0QSTABJ8","A3JI3B5GTVA95F","3S1L4CQSFXRWQOWP2XFUSMS4AZDFAL","","null","<img src=""img/flower4.png"" style=""width:200px; border:14px solid green;"">","null","","","","","","","","",""
"","image-keyboard-response","276","143424","0.0-276.0","37TRT2X24RDJ0KL7I3BDRE0QSTABJ8","A3JI3B5GTVA95F","3S1L4CQSFXRWQOWP2XFUSMS4AZDFAL","","549","img/flower6.png","75","549","2","1","2","1","1,0.333,0.333,0.333,1,0.333,0.333,0.333,1","1,0.333,0.333,0.333,1,0.333,0.333,0.333,1","1",""
"","html-keyboard-response","277","143725","0.0-277.0","37TRT2X24RDJ0KL7I3BDRE0QSTABJ8","A3JI3B5GTVA95F","3S1L4CQSFXRWQOWP2XFUSMS4AZDFAL","","null","<img src=""img/flower6.png"" style=""width:200px; border:14px solid green;"">","null","","","","","","","","",""
"","image-keyboard-response","278","144096","0.0-278.0","37TRT2X24RDJ0KL7I3BDRE0QSTABJ8","A3JI3B5GTVA95F","3S1L4CQSFXRWQOWP2XFUSMS4AZDFAL","","370","img/flower6.png","75","370","2","1","2","1","1,0.333,0.333,0.333,1,0.333,0.333,0.333,1","1,0.333,0.333,0.333,1,0.333,0.333,0.333,1","1",""
"","html-keyboard-response","279","144405","0.0-279.0","37TRT2X24RDJ0KL7I3BDRE0QSTABJ8","A3JI3B5GTVA95F","3S1L4CQSFXRWQOWP2XFUSMS4AZDFAL","","null","<img src=""img/flower6.png"" style=""width:200px; border:14px solid green;"">","null","","","","","","","","",""
"","image-keyboard-response","280","144728","0.0-280.0","37TRT2X24RDJ0KL7I3BDRE0QSTABJ8","A3JI3B5GTVA95F","3S1L4CQSFXRWQOWP2XFUSMS4AZDFAL","","323","img/flower6.png","75","323","2","1","2","1","1,0.333,0.333,0.333,1,0.333,0.333,0.333,1","1,0.333,0.333,0.333,1,0.333,0.333,0.333,1","1",""
"","html-keyboard-response","281","145035","0.0-281.0","37TRT2X24RDJ0KL7I3BDRE0QSTABJ8","A3JI3B5GTVA95F","3S1L4CQSFXRWQOWP2XFUSMS4AZDFAL","","null","<img src=""img/flower6.png"" style=""width:200px; border:14px solid green;"">","null","","","","","","","","",""
"","image-keyboard-response","282","145360","0.0-282.0","37TRT2X24RDJ0KL7I3BDRE0QSTABJ8","A3JI3B5GTVA95F","3S1L4CQSFXRWQOWP2XFUSMS4AZDFAL","","324","img/flower6.png","75","325","2","1","2","1","1,0.333,0.333,0.333,1,0.333,0.333,0.333,1","1,0.333,0.333,0.333,1,0.333,0.333,0.333,1","1",""
"","html-keyboard-response","283","145665","0.0-283.0","37TRT2X24RDJ0KL7I3BDRE0QSTABJ8","A3JI3B5GTVA95F","3S1L4CQSFXRWQOWP2XFUSMS4AZDFAL","","null","<img src=""img/flower6.png"" style=""width:200px; border:14px solid green;"">","null","","","","","","","","",""
"","image-keyboard-response","284","146416","0.0-284.0","37TRT2X24RDJ0KL7I3BDRE0QSTABJ8","A3JI3B5GTVA95F","3S1L4CQSFXRWQOWP2XFUSMS4AZDFAL","","750","img/flower3.png","74","750","1","1","1","1","1,0.333,0.333,0.333,1,0.333,0.333,0.333,1","1,0.333,0.333,0.333,1,0.333,0.333,0.333,1","1",""
"","html-keyboard-response","285","146725","0.0-285.0","37TRT2X24RDJ0KL7I3BDRE0QSTABJ8","A3JI3B5GTVA95F","3S1L4CQSFXRWQOWP2XFUSMS4AZDFAL","","null","<img src=""img/flower3.png"" style=""width:200px; border:14px solid green;"">","null","","","","","","","","",""
"","image-keyboard-response","286","147096","0.0-286.0","37TRT2X24RDJ0KL7I3BDRE0QSTABJ8","A3JI3B5GTVA95F","3S1L4CQSFXRWQOWP2XFUSMS4AZDFAL","","370","img/flower3.png","74","371","1","1","1","1","1,0.333,0.333,0.333,1,0.333,0.333,0.333,1","1,0.333,0.333,0.333,1,0.333,0.333,0.333,1","1",""
"","html-keyboard-response","287","147405","0.0-287.0","37TRT2X24RDJ0KL7I3BDRE0QSTABJ8","A3JI3B5GTVA95F","3S1L4CQSFXRWQOWP2XFUSMS4AZDFAL","","null","<img src=""img/flower3.png"" style=""width:200px; border:14px solid green;"">","null","","","","","","","","",""
"","image-keyboard-response","288","147992","0.0-288.0","37TRT2X24RDJ0KL7I3BDRE0QSTABJ8","A3JI3B5GTVA95F","3S1L4CQSFXRWQOWP2XFUSMS4AZDFAL","","586","img/flower6.png","75","587","2","1","2","1","1,0.333,0.333,0.333,1,0.333,0.333,0.333,1","1,0.333,0.333,0.333,1,0.333,0.333,0.333,1","1",""
"","html-keyboard-response","289","148295","0.0-289.0","37TRT2X24RDJ0KL7I3BDRE0QSTABJ8","A3JI3B5GTVA95F","3S1L4CQSFXRWQOWP2XFUSMS4AZDFAL","","null","<img src=""img/flower6.png"" style=""width:200px; border:14px solid green;"">","null","","","","","","","","",""
"","image-keyboard-response","290","149047","0.0-290.0","37TRT2X24RDJ0KL7I3BDRE0QSTABJ8","A3JI3B5GTVA95F","3S1L4CQSFXRWQOWP2XFUSMS4AZDFAL","","752","img/flower4.png","76","752","3","1","3","1","1,0.333,0.333,0.333,1,0.333,0.333,0.333,1","1,0.333,0.333,0.333,1,0.333,0.333,0.333,1","1",""
"","html-keyboard-response","291","149355","0.0-291.0","37TRT2X24RDJ0KL7I3BDRE0QSTABJ8","A3JI3B5GTVA95F","3S1L4CQSFXRWQOWP2XFUSMS4AZDFAL","","null","<img src=""img/flower4.png"" style=""width:200px; border:14px solid green;"">","null","","","","","","","","",""
"","image-keyboard-response","292","150064","0.0-292.0","37TRT2X24RDJ0KL7I3BDRE0QSTABJ8","A3JI3B5GTVA95F","3S1L4CQSFXRWQOWP2XFUSMS4AZDFAL","","709","img/flower6.png","75","710","2","1","2","1","1,0.333,0.333,0.333,1,0.333,0.333,0.333,1","1,0.333,0.333,0.333,1,0.333,0.333,0.333,1","1",""
"","html-keyboard-response","293","150365","0.0-293.0","37TRT2X24RDJ0KL7I3BDRE0QSTABJ8","A3JI3B5GTVA95F","3S1L4CQSFXRWQOWP2XFUSMS4AZDFAL","","null","<img src=""img/flower6.png"" style=""width:200px; border:14px solid green;"">","null","","","","","","","","",""
"","image-keyboard-response","294","150920","0.0-294.0","37TRT2X24RDJ0KL7I3BDRE0QSTABJ8","A3JI3B5GTVA95F","3S1L4CQSFXRWQOWP2XFUSMS4AZDFAL","","554","img/flower3.png","74","554","1","1","1","1","1,0.333,0.333,0.333,1,0.333,0.333,0.333,1","1,0.333,0.333,0.333,1,0.333,0.333,0.333,1","1",""
"","html-keyboard-response","295","151225","0.0-295.0","37TRT2X24RDJ0KL7I3BDRE0QSTABJ8","A3JI3B5GTVA95F","3S1L4CQSFXRWQOWP2XFUSMS4AZDFAL","","null","<img src=""img/flower3.png"" style=""width:200px; border:14px solid green;"">","null","","","","","","","","",""
"","image-keyboard-response","296","151640","0.0-296.0","37TRT2X24RDJ0KL7I3BDRE0QSTABJ8","A3JI3B5GTVA95F","3S1L4CQSFXRWQOWP2XFUSMS4AZDFAL","","413","img/flower3.png","74","416","1","1","1","1","1,0.333,0.333,0.333,1,0.333,0.333,0.333,1","1,0.333,0.333,0.333,1,0.333,0.333,0.333,1","1",""
"","html-keyboard-response","297","151944","0.0-297.0","37TRT2X24RDJ0KL7I3BDRE0QSTABJ8","A3JI3B5GTVA95F","3S1L4CQSFXRWQOWP2XFUSMS4AZDFAL","","null","<img src=""img/flower3.png"" style=""width:200px; border:14px solid green;"">","null","","","","","","","","",""
"","image-keyboard-response","298","152720","0.0-298.0","37TRT2X24RDJ0KL7I3BDRE0QSTABJ8","A3JI3B5GTVA95F","3S1L4CQSFXRWQOWP2XFUSMS4AZDFAL","","775","img/flower6.png","75","775","2","1","2","1","1,0.333,0.333,0.333,1,0.333,0.333,0.333,1","1,0.333,0.333,0.333,1,0.333,0.333,0.333,1","1",""
"","html-keyboard-response","299","153025","0.0-299.0","37TRT2X24RDJ0KL7I3BDRE0QSTABJ8","A3JI3B5GTVA95F","3S1L4CQSFXRWQOWP2XFUSMS4AZDFAL","","null","<img src=""img/flower6.png"" style=""width:200px; border:14px solid green;"">","null","","","","","","","","",""
"","image-keyboard-response","300","153503","0.0-300.0","37TRT2X24RDJ0KL7I3BDRE0QSTABJ8","A3JI3B5GTVA95F","3S1L4CQSFXRWQOWP2XFUSMS4AZDFAL","","478","img/flower4.png","76","479","3","1","3","1","1,0.333,0.333,0.333,1,0.333,0.333,0.333,1","1,0.333,0.333,0.333,1,0.333,0.333,0.333,1","1",""
"","html-keyboard-response","301","153805","0.0-301.0","37TRT2X24RDJ0KL7I3BDRE0QSTABJ8","A3JI3B5GTVA95F","3S1L4CQSFXRWQOWP2XFUSMS4AZDFAL","","null","<img src=""img/flower4.png"" style=""width:200px; border:14px solid green;"">","null","","","","","","","","",""
"","image-keyboard-response","302","154447","0.0-302.0","37TRT2X24RDJ0KL7I3BDRE0QSTABJ8","A3JI3B5GTVA95F","3S1L4CQSFXRWQOWP2XFUSMS4AZDFAL","","642","img/flower6.png","74","643","1","1","2","1","1,0.333,0.333,0.333,1,0.333,0.333,0.333,1","1,0.333,0.333,0.333,1,0.333,0.333,0.333,1","1",""
"","html-keyboard-response","303","154755","0.0-303.0","37TRT2X24RDJ0KL7I3BDRE0QSTABJ8","A3JI3B5GTVA95F","3S1L4CQSFXRWQOWP2XFUSMS4AZDFAL","","null","<img src=""img/flower6.png"" style=""width:200px; border:14px solid green;"">","null","","","","","","","","",""
"","image-keyboard-response","304","155304","0.0-304.0","37TRT2X24RDJ0KL7I3BDRE0QSTABJ8","A3JI3B5GTVA95F","3S1L4CQSFXRWQOWP2XFUSMS4AZDFAL","","549","img/flower6.png","75","549","2","1","2","1","1,0.333,0.333,0.333,1,0.333,0.333,0.333,1","1,0.333,0.333,0.333,1,0.333,0.333,0.333,1","1",""
"","html-keyboard-response","305","155604","0.0-305.0","37TRT2X24RDJ0KL7I3BDRE0QSTABJ8","A3JI3B5GTVA95F","3S1L4CQSFXRWQOWP2XFUSMS4AZDFAL","","null","<img src=""img/flower6.png"" style=""width:200px; border:14px solid green;"">","null","","","","","","","","",""
"","image-keyboard-response","306","156208","0.0-306.0","37TRT2X24RDJ0KL7I3BDRE0QSTABJ8","A3JI3B5GTVA95F","3S1L4CQSFXRWQOWP2XFUSMS4AZDFAL","","603","img/flower3.png","74","603","1","1","1","1","1,0.333,0.333,0.333,1,0.333,0.333,0.333,1","1,0.333,0.333,0.333,1,0.333,0.333,0.333,1","1",""
"","html-keyboard-response","307","156514","0.0-307.0","37TRT2X24RDJ0KL7I3BDRE0QSTABJ8","A3JI3B5GTVA95F","3S1L4CQSFXRWQOWP2XFUSMS4AZDFAL","","null","<img src=""img/flower3.png"" style=""width:200px; border:14px solid green;"">","null","","","","","","","","",""
"","image-keyboard-response","308","156944","0.0-308.0","37TRT2X24RDJ0KL7I3BDRE0QSTABJ8","A3JI3B5GTVA95F","3S1L4CQSFXRWQOWP2XFUSMS4AZDFAL","","428","img/flower3.png","74","429","1","1","1","1","1,0.333,0.333,0.333,1,0.333,0.333,0.333,1","1,0.333,0.333,0.333,1,0.333,0.333,0.333,1","1",""
"","html-keyboard-response","309","157244","0.0-309.0","37TRT2X24RDJ0KL7I3BDRE0QSTABJ8","A3JI3B5GTVA95F","3S1L4CQSFXRWQOWP2XFUSMS4AZDFAL","","null","<img src=""img/flower3.png"" style=""width:200px; border:14px solid green;"">","null","","","","","","","","",""
"","image-keyboard-response","310","157600","0.0-310.0","37TRT2X24RDJ0KL7I3BDRE0QSTABJ8","A3JI3B5GTVA95F","3S1L4CQSFXRWQOWP2XFUSMS4AZDFAL","","354","img/flower3.png","74","354","1","1","1","1","1,0.333,0.333,0.333,1,0.333,0.333,0.333,1","1,0.333,0.333,0.333,1,0.333,0.333,0.333,1","1",""
"","html-keyboard-response","311","157904","0.0-311.0","37TRT2X24RDJ0KL7I3BDRE0QSTABJ8","A3JI3B5GTVA95F","3S1L4CQSFXRWQOWP2XFUSMS4AZDFAL","","null","<img src=""img/flower3.png"" style=""width:200px; border:14px solid green;"">","null","","","","","","","","",""
"","image-keyboard-response","312","158296","0.0-312.0","37TRT2X24RDJ0KL7I3BDRE0QSTABJ8","A3JI3B5GTVA95F","3S1L4CQSFXRWQOWP2XFUSMS4AZDFAL","","390","img/flower3.png","74","391","1","1","1","1","1,0.333,0.333,0.333,1,0.333,0.333,0.333,1","1,0.333,0.333,0.333,1,0.333,0.333,0.333,1","1",""
"","html-keyboard-response","313","158604","0.0-313.0","37TRT2X24RDJ0KL7I3BDRE0QSTABJ8","A3JI3B5GTVA95F","3S1L4CQSFXRWQOWP2XFUSMS4AZDFAL","","null","<img src=""img/flower3.png"" style=""width:200px; border:14px solid green;"">","null","","","","","","","","",""
"","image-keyboard-response","314","158952","0.0-314.0","37TRT2X24RDJ0KL7I3BDRE0QSTABJ8","A3JI3B5GTVA95F","3S1L4CQSFXRWQOWP2XFUSMS4AZDFAL","","346","img/flower3.png","74","347","1","1","1","1","1,0.333,0.333,0.333,1,0.333,0.333,0.333,1","1,0.333,0.333,0.333,1,0.333,0.333,0.333,1","1",""
"","html-keyboard-response","315","159255","0.0-315.0","37TRT2X24RDJ0KL7I3BDRE0QSTABJ8","A3JI3B5GTVA95F","3S1L4CQSFXRWQOWP2XFUSMS4AZDFAL","","null","<img src=""img/flower3.png"" style=""width:200px; border:14px solid green;"">","null","","","","","","","","",""
"","image-keyboard-response","316","159896","0.0-316.0","37TRT2X24RDJ0KL7I3BDRE0QSTABJ8","A3JI3B5GTVA95F","3S1L4CQSFXRWQOWP2XFUSMS4AZDFAL","","640","img/flower4.png","76","641","3","1","3","1","1,0.333,0.333,0.333,1,0.333,0.333,0.333,1","1,0.333,0.333,0.333,1,0.333,0.333,0.333,1","1",""
"","html-keyboard-response","317","160204","0.0-317.0","37TRT2X24RDJ0KL7I3BDRE0QSTABJ8","A3JI3B5GTVA95F","3S1L4CQSFXRWQOWP2XFUSMS4AZDFAL","","null","<img src=""img/flower4.png"" style=""width:200px; border:14px solid green;"">","null","","","","","","","","",""
"","image-keyboard-response","318","160792","0.0-318.0","37TRT2X24RDJ0KL7I3BDRE0QSTABJ8","A3JI3B5GTVA95F","3S1L4CQSFXRWQOWP2XFUSMS4AZDFAL","","586","img/flower6.png","75","587","2","1","2","1","1,0.333,0.333,0.333,1,0.333,0.333,0.333,1","1,0.333,0.333,0.333,1,0.333,0.333,0.333,1","1",""
"","html-keyboard-response","319","161094","0.0-319.0","37TRT2X24RDJ0KL7I3BDRE0QSTABJ8","A3JI3B5GTVA95F","3S1L4CQSFXRWQOWP2XFUSMS4AZDFAL","","null","<img src=""img/flower6.png"" style=""width:200px; border:14px solid green;"">","null","","","","","","","","",""
"","image-keyboard-response","320","161495","0.0-320.0","37TRT2X24RDJ0KL7I3BDRE0QSTABJ8","A3JI3B5GTVA95F","3S1L4CQSFXRWQOWP2XFUSMS4AZDFAL","","401","img/flower6.png","75","401","2","1","2","1","1,0.333,0.333,0.333,1,0.333,0.333,0.333,1","1,0.333,0.333,0.333,1,0.333,0.333,0.333,1","1",""
"","html-keyboard-response","321","161804","0.0-321.0","37TRT2X24RDJ0KL7I3BDRE0QSTABJ8","A3JI3B5GTVA95F","3S1L4CQSFXRWQOWP2XFUSMS4AZDFAL","","null","<img src=""img/flower6.png"" style=""width:200px; border:14px solid green;"">","null","","","","","","","","",""
"","image-keyboard-response","322","162120","0.0-322.0","37TRT2X24RDJ0KL7I3BDRE0QSTABJ8","A3JI3B5GTVA95F","3S1L4CQSFXRWQOWP2XFUSMS4AZDFAL","","315","img/flower6.png","75","315","2","1","2","1","1,0.333,0.333,0.333,1,0.333,0.333,0.333,1","1,0.333,0.333,0.333,1,0.333,0.333,0.333,1","1",""
"","html-keyboard-response","323","162424","0.0-323.0","37TRT2X24RDJ0KL7I3BDRE0QSTABJ8","A3JI3B5GTVA95F","3S1L4CQSFXRWQOWP2XFUSMS4AZDFAL","","null","<img src=""img/flower6.png"" style=""width:200px; border:14px solid green;"">","null","","","","","","","","",""
"","image-keyboard-response","324","162751","0.0-324.0","37TRT2X24RDJ0KL7I3BDRE0QSTABJ8","A3JI3B5GTVA95F","3S1L4CQSFXRWQOWP2XFUSMS4AZDFAL","","327","img/flower6.png","75","327","2","1","2","1","1,0.333,0.333,0.333,1,0.333,0.333,0.333,1","1,0.333,0.333,0.333,1,0.333,0.333,0.333,1","1",""
"","html-keyboard-response","325","163055","0.0-325.0","37TRT2X24RDJ0KL7I3BDRE0QSTABJ8","A3JI3B5GTVA95F","3S1L4CQSFXRWQOWP2XFUSMS4AZDFAL","","null","<img src=""img/flower6.png"" style=""width:200px; border:14px solid green;"">","null","","","","","","","","",""
"","image-keyboard-response","326","163856","0.0-326.0","37TRT2X24RDJ0KL7I3BDRE0QSTABJ8","A3JI3B5GTVA95F","3S1L4CQSFXRWQOWP2XFUSMS4AZDFAL","","800","img/flower3.png","74","801","1","1","1","1","1,0.333,0.333,0.333,1,0.333,0.333,0.333,1","1,0.333,0.333,0.333,1,0.333,0.333,0.333,1","1",""
"","html-keyboard-response","327","164165","0.0-327.0","37TRT2X24RDJ0KL7I3BDRE0QSTABJ8","A3JI3B5GTVA95F","3S1L4CQSFXRWQOWP2XFUSMS4AZDFAL","","null","<img src=""img/flower3.png"" style=""width:200px; border:14px solid green;"">","null","","","","","","","","",""
"","image-keyboard-response","328","164503","0.0-328.0","37TRT2X24RDJ0KL7I3BDRE0QSTABJ8","A3JI3B5GTVA95F","3S1L4CQSFXRWQOWP2XFUSMS4AZDFAL","","338","img/flower3.png","74","338","1","1","1","1","1,0.333,0.333,0.333,1,0.333,0.333,0.333,1","1,0.333,0.333,0.333,1,0.333,0.333,0.333,1","1",""
"","html-keyboard-response","329","164805","0.0-329.0","37TRT2X24RDJ0KL7I3BDRE0QSTABJ8","A3JI3B5GTVA95F","3S1L4CQSFXRWQOWP2XFUSMS4AZDFAL","","null","<img src=""img/flower3.png"" style=""width:200px; border:14px solid green;"">","null","","","","","","","","",""
"","image-keyboard-response","330","165136","0.0-330.0","37TRT2X24RDJ0KL7I3BDRE0QSTABJ8","A3JI3B5GTVA95F","3S1L4CQSFXRWQOWP2XFUSMS4AZDFAL","","330","img/flower3.png","74","332","1","1","1","1","1,0.333,0.333,0.333,1,0.333,0.333,0.333,1","1,0.333,0.333,0.333,1,0.333,0.333,0.333,1","1",""
"","html-keyboard-response","331","165445","0.0-331.0","37TRT2X24RDJ0KL7I3BDRE0QSTABJ8","A3JI3B5GTVA95F","3S1L4CQSFXRWQOWP2XFUSMS4AZDFAL","","null","<img src=""img/flower3.png"" style=""width:200px; border:14px solid green;"">","null","","","","","","","","",""
"","image-keyboard-response","332","166151","0.0-332.0","37TRT2X24RDJ0KL7I3BDRE0QSTABJ8","A3JI3B5GTVA95F","3S1L4CQSFXRWQOWP2XFUSMS4AZDFAL","","706","img/flower4.png","76","706","3","1","3","1","1,0.333,0.333,0.333,1,0.333,0.333,0.333,1","1,0.333,0.333,0.333,1,0.333,0.333,0.333,1","1",""
"","html-keyboard-response","333","166454","0.0-333.0","37TRT2X24RDJ0KL7I3BDRE0QSTABJ8","A3JI3B5GTVA95F","3S1L4CQSFXRWQOWP2XFUSMS4AZDFAL","","null","<img src=""img/flower4.png"" style=""width:200px; border:14px solid green;"">","null","","","","","","","","",""
"","image-keyboard-response","334","167343","0.0-334.0","37TRT2X24RDJ0KL7I3BDRE0QSTABJ8","A3JI3B5GTVA95F","3S1L4CQSFXRWQOWP2XFUSMS4AZDFAL","","888","img/flower3.png","74","889","1","1","1","1","1,0.333,0.333,0.333,1,0.333,0.333,0.333,1","1,0.333,0.333,0.333,1,0.333,0.333,0.333,1","1",""
"","html-keyboard-response","335","167651","0.0-335.0","37TRT2X24RDJ0KL7I3BDRE0QSTABJ8","A3JI3B5GTVA95F","3S1L4CQSFXRWQOWP2XFUSMS4AZDFAL","","null","<img src=""img/flower3.png"" style=""width:200px; border:14px solid green;"">","null","","","","","","","","",""
"","image-keyboard-response","336","168336","0.0-336.0","37TRT2X24RDJ0KL7I3BDRE0QSTABJ8","A3JI3B5GTVA95F","3S1L4CQSFXRWQOWP2XFUSMS4AZDFAL","","683","img/flower6.png","75","683","2","1","2","1","1,0.333,0.333,0.333,1,0.333,0.333,0.333,1","1,0.333,0.333,0.333,1,0.333,0.333,0.333,1","1",""
"","html-keyboard-response","337","168643","0.0-337.0","37TRT2X24RDJ0KL7I3BDRE0QSTABJ8","A3JI3B5GTVA95F","3S1L4CQSFXRWQOWP2XFUSMS4AZDFAL","","null","<img src=""img/flower6.png"" style=""width:200px; border:14px solid green;"">","null","","","","","","","","",""
"","image-keyboard-response","338","169479","0.0-338.0","37TRT2X24RDJ0KL7I3BDRE0QSTABJ8","A3JI3B5GTVA95F","3S1L4CQSFXRWQOWP2XFUSMS4AZDFAL","","836","img/flower3.png","74","836","1","1","1","1","1,0.333,0.333,0.333,1,0.333,0.333,0.333,1","1,0.333,0.333,0.333,1,0.333,0.333,0.333,1","1",""
"","html-keyboard-response","339","169785","0.0-339.0","37TRT2X24RDJ0KL7I3BDRE0QSTABJ8","A3JI3B5GTVA95F","3S1L4CQSFXRWQOWP2XFUSMS4AZDFAL","","null","<img src=""img/flower3.png"" style=""width:200px; border:14px solid green;"">","null","","","","","","","","",""
"","image-keyboard-response","340","170447","0.0-340.0","37TRT2X24RDJ0KL7I3BDRE0QSTABJ8","A3JI3B5GTVA95F","3S1L4CQSFXRWQOWP2XFUSMS4AZDFAL","","661","img/flower4.png","76","663","3","1","3","1","1,0.333,0.333,0.333,1,0.333,0.333,0.333,1","1,0.333,0.333,0.333,1,0.333,0.333,0.333,1","1",""
"","html-keyboard-response","341","170755","0.0-341.0","37TRT2X24RDJ0KL7I3BDRE0QSTABJ8","A3JI3B5GTVA95F","3S1L4CQSFXRWQOWP2XFUSMS4AZDFAL","","null","<img src=""img/flower4.png"" style=""width:200px; border:14px solid green;"">","null","","","","","","","","",""
"","image-keyboard-response","342","171799","0.0-342.0","37TRT2X24RDJ0KL7I3BDRE0QSTABJ8","A3JI3B5GTVA95F","3S1L4CQSFXRWQOWP2XFUSMS4AZDFAL","","1044","img/flower3.png","74","1045","1","1","1","1","1,0.333,0.333,0.333,1,0.333,0.333,0.333,1","1,0.333,0.333,0.333,1,0.333,0.333,0.333,1","1",""
"","html-keyboard-response","343","172104","0.0-343.0","37TRT2X24RDJ0KL7I3BDRE0QSTABJ8","A3JI3B5GTVA95F","3S1L4CQSFXRWQOWP2XFUSMS4AZDFAL","","null","<img src=""img/flower3.png"" style=""width:200px; border:14px solid green;"">","null","","","","","","","","",""
"","image-keyboard-response","344","172920","0.0-344.0","37TRT2X24RDJ0KL7I3BDRE0QSTABJ8","A3JI3B5GTVA95F","3S1L4CQSFXRWQOWP2XFUSMS4AZDFAL","","814","img/flower6.png","75","816","2","1","2","1","1,0.333,0.333,0.333,1,0.333,0.333,0.333,1","1,0.333,0.333,0.333,1,0.333,0.333,0.333,1","1",""
"","html-keyboard-response","345","173223","0.0-345.0","37TRT2X24RDJ0KL7I3BDRE0QSTABJ8","A3JI3B5GTVA95F","3S1L4CQSFXRWQOWP2XFUSMS4AZDFAL","","null","<img src=""img/flower6.png"" style=""width:200px; border:14px solid green;"">","null","","","","","","","","",""
"","image-keyboard-response","346","173527","0.0-346.0","37TRT2X24RDJ0KL7I3BDRE0QSTABJ8","A3JI3B5GTVA95F","3S1L4CQSFXRWQOWP2XFUSMS4AZDFAL","","303","img/flower6.png","75","304","2","1","2","1","1,0.333,0.333,0.333,1,0.333,0.333,0.333,1","1,0.333,0.333,0.333,1,0.333,0.333,0.333,1","1",""
"","html-keyboard-response","347","173833","0.0-347.0","37TRT2X24RDJ0KL7I3BDRE0QSTABJ8","A3JI3B5GTVA95F","3S1L4CQSFXRWQOWP2XFUSMS4AZDFAL","","null","<img src=""img/flower6.png"" style=""width:200px; border:14px solid green;"">","null","","","","","","","","",""
"","image-keyboard-response","348","174519","0.0-348.0","37TRT2X24RDJ0KL7I3BDRE0QSTABJ8","A3JI3B5GTVA95F","3S1L4CQSFXRWQOWP2XFUSMS4AZDFAL","","685","img/flower4.png","76","685","3","1","3","1","1,0.333,0.333,0.333,1,0.333,0.333,0.333,1","1,0.333,0.333,0.333,1,0.333,0.333,0.333,1","1",""
"","html-keyboard-response","349","174823","0.0-349.0","37TRT2X24RDJ0KL7I3BDRE0QSTABJ8","A3JI3B5GTVA95F","3S1L4CQSFXRWQOWP2XFUSMS4AZDFAL","","null","<img src=""img/flower4.png"" style=""width:200px; border:14px solid green;"">","null","","","","","","","","",""
"","image-keyboard-response","350","176256","0.0-350.0","37TRT2X24RDJ0KL7I3BDRE0QSTABJ8","A3JI3B5GTVA95F","3S1L4CQSFXRWQOWP2XFUSMS4AZDFAL","","1431","img/flower6.png","75","1432","2","1","2","1","1,0.333,0.333,0.333,1,0.333,0.333,0.333,1","1,0.333,0.333,0.333,1,0.333,0.333,0.333,1","1",""
"","html-keyboard-response","351","176563","0.0-351.0","37TRT2X24RDJ0KL7I3BDRE0QSTABJ8","A3JI3B5GTVA95F","3S1L4CQSFXRWQOWP2XFUSMS4AZDFAL","","null","<img src=""img/flower6.png"" style=""width:200px; border:14px solid green;"">","null","","","","","","","","",""
"","image-keyboard-response","352","176903","0.0-352.0","37TRT2X24RDJ0KL7I3BDRE0QSTABJ8","A3JI3B5GTVA95F","3S1L4CQSFXRWQOWP2XFUSMS4AZDFAL","","340","img/flower6.png","75","341","2","1","2","1","1,0.333,0.333,0.333,1,0.333,0.333,0.333,1","1,0.333,0.333,0.333,1,0.333,0.333,0.333,1","1",""
"","html-keyboard-response","353","177213","0.0-353.0","37TRT2X24RDJ0KL7I3BDRE0QSTABJ8","A3JI3B5GTVA95F","3S1L4CQSFXRWQOWP2XFUSMS4AZDFAL","","null","<img src=""img/flower6.png"" style=""width:200px; border:14px solid green;"">","null","","","","","","","","",""
"","image-keyboard-response","354","177559","0.0-354.0","37TRT2X24RDJ0KL7I3BDRE0QSTABJ8","A3JI3B5GTVA95F","3S1L4CQSFXRWQOWP2XFUSMS4AZDFAL","","345","img/flower6.png","75","346","2","1","2","1","1,0.333,0.333,0.333,1,0.333,0.333,0.333,1","1,0.333,0.333,0.333,1,0.333,0.333,0.333,1","1",""
"","html-keyboard-response","355","177863","0.0-355.0","37TRT2X24RDJ0KL7I3BDRE0QSTABJ8","A3JI3B5GTVA95F","3S1L4CQSFXRWQOWP2XFUSMS4AZDFAL","","null","<img src=""img/flower6.png"" style=""width:200px; border:14px solid green;"">","null","","","","","","","","",""
"","image-keyboard-response","356","178455","0.0-356.0","37TRT2X24RDJ0KL7I3BDRE0QSTABJ8","A3JI3B5GTVA95F","3S1L4CQSFXRWQOWP2XFUSMS4AZDFAL","","591","img/flower4.png","76","592","3","1","3","1","1,0.333,0.333,0.333,1,0.333,0.333,0.333,1","1,0.333,0.333,0.333,1,0.333,0.333,0.333,1","1",""
"","html-keyboard-response","357","178763","0.0-357.0","37TRT2X24RDJ0KL7I3BDRE0QSTABJ8","A3JI3B5GTVA95F","3S1L4CQSFXRWQOWP2XFUSMS4AZDFAL","","null","<img src=""img/flower4.png"" style=""width:200px; border:14px solid green;"">","null","","","","","","","","",""
"","image-keyboard-response","358","179087","0.0-358.0","37TRT2X24RDJ0KL7I3BDRE0QSTABJ8","A3JI3B5GTVA95F","3S1L4CQSFXRWQOWP2XFUSMS4AZDFAL","","324","img/flower4.png","76","324","3","1","3","1","1,0.333,0.333,0.333,1,0.333,0.333,0.333,1","1,0.333,0.333,0.333,1,0.333,0.333,0.333,1","1",""
"","html-keyboard-response","359","179393","0.0-359.0","37TRT2X24RDJ0KL7I3BDRE0QSTABJ8","A3JI3B5GTVA95F","3S1L4CQSFXRWQOWP2XFUSMS4AZDFAL","","null","<img src=""img/flower4.png"" style=""width:200px; border:14px solid green;"">","null","","","","","","","","",""
"","image-keyboard-response","360","180056","0.0-360.0","37TRT2X24RDJ0KL7I3BDRE0QSTABJ8","A3JI3B5GTVA95F","3S1L4CQSFXRWQOWP2XFUSMS4AZDFAL","","662","img/flower3.png","74","663","1","1","1","1","1,0.333,0.333,0.333,1,0.333,0.333,0.333,1","1,0.333,0.333,0.333,1,0.333,0.333,0.333,1","1",""
"","html-keyboard-response","361","180363","0.0-361.0","37TRT2X24RDJ0KL7I3BDRE0QSTABJ8","A3JI3B5GTVA95F","3S1L4CQSFXRWQOWP2XFUSMS4AZDFAL","","null","<img src=""img/flower3.png"" style=""width:200px; border:14px solid green;"">","null","","","","","","","","",""
"","html-keyboard-response","362","183521","0.0-362.0","37TRT2X24RDJ0KL7I3BDRE0QSTABJ8","A3JI3B5GTVA95F","3S1L4CQSFXRWQOWP2XFUSMS4AZDFAL","","","","","","","","","","","","",""
"","instructions","363","187011","0.0-363.0","37TRT2X24RDJ0KL7I3BDRE0QSTABJ8","A3JI3B5GTVA95F","3S1L4CQSFXRWQOWP2XFUSMS4AZDFAL","[{""page_index"":0,""viewing_time"":3488}]","3488","","","","","","","","","","",""
"","survey-text","364","200311","0.0-364.0","37TRT2X24RDJ0KL7I3BDRE0QSTABJ8","A3JI3B5GTVA95F","3S1L4CQSFXRWQOWP2XFUSMS4AZDFAL","","13295","","","","","","","","","","","{""Q0"":""A3JI3B5GTVA95F""}"
