"success","trial_type","trial_index","time_elapsed","internal_node_id","assignmentID","mturkID","hitID","view_history","rt","stimulus","key_press","reactionTime","a","r","s","cond","reward_cond","reward_cond_actual","reward_matrix_idx","responses"
"true","fullscreen","0","2897","0.0-0.0","3JWH6J9I9TZFJACSX135KLH72Q0NB0","A3KH1OG87C8DCM","3P7RGTLO6EZ76AO3386R8ZK9IWWKAW","","","","","","","","","","","","",""
"","instructions","1","31078","0.0-1.0","3JWH6J9I9TZFJACSX135KLH72Q0NB0","A3KH1OG87C8DCM","3P7RGTLO6EZ76AO3386R8ZK9IWWKAW","[{""page_index"":0,""viewing_time"":6094.800000011921},{""page_index"":1,""viewing_time"":1579.8999999761581},{""page_index"":2,""viewing_time"":1787.9000000357628},{""page_index"":3,""viewing_time"":1485},{""page_index"":4,""viewing_time"":3859.099999964237},{""page_index"":5,""viewing_time"":2356.900000035763},{""page_index"":6,""viewing_time"":6616.099999964237},{""page_index"":7,""viewing_time"":4399.900000035763}]","28179.80000001192","","","","","","","","","","",""
"","image-keyboard-response","2","31603","0.0-2.0","3JWH6J9I9TZFJACSX135KLH72Q0NB0","A3KH1OG87C8DCM","3P7RGTLO6EZ76AO3386R8ZK9IWWKAW","","524.0999999642372","img/flower3.png","74","524.7000000476837","1","0","1","2","1,0,0,1,1,0,1,0,1","0,1,0,0,1,1,1,1,0","3",""
"","html-keyboard-response","3","31905","0.0-3.0","3JWH6J9I9TZFJACSX135KLH72Q0NB0","A3KH1OG87C8DCM","3P7RGTLO6EZ76AO3386R8ZK9IWWKAW","","null","<img src=""img/flower3.png"" style=""width:200px;border:14px solid red;"">","null","","","","","","","","",""
"","image-keyboard-response","4","32171","0.0-4.0","3JWH6J9I9TZFJACSX135KLH72Q0NB0","A3KH1OG87C8DCM","3P7RGTLO6EZ76AO3386R8ZK9IWWKAW","","265","img/flower3.png","75","265.5","2","1","1","2","1,0,0,1,1,0,1,0,1","0,1,0,0,1,1,1,1,0","3",""
"","html-keyboard-response","5","32472","0.0-5.0","3JWH6J9I9TZFJACSX135KLH72Q0NB0","A3KH1OG87C8DCM","3P7RGTLO6EZ76AO3386R8ZK9IWWKAW","","null","<img src=""img/flower3.png"" style=""width:200px; border:14px solid green;"">","null","","","","","","","","",""
"","image-keyboard-response","6","33027","0.0-6.0","3JWH6J9I9TZFJACSX135KLH72Q0NB0","A3KH1OG87C8DCM","3P7RGTLO6EZ76AO3386R8ZK9IWWKAW","","553.6000000238419","img/flower6.png","76","554.1000000238419","3","0","3","2","1,0,0,1,1,0,1,0,1","0,1,0,0,1,1,1,1,0","3",""
"","html-keyboard-response","7","33328","0.0-7.0","3JWH6J9I9TZFJACSX135KLH72Q0NB0","A3KH1OG87C8DCM","3P7RGTLO6EZ76AO3386R8ZK9IWWKAW","","null","<img src=""img/flower6.png"" style=""width:200px;border:14px solid red;"">","null","","","","","","","","",""
"","image-keyboard-response","8","33819","0.0-8.0","3JWH6J9I9TZFJACSX135KLH72Q0NB0","A3KH1OG87C8DCM","3P7RGTLO6EZ76AO3386R8ZK9IWWKAW","","489.80000001192093","img/flower3.png","75","490.39999997615814","2","1","1","2","1,0,0,1,1,0,1,0,1","0,1,0,0,1,1,1,1,0","3",""
"","html-keyboard-response","9","34121","0.0-9.0","3JWH6J9I9TZFJACSX135KLH72Q0NB0","A3KH1OG87C8DCM","3P7RGTLO6EZ76AO3386R8ZK9IWWKAW","","null","<img src=""img/flower3.png"" style=""width:200px; border:14px solid green;"">","null","","","","","","","","",""
"","image-keyboard-response","10","34555","0.0-10.0","3JWH6J9I9TZFJACSX135KLH72Q0NB0","A3KH1OG87C8DCM","3P7RGTLO6EZ76AO3386R8ZK9IWWKAW","","432.9000000357628","img/flower6.png","74","433.4000000357628","1","1","3","2","1,0,0,1,1,0,1,0,1","0,1,0,0,1,1,1,1,0","3",""
"","html-keyboard-response","11","34857","0.0-11.0","3JWH6J9I9TZFJACSX135KLH72Q0NB0","A3KH1OG87C8DCM","3P7RGTLO6EZ76AO3386R8ZK9IWWKAW","","null","<img src=""img/flower6.png"" style=""width:200px; border:14px solid green;"">","null","","","","","","","","",""
"","image-keyboard-response","12","35339","0.0-12.0","3JWH6J9I9TZFJACSX135KLH72Q0NB0","A3KH1OG87C8DCM","3P7RGTLO6EZ76AO3386R8ZK9IWWKAW","","480.89999997615814","img/flower4.png","75","481.4000000357628","2","1","2","2","1,0,0,1,1,0,1,0,1","0,1,0,0,1,1,1,1,0","3",""
"","html-keyboard-response","13","35641","0.0-13.0","3JWH6J9I9TZFJACSX135KLH72Q0NB0","A3KH1OG87C8DCM","3P7RGTLO6EZ76AO3386R8ZK9IWWKAW","","null","<img src=""img/flower4.png"" style=""width:200px; border:14px solid green;"">","null","","","","","","","","",""
"","image-keyboard-response","14","36123","0.0-14.0","3JWH6J9I9TZFJACSX135KLH72Q0NB0","A3KH1OG87C8DCM","3P7RGTLO6EZ76AO3386R8ZK9IWWKAW","","481.10000002384186","img/flower3.png","75","481.60000002384186","2","1","1","2","1,0,0,1,1,0,1,0,1","0,1,0,0,1,1,1,1,0","3",""
"","html-keyboard-response","15","36425","0.0-15.0","3JWH6J9I9TZFJACSX135KLH72Q0NB0","A3KH1OG87C8DCM","3P7RGTLO6EZ76AO3386R8ZK9IWWKAW","","null","<img src=""img/flower3.png"" style=""width:200px; border:14px solid green;"">","null","","","","","","","","",""
"","image-keyboard-response","16","36875","0.0-16.0","3JWH6J9I9TZFJACSX135KLH72Q0NB0","A3KH1OG87C8DCM","3P7RGTLO6EZ76AO3386R8ZK9IWWKAW","","449.4000000357628","img/flower3.png","75","449.7999999523163","2","1","1","2","1,0,0,1,1,0,1,0,1","0,1,0,0,1,1,1,1,0","3",""
"","html-keyboard-response","17","37177","0.0-17.0","3JWH6J9I9TZFJACSX135KLH72Q0NB0","A3KH1OG87C8DCM","3P7RGTLO6EZ76AO3386R8ZK9IWWKAW","","null","<img src=""img/flower3.png"" style=""width:200px; border:14px solid green;"">","null","","","","","","","","",""
"","image-keyboard-response","18","37587","0.0-18.0","3JWH6J9I9TZFJACSX135KLH72Q0NB0","A3KH1OG87C8DCM","3P7RGTLO6EZ76AO3386R8ZK9IWWKAW","","409.2000000476837","img/flower3.png","75","409.7999999523163","2","1","1","2","1,0,0,1,1,0,1,0,1","0,1,0,0,1,1,1,1,0","3",""
"","html-keyboard-response","19","37889","0.0-19.0","3JWH6J9I9TZFJACSX135KLH72Q0NB0","A3KH1OG87C8DCM","3P7RGTLO6EZ76AO3386R8ZK9IWWKAW","","null","<img src=""img/flower3.png"" style=""width:200px; border:14px solid green;"">","null","","","","","","","","",""
"","image-keyboard-response","20","38323","0.0-20.0","3JWH6J9I9TZFJACSX135KLH72Q0NB0","A3KH1OG87C8DCM","3P7RGTLO6EZ76AO3386R8ZK9IWWKAW","","433","img/flower4.png","74","433.69999998807907","1","0","2","2","1,0,0,1,1,0,1,0,1","0,1,0,0,1,1,1,1,0","3",""
"","html-keyboard-response","21","38631","0.0-21.0","3JWH6J9I9TZFJACSX135KLH72Q0NB0","A3KH1OG87C8DCM","3P7RGTLO6EZ76AO3386R8ZK9IWWKAW","","null","<img src=""img/flower4.png"" style=""width:200px;border:14px solid red;"">","null","","","","","","","","",""
"","image-keyboard-response","22","39291","0.0-22.0","3JWH6J9I9TZFJACSX135KLH72Q0NB0","A3KH1OG87C8DCM","3P7RGTLO6EZ76AO3386R8ZK9IWWKAW","","659.1999999880791","img/flower6.png","76","659.6999999880791","3","0","3","2","1,0,0,1,1,0,1,0,1","0,1,0,0,1,1,1,1,0","3",""
"","html-keyboard-response","23","39592","0.0-23.0","3JWH6J9I9TZFJACSX135KLH72Q0NB0","A3KH1OG87C8DCM","3P7RGTLO6EZ76AO3386R8ZK9IWWKAW","","null","<img src=""img/flower6.png"" style=""width:200px;border:14px solid red;"">","null","","","","","","","","",""
"","image-keyboard-response","24","40139","0.0-24.0","3JWH6J9I9TZFJACSX135KLH72Q0NB0","A3KH1OG87C8DCM","3P7RGTLO6EZ76AO3386R8ZK9IWWKAW","","545.6000000238419","img/flower3.png","75","546.1999999880791","2","1","1","2","1,0,0,1,1,0,1,0,1","0,1,0,0,1,1,1,1,0","3",""
"","html-keyboard-response","25","40440","0.0-25.0","3JWH6J9I9TZFJACSX135KLH72Q0NB0","A3KH1OG87C8DCM","3P7RGTLO6EZ76AO3386R8ZK9IWWKAW","","null","<img src=""img/flower3.png"" style=""width:200px; border:14px solid green;"">","null","","","","","","","","",""
"","image-keyboard-response","26","40955","0.0-26.0","3JWH6J9I9TZFJACSX135KLH72Q0NB0","A3KH1OG87C8DCM","3P7RGTLO6EZ76AO3386R8ZK9IWWKAW","","513.8000000119209","img/flower4.png","74","514.4000000357628","1","0","2","2","1,0,0,1,1,0,1,0,1","0,1,0,0,1,1,1,1,0","3",""
"","html-keyboard-response","27","41257","0.0-27.0","3JWH6J9I9TZFJACSX135KLH72Q0NB0","A3KH1OG87C8DCM","3P7RGTLO6EZ76AO3386R8ZK9IWWKAW","","null","<img src=""img/flower4.png"" style=""width:200px;border:14px solid red;"">","null","","","","","","","","",""
"","image-keyboard-response","28","41579","0.0-28.0","3JWH6J9I9TZFJACSX135KLH72Q0NB0","A3KH1OG87C8DCM","3P7RGTLO6EZ76AO3386R8ZK9IWWKAW","","321.10000002384186","img/flower4.png","75","321.69999998807907","2","1","2","2","1,0,0,1,1,0,1,0,1","0,1,0,0,1,1,1,1,0","3",""
"","html-keyboard-response","29","41880","0.0-29.0","3JWH6J9I9TZFJACSX135KLH72Q0NB0","A3KH1OG87C8DCM","3P7RGTLO6EZ76AO3386R8ZK9IWWKAW","","null","<img src=""img/flower4.png"" style=""width:200px; border:14px solid green;"">","null","","","","","","","","",""
"","image-keyboard-response","30","42419","0.0-30.0","3JWH6J9I9TZFJACSX135KLH72Q0NB0","A3KH1OG87C8DCM","3P7RGTLO6EZ76AO3386R8ZK9IWWKAW","","537.7000000476837","img/flower6.png","75","538.1999999880791","2","1","3","2","1,0,0,1,1,0,1,0,1","0,1,0,0,1,1,1,1,0","3",""
"","html-keyboard-response","31","42720","0.0-31.0","3JWH6J9I9TZFJACSX135KLH72Q0NB0","A3KH1OG87C8DCM","3P7RGTLO6EZ76AO3386R8ZK9IWWKAW","","null","<img src=""img/flower6.png"" style=""width:200px; border:14px solid green;"">","null","","","","","","","","",""
"","image-keyboard-response","32","43085","0.0-32.0","3JWH6J9I9TZFJACSX135KLH72Q0NB0","A3KH1OG87C8DCM","3P7RGTLO6EZ76AO3386R8ZK9IWWKAW","","364.69999998807907","img/flower4.png","75","365.0999999642372","2","1","2","2","1,0,0,1,1,0,1,0,1","0,1,0,0,1,1,1,1,0","3",""
"","html-keyboard-response","33","43387","0.0-33.0","3JWH6J9I9TZFJACSX135KLH72Q0NB0","A3KH1OG87C8DCM","3P7RGTLO6EZ76AO3386R8ZK9IWWKAW","","null","<img src=""img/flower4.png"" style=""width:200px; border:14px solid green;"">","null","","","","","","","","",""
"","image-keyboard-response","34","43731","0.0-34.0","3JWH6J9I9TZFJACSX135KLH72Q0NB0","A3KH1OG87C8DCM","3P7RGTLO6EZ76AO3386R8ZK9IWWKAW","","342.89999997615814","img/flower4.png","75","343.5","2","1","2","2","1,0,0,1,1,0,1,0,1","0,1,0,0,1,1,1,1,0","3",""
"","html-keyboard-response","35","44032","0.0-35.0","3JWH6J9I9TZFJACSX135KLH72Q0NB0","A3KH1OG87C8DCM","3P7RGTLO6EZ76AO3386R8ZK9IWWKAW","","null","<img src=""img/flower4.png"" style=""width:200px; border:14px solid green;"">","null","","","","","","","","",""
"","image-keyboard-response","36","44563","0.0-36.0","3JWH6J9I9TZFJACSX135KLH72Q0NB0","A3KH1OG87C8DCM","3P7RGTLO6EZ76AO3386R8ZK9IWWKAW","","529.5999999642372","img/flower3.png","76","529.8999999761581","3","0","1","2","1,0,0,1,1,0,1,0,1","0,1,0,0,1,1,1,1,0","3",""
"","html-keyboard-response","37","44864","0.0-37.0","3JWH6J9I9TZFJACSX135KLH72Q0NB0","A3KH1OG87C8DCM","3P7RGTLO6EZ76AO3386R8ZK9IWWKAW","","null","<img src=""img/flower3.png"" style=""width:200px;border:14px solid red;"">","null","","","","","","","","",""
"","image-keyboard-response","38","45139","0.0-38.0","3JWH6J9I9TZFJACSX135KLH72Q0NB0","A3KH1OG87C8DCM","3P7RGTLO6EZ76AO3386R8ZK9IWWKAW","","273.80000001192093","img/flower6.png","75","274.30000001192093","2","1","3","2","1,0,0,1,1,0,1,0,1","0,1,0,0,1,1,1,1,0","3",""
"","html-keyboard-response","39","45441","0.0-39.0","3JWH6J9I9TZFJACSX135KLH72Q0NB0","A3KH1OG87C8DCM","3P7RGTLO6EZ76AO3386R8ZK9IWWKAW","","null","<img src=""img/flower6.png"" style=""width:200px; border:14px solid green;"">","null","","","","","","","","",""
"","image-keyboard-response","40","45755","0.0-40.0","3JWH6J9I9TZFJACSX135KLH72Q0NB0","A3KH1OG87C8DCM","3P7RGTLO6EZ76AO3386R8ZK9IWWKAW","","313.30000001192093","img/flower6.png","75","313.89999997615814","2","1","3","2","1,0,0,1,1,0,1,0,1","0,1,0,0,1,1,1,1,0","3",""
"","html-keyboard-response","41","46056","0.0-41.0","3JWH6J9I9TZFJACSX135KLH72Q0NB0","A3KH1OG87C8DCM","3P7RGTLO6EZ76AO3386R8ZK9IWWKAW","","null","<img src=""img/flower6.png"" style=""width:200px; border:14px solid green;"">","null","","","","","","","","",""
"","image-keyboard-response","42","46403","0.0-42.0","3JWH6J9I9TZFJACSX135KLH72Q0NB0","A3KH1OG87C8DCM","3P7RGTLO6EZ76AO3386R8ZK9IWWKAW","","346.0999999642372","img/flower3.png","75","346.4000000357628","2","1","1","2","1,0,0,1,1,0,1,0,1","0,1,0,0,1,1,1,1,0","3",""
"","html-keyboard-response","43","46704","0.0-43.0","3JWH6J9I9TZFJACSX135KLH72Q0NB0","A3KH1OG87C8DCM","3P7RGTLO6EZ76AO3386R8ZK9IWWKAW","","null","<img src=""img/flower3.png"" style=""width:200px; border:14px solid green;"">","null","","","","","","","","",""
"","image-keyboard-response","44","47147","0.0-44.0","3JWH6J9I9TZFJACSX135KLH72Q0NB0","A3KH1OG87C8DCM","3P7RGTLO6EZ76AO3386R8ZK9IWWKAW","","441.80000001192093","img/flower4.png","75","442.2999999523163","2","1","2","2","1,0,0,1,1,0,1,0,1","0,1,0,0,1,1,1,1,0","3",""
"","html-keyboard-response","45","47448","0.0-45.0","3JWH6J9I9TZFJACSX135KLH72Q0NB0","A3KH1OG87C8DCM","3P7RGTLO6EZ76AO3386R8ZK9IWWKAW","","null","<img src=""img/flower4.png"" style=""width:200px; border:14px solid green;"">","null","","","","","","","","",""
"","image-keyboard-response","46","47803","0.0-46.0","3JWH6J9I9TZFJACSX135KLH72Q0NB0","A3KH1OG87C8DCM","3P7RGTLO6EZ76AO3386R8ZK9IWWKAW","","353.7000000476837","img/flower3.png","75","354.2999999523163","2","1","1","2","1,0,0,1,1,0,1,0,1","0,1,0,0,1,1,1,1,0","3",""
"","html-keyboard-response","47","48105","0.0-47.0","3JWH6J9I9TZFJACSX135KLH72Q0NB0","A3KH1OG87C8DCM","3P7RGTLO6EZ76AO3386R8ZK9IWWKAW","","null","<img src=""img/flower3.png"" style=""width:200px; border:14px solid green;"">","null","","","","","","","","",""
"","image-keyboard-response","48","48483","0.0-48.0","3JWH6J9I9TZFJACSX135KLH72Q0NB0","A3KH1OG87C8DCM","3P7RGTLO6EZ76AO3386R8ZK9IWWKAW","","377.4000000357628","img/flower4.png","75","378","2","1","2","2","1,0,0,1,1,0,1,0,1","0,1,0,0,1,1,1,1,0","3",""
"","html-keyboard-response","49","48785","0.0-49.0","3JWH6J9I9TZFJACSX135KLH72Q0NB0","A3KH1OG87C8DCM","3P7RGTLO6EZ76AO3386R8ZK9IWWKAW","","null","<img src=""img/flower4.png"" style=""width:200px; border:14px solid green;"">","null","","","","","","","","",""
"","image-keyboard-response","50","49211","0.0-50.0","3JWH6J9I9TZFJACSX135KLH72Q0NB0","A3KH1OG87C8DCM","3P7RGTLO6EZ76AO3386R8ZK9IWWKAW","","425.30000001192093","img/flower6.png","75","425.5999999642372","2","1","3","2","1,0,0,1,1,0,1,0,1","0,1,0,0,1,1,1,1,0","3",""
"","html-keyboard-response","51","49522","0.0-51.0","3JWH6J9I9TZFJACSX135KLH72Q0NB0","A3KH1OG87C8DCM","3P7RGTLO6EZ76AO3386R8ZK9IWWKAW","","null","<img src=""img/flower6.png"" style=""width:200px; border:14px solid green;"">","null","","","","","","","","",""
"","image-keyboard-response","52","49859","0.0-52.0","3JWH6J9I9TZFJACSX135KLH72Q0NB0","A3KH1OG87C8DCM","3P7RGTLO6EZ76AO3386R8ZK9IWWKAW","","336.19999998807907","img/flower3.png","75","336.60000002384186","2","1","1","2","1,0,0,1,1,0,1,0,1","0,1,0,0,1,1,1,1,0","3",""
"","html-keyboard-response","53","50161","0.0-53.0","3JWH6J9I9TZFJACSX135KLH72Q0NB0","A3KH1OG87C8DCM","3P7RGTLO6EZ76AO3386R8ZK9IWWKAW","","null","<img src=""img/flower3.png"" style=""width:200px; border:14px solid green;"">","null","","","","","","","","",""
"","image-keyboard-response","54","50507","0.0-54.0","3JWH6J9I9TZFJACSX135KLH72Q0NB0","A3KH1OG87C8DCM","3P7RGTLO6EZ76AO3386R8ZK9IWWKAW","","345","img/flower6.png","75","345.39999997615814","2","1","3","2","1,0,0,1,1,0,1,0,1","0,1,0,0,1,1,1,1,0","3",""
"","html-keyboard-response","55","50808","0.0-55.0","3JWH6J9I9TZFJACSX135KLH72Q0NB0","A3KH1OG87C8DCM","3P7RGTLO6EZ76AO3386R8ZK9IWWKAW","","null","<img src=""img/flower6.png"" style=""width:200px; border:14px solid green;"">","null","","","","","","","","",""
"","image-keyboard-response","56","51275","0.0-56.0","3JWH6J9I9TZFJACSX135KLH72Q0NB0","A3KH1OG87C8DCM","3P7RGTLO6EZ76AO3386R8ZK9IWWKAW","","465.7000000476837","img/flower6.png","75","466.10000002384186","2","1","3","2","1,0,0,1,1,0,1,0,1","0,1,0,0,1,1,1,1,0","3",""
"","html-keyboard-response","57","51576","0.0-57.0","3JWH6J9I9TZFJACSX135KLH72Q0NB0","A3KH1OG87C8DCM","3P7RGTLO6EZ76AO3386R8ZK9IWWKAW","","null","<img src=""img/flower6.png"" style=""width:200px; border:14px solid green;"">","null","","","","","","","","",""
"","image-keyboard-response","58","51955","0.0-58.0","3JWH6J9I9TZFJACSX135KLH72Q0NB0","A3KH1OG87C8DCM","3P7RGTLO6EZ76AO3386R8ZK9IWWKAW","","377.80000001192093","img/flower3.png","75","378.19999998807907","2","1","1","2","1,0,0,1,1,0,1,0,1","0,1,0,0,1,1,1,1,0","3",""
"","html-keyboard-response","59","52256","0.0-59.0","3JWH6J9I9TZFJACSX135KLH72Q0NB0","A3KH1OG87C8DCM","3P7RGTLO6EZ76AO3386R8ZK9IWWKAW","","null","<img src=""img/flower3.png"" style=""width:200px; border:14px solid green;"">","null","","","","","","","","",""
"","image-keyboard-response","60","52699","0.0-60.0","3JWH6J9I9TZFJACSX135KLH72Q0NB0","A3KH1OG87C8DCM","3P7RGTLO6EZ76AO3386R8ZK9IWWKAW","","441.60000002384186","img/flower4.png","75","442","2","1","2","2","1,0,0,1,1,0,1,0,1","0,1,0,0,1,1,1,1,0","3",""
"","html-keyboard-response","61","53000","0.0-61.0","3JWH6J9I9TZFJACSX135KLH72Q0NB0","A3KH1OG87C8DCM","3P7RGTLO6EZ76AO3386R8ZK9IWWKAW","","null","<img src=""img/flower4.png"" style=""width:200px; border:14px solid green;"">","null","","","","","","","","",""
"","image-keyboard-response","62","53291","0.0-62.0","3JWH6J9I9TZFJACSX135KLH72Q0NB0","A3KH1OG87C8DCM","3P7RGTLO6EZ76AO3386R8ZK9IWWKAW","","289.5","img/flower3.png","75","290","2","1","1","2","1,0,0,1,1,0,1,0,1","0,1,0,0,1,1,1,1,0","3",""
"","html-keyboard-response","63","53593","0.0-63.0","3JWH6J9I9TZFJACSX135KLH72Q0NB0","A3KH1OG87C8DCM","3P7RGTLO6EZ76AO3386R8ZK9IWWKAW","","null","<img src=""img/flower3.png"" style=""width:200px; border:14px solid green;"">","null","","","","","","","","",""
"","image-keyboard-response","64","53987","0.0-64.0","3JWH6J9I9TZFJACSX135KLH72Q0NB0","A3KH1OG87C8DCM","3P7RGTLO6EZ76AO3386R8ZK9IWWKAW","","393.19999998807907","img/flower6.png","75","393.60000002384186","2","1","3","2","1,0,0,1,1,0,1,0,1","0,1,0,0,1,1,1,1,0","3",""
"","html-keyboard-response","65","54289","0.0-65.0","3JWH6J9I9TZFJACSX135KLH72Q0NB0","A3KH1OG87C8DCM","3P7RGTLO6EZ76AO3386R8ZK9IWWKAW","","null","<img src=""img/flower6.png"" style=""width:200px; border:14px solid green;"">","null","","","","","","","","",""
"","image-keyboard-response","66","54571","0.0-66.0","3JWH6J9I9TZFJACSX135KLH72Q0NB0","A3KH1OG87C8DCM","3P7RGTLO6EZ76AO3386R8ZK9IWWKAW","","281","img/flower6.png","75","281.30000001192093","2","1","3","2","1,0,0,1,1,0,1,0,1","0,1,0,0,1,1,1,1,0","3",""
"","html-keyboard-response","67","54872","0.0-67.0","3JWH6J9I9TZFJACSX135KLH72Q0NB0","A3KH1OG87C8DCM","3P7RGTLO6EZ76AO3386R8ZK9IWWKAW","","null","<img src=""img/flower6.png"" style=""width:200px; border:14px solid green;"">","null","","","","","","","","",""
"","image-keyboard-response","68","55235","0.0-68.0","3JWH6J9I9TZFJACSX135KLH72Q0NB0","A3KH1OG87C8DCM","3P7RGTLO6EZ76AO3386R8ZK9IWWKAW","","361.7999999523163","img/flower3.png","75","362.30000001192093","2","1","1","2","1,0,0,1,1,0,1,0,1","0,1,0,0,1,1,1,1,0","3",""
"","html-keyboard-response","69","55537","0.0-69.0","3JWH6J9I9TZFJACSX135KLH72Q0NB0","A3KH1OG87C8DCM","3P7RGTLO6EZ76AO3386R8ZK9IWWKAW","","null","<img src=""img/flower3.png"" style=""width:200px; border:14px solid green;"">","null","","","","","","","","",""
"","image-keyboard-response","70","55819","0.0-70.0","3JWH6J9I9TZFJACSX135KLH72Q0NB0","A3KH1OG87C8DCM","3P7RGTLO6EZ76AO3386R8ZK9IWWKAW","","281.39999997615814","img/flower3.png","75","281.80000001192093","2","1","1","2","1,0,0,1,1,0,1,0,1","0,1,0,0,1,1,1,1,0","3",""
"","html-keyboard-response","71","56120","0.0-71.0","3JWH6J9I9TZFJACSX135KLH72Q0NB0","A3KH1OG87C8DCM","3P7RGTLO6EZ76AO3386R8ZK9IWWKAW","","null","<img src=""img/flower3.png"" style=""width:200px; border:14px solid green;"">","null","","","","","","","","",""
"","image-keyboard-response","72","56355","0.0-72.0","3JWH6J9I9TZFJACSX135KLH72Q0NB0","A3KH1OG87C8DCM","3P7RGTLO6EZ76AO3386R8ZK9IWWKAW","","234","img/flower6.png","75","234.4000000357628","2","1","3","2","1,0,0,1,1,0,1,0,1","0,1,0,0,1,1,1,1,0","3",""
"","html-keyboard-response","73","56657","0.0-73.0","3JWH6J9I9TZFJACSX135KLH72Q0NB0","A3KH1OG87C8DCM","3P7RGTLO6EZ76AO3386R8ZK9IWWKAW","","null","<img src=""img/flower6.png"" style=""width:200px; border:14px solid green;"">","null","","","","","","","","",""
"","image-keyboard-response","74","56963","0.0-74.0","3JWH6J9I9TZFJACSX135KLH72Q0NB0","A3KH1OG87C8DCM","3P7RGTLO6EZ76AO3386R8ZK9IWWKAW","","305.30000001192093","img/flower4.png","75","305.80000001192093","2","1","2","2","1,0,0,1,1,0,1,0,1","0,1,0,0,1,1,1,1,0","3",""
"","html-keyboard-response","75","57264","0.0-75.0","3JWH6J9I9TZFJACSX135KLH72Q0NB0","A3KH1OG87C8DCM","3P7RGTLO6EZ76AO3386R8ZK9IWWKAW","","null","<img src=""img/flower4.png"" style=""width:200px; border:14px solid green;"">","null","","","","","","","","",""
"","image-keyboard-response","76","57587","0.0-76.0","3JWH6J9I9TZFJACSX135KLH72Q0NB0","A3KH1OG87C8DCM","3P7RGTLO6EZ76AO3386R8ZK9IWWKAW","","322.10000002384186","img/flower3.png","75","322.60000002384186","2","1","1","2","1,0,0,1,1,0,1,0,1","0,1,0,0,1,1,1,1,0","3",""
"","html-keyboard-response","77","57888","0.0-77.0","3JWH6J9I9TZFJACSX135KLH72Q0NB0","A3KH1OG87C8DCM","3P7RGTLO6EZ76AO3386R8ZK9IWWKAW","","null","<img src=""img/flower3.png"" style=""width:200px; border:14px solid green;"">","null","","","","","","","","",""
"","image-keyboard-response","78","58179","0.0-78.0","3JWH6J9I9TZFJACSX135KLH72Q0NB0","A3KH1OG87C8DCM","3P7RGTLO6EZ76AO3386R8ZK9IWWKAW","","289.5","img/flower4.png","75","290.19999998807907","2","1","2","2","1,0,0,1,1,0,1,0,1","0,1,0,0,1,1,1,1,0","3",""
"","html-keyboard-response","79","58481","0.0-79.0","3JWH6J9I9TZFJACSX135KLH72Q0NB0","A3KH1OG87C8DCM","3P7RGTLO6EZ76AO3386R8ZK9IWWKAW","","null","<img src=""img/flower4.png"" style=""width:200px; border:14px solid green;"">","null","","","","","","","","",""
"","image-keyboard-response","80","58835","0.0-80.0","3JWH6J9I9TZFJACSX135KLH72Q0NB0","A3KH1OG87C8DCM","3P7RGTLO6EZ76AO3386R8ZK9IWWKAW","","353.10000002384186","img/flower6.png","75","353.60000002384186","2","1","3","2","1,0,0,1,1,0,1,0,1","0,1,0,0,1,1,1,1,0","3",""
"","html-keyboard-response","81","59136","0.0-81.0","3JWH6J9I9TZFJACSX135KLH72Q0NB0","A3KH1OG87C8DCM","3P7RGTLO6EZ76AO3386R8ZK9IWWKAW","","null","<img src=""img/flower6.png"" style=""width:200px; border:14px solid green;"">","null","","","","","","","","",""
"","image-keyboard-response","82","59427","0.0-82.0","3JWH6J9I9TZFJACSX135KLH72Q0NB0","A3KH1OG87C8DCM","3P7RGTLO6EZ76AO3386R8ZK9IWWKAW","","289.9000000357628","img/flower3.png","75","290.4000000357628","2","1","1","2","1,0,0,1,1,0,1,0,1","0,1,0,0,1,1,1,1,0","3",""
"","html-keyboard-response","83","59729","0.0-83.0","3JWH6J9I9TZFJACSX135KLH72Q0NB0","A3KH1OG87C8DCM","3P7RGTLO6EZ76AO3386R8ZK9IWWKAW","","null","<img src=""img/flower3.png"" style=""width:200px; border:14px solid green;"">","null","","","","","","","","",""
"","image-keyboard-response","84","60027","0.0-84.0","3JWH6J9I9TZFJACSX135KLH72Q0NB0","A3KH1OG87C8DCM","3P7RGTLO6EZ76AO3386R8ZK9IWWKAW","","297.30000001192093","img/flower4.png","75","297.9000000357628","2","1","2","2","1,0,0,1,1,0,1,0,1","0,1,0,0,1,1,1,1,0","3",""
"","html-keyboard-response","85","60329","0.0-85.0","3JWH6J9I9TZFJACSX135KLH72Q0NB0","A3KH1OG87C8DCM","3P7RGTLO6EZ76AO3386R8ZK9IWWKAW","","null","<img src=""img/flower4.png"" style=""width:200px; border:14px solid green;"">","null","","","","","","","","",""
"","image-keyboard-response","86","60611","0.0-86.0","3JWH6J9I9TZFJACSX135KLH72Q0NB0","A3KH1OG87C8DCM","3P7RGTLO6EZ76AO3386R8ZK9IWWKAW","","281.19999998807907","img/flower3.png","75","281.69999998807907","2","1","1","2","1,0,0,1,1,0,1,0,1","0,1,0,0,1,1,1,1,0","3",""
"","html-keyboard-response","87","60927","0.0-87.0","3JWH6J9I9TZFJACSX135KLH72Q0NB0","A3KH1OG87C8DCM","3P7RGTLO6EZ76AO3386R8ZK9IWWKAW","","null","<img src=""img/flower3.png"" style=""width:200px; border:14px solid green;"">","null","","","","","","","","",""
"","image-keyboard-response","88","61283","0.0-88.0","3JWH6J9I9TZFJACSX135KLH72Q0NB0","A3KH1OG87C8DCM","3P7RGTLO6EZ76AO3386R8ZK9IWWKAW","","355.7000000476837","img/flower4.png","75","356.19999998807907","2","1","2","2","1,0,0,1,1,0,1,0,1","0,1,0,0,1,1,1,1,0","3",""
"","html-keyboard-response","89","61585","0.0-89.0","3JWH6J9I9TZFJACSX135KLH72Q0NB0","A3KH1OG87C8DCM","3P7RGTLO6EZ76AO3386R8ZK9IWWKAW","","null","<img src=""img/flower4.png"" style=""width:200px; border:14px solid green;"">","null","","","","","","","","",""
"","image-keyboard-response","90","61899","0.0-90.0","3JWH6J9I9TZFJACSX135KLH72Q0NB0","A3KH1OG87C8DCM","3P7RGTLO6EZ76AO3386R8ZK9IWWKAW","","313.4000000357628","img/flower3.png","75","313.9000000357628","2","1","1","2","1,0,0,1,1,0,1,0,1","0,1,0,0,1,1,1,1,0","3",""
"","html-keyboard-response","91","62201","0.0-91.0","3JWH6J9I9TZFJACSX135KLH72Q0NB0","A3KH1OG87C8DCM","3P7RGTLO6EZ76AO3386R8ZK9IWWKAW","","null","<img src=""img/flower3.png"" style=""width:200px; border:14px solid green;"">","null","","","","","","","","",""
"","image-keyboard-response","92","62515","0.0-92.0","3JWH6J9I9TZFJACSX135KLH72Q0NB0","A3KH1OG87C8DCM","3P7RGTLO6EZ76AO3386R8ZK9IWWKAW","","313.2000000476837","img/flower4.png","75","313.60000002384186","2","1","2","2","1,0,0,1,1,0,1,0,1","0,1,0,0,1,1,1,1,0","3",""
"","html-keyboard-response","93","62817","0.0-93.0","3JWH6J9I9TZFJACSX135KLH72Q0NB0","A3KH1OG87C8DCM","3P7RGTLO6EZ76AO3386R8ZK9IWWKAW","","null","<img src=""img/flower4.png"" style=""width:200px; border:14px solid green;"">","null","","","","","","","","",""
"","image-keyboard-response","94","63107","0.0-94.0","3JWH6J9I9TZFJACSX135KLH72Q0NB0","A3KH1OG87C8DCM","3P7RGTLO6EZ76AO3386R8ZK9IWWKAW","","289.89999997615814","img/flower3.png","75","290.2999999523163","2","1","1","2","1,0,0,1,1,0,1,0,1","0,1,0,0,1,1,1,1,0","3",""
"","html-keyboard-response","95","63409","0.0-95.0","3JWH6J9I9TZFJACSX135KLH72Q0NB0","A3KH1OG87C8DCM","3P7RGTLO6EZ76AO3386R8ZK9IWWKAW","","null","<img src=""img/flower3.png"" style=""width:200px; border:14px solid green;"">","null","","","","","","","","",""
"","image-keyboard-response","96","63739","0.0-96.0","3JWH6J9I9TZFJACSX135KLH72Q0NB0","A3KH1OG87C8DCM","3P7RGTLO6EZ76AO3386R8ZK9IWWKAW","","329.39999997615814","img/flower6.png","75","329.89999997615814","2","1","3","2","1,0,0,1,1,0,1,0,1","0,1,0,0,1,1,1,1,0","3",""
"","html-keyboard-response","97","64041","0.0-97.0","3JWH6J9I9TZFJACSX135KLH72Q0NB0","A3KH1OG87C8DCM","3P7RGTLO6EZ76AO3386R8ZK9IWWKAW","","null","<img src=""img/flower6.png"" style=""width:200px; border:14px solid green;"">","null","","","","","","","","",""
"","image-keyboard-response","98","64347","0.0-98.0","3JWH6J9I9TZFJACSX135KLH72Q0NB0","A3KH1OG87C8DCM","3P7RGTLO6EZ76AO3386R8ZK9IWWKAW","","305.10000002384186","img/flower4.png","75","305.5","2","1","2","2","1,0,0,1,1,0,1,0,1","0,1,0,0,1,1,1,1,0","3",""
"","html-keyboard-response","99","64663","0.0-99.0","3JWH6J9I9TZFJACSX135KLH72Q0NB0","A3KH1OG87C8DCM","3P7RGTLO6EZ76AO3386R8ZK9IWWKAW","","null","<img src=""img/flower4.png"" style=""width:200px; border:14px solid green;"">","null","","","","","","","","",""
"","image-keyboard-response","100","64971","0.0-100.0","3JWH6J9I9TZFJACSX135KLH72Q0NB0","A3KH1OG87C8DCM","3P7RGTLO6EZ76AO3386R8ZK9IWWKAW","","307.7000000476837","img/flower3.png","75","308.19999998807907","2","1","1","2","1,0,0,1,1,0,1,0,1","0,1,0,0,1,1,1,1,0","3",""
"","html-keyboard-response","101","65280","0.0-101.0","3JWH6J9I9TZFJACSX135KLH72Q0NB0","A3KH1OG87C8DCM","3P7RGTLO6EZ76AO3386R8ZK9IWWKAW","","null","<img src=""img/flower3.png"" style=""width:200px; border:14px solid green;"">","null","","","","","","","","",""
"","image-keyboard-response","102","65515","0.0-102.0","3JWH6J9I9TZFJACSX135KLH72Q0NB0","A3KH1OG87C8DCM","3P7RGTLO6EZ76AO3386R8ZK9IWWKAW","","234.4000000357628","img/flower6.png","75","234.80000001192093","2","1","3","2","1,0,0,1,1,0,1,0,1","0,1,0,0,1,1,1,1,0","3",""
"","html-keyboard-response","103","65817","0.0-103.0","3JWH6J9I9TZFJACSX135KLH72Q0NB0","A3KH1OG87C8DCM","3P7RGTLO6EZ76AO3386R8ZK9IWWKAW","","null","<img src=""img/flower6.png"" style=""width:200px; border:14px solid green;"">","null","","","","","","","","",""
"","image-keyboard-response","104","66323","0.0-104.0","3JWH6J9I9TZFJACSX135KLH72Q0NB0","A3KH1OG87C8DCM","3P7RGTLO6EZ76AO3386R8ZK9IWWKAW","","505.7000000476837","img/flower6.png","75","506.19999998807907","2","1","3","2","1,0,0,1,1,0,1,0,1","0,1,0,0,1,1,1,1,0","3",""
"","html-keyboard-response","105","66624","0.0-105.0","3JWH6J9I9TZFJACSX135KLH72Q0NB0","A3KH1OG87C8DCM","3P7RGTLO6EZ76AO3386R8ZK9IWWKAW","","null","<img src=""img/flower6.png"" style=""width:200px; border:14px solid green;"">","null","","","","","","","","",""
"","image-keyboard-response","106","66979","0.0-106.0","3JWH6J9I9TZFJACSX135KLH72Q0NB0","A3KH1OG87C8DCM","3P7RGTLO6EZ76AO3386R8ZK9IWWKAW","","353.9000000357628","img/flower3.png","75","354.5","2","1","1","2","1,0,0,1,1,0,1,0,1","0,1,0,0,1,1,1,1,0","3",""
"","html-keyboard-response","107","67281","0.0-107.0","3JWH6J9I9TZFJACSX135KLH72Q0NB0","A3KH1OG87C8DCM","3P7RGTLO6EZ76AO3386R8ZK9IWWKAW","","null","<img src=""img/flower3.png"" style=""width:200px; border:14px solid green;"">","null","","","","","","","","",""
"","image-keyboard-response","108","67571","0.0-108.0","3JWH6J9I9TZFJACSX135KLH72Q0NB0","A3KH1OG87C8DCM","3P7RGTLO6EZ76AO3386R8ZK9IWWKAW","","289.7000000476837","img/flower4.png","75","290.19999998807907","2","1","2","2","1,0,0,1,1,0,1,0,1","0,1,0,0,1,1,1,1,0","3",""
"","html-keyboard-response","109","67873","0.0-109.0","3JWH6J9I9TZFJACSX135KLH72Q0NB0","A3KH1OG87C8DCM","3P7RGTLO6EZ76AO3386R8ZK9IWWKAW","","null","<img src=""img/flower4.png"" style=""width:200px; border:14px solid green;"">","null","","","","","","","","",""
"","image-keyboard-response","110","68179","0.0-110.0","3JWH6J9I9TZFJACSX135KLH72Q0NB0","A3KH1OG87C8DCM","3P7RGTLO6EZ76AO3386R8ZK9IWWKAW","","305.39999997615814","img/flower6.png","75","305.89999997615814","2","1","3","2","1,0,0,1,1,0,1,0,1","0,1,0,0,1,1,1,1,0","3",""
"","html-keyboard-response","111","68482","0.0-111.0","3JWH6J9I9TZFJACSX135KLH72Q0NB0","A3KH1OG87C8DCM","3P7RGTLO6EZ76AO3386R8ZK9IWWKAW","","null","<img src=""img/flower6.png"" style=""width:200px; border:14px solid green;"">","null","","","","","","","","",""
"","image-keyboard-response","112","68811","0.0-112.0","3JWH6J9I9TZFJACSX135KLH72Q0NB0","A3KH1OG87C8DCM","3P7RGTLO6EZ76AO3386R8ZK9IWWKAW","","328.7000000476837","img/flower3.png","75","329.19999998807907","2","1","1","2","1,0,0,1,1,0,1,0,1","0,1,0,0,1,1,1,1,0","3",""
"","html-keyboard-response","113","69113","0.0-113.0","3JWH6J9I9TZFJACSX135KLH72Q0NB0","A3KH1OG87C8DCM","3P7RGTLO6EZ76AO3386R8ZK9IWWKAW","","null","<img src=""img/flower3.png"" style=""width:200px; border:14px solid green;"">","null","","","","","","","","",""
"","image-keyboard-response","114","69491","0.0-114.0","3JWH6J9I9TZFJACSX135KLH72Q0NB0","A3KH1OG87C8DCM","3P7RGTLO6EZ76AO3386R8ZK9IWWKAW","","377.80000001192093","img/flower6.png","75","378.19999998807907","2","1","3","2","1,0,0,1,1,0,1,0,1","0,1,0,0,1,1,1,1,0","3",""
"","html-keyboard-response","115","69793","0.0-115.0","3JWH6J9I9TZFJACSX135KLH72Q0NB0","A3KH1OG87C8DCM","3P7RGTLO6EZ76AO3386R8ZK9IWWKAW","","null","<img src=""img/flower6.png"" style=""width:200px; border:14px solid green;"">","null","","","","","","","","",""
"","image-keyboard-response","116","70155","0.0-116.0","3JWH6J9I9TZFJACSX135KLH72Q0NB0","A3KH1OG87C8DCM","3P7RGTLO6EZ76AO3386R8ZK9IWWKAW","","361.4000000357628","img/flower6.png","75","361.80000001192093","2","1","3","2","1,0,0,1,1,0,1,0,1","0,1,0,0,1,1,1,1,0","3",""
"","html-keyboard-response","117","70457","0.0-117.0","3JWH6J9I9TZFJACSX135KLH72Q0NB0","A3KH1OG87C8DCM","3P7RGTLO6EZ76AO3386R8ZK9IWWKAW","","null","<img src=""img/flower6.png"" style=""width:200px; border:14px solid green;"">","null","","","","","","","","",""
"","image-keyboard-response","118","70739","0.0-118.0","3JWH6J9I9TZFJACSX135KLH72Q0NB0","A3KH1OG87C8DCM","3P7RGTLO6EZ76AO3386R8ZK9IWWKAW","","281.2000000476837","img/flower4.png","75","281.69999998807907","2","1","2","2","1,0,0,1,1,0,1,0,1","0,1,0,0,1,1,1,1,0","3",""
"","html-keyboard-response","119","71041","0.0-119.0","3JWH6J9I9TZFJACSX135KLH72Q0NB0","A3KH1OG87C8DCM","3P7RGTLO6EZ76AO3386R8ZK9IWWKAW","","null","<img src=""img/flower4.png"" style=""width:200px; border:14px solid green;"">","null","","","","","","","","",""
"","image-keyboard-response","120","71307","0.0-120.0","3JWH6J9I9TZFJACSX135KLH72Q0NB0","A3KH1OG87C8DCM","3P7RGTLO6EZ76AO3386R8ZK9IWWKAW","","265.89999997615814","img/flower3.png","75","266.39999997615814","2","1","1","2","1,0,0,1,1,0,1,0,1","0,1,0,0,1,1,1,1,0","3",""
"","html-keyboard-response","121","71609","0.0-121.0","3JWH6J9I9TZFJACSX135KLH72Q0NB0","A3KH1OG87C8DCM","3P7RGTLO6EZ76AO3386R8ZK9IWWKAW","","null","<img src=""img/flower3.png"" style=""width:200px; border:14px solid green;"">","null","","","","","","","","",""
"","image-keyboard-response","122","71883","0.0-122.0","3JWH6J9I9TZFJACSX135KLH72Q0NB0","A3KH1OG87C8DCM","3P7RGTLO6EZ76AO3386R8ZK9IWWKAW","","273.30000001192093","img/flower4.png","75","273.80000001192093","2","1","2","2","1,0,0,1,1,0,1,0,1","0,1,0,0,1,1,1,1,0","3",""
"","html-keyboard-response","123","72185","0.0-123.0","3JWH6J9I9TZFJACSX135KLH72Q0NB0","A3KH1OG87C8DCM","3P7RGTLO6EZ76AO3386R8ZK9IWWKAW","","null","<img src=""img/flower4.png"" style=""width:200px; border:14px solid green;"">","null","","","","","","","","",""
"","image-keyboard-response","124","72467","0.0-124.0","3JWH6J9I9TZFJACSX135KLH72Q0NB0","A3KH1OG87C8DCM","3P7RGTLO6EZ76AO3386R8ZK9IWWKAW","","281.89999997615814","img/flower4.png","75","282.5","2","1","2","2","1,0,0,1,1,0,1,0,1","0,1,0,0,1,1,1,1,0","3",""
"","html-keyboard-response","125","72769","0.0-125.0","3JWH6J9I9TZFJACSX135KLH72Q0NB0","A3KH1OG87C8DCM","3P7RGTLO6EZ76AO3386R8ZK9IWWKAW","","null","<img src=""img/flower4.png"" style=""width:200px; border:14px solid green;"">","null","","","","","","","","",""
"","image-keyboard-response","126","73059","0.0-126.0","3JWH6J9I9TZFJACSX135KLH72Q0NB0","A3KH1OG87C8DCM","3P7RGTLO6EZ76AO3386R8ZK9IWWKAW","","289.4000000357628","img/flower4.png","75","289.9000000357628","2","1","2","2","1,0,0,1,1,0,1,0,1","0,1,0,0,1,1,1,1,0","3",""
"","html-keyboard-response","127","73360","0.0-127.0","3JWH6J9I9TZFJACSX135KLH72Q0NB0","A3KH1OG87C8DCM","3P7RGTLO6EZ76AO3386R8ZK9IWWKAW","","null","<img src=""img/flower4.png"" style=""width:200px; border:14px solid green;"">","null","","","","","","","","",""
"","image-keyboard-response","128","73635","0.0-128.0","3JWH6J9I9TZFJACSX135KLH72Q0NB0","A3KH1OG87C8DCM","3P7RGTLO6EZ76AO3386R8ZK9IWWKAW","","274","img/flower4.png","75","274.5999999642372","2","1","2","2","1,0,0,1,1,0,1,0,1","0,1,0,0,1,1,1,1,0","3",""
"","html-keyboard-response","129","73937","0.0-129.0","3JWH6J9I9TZFJACSX135KLH72Q0NB0","A3KH1OG87C8DCM","3P7RGTLO6EZ76AO3386R8ZK9IWWKAW","","null","<img src=""img/flower4.png"" style=""width:200px; border:14px solid green;"">","null","","","","","","","","",""
"","image-keyboard-response","130","74283","0.0-130.0","3JWH6J9I9TZFJACSX135KLH72Q0NB0","A3KH1OG87C8DCM","3P7RGTLO6EZ76AO3386R8ZK9IWWKAW","","345.5","img/flower4.png","75","346","2","1","2","2","1,0,0,1,1,0,1,0,1","0,1,0,0,1,1,1,1,0","3",""
"","html-keyboard-response","131","74585","0.0-131.0","3JWH6J9I9TZFJACSX135KLH72Q0NB0","A3KH1OG87C8DCM","3P7RGTLO6EZ76AO3386R8ZK9IWWKAW","","null","<img src=""img/flower4.png"" style=""width:200px; border:14px solid green;"">","null","","","","","","","","",""
"","image-keyboard-response","132","74835","0.0-132.0","3JWH6J9I9TZFJACSX135KLH72Q0NB0","A3KH1OG87C8DCM","3P7RGTLO6EZ76AO3386R8ZK9IWWKAW","","249.20000004768372","img/flower3.png","75","249.80000001192093","2","1","1","2","1,0,0,1,1,0,1,0,1","0,1,0,0,1,1,1,1,0","3",""
"","html-keyboard-response","133","75137","0.0-133.0","3JWH6J9I9TZFJACSX135KLH72Q0NB0","A3KH1OG87C8DCM","3P7RGTLO6EZ76AO3386R8ZK9IWWKAW","","null","<img src=""img/flower3.png"" style=""width:200px; border:14px solid green;"">","null","","","","","","","","",""
"","image-keyboard-response","134","75419","0.0-134.0","3JWH6J9I9TZFJACSX135KLH72Q0NB0","A3KH1OG87C8DCM","3P7RGTLO6EZ76AO3386R8ZK9IWWKAW","","281.5","img/flower4.png","75","282.10000002384186","2","1","2","2","1,0,0,1,1,0,1,0,1","0,1,0,0,1,1,1,1,0","3",""
"","html-keyboard-response","135","75726","0.0-135.0","3JWH6J9I9TZFJACSX135KLH72Q0NB0","A3KH1OG87C8DCM","3P7RGTLO6EZ76AO3386R8ZK9IWWKAW","","null","<img src=""img/flower4.png"" style=""width:200px; border:14px solid green;"">","null","","","","","","","","",""
"","image-keyboard-response","136","76003","0.0-136.0","3JWH6J9I9TZFJACSX135KLH72Q0NB0","A3KH1OG87C8DCM","3P7RGTLO6EZ76AO3386R8ZK9IWWKAW","","276.2000000476837","img/flower6.png","75","276.69999998807907","2","1","3","2","1,0,0,1,1,0,1,0,1","0,1,0,0,1,1,1,1,0","3",""
"","html-keyboard-response","137","76305","0.0-137.0","3JWH6J9I9TZFJACSX135KLH72Q0NB0","A3KH1OG87C8DCM","3P7RGTLO6EZ76AO3386R8ZK9IWWKAW","","null","<img src=""img/flower6.png"" style=""width:200px; border:14px solid green;"">","null","","","","","","","","",""
"","image-keyboard-response","138","76699","0.0-138.0","3JWH6J9I9TZFJACSX135KLH72Q0NB0","A3KH1OG87C8DCM","3P7RGTLO6EZ76AO3386R8ZK9IWWKAW","","393.89999997615814","img/flower6.png","75","394.30000001192093","2","1","3","2","1,0,0,1,1,0,1,0,1","0,1,0,0,1,1,1,1,0","3",""
"","html-keyboard-response","139","77001","0.0-139.0","3JWH6J9I9TZFJACSX135KLH72Q0NB0","A3KH1OG87C8DCM","3P7RGTLO6EZ76AO3386R8ZK9IWWKAW","","null","<img src=""img/flower6.png"" style=""width:200px; border:14px solid green;"">","null","","","","","","","","",""
"","image-keyboard-response","140","77307","0.0-140.0","3JWH6J9I9TZFJACSX135KLH72Q0NB0","A3KH1OG87C8DCM","3P7RGTLO6EZ76AO3386R8ZK9IWWKAW","","305.7000000476837","img/flower6.png","75","306.0999999642372","2","1","3","2","1,0,0,1,1,0,1,0,1","0,1,0,0,1,1,1,1,0","3",""
"","html-keyboard-response","141","77609","0.0-141.0","3JWH6J9I9TZFJACSX135KLH72Q0NB0","A3KH1OG87C8DCM","3P7RGTLO6EZ76AO3386R8ZK9IWWKAW","","null","<img src=""img/flower6.png"" style=""width:200px; border:14px solid green;"">","null","","","","","","","","",""
"","image-keyboard-response","142","77931","0.0-142.0","3JWH6J9I9TZFJACSX135KLH72Q0NB0","A3KH1OG87C8DCM","3P7RGTLO6EZ76AO3386R8ZK9IWWKAW","","321.39999997615814","img/flower4.png","75","321.80000001192093","2","1","2","2","1,0,0,1,1,0,1,0,1","0,1,0,0,1,1,1,1,0","3",""
"","html-keyboard-response","143","78232","0.0-143.0","3JWH6J9I9TZFJACSX135KLH72Q0NB0","A3KH1OG87C8DCM","3P7RGTLO6EZ76AO3386R8ZK9IWWKAW","","null","<img src=""img/flower4.png"" style=""width:200px; border:14px solid green;"">","null","","","","","","","","",""
"","image-keyboard-response","144","78507","0.0-144.0","3JWH6J9I9TZFJACSX135KLH72Q0NB0","A3KH1OG87C8DCM","3P7RGTLO6EZ76AO3386R8ZK9IWWKAW","","274.19999998807907","img/flower3.png","75","274.5999999642372","2","1","1","2","1,0,0,1,1,0,1,0,1","0,1,0,0,1,1,1,1,0","3",""
"","html-keyboard-response","145","78809","0.0-145.0","3JWH6J9I9TZFJACSX135KLH72Q0NB0","A3KH1OG87C8DCM","3P7RGTLO6EZ76AO3386R8ZK9IWWKAW","","null","<img src=""img/flower3.png"" style=""width:200px; border:14px solid green;"">","null","","","","","","","","",""
"","image-keyboard-response","146","79123","0.0-146.0","3JWH6J9I9TZFJACSX135KLH72Q0NB0","A3KH1OG87C8DCM","3P7RGTLO6EZ76AO3386R8ZK9IWWKAW","","313.60000002384186","img/flower6.png","75","314","2","1","3","2","1,0,0,1,1,0,1,0,1","0,1,0,0,1,1,1,1,0","3",""
"","html-keyboard-response","147","79425","0.0-147.0","3JWH6J9I9TZFJACSX135KLH72Q0NB0","A3KH1OG87C8DCM","3P7RGTLO6EZ76AO3386R8ZK9IWWKAW","","null","<img src=""img/flower6.png"" style=""width:200px; border:14px solid green;"">","null","","","","","","","","",""
"","image-keyboard-response","148","79755","0.0-148.0","3JWH6J9I9TZFJACSX135KLH72Q0NB0","A3KH1OG87C8DCM","3P7RGTLO6EZ76AO3386R8ZK9IWWKAW","","329.2000000476837","img/flower6.png","75","329.69999998807907","2","1","3","2","1,0,0,1,1,0,1,0,1","0,1,0,0,1,1,1,1,0","3",""
"","html-keyboard-response","149","80057","0.0-149.0","3JWH6J9I9TZFJACSX135KLH72Q0NB0","A3KH1OG87C8DCM","3P7RGTLO6EZ76AO3386R8ZK9IWWKAW","","null","<img src=""img/flower6.png"" style=""width:200px; border:14px solid green;"">","null","","","","","","","","",""
"","image-keyboard-response","150","80379","0.0-150.0","3JWH6J9I9TZFJACSX135KLH72Q0NB0","A3KH1OG87C8DCM","3P7RGTLO6EZ76AO3386R8ZK9IWWKAW","","321.80000001192093","img/flower6.png","75","322.30000001192093","2","1","3","2","1,0,0,1,1,0,1,0,1","0,1,0,0,1,1,1,1,0","3",""
"","html-keyboard-response","151","80681","0.0-151.0","3JWH6J9I9TZFJACSX135KLH72Q0NB0","A3KH1OG87C8DCM","3P7RGTLO6EZ76AO3386R8ZK9IWWKAW","","null","<img src=""img/flower6.png"" style=""width:200px; border:14px solid green;"">","null","","","","","","","","",""
"","image-keyboard-response","152","80979","0.0-152.0","3JWH6J9I9TZFJACSX135KLH72Q0NB0","A3KH1OG87C8DCM","3P7RGTLO6EZ76AO3386R8ZK9IWWKAW","","297.60000002384186","img/flower6.png","75","298","2","1","3","2","1,0,0,1,1,0,1,0,1","0,1,0,0,1,1,1,1,0","3",""
"","html-keyboard-response","153","81281","0.0-153.0","3JWH6J9I9TZFJACSX135KLH72Q0NB0","A3KH1OG87C8DCM","3P7RGTLO6EZ76AO3386R8ZK9IWWKAW","","null","<img src=""img/flower6.png"" style=""width:200px; border:14px solid green;"">","null","","","","","","","","",""
"","image-keyboard-response","154","81571","0.0-154.0","3JWH6J9I9TZFJACSX135KLH72Q0NB0","A3KH1OG87C8DCM","3P7RGTLO6EZ76AO3386R8ZK9IWWKAW","","289.2000000476837","img/flower4.png","75","289.60000002384186","2","1","2","2","1,0,0,1,1,0,1,0,1","0,1,0,0,1,1,1,1,0","3",""
"","html-keyboard-response","155","81873","0.0-155.0","3JWH6J9I9TZFJACSX135KLH72Q0NB0","A3KH1OG87C8DCM","3P7RGTLO6EZ76AO3386R8ZK9IWWKAW","","null","<img src=""img/flower4.png"" style=""width:200px; border:14px solid green;"">","null","","","","","","","","",""
"","image-keyboard-response","156","82179","0.0-156.0","3JWH6J9I9TZFJACSX135KLH72Q0NB0","A3KH1OG87C8DCM","3P7RGTLO6EZ76AO3386R8ZK9IWWKAW","","305.7000000476837","img/flower3.png","75","306.10000002384186","2","1","1","2","1,0,0,1,1,0,1,0,1","0,1,0,0,1,1,1,1,0","3",""
"","html-keyboard-response","157","82481","0.0-157.0","3JWH6J9I9TZFJACSX135KLH72Q0NB0","A3KH1OG87C8DCM","3P7RGTLO6EZ76AO3386R8ZK9IWWKAW","","null","<img src=""img/flower3.png"" style=""width:200px; border:14px solid green;"">","null","","","","","","","","",""
"","image-keyboard-response","158","82683","0.0-158.0","3JWH6J9I9TZFJACSX135KLH72Q0NB0","A3KH1OG87C8DCM","3P7RGTLO6EZ76AO3386R8ZK9IWWKAW","","201.39999997615814","img/flower4.png","75","201.9000000357628","2","1","2","2","1,0,0,1,1,0,1,0,1","0,1,0,0,1,1,1,1,0","3",""
"","html-keyboard-response","159","82985","0.0-159.0","3JWH6J9I9TZFJACSX135KLH72Q0NB0","A3KH1OG87C8DCM","3P7RGTLO6EZ76AO3386R8ZK9IWWKAW","","null","<img src=""img/flower4.png"" style=""width:200px; border:14px solid green;"">","null","","","","","","","","",""
"","image-keyboard-response","160","83267","0.0-160.0","3JWH6J9I9TZFJACSX135KLH72Q0NB0","A3KH1OG87C8DCM","3P7RGTLO6EZ76AO3386R8ZK9IWWKAW","","281.7000000476837","img/flower6.png","75","282.19999998807907","2","1","3","2","1,0,0,1,1,0,1,0,1","0,1,0,0,1,1,1,1,0","3",""
"","html-keyboard-response","161","83569","0.0-161.0","3JWH6J9I9TZFJACSX135KLH72Q0NB0","A3KH1OG87C8DCM","3P7RGTLO6EZ76AO3386R8ZK9IWWKAW","","null","<img src=""img/flower6.png"" style=""width:200px; border:14px solid green;"">","null","","","","","","","","",""
"","image-keyboard-response","162","83843","0.0-162.0","3JWH6J9I9TZFJACSX135KLH72Q0NB0","A3KH1OG87C8DCM","3P7RGTLO6EZ76AO3386R8ZK9IWWKAW","","273.30000001192093","img/flower4.png","75","273.80000001192093","2","1","2","2","1,0,0,1,1,0,1,0,1","0,1,0,0,1,1,1,1,0","3",""
"","html-keyboard-response","163","84145","0.0-163.0","3JWH6J9I9TZFJACSX135KLH72Q0NB0","A3KH1OG87C8DCM","3P7RGTLO6EZ76AO3386R8ZK9IWWKAW","","null","<img src=""img/flower4.png"" style=""width:200px; border:14px solid green;"">","null","","","","","","","","",""
"","image-keyboard-response","164","84363","0.0-164.0","3JWH6J9I9TZFJACSX135KLH72Q0NB0","A3KH1OG87C8DCM","3P7RGTLO6EZ76AO3386R8ZK9IWWKAW","","217.70000004768372","img/flower4.png","75","218.30000001192093","2","1","2","2","1,0,0,1,1,0,1,0,1","0,1,0,0,1,1,1,1,0","3",""
"","html-keyboard-response","165","84665","0.0-165.0","3JWH6J9I9TZFJACSX135KLH72Q0NB0","A3KH1OG87C8DCM","3P7RGTLO6EZ76AO3386R8ZK9IWWKAW","","null","<img src=""img/flower4.png"" style=""width:200px; border:14px solid green;"">","null","","","","","","","","",""
"","image-keyboard-response","166","85139","0.0-166.0","3JWH6J9I9TZFJACSX135KLH72Q0NB0","A3KH1OG87C8DCM","3P7RGTLO6EZ76AO3386R8ZK9IWWKAW","","473.10000002384186","img/flower4.png","75","473.69999998807907","2","1","2","2","1,0,0,1,1,0,1,0,1","0,1,0,0,1,1,1,1,0","3",""
"","html-keyboard-response","167","85441","0.0-167.0","3JWH6J9I9TZFJACSX135KLH72Q0NB0","A3KH1OG87C8DCM","3P7RGTLO6EZ76AO3386R8ZK9IWWKAW","","null","<img src=""img/flower4.png"" style=""width:200px; border:14px solid green;"">","null","","","","","","","","",""
"","image-keyboard-response","168","85699","0.0-168.0","3JWH6J9I9TZFJACSX135KLH72Q0NB0","A3KH1OG87C8DCM","3P7RGTLO6EZ76AO3386R8ZK9IWWKAW","","257.30000001192093","img/flower3.png","75","257.69999998807907","2","1","1","2","1,0,0,1,1,0,1,0,1","0,1,0,0,1,1,1,1,0","3",""
"","html-keyboard-response","169","86001","0.0-169.0","3JWH6J9I9TZFJACSX135KLH72Q0NB0","A3KH1OG87C8DCM","3P7RGTLO6EZ76AO3386R8ZK9IWWKAW","","null","<img src=""img/flower3.png"" style=""width:200px; border:14px solid green;"">","null","","","","","","","","",""
"","image-keyboard-response","170","86315","0.0-170.0","3JWH6J9I9TZFJACSX135KLH72Q0NB0","A3KH1OG87C8DCM","3P7RGTLO6EZ76AO3386R8ZK9IWWKAW","","313.80000001192093","img/flower3.png","75","314.2999999523163","2","1","1","2","1,0,0,1,1,0,1,0,1","0,1,0,0,1,1,1,1,0","3",""
"","html-keyboard-response","171","86617","0.0-171.0","3JWH6J9I9TZFJACSX135KLH72Q0NB0","A3KH1OG87C8DCM","3P7RGTLO6EZ76AO3386R8ZK9IWWKAW","","null","<img src=""img/flower3.png"" style=""width:200px; border:14px solid green;"">","null","","","","","","","","",""
"","image-keyboard-response","172","86955","0.0-172.0","3JWH6J9I9TZFJACSX135KLH72Q0NB0","A3KH1OG87C8DCM","3P7RGTLO6EZ76AO3386R8ZK9IWWKAW","","337.4000000357628","img/flower4.png","75","337.9000000357628","2","1","2","2","1,0,0,1,1,0,1,0,1","0,1,0,0,1,1,1,1,0","3",""
"","html-keyboard-response","173","87257","0.0-173.0","3JWH6J9I9TZFJACSX135KLH72Q0NB0","A3KH1OG87C8DCM","3P7RGTLO6EZ76AO3386R8ZK9IWWKAW","","null","<img src=""img/flower4.png"" style=""width:200px; border:14px solid green;"">","null","","","","","","","","",""
"","image-keyboard-response","174","87531","0.0-174.0","3JWH6J9I9TZFJACSX135KLH72Q0NB0","A3KH1OG87C8DCM","3P7RGTLO6EZ76AO3386R8ZK9IWWKAW","","273.10000002384186","img/flower3.png","75","273.60000002384186","2","1","1","2","1,0,0,1,1,0,1,0,1","0,1,0,0,1,1,1,1,0","3",""
"","html-keyboard-response","175","87833","0.0-175.0","3JWH6J9I9TZFJACSX135KLH72Q0NB0","A3KH1OG87C8DCM","3P7RGTLO6EZ76AO3386R8ZK9IWWKAW","","null","<img src=""img/flower3.png"" style=""width:200px; border:14px solid green;"">","null","","","","","","","","",""
"","image-keyboard-response","176","88115","0.0-176.0","3JWH6J9I9TZFJACSX135KLH72Q0NB0","A3KH1OG87C8DCM","3P7RGTLO6EZ76AO3386R8ZK9IWWKAW","","281.7000000476837","img/flower6.png","75","282.10000002384186","2","1","3","2","1,0,0,1,1,0,1,0,1","0,1,0,0,1,1,1,1,0","3",""
"","html-keyboard-response","177","88417","0.0-177.0","3JWH6J9I9TZFJACSX135KLH72Q0NB0","A3KH1OG87C8DCM","3P7RGTLO6EZ76AO3386R8ZK9IWWKAW","","null","<img src=""img/flower6.png"" style=""width:200px; border:14px solid green;"">","null","","","","","","","","",""
"","image-keyboard-response","178","88659","0.0-178.0","3JWH6J9I9TZFJACSX135KLH72Q0NB0","A3KH1OG87C8DCM","3P7RGTLO6EZ76AO3386R8ZK9IWWKAW","","241.4000000357628","img/flower6.png","75","241.79999995231628","2","1","3","2","1,0,0,1,1,0,1,0,1","0,1,0,0,1,1,1,1,0","3",""
"","html-keyboard-response","179","88975","0.0-179.0","3JWH6J9I9TZFJACSX135KLH72Q0NB0","A3KH1OG87C8DCM","3P7RGTLO6EZ76AO3386R8ZK9IWWKAW","","null","<img src=""img/flower6.png"" style=""width:200px; border:14px solid green;"">","null","","","","","","","","",""
"","image-keyboard-response","180","89267","0.0-180.0","3JWH6J9I9TZFJACSX135KLH72Q0NB0","A3KH1OG87C8DCM","3P7RGTLO6EZ76AO3386R8ZK9IWWKAW","","291.7000000476837","img/flower6.png","75","292.19999998807907","2","1","3","2","1,0,0,1,1,0,1,0,1","0,1,0,0,1,1,1,1,0","3",""
"","html-keyboard-response","181","89569","0.0-181.0","3JWH6J9I9TZFJACSX135KLH72Q0NB0","A3KH1OG87C8DCM","3P7RGTLO6EZ76AO3386R8ZK9IWWKAW","","null","<img src=""img/flower6.png"" style=""width:200px; border:14px solid green;"">","null","","","","","","","","",""
"","image-keyboard-response","182","89843","0.0-182.0","3JWH6J9I9TZFJACSX135KLH72Q0NB0","A3KH1OG87C8DCM","3P7RGTLO6EZ76AO3386R8ZK9IWWKAW","","273.30000001192093","img/flower1.png","75","273.69999998807907","2","0","3","1","1,0.333,0.333,0.333,1,0.333,0.333,0.333,1","1,0.333,0.333,0.333,1,0.333,0.333,0.333,1","1",""
"","html-keyboard-response","183","90145","0.0-183.0","3JWH6J9I9TZFJACSX135KLH72Q0NB0","A3KH1OG87C8DCM","3P7RGTLO6EZ76AO3386R8ZK9IWWKAW","","null","<img src=""img/flower1.png"" style=""width:200px;border:14px solid red;"">","null","","","","","","","","",""
"","image-keyboard-response","184","90555","0.0-184.0","3JWH6J9I9TZFJACSX135KLH72Q0NB0","A3KH1OG87C8DCM","3P7RGTLO6EZ76AO3386R8ZK9IWWKAW","","409.9000000357628","img/flower5.png","75","410.4000000357628","2","0","1","1","1,0.333,0.333,0.333,1,0.333,0.333,0.333,1","1,0.333,0.333,0.333,1,0.333,0.333,0.333,1","1",""
"","html-keyboard-response","185","90857","0.0-185.0","3JWH6J9I9TZFJACSX135KLH72Q0NB0","A3KH1OG87C8DCM","3P7RGTLO6EZ76AO3386R8ZK9IWWKAW","","null","<img src=""img/flower5.png"" style=""width:200px;border:14px solid red;"">","null","","","","","","","","",""
"","image-keyboard-response","186","91275","0.0-186.0","3JWH6J9I9TZFJACSX135KLH72Q0NB0","A3KH1OG87C8DCM","3P7RGTLO6EZ76AO3386R8ZK9IWWKAW","","417.80000001192093","img/flower1.png","76","418.19999998807907","3","1","3","1","1,0.333,0.333,0.333,1,0.333,0.333,0.333,1","1,0.333,0.333,0.333,1,0.333,0.333,0.333,1","1",""
"","html-keyboard-response","187","91577","0.0-187.0","3JWH6J9I9TZFJACSX135KLH72Q0NB0","A3KH1OG87C8DCM","3P7RGTLO6EZ76AO3386R8ZK9IWWKAW","","null","<img src=""img/flower1.png"" style=""width:200px; border:14px solid green;"">","null","","","","","","","","",""
"","image-keyboard-response","188","92091","0.0-188.0","3JWH6J9I9TZFJACSX135KLH72Q0NB0","A3KH1OG87C8DCM","3P7RGTLO6EZ76AO3386R8ZK9IWWKAW","","513.6999999880791","img/flower2.png","76","514.2999999523163","3","0","2","1","1,0.333,0.333,0.333,1,0.333,0.333,0.333,1","1,0.333,0.333,0.333,1,0.333,0.333,0.333,1","1",""
"","html-keyboard-response","189","92393","0.0-189.0","3JWH6J9I9TZFJACSX135KLH72Q0NB0","A3KH1OG87C8DCM","3P7RGTLO6EZ76AO3386R8ZK9IWWKAW","","null","<img src=""img/flower2.png"" style=""width:200px;border:14px solid red;"">","null","","","","","","","","",""
"","image-keyboard-response","190","92851","0.0-190.0","3JWH6J9I9TZFJACSX135KLH72Q0NB0","A3KH1OG87C8DCM","3P7RGTLO6EZ76AO3386R8ZK9IWWKAW","","457.80000001192093","img/flower1.png","75","458.89999997615814","2","0","3","1","1,0.333,0.333,0.333,1,0.333,0.333,0.333,1","1,0.333,0.333,0.333,1,0.333,0.333,0.333,1","1",""
"","html-keyboard-response","191","93153","0.0-191.0","3JWH6J9I9TZFJACSX135KLH72Q0NB0","A3KH1OG87C8DCM","3P7RGTLO6EZ76AO3386R8ZK9IWWKAW","","null","<img src=""img/flower1.png"" style=""width:200px;border:14px solid red;"">","null","","","","","","","","",""
"","image-keyboard-response","192","93507","0.0-192.0","3JWH6J9I9TZFJACSX135KLH72Q0NB0","A3KH1OG87C8DCM","3P7RGTLO6EZ76AO3386R8ZK9IWWKAW","","352.9000000357628","img/flower2.png","76","353.30000001192093","3","1","2","1","1,0.333,0.333,0.333,1,0.333,0.333,0.333,1","1,0.333,0.333,0.333,1,0.333,0.333,0.333,1","1",""
"","html-keyboard-response","193","93809","0.0-193.0","3JWH6J9I9TZFJACSX135KLH72Q0NB0","A3KH1OG87C8DCM","3P7RGTLO6EZ76AO3386R8ZK9IWWKAW","","null","<img src=""img/flower2.png"" style=""width:200px; border:14px solid green;"">","null","","","","","","","","",""
"","image-keyboard-response","194","94091","0.0-194.0","3JWH6J9I9TZFJACSX135KLH72Q0NB0","A3KH1OG87C8DCM","3P7RGTLO6EZ76AO3386R8ZK9IWWKAW","","281.5","img/flower1.png","76","282.10000002384186","3","1","3","1","1,0.333,0.333,0.333,1,0.333,0.333,0.333,1","1,0.333,0.333,0.333,1,0.333,0.333,0.333,1","1",""
"","html-keyboard-response","195","94393","0.0-195.0","3JWH6J9I9TZFJACSX135KLH72Q0NB0","A3KH1OG87C8DCM","3P7RGTLO6EZ76AO3386R8ZK9IWWKAW","","null","<img src=""img/flower1.png"" style=""width:200px; border:14px solid green;"">","null","","","","","","","","",""
"","image-keyboard-response","196","94795","0.0-196.0","3JWH6J9I9TZFJACSX135KLH72Q0NB0","A3KH1OG87C8DCM","3P7RGTLO6EZ76AO3386R8ZK9IWWKAW","","401.10000002384186","img/flower2.png","76","401.69999998807907","3","1","2","1","1,0.333,0.333,0.333,1,0.333,0.333,0.333,1","1,0.333,0.333,0.333,1,0.333,0.333,0.333,1","1",""
"","html-keyboard-response","197","95097","0.0-197.0","3JWH6J9I9TZFJACSX135KLH72Q0NB0","A3KH1OG87C8DCM","3P7RGTLO6EZ76AO3386R8ZK9IWWKAW","","null","<img src=""img/flower2.png"" style=""width:200px; border:14px solid green;"">","null","","","","","","","","",""
"","image-keyboard-response","198","95419","0.0-198.0","3JWH6J9I9TZFJACSX135KLH72Q0NB0","A3KH1OG87C8DCM","3P7RGTLO6EZ76AO3386R8ZK9IWWKAW","","321.19999998807907","img/flower5.png","76","321.60000002384186","3","0","1","1","1,0.333,0.333,0.333,1,0.333,0.333,0.333,1","1,0.333,0.333,0.333,1,0.333,0.333,0.333,1","1",""
"","html-keyboard-response","199","95721","0.0-199.0","3JWH6J9I9TZFJACSX135KLH72Q0NB0","A3KH1OG87C8DCM","3P7RGTLO6EZ76AO3386R8ZK9IWWKAW","","null","<img src=""img/flower5.png"" style=""width:200px;border:14px solid red;"">","null","","","","","","","","",""
"","image-keyboard-response","200","96283","0.0-200.0","3JWH6J9I9TZFJACSX135KLH72Q0NB0","A3KH1OG87C8DCM","3P7RGTLO6EZ76AO3386R8ZK9IWWKAW","","561.8000000119209","img/flower2.png","76","562.1999999880791","3","1","2","1","1,0.333,0.333,0.333,1,0.333,0.333,0.333,1","1,0.333,0.333,0.333,1,0.333,0.333,0.333,1","1",""
"","html-keyboard-response","201","96585","0.0-201.0","3JWH6J9I9TZFJACSX135KLH72Q0NB0","A3KH1OG87C8DCM","3P7RGTLO6EZ76AO3386R8ZK9IWWKAW","","null","<img src=""img/flower2.png"" style=""width:200px; border:14px solid green;"">","null","","","","","","","","",""
"","image-keyboard-response","202","96851","0.0-202.0","3JWH6J9I9TZFJACSX135KLH72Q0NB0","A3KH1OG87C8DCM","3P7RGTLO6EZ76AO3386R8ZK9IWWKAW","","265.0999999642372","img/flower1.png","76","265.5","3","1","3","1","1,0.333,0.333,0.333,1,0.333,0.333,0.333,1","1,0.333,0.333,0.333,1,0.333,0.333,0.333,1","1",""
"","html-keyboard-response","203","97153","0.0-203.0","3JWH6J9I9TZFJACSX135KLH72Q0NB0","A3KH1OG87C8DCM","3P7RGTLO6EZ76AO3386R8ZK9IWWKAW","","null","<img src=""img/flower1.png"" style=""width:200px; border:14px solid green;"">","null","","","","","","","","",""
"","image-keyboard-response","204","97547","0.0-204.0","3JWH6J9I9TZFJACSX135KLH72Q0NB0","A3KH1OG87C8DCM","3P7RGTLO6EZ76AO3386R8ZK9IWWKAW","","393.5","img/flower2.png","76","394.10000002384186","3","0","2","1","1,0.333,0.333,0.333,1,0.333,0.333,0.333,1","1,0.333,0.333,0.333,1,0.333,0.333,0.333,1","1",""
"","html-keyboard-response","205","97849","0.0-205.0","3JWH6J9I9TZFJACSX135KLH72Q0NB0","A3KH1OG87C8DCM","3P7RGTLO6EZ76AO3386R8ZK9IWWKAW","","null","<img src=""img/flower2.png"" style=""width:200px;border:14px solid red;"">","null","","","","","","","","",""
"","image-keyboard-response","206","98187","0.0-206.0","3JWH6J9I9TZFJACSX135KLH72Q0NB0","A3KH1OG87C8DCM","3P7RGTLO6EZ76AO3386R8ZK9IWWKAW","","337.30000001192093","img/flower2.png","76","337.9000000357628","3","1","2","1","1,0.333,0.333,0.333,1,0.333,0.333,0.333,1","1,0.333,0.333,0.333,1,0.333,0.333,0.333,1","1",""
"","html-keyboard-response","207","98489","0.0-207.0","3JWH6J9I9TZFJACSX135KLH72Q0NB0","A3KH1OG87C8DCM","3P7RGTLO6EZ76AO3386R8ZK9IWWKAW","","null","<img src=""img/flower2.png"" style=""width:200px; border:14px solid green;"">","null","","","","","","","","",""
"","image-keyboard-response","208","99035","0.0-208.0","3JWH6J9I9TZFJACSX135KLH72Q0NB0","A3KH1OG87C8DCM","3P7RGTLO6EZ76AO3386R8ZK9IWWKAW","","545.1999999880791","img/flower5.png","76","545.6999999880791","3","1","1","1","1,0.333,0.333,0.333,1,0.333,0.333,0.333,1","1,0.333,0.333,0.333,1,0.333,0.333,0.333,1","1",""
"","html-keyboard-response","209","99337","0.0-209.0","3JWH6J9I9TZFJACSX135KLH72Q0NB0","A3KH1OG87C8DCM","3P7RGTLO6EZ76AO3386R8ZK9IWWKAW","","null","<img src=""img/flower5.png"" style=""width:200px; border:14px solid green;"">","null","","","","","","","","",""
"","image-keyboard-response","210","99627","0.0-210.0","3JWH6J9I9TZFJACSX135KLH72Q0NB0","A3KH1OG87C8DCM","3P7RGTLO6EZ76AO3386R8ZK9IWWKAW","","289.4000000357628","img/flower2.png","76","289.9000000357628","3","0","2","1","1,0.333,0.333,0.333,1,0.333,0.333,0.333,1","1,0.333,0.333,0.333,1,0.333,0.333,0.333,1","1",""
"","html-keyboard-response","211","99929","0.0-211.0","3JWH6J9I9TZFJACSX135KLH72Q0NB0","A3KH1OG87C8DCM","3P7RGTLO6EZ76AO3386R8ZK9IWWKAW","","null","<img src=""img/flower2.png"" style=""width:200px;border:14px solid red;"">","null","","","","","","","","",""
"","image-keyboard-response","212","100403","0.0-212.0","3JWH6J9I9TZFJACSX135KLH72Q0NB0","A3KH1OG87C8DCM","3P7RGTLO6EZ76AO3386R8ZK9IWWKAW","","473","img/flower1.png","76","473.5","3","1","3","1","1,0.333,0.333,0.333,1,0.333,0.333,0.333,1","1,0.333,0.333,0.333,1,0.333,0.333,0.333,1","1",""
"","html-keyboard-response","213","100705","0.0-213.0","3JWH6J9I9TZFJACSX135KLH72Q0NB0","A3KH1OG87C8DCM","3P7RGTLO6EZ76AO3386R8ZK9IWWKAW","","null","<img src=""img/flower1.png"" style=""width:200px; border:14px solid green;"">","null","","","","","","","","",""
"","image-keyboard-response","214","101155","0.0-214.0","3JWH6J9I9TZFJACSX135KLH72Q0NB0","A3KH1OG87C8DCM","3P7RGTLO6EZ76AO3386R8ZK9IWWKAW","","449.19999998807907","img/flower5.png","76","449.5","3","0","1","1","1,0.333,0.333,0.333,1,0.333,0.333,0.333,1","1,0.333,0.333,0.333,1,0.333,0.333,0.333,1","1",""
"","html-keyboard-response","215","101457","0.0-215.0","3JWH6J9I9TZFJACSX135KLH72Q0NB0","A3KH1OG87C8DCM","3P7RGTLO6EZ76AO3386R8ZK9IWWKAW","","null","<img src=""img/flower5.png"" style=""width:200px;border:14px solid red;"">","null","","","","","","","","",""
"","image-keyboard-response","216","101899","0.0-216.0","3JWH6J9I9TZFJACSX135KLH72Q0NB0","A3KH1OG87C8DCM","3P7RGTLO6EZ76AO3386R8ZK9IWWKAW","","441.19999998807907","img/flower2.png","76","441.60000002384186","3","1","2","1","1,0.333,0.333,0.333,1,0.333,0.333,0.333,1","1,0.333,0.333,0.333,1,0.333,0.333,0.333,1","1",""
"","html-keyboard-response","217","102201","0.0-217.0","3JWH6J9I9TZFJACSX135KLH72Q0NB0","A3KH1OG87C8DCM","3P7RGTLO6EZ76AO3386R8ZK9IWWKAW","","null","<img src=""img/flower2.png"" style=""width:200px; border:14px solid green;"">","null","","","","","","","","",""
"","image-keyboard-response","218","102835","0.0-218.0","3JWH6J9I9TZFJACSX135KLH72Q0NB0","A3KH1OG87C8DCM","3P7RGTLO6EZ76AO3386R8ZK9IWWKAW","","633.1000000238419","img/flower5.png","74","633.5","1","1","1","1","1,0.333,0.333,0.333,1,0.333,0.333,0.333,1","1,0.333,0.333,0.333,1,0.333,0.333,0.333,1","1",""
"","html-keyboard-response","219","103137","0.0-219.0","3JWH6J9I9TZFJACSX135KLH72Q0NB0","A3KH1OG87C8DCM","3P7RGTLO6EZ76AO3386R8ZK9IWWKAW","","null","<img src=""img/flower5.png"" style=""width:200px; border:14px solid green;"">","null","","","","","","","","",""
"","image-keyboard-response","220","103611","0.0-220.0","3JWH6J9I9TZFJACSX135KLH72Q0NB0","A3KH1OG87C8DCM","3P7RGTLO6EZ76AO3386R8ZK9IWWKAW","","473.69999998807907","img/flower1.png","76","474.19999998807907","3","1","3","1","1,0.333,0.333,0.333,1,0.333,0.333,0.333,1","1,0.333,0.333,0.333,1,0.333,0.333,0.333,1","1",""
"","html-keyboard-response","221","103913","0.0-221.0","3JWH6J9I9TZFJACSX135KLH72Q0NB0","A3KH1OG87C8DCM","3P7RGTLO6EZ76AO3386R8ZK9IWWKAW","","null","<img src=""img/flower1.png"" style=""width:200px; border:14px solid green;"">","null","","","","","","","","",""
"","image-keyboard-response","222","104299","0.0-222.0","3JWH6J9I9TZFJACSX135KLH72Q0NB0","A3KH1OG87C8DCM","3P7RGTLO6EZ76AO3386R8ZK9IWWKAW","","385.60000002384186","img/flower5.png","74","386.10000002384186","1","1","1","1","1,0.333,0.333,0.333,1,0.333,0.333,0.333,1","1,0.333,0.333,0.333,1,0.333,0.333,0.333,1","1",""
"","html-keyboard-response","223","104601","0.0-223.0","3JWH6J9I9TZFJACSX135KLH72Q0NB0","A3KH1OG87C8DCM","3P7RGTLO6EZ76AO3386R8ZK9IWWKAW","","null","<img src=""img/flower5.png"" style=""width:200px; border:14px solid green;"">","null","","","","","","","","",""
"","image-keyboard-response","224","105091","0.0-224.0","3JWH6J9I9TZFJACSX135KLH72Q0NB0","A3KH1OG87C8DCM","3P7RGTLO6EZ76AO3386R8ZK9IWWKAW","","489.5","img/flower5.png","74","490","1","1","1","1","1,0.333,0.333,0.333,1,0.333,0.333,0.333,1","1,0.333,0.333,0.333,1,0.333,0.333,0.333,1","1",""
"","html-keyboard-response","225","105393","0.0-225.0","3JWH6J9I9TZFJACSX135KLH72Q0NB0","A3KH1OG87C8DCM","3P7RGTLO6EZ76AO3386R8ZK9IWWKAW","","null","<img src=""img/flower5.png"" style=""width:200px; border:14px solid green;"">","null","","","","","","","","",""
"","image-keyboard-response","226","105771","0.0-226.0","3JWH6J9I9TZFJACSX135KLH72Q0NB0","A3KH1OG87C8DCM","3P7RGTLO6EZ76AO3386R8ZK9IWWKAW","","377.5999999642372","img/flower1.png","76","378.19999998807907","3","1","3","1","1,0.333,0.333,0.333,1,0.333,0.333,0.333,1","1,0.333,0.333,0.333,1,0.333,0.333,0.333,1","1",""
"","html-keyboard-response","227","106073","0.0-227.0","3JWH6J9I9TZFJACSX135KLH72Q0NB0","A3KH1OG87C8DCM","3P7RGTLO6EZ76AO3386R8ZK9IWWKAW","","null","<img src=""img/flower1.png"" style=""width:200px; border:14px solid green;"">","null","","","","","","","","",""
"","image-keyboard-response","228","106427","0.0-228.0","3JWH6J9I9TZFJACSX135KLH72Q0NB0","A3KH1OG87C8DCM","3P7RGTLO6EZ76AO3386R8ZK9IWWKAW","","353.4000000357628","img/flower1.png","76","354","3","1","3","1","1,0.333,0.333,0.333,1,0.333,0.333,0.333,1","1,0.333,0.333,0.333,1,0.333,0.333,0.333,1","1",""
"","html-keyboard-response","229","106729","0.0-229.0","3JWH6J9I9TZFJACSX135KLH72Q0NB0","A3KH1OG87C8DCM","3P7RGTLO6EZ76AO3386R8ZK9IWWKAW","","null","<img src=""img/flower1.png"" style=""width:200px; border:14px solid green;"">","null","","","","","","","","",""
"","image-keyboard-response","230","107259","0.0-230.0","3JWH6J9I9TZFJACSX135KLH72Q0NB0","A3KH1OG87C8DCM","3P7RGTLO6EZ76AO3386R8ZK9IWWKAW","","529.2000000476837","img/flower2.png","74","529.6999999880791","1","0","2","1","1,0.333,0.333,0.333,1,0.333,0.333,0.333,1","1,0.333,0.333,0.333,1,0.333,0.333,0.333,1","1",""
"","html-keyboard-response","231","107561","0.0-231.0","3JWH6J9I9TZFJACSX135KLH72Q0NB0","A3KH1OG87C8DCM","3P7RGTLO6EZ76AO3386R8ZK9IWWKAW","","null","<img src=""img/flower2.png"" style=""width:200px;border:14px solid red;"">","null","","","","","","","","",""
"","image-keyboard-response","232","108123","0.0-232.0","3JWH6J9I9TZFJACSX135KLH72Q0NB0","A3KH1OG87C8DCM","3P7RGTLO6EZ76AO3386R8ZK9IWWKAW","","561.4000000357628","img/flower5.png","74","561.9000000357628","1","1","1","1","1,0.333,0.333,0.333,1,0.333,0.333,0.333,1","1,0.333,0.333,0.333,1,0.333,0.333,0.333,1","1",""
"","html-keyboard-response","233","108425","0.0-233.0","3JWH6J9I9TZFJACSX135KLH72Q0NB0","A3KH1OG87C8DCM","3P7RGTLO6EZ76AO3386R8ZK9IWWKAW","","null","<img src=""img/flower5.png"" style=""width:200px; border:14px solid green;"">","null","","","","","","","","",""
"","image-keyboard-response","234","108691","0.0-234.0","3JWH6J9I9TZFJACSX135KLH72Q0NB0","A3KH1OG87C8DCM","3P7RGTLO6EZ76AO3386R8ZK9IWWKAW","","265.7000000476837","img/flower1.png","76","266.19999998807907","3","1","3","1","1,0.333,0.333,0.333,1,0.333,0.333,0.333,1","1,0.333,0.333,0.333,1,0.333,0.333,0.333,1","1",""
"","html-keyboard-response","235","108993","0.0-235.0","3JWH6J9I9TZFJACSX135KLH72Q0NB0","A3KH1OG87C8DCM","3P7RGTLO6EZ76AO3386R8ZK9IWWKAW","","null","<img src=""img/flower1.png"" style=""width:200px; border:14px solid green;"">","null","","","","","","","","",""
"","image-keyboard-response","236","109507","0.0-236.0","3JWH6J9I9TZFJACSX135KLH72Q0NB0","A3KH1OG87C8DCM","3P7RGTLO6EZ76AO3386R8ZK9IWWKAW","","513.4000000357628","img/flower5.png","76","513.8999999761581","3","0","1","1","1,0.333,0.333,0.333,1,0.333,0.333,0.333,1","1,0.333,0.333,0.333,1,0.333,0.333,0.333,1","1",""
"","html-keyboard-response","237","109809","0.0-237.0","3JWH6J9I9TZFJACSX135KLH72Q0NB0","A3KH1OG87C8DCM","3P7RGTLO6EZ76AO3386R8ZK9IWWKAW","","null","<img src=""img/flower5.png"" style=""width:200px;border:14px solid red;"">","null","","","","","","","","",""
"","image-keyboard-response","238","110275","0.0-238.0","3JWH6J9I9TZFJACSX135KLH72Q0NB0","A3KH1OG87C8DCM","3P7RGTLO6EZ76AO3386R8ZK9IWWKAW","","465.4000000357628","img/flower1.png","76","465.9000000357628","3","1","3","1","1,0.333,0.333,0.333,1,0.333,0.333,0.333,1","1,0.333,0.333,0.333,1,0.333,0.333,0.333,1","1",""
"","html-keyboard-response","239","110577","0.0-239.0","3JWH6J9I9TZFJACSX135KLH72Q0NB0","A3KH1OG87C8DCM","3P7RGTLO6EZ76AO3386R8ZK9IWWKAW","","null","<img src=""img/flower1.png"" style=""width:200px; border:14px solid green;"">","null","","","","","","","","",""
"","image-keyboard-response","240","110907","0.0-240.0","3JWH6J9I9TZFJACSX135KLH72Q0NB0","A3KH1OG87C8DCM","3P7RGTLO6EZ76AO3386R8ZK9IWWKAW","","329.4000000357628","img/flower5.png","74","330","1","1","1","1","1,0.333,0.333,0.333,1,0.333,0.333,0.333,1","1,0.333,0.333,0.333,1,0.333,0.333,0.333,1","1",""
"","html-keyboard-response","241","111209","0.0-241.0","3JWH6J9I9TZFJACSX135KLH72Q0NB0","A3KH1OG87C8DCM","3P7RGTLO6EZ76AO3386R8ZK9IWWKAW","","null","<img src=""img/flower5.png"" style=""width:200px; border:14px solid green;"">","null","","","","","","","","",""
"","image-keyboard-response","242","111659","0.0-242.0","3JWH6J9I9TZFJACSX135KLH72Q0NB0","A3KH1OG87C8DCM","3P7RGTLO6EZ76AO3386R8ZK9IWWKAW","","449.10000002384186","img/flower5.png","74","449.60000002384186","1","1","1","1","1,0.333,0.333,0.333,1,0.333,0.333,0.333,1","1,0.333,0.333,0.333,1,0.333,0.333,0.333,1","1",""
"","html-keyboard-response","243","111961","0.0-243.0","3JWH6J9I9TZFJACSX135KLH72Q0NB0","A3KH1OG87C8DCM","3P7RGTLO6EZ76AO3386R8ZK9IWWKAW","","null","<img src=""img/flower5.png"" style=""width:200px; border:14px solid green;"">","null","","","","","","","","",""
"","image-keyboard-response","244","112363","0.0-244.0","3JWH6J9I9TZFJACSX135KLH72Q0NB0","A3KH1OG87C8DCM","3P7RGTLO6EZ76AO3386R8ZK9IWWKAW","","401.10000002384186","img/flower1.png","76","401.60000002384186","3","1","3","1","1,0.333,0.333,0.333,1,0.333,0.333,0.333,1","1,0.333,0.333,0.333,1,0.333,0.333,0.333,1","1",""
"","html-keyboard-response","245","112665","0.0-245.0","3JWH6J9I9TZFJACSX135KLH72Q0NB0","A3KH1OG87C8DCM","3P7RGTLO6EZ76AO3386R8ZK9IWWKAW","","null","<img src=""img/flower1.png"" style=""width:200px; border:14px solid green;"">","null","","","","","","","","",""
"","image-keyboard-response","246","113163","0.0-246.0","3JWH6J9I9TZFJACSX135KLH72Q0NB0","A3KH1OG87C8DCM","3P7RGTLO6EZ76AO3386R8ZK9IWWKAW","","497","img/flower2.png","76","497.5999999642372","3","0","2","1","1,0.333,0.333,0.333,1,0.333,0.333,0.333,1","1,0.333,0.333,0.333,1,0.333,0.333,0.333,1","1",""
"","html-keyboard-response","247","113465","0.0-247.0","3JWH6J9I9TZFJACSX135KLH72Q0NB0","A3KH1OG87C8DCM","3P7RGTLO6EZ76AO3386R8ZK9IWWKAW","","null","<img src=""img/flower2.png"" style=""width:200px;border:14px solid red;"">","null","","","","","","","","",""
"","image-keyboard-response","248","113835","0.0-248.0","3JWH6J9I9TZFJACSX135KLH72Q0NB0","A3KH1OG87C8DCM","3P7RGTLO6EZ76AO3386R8ZK9IWWKAW","","369.30000001192093","img/flower2.png","76","369.60000002384186","3","1","2","1","1,0.333,0.333,0.333,1,0.333,0.333,0.333,1","1,0.333,0.333,0.333,1,0.333,0.333,0.333,1","1",""
"","html-keyboard-response","249","114137","0.0-249.0","3JWH6J9I9TZFJACSX135KLH72Q0NB0","A3KH1OG87C8DCM","3P7RGTLO6EZ76AO3386R8ZK9IWWKAW","","null","<img src=""img/flower2.png"" style=""width:200px; border:14px solid green;"">","null","","","","","","","","",""
"","image-keyboard-response","250","114619","0.0-250.0","3JWH6J9I9TZFJACSX135KLH72Q0NB0","A3KH1OG87C8DCM","3P7RGTLO6EZ76AO3386R8ZK9IWWKAW","","481","img/flower1.png","74","481.4000000357628","1","1","3","1","1,0.333,0.333,0.333,1,0.333,0.333,0.333,1","1,0.333,0.333,0.333,1,0.333,0.333,0.333,1","1",""
"","html-keyboard-response","251","114921","0.0-251.0","3JWH6J9I9TZFJACSX135KLH72Q0NB0","A3KH1OG87C8DCM","3P7RGTLO6EZ76AO3386R8ZK9IWWKAW","","null","<img src=""img/flower1.png"" style=""width:200px; border:14px solid green;"">","null","","","","","","","","",""
"","image-keyboard-response","252","115435","0.0-252.0","3JWH6J9I9TZFJACSX135KLH72Q0NB0","A3KH1OG87C8DCM","3P7RGTLO6EZ76AO3386R8ZK9IWWKAW","","513.1999999880791","img/flower2.png","74","513.5","1","0","2","1","1,0.333,0.333,0.333,1,0.333,0.333,0.333,1","1,0.333,0.333,0.333,1,0.333,0.333,0.333,1","1",""
"","html-keyboard-response","253","115737","0.0-253.0","3JWH6J9I9TZFJACSX135KLH72Q0NB0","A3KH1OG87C8DCM","3P7RGTLO6EZ76AO3386R8ZK9IWWKAW","","null","<img src=""img/flower2.png"" style=""width:200px;border:14px solid red;"">","null","","","","","","","","",""
"","image-keyboard-response","254","116251","0.0-254.0","3JWH6J9I9TZFJACSX135KLH72Q0NB0","A3KH1OG87C8DCM","3P7RGTLO6EZ76AO3386R8ZK9IWWKAW","","513.3000000119209","img/flower2.png","76","513.8000000119209","3","0","2","1","1,0.333,0.333,0.333,1,0.333,0.333,0.333,1","1,0.333,0.333,0.333,1,0.333,0.333,0.333,1","1",""
"","html-keyboard-response","255","116553","0.0-255.0","3JWH6J9I9TZFJACSX135KLH72Q0NB0","A3KH1OG87C8DCM","3P7RGTLO6EZ76AO3386R8ZK9IWWKAW","","null","<img src=""img/flower2.png"" style=""width:200px;border:14px solid red;"">","null","","","","","","","","",""
"","image-keyboard-response","256","116835","0.0-256.0","3JWH6J9I9TZFJACSX135KLH72Q0NB0","A3KH1OG87C8DCM","3P7RGTLO6EZ76AO3386R8ZK9IWWKAW","","281.5","img/flower2.png","76","281.80000001192093","3","0","2","1","1,0.333,0.333,0.333,1,0.333,0.333,0.333,1","1,0.333,0.333,0.333,1,0.333,0.333,0.333,1","1",""
"","html-keyboard-response","257","117136","0.0-257.0","3JWH6J9I9TZFJACSX135KLH72Q0NB0","A3KH1OG87C8DCM","3P7RGTLO6EZ76AO3386R8ZK9IWWKAW","","null","<img src=""img/flower2.png"" style=""width:200px;border:14px solid red;"">","null","","","","","","","","",""
"","image-keyboard-response","258","117763","0.0-258.0","3JWH6J9I9TZFJACSX135KLH72Q0NB0","A3KH1OG87C8DCM","3P7RGTLO6EZ76AO3386R8ZK9IWWKAW","","626","img/flower1.png","76","626.5","3","1","3","1","1,0.333,0.333,0.333,1,0.333,0.333,0.333,1","1,0.333,0.333,0.333,1,0.333,0.333,0.333,1","1",""
"","html-keyboard-response","259","118065","0.0-259.0","3JWH6J9I9TZFJACSX135KLH72Q0NB0","A3KH1OG87C8DCM","3P7RGTLO6EZ76AO3386R8ZK9IWWKAW","","null","<img src=""img/flower1.png"" style=""width:200px; border:14px solid green;"">","null","","","","","","","","",""
"","image-keyboard-response","260","118610","0.0-260.0","3JWH6J9I9TZFJACSX135KLH72Q0NB0","A3KH1OG87C8DCM","3P7RGTLO6EZ76AO3386R8ZK9IWWKAW","","545.4000000357628","img/flower5.png","74","545.9000000357628","1","1","1","1","1,0.333,0.333,0.333,1,0.333,0.333,0.333,1","1,0.333,0.333,0.333,1,0.333,0.333,0.333,1","1",""
"","html-keyboard-response","261","118912","0.0-261.0","3JWH6J9I9TZFJACSX135KLH72Q0NB0","A3KH1OG87C8DCM","3P7RGTLO6EZ76AO3386R8ZK9IWWKAW","","null","<img src=""img/flower5.png"" style=""width:200px; border:14px solid green;"">","null","","","","","","","","",""
"","image-keyboard-response","262","119370","0.0-262.0","3JWH6J9I9TZFJACSX135KLH72Q0NB0","A3KH1OG87C8DCM","3P7RGTLO6EZ76AO3386R8ZK9IWWKAW","","457.80000001192093","img/flower5.png","74","458.30000001192093","1","1","1","1","1,0.333,0.333,0.333,1,0.333,0.333,0.333,1","1,0.333,0.333,0.333,1,0.333,0.333,0.333,1","1",""
"","html-keyboard-response","263","119672","0.0-263.0","3JWH6J9I9TZFJACSX135KLH72Q0NB0","A3KH1OG87C8DCM","3P7RGTLO6EZ76AO3386R8ZK9IWWKAW","","null","<img src=""img/flower5.png"" style=""width:200px; border:14px solid green;"">","null","","","","","","","","",""
"","image-keyboard-response","264","119955","0.0-264.0","3JWH6J9I9TZFJACSX135KLH72Q0NB0","A3KH1OG87C8DCM","3P7RGTLO6EZ76AO3386R8ZK9IWWKAW","","282","img/flower5.png","74","282.39999997615814","1","1","1","1","1,0.333,0.333,0.333,1,0.333,0.333,0.333,1","1,0.333,0.333,0.333,1,0.333,0.333,0.333,1","1",""
"","html-keyboard-response","265","120257","0.0-265.0","3JWH6J9I9TZFJACSX135KLH72Q0NB0","A3KH1OG87C8DCM","3P7RGTLO6EZ76AO3386R8ZK9IWWKAW","","null","<img src=""img/flower5.png"" style=""width:200px; border:14px solid green;"">","null","","","","","","","","",""
"","image-keyboard-response","266","120602","0.0-266.0","3JWH6J9I9TZFJACSX135KLH72Q0NB0","A3KH1OG87C8DCM","3P7RGTLO6EZ76AO3386R8ZK9IWWKAW","","345.39999997615814","img/flower5.png","74","345.80000001192093","1","1","1","1","1,0.333,0.333,0.333,1,0.333,0.333,0.333,1","1,0.333,0.333,0.333,1,0.333,0.333,0.333,1","1",""
"","html-keyboard-response","267","120905","0.0-267.0","3JWH6J9I9TZFJACSX135KLH72Q0NB0","A3KH1OG87C8DCM","3P7RGTLO6EZ76AO3386R8ZK9IWWKAW","","null","<img src=""img/flower5.png"" style=""width:200px; border:14px solid green;"">","null","","","","","","","","",""
"","image-keyboard-response","268","121218","0.0-268.0","3JWH6J9I9TZFJACSX135KLH72Q0NB0","A3KH1OG87C8DCM","3P7RGTLO6EZ76AO3386R8ZK9IWWKAW","","313.10000002384186","img/flower5.png","74","313.5","1","1","1","1","1,0.333,0.333,0.333,1,0.333,0.333,0.333,1","1,0.333,0.333,0.333,1,0.333,0.333,0.333,1","1",""
"","html-keyboard-response","269","121520","0.0-269.0","3JWH6J9I9TZFJACSX135KLH72Q0NB0","A3KH1OG87C8DCM","3P7RGTLO6EZ76AO3386R8ZK9IWWKAW","","null","<img src=""img/flower5.png"" style=""width:200px; border:14px solid green;"">","null","","","","","","","","",""
"","image-keyboard-response","270","121931","0.0-270.0","3JWH6J9I9TZFJACSX135KLH72Q0NB0","A3KH1OG87C8DCM","3P7RGTLO6EZ76AO3386R8ZK9IWWKAW","","409.80000001192093","img/flower2.png","76","410.2999999523163","3","1","2","1","1,0.333,0.333,0.333,1,0.333,0.333,0.333,1","1,0.333,0.333,0.333,1,0.333,0.333,0.333,1","1",""
"","html-keyboard-response","271","122233","0.0-271.0","3JWH6J9I9TZFJACSX135KLH72Q0NB0","A3KH1OG87C8DCM","3P7RGTLO6EZ76AO3386R8ZK9IWWKAW","","null","<img src=""img/flower2.png"" style=""width:200px; border:14px solid green;"">","null","","","","","","","","",""
"","image-keyboard-response","272","122666","0.0-272.0","3JWH6J9I9TZFJACSX135KLH72Q0NB0","A3KH1OG87C8DCM","3P7RGTLO6EZ76AO3386R8ZK9IWWKAW","","432.69999998807907","img/flower1.png","76","433","3","1","3","1","1,0.333,0.333,0.333,1,0.333,0.333,0.333,1","1,0.333,0.333,0.333,1,0.333,0.333,0.333,1","1",""
"","html-keyboard-response","273","122968","0.0-273.0","3JWH6J9I9TZFJACSX135KLH72Q0NB0","A3KH1OG87C8DCM","3P7RGTLO6EZ76AO3386R8ZK9IWWKAW","","null","<img src=""img/flower1.png"" style=""width:200px; border:14px solid green;"">","null","","","","","","","","",""
"","image-keyboard-response","274","123370","0.0-274.0","3JWH6J9I9TZFJACSX135KLH72Q0NB0","A3KH1OG87C8DCM","3P7RGTLO6EZ76AO3386R8ZK9IWWKAW","","401.69999998807907","img/flower2.png","76","402.10000002384186","3","0","2","1","1,0.333,0.333,0.333,1,0.333,0.333,0.333,1","1,0.333,0.333,0.333,1,0.333,0.333,0.333,1","1",""
"","html-keyboard-response","275","123672","0.0-275.0","3JWH6J9I9TZFJACSX135KLH72Q0NB0","A3KH1OG87C8DCM","3P7RGTLO6EZ76AO3386R8ZK9IWWKAW","","null","<img src=""img/flower2.png"" style=""width:200px;border:14px solid red;"">","null","","","","","","","","",""
"","image-keyboard-response","276","124002","0.0-276.0","3JWH6J9I9TZFJACSX135KLH72Q0NB0","A3KH1OG87C8DCM","3P7RGTLO6EZ76AO3386R8ZK9IWWKAW","","329.5999999642372","img/flower2.png","76","329.9000000357628","3","0","2","1","1,0.333,0.333,0.333,1,0.333,0.333,0.333,1","1,0.333,0.333,0.333,1,0.333,0.333,0.333,1","1",""
"","html-keyboard-response","277","124305","0.0-277.0","3JWH6J9I9TZFJACSX135KLH72Q0NB0","A3KH1OG87C8DCM","3P7RGTLO6EZ76AO3386R8ZK9IWWKAW","","null","<img src=""img/flower2.png"" style=""width:200px;border:14px solid red;"">","null","","","","","","","","",""
"","image-keyboard-response","278","124842","0.0-278.0","3JWH6J9I9TZFJACSX135KLH72Q0NB0","A3KH1OG87C8DCM","3P7RGTLO6EZ76AO3386R8ZK9IWWKAW","","537.1000000238419","img/flower5.png","74","537.6000000238419","1","1","1","1","1,0.333,0.333,0.333,1,0.333,0.333,0.333,1","1,0.333,0.333,0.333,1,0.333,0.333,0.333,1","1",""
"","html-keyboard-response","279","125158","0.0-279.0","3JWH6J9I9TZFJACSX135KLH72Q0NB0","A3KH1OG87C8DCM","3P7RGTLO6EZ76AO3386R8ZK9IWWKAW","","null","<img src=""img/flower5.png"" style=""width:200px; border:14px solid green;"">","null","","","","","","","","",""
"","image-keyboard-response","280","125739","0.0-280.0","3JWH6J9I9TZFJACSX135KLH72Q0NB0","A3KH1OG87C8DCM","3P7RGTLO6EZ76AO3386R8ZK9IWWKAW","","580.5","img/flower1.png","76","580.8999999761581","3","1","3","1","1,0.333,0.333,0.333,1,0.333,0.333,0.333,1","1,0.333,0.333,0.333,1,0.333,0.333,0.333,1","1",""
"","html-keyboard-response","281","126040","0.0-281.0","3JWH6J9I9TZFJACSX135KLH72Q0NB0","A3KH1OG87C8DCM","3P7RGTLO6EZ76AO3386R8ZK9IWWKAW","","null","<img src=""img/flower1.png"" style=""width:200px; border:14px solid green;"">","null","","","","","","","","",""
"","image-keyboard-response","282","126354","0.0-282.0","3JWH6J9I9TZFJACSX135KLH72Q0NB0","A3KH1OG87C8DCM","3P7RGTLO6EZ76AO3386R8ZK9IWWKAW","","313.80000001192093","img/flower5.png","76","314.30000001192093","3","1","1","1","1,0.333,0.333,0.333,1,0.333,0.333,0.333,1","1,0.333,0.333,0.333,1,0.333,0.333,0.333,1","1",""
"","html-keyboard-response","283","126656","0.0-283.0","3JWH6J9I9TZFJACSX135KLH72Q0NB0","A3KH1OG87C8DCM","3P7RGTLO6EZ76AO3386R8ZK9IWWKAW","","null","<img src=""img/flower5.png"" style=""width:200px; border:14px solid green;"">","null","","","","","","","","",""
"","image-keyboard-response","284","127402","0.0-284.0","3JWH6J9I9TZFJACSX135KLH72Q0NB0","A3KH1OG87C8DCM","3P7RGTLO6EZ76AO3386R8ZK9IWWKAW","","745.5999999642372","img/flower5.png","74","746","1","1","1","1","1,0.333,0.333,0.333,1,0.333,0.333,0.333,1","1,0.333,0.333,0.333,1,0.333,0.333,0.333,1","1",""
"","html-keyboard-response","285","127705","0.0-285.0","3JWH6J9I9TZFJACSX135KLH72Q0NB0","A3KH1OG87C8DCM","3P7RGTLO6EZ76AO3386R8ZK9IWWKAW","","null","<img src=""img/flower5.png"" style=""width:200px; border:14px solid green;"">","null","","","","","","","","",""
"","image-keyboard-response","286","128282","0.0-286.0","3JWH6J9I9TZFJACSX135KLH72Q0NB0","A3KH1OG87C8DCM","3P7RGTLO6EZ76AO3386R8ZK9IWWKAW","","577.3000000119209","img/flower2.png","76","577.8000000119209","3","0","2","1","1,0.333,0.333,0.333,1,0.333,0.333,0.333,1","1,0.333,0.333,0.333,1,0.333,0.333,0.333,1","1",""
"","html-keyboard-response","287","128584","0.0-287.0","3JWH6J9I9TZFJACSX135KLH72Q0NB0","A3KH1OG87C8DCM","3P7RGTLO6EZ76AO3386R8ZK9IWWKAW","","null","<img src=""img/flower2.png"" style=""width:200px;border:14px solid red;"">","null","","","","","","","","",""
"","image-keyboard-response","288","128914","0.0-288.0","3JWH6J9I9TZFJACSX135KLH72Q0NB0","A3KH1OG87C8DCM","3P7RGTLO6EZ76AO3386R8ZK9IWWKAW","","329.5","img/flower5.png","74","330.10000002384186","1","1","1","1","1,0.333,0.333,0.333,1,0.333,0.333,0.333,1","1,0.333,0.333,0.333,1,0.333,0.333,0.333,1","1",""
"","html-keyboard-response","289","129217","0.0-289.0","3JWH6J9I9TZFJACSX135KLH72Q0NB0","A3KH1OG87C8DCM","3P7RGTLO6EZ76AO3386R8ZK9IWWKAW","","null","<img src=""img/flower5.png"" style=""width:200px; border:14px solid green;"">","null","","","","","","","","",""
"","image-keyboard-response","290","129546","0.0-290.0","3JWH6J9I9TZFJACSX135KLH72Q0NB0","A3KH1OG87C8DCM","3P7RGTLO6EZ76AO3386R8ZK9IWWKAW","","329.2000000476837","img/flower2.png","74","329.7999999523163","1","0","2","1","1,0.333,0.333,0.333,1,0.333,0.333,0.333,1","1,0.333,0.333,0.333,1,0.333,0.333,0.333,1","1",""
"","html-keyboard-response","291","129848","0.0-291.0","3JWH6J9I9TZFJACSX135KLH72Q0NB0","A3KH1OG87C8DCM","3P7RGTLO6EZ76AO3386R8ZK9IWWKAW","","null","<img src=""img/flower2.png"" style=""width:200px;border:14px solid red;"">","null","","","","","","","","",""
"","image-keyboard-response","292","130763","0.0-292.0","3JWH6J9I9TZFJACSX135KLH72Q0NB0","A3KH1OG87C8DCM","3P7RGTLO6EZ76AO3386R8ZK9IWWKAW","","914","img/flower1.png","76","914.5","3","1","3","1","1,0.333,0.333,0.333,1,0.333,0.333,0.333,1","1,0.333,0.333,0.333,1,0.333,0.333,0.333,1","1",""
"","html-keyboard-response","293","131065","0.0-293.0","3JWH6J9I9TZFJACSX135KLH72Q0NB0","A3KH1OG87C8DCM","3P7RGTLO6EZ76AO3386R8ZK9IWWKAW","","null","<img src=""img/flower1.png"" style=""width:200px; border:14px solid green;"">","null","","","","","","","","",""
"","image-keyboard-response","294","131634","0.0-294.0","3JWH6J9I9TZFJACSX135KLH72Q0NB0","A3KH1OG87C8DCM","3P7RGTLO6EZ76AO3386R8ZK9IWWKAW","","569.3000000119209","img/flower2.png","74","569.8000000119209","1","1","2","1","1,0.333,0.333,0.333,1,0.333,0.333,0.333,1","1,0.333,0.333,0.333,1,0.333,0.333,0.333,1","1",""
"","html-keyboard-response","295","131936","0.0-295.0","3JWH6J9I9TZFJACSX135KLH72Q0NB0","A3KH1OG87C8DCM","3P7RGTLO6EZ76AO3386R8ZK9IWWKAW","","null","<img src=""img/flower2.png"" style=""width:200px; border:14px solid green;"">","null","","","","","","","","",""
"","image-keyboard-response","296","132386","0.0-296.0","3JWH6J9I9TZFJACSX135KLH72Q0NB0","A3KH1OG87C8DCM","3P7RGTLO6EZ76AO3386R8ZK9IWWKAW","","449.69999998807907","img/flower5.png","74","450.10000002384186","1","1","1","1","1,0.333,0.333,0.333,1,0.333,0.333,0.333,1","1,0.333,0.333,0.333,1,0.333,0.333,0.333,1","1",""
"","html-keyboard-response","297","132688","0.0-297.0","3JWH6J9I9TZFJACSX135KLH72Q0NB0","A3KH1OG87C8DCM","3P7RGTLO6EZ76AO3386R8ZK9IWWKAW","","null","<img src=""img/flower5.png"" style=""width:200px; border:14px solid green;"">","null","","","","","","","","",""
"","image-keyboard-response","298","133027","0.0-298.0","3JWH6J9I9TZFJACSX135KLH72Q0NB0","A3KH1OG87C8DCM","3P7RGTLO6EZ76AO3386R8ZK9IWWKAW","","337.80000001192093","img/flower1.png","74","338.30000001192093","1","0","3","1","1,0.333,0.333,0.333,1,0.333,0.333,0.333,1","1,0.333,0.333,0.333,1,0.333,0.333,0.333,1","1",""
"","html-keyboard-response","299","133329","0.0-299.0","3JWH6J9I9TZFJACSX135KLH72Q0NB0","A3KH1OG87C8DCM","3P7RGTLO6EZ76AO3386R8ZK9IWWKAW","","null","<img src=""img/flower1.png"" style=""width:200px;border:14px solid red;"">","null","","","","","","","","",""
"","image-keyboard-response","300","133746","0.0-300.0","3JWH6J9I9TZFJACSX135KLH72Q0NB0","A3KH1OG87C8DCM","3P7RGTLO6EZ76AO3386R8ZK9IWWKAW","","417.2000000476837","img/flower5.png","74","417.89999997615814","1","1","1","1","1,0.333,0.333,0.333,1,0.333,0.333,0.333,1","1,0.333,0.333,0.333,1,0.333,0.333,0.333,1","1",""
"","html-keyboard-response","301","134049","0.0-301.0","3JWH6J9I9TZFJACSX135KLH72Q0NB0","A3KH1OG87C8DCM","3P7RGTLO6EZ76AO3386R8ZK9IWWKAW","","null","<img src=""img/flower5.png"" style=""width:200px; border:14px solid green;"">","null","","","","","","","","",""
"","image-keyboard-response","302","134434","0.0-302.0","3JWH6J9I9TZFJACSX135KLH72Q0NB0","A3KH1OG87C8DCM","3P7RGTLO6EZ76AO3386R8ZK9IWWKAW","","385.2000000476837","img/flower1.png","74","385.7999999523163","1","0","3","1","1,0.333,0.333,0.333,1,0.333,0.333,0.333,1","1,0.333,0.333,0.333,1,0.333,0.333,0.333,1","1",""
"","html-keyboard-response","303","134737","0.0-303.0","3JWH6J9I9TZFJACSX135KLH72Q0NB0","A3KH1OG87C8DCM","3P7RGTLO6EZ76AO3386R8ZK9IWWKAW","","null","<img src=""img/flower1.png"" style=""width:200px;border:14px solid red;"">","null","","","","","","","","",""
"","image-keyboard-response","304","135122","0.0-304.0","3JWH6J9I9TZFJACSX135KLH72Q0NB0","A3KH1OG87C8DCM","3P7RGTLO6EZ76AO3386R8ZK9IWWKAW","","385.10000002384186","img/flower5.png","74","385.60000002384186","1","1","1","1","1,0.333,0.333,0.333,1,0.333,0.333,0.333,1","1,0.333,0.333,0.333,1,0.333,0.333,0.333,1","1",""
"","html-keyboard-response","305","135424","0.0-305.0","3JWH6J9I9TZFJACSX135KLH72Q0NB0","A3KH1OG87C8DCM","3P7RGTLO6EZ76AO3386R8ZK9IWWKAW","","null","<img src=""img/flower5.png"" style=""width:200px; border:14px solid green;"">","null","","","","","","","","",""
"","image-keyboard-response","306","135771","0.0-306.0","3JWH6J9I9TZFJACSX135KLH72Q0NB0","A3KH1OG87C8DCM","3P7RGTLO6EZ76AO3386R8ZK9IWWKAW","","346","img/flower1.png","76","346.60000002384186","3","1","3","1","1,0.333,0.333,0.333,1,0.333,0.333,0.333,1","1,0.333,0.333,0.333,1,0.333,0.333,0.333,1","1",""
"","html-keyboard-response","307","136072","0.0-307.0","3JWH6J9I9TZFJACSX135KLH72Q0NB0","A3KH1OG87C8DCM","3P7RGTLO6EZ76AO3386R8ZK9IWWKAW","","null","<img src=""img/flower1.png"" style=""width:200px; border:14px solid green;"">","null","","","","","","","","",""
"","image-keyboard-response","308","136442","0.0-308.0","3JWH6J9I9TZFJACSX135KLH72Q0NB0","A3KH1OG87C8DCM","3P7RGTLO6EZ76AO3386R8ZK9IWWKAW","","369.60000002384186","img/flower1.png","76","370.10000002384186","3","1","3","1","1,0.333,0.333,0.333,1,0.333,0.333,0.333,1","1,0.333,0.333,0.333,1,0.333,0.333,0.333,1","1",""
"","html-keyboard-response","309","136744","0.0-309.0","3JWH6J9I9TZFJACSX135KLH72Q0NB0","A3KH1OG87C8DCM","3P7RGTLO6EZ76AO3386R8ZK9IWWKAW","","null","<img src=""img/flower1.png"" style=""width:200px; border:14px solid green;"">","null","","","","","","","","",""
"","image-keyboard-response","310","137026","0.0-310.0","3JWH6J9I9TZFJACSX135KLH72Q0NB0","A3KH1OG87C8DCM","3P7RGTLO6EZ76AO3386R8ZK9IWWKAW","","280.9000000357628","img/flower1.png","76","281.30000001192093","3","1","3","1","1,0.333,0.333,0.333,1,0.333,0.333,0.333,1","1,0.333,0.333,0.333,1,0.333,0.333,0.333,1","1",""
"","html-keyboard-response","311","137328","0.0-311.0","3JWH6J9I9TZFJACSX135KLH72Q0NB0","A3KH1OG87C8DCM","3P7RGTLO6EZ76AO3386R8ZK9IWWKAW","","null","<img src=""img/flower1.png"" style=""width:200px; border:14px solid green;"">","null","","","","","","","","",""
"","image-keyboard-response","312","137658","0.0-312.0","3JWH6J9I9TZFJACSX135KLH72Q0NB0","A3KH1OG87C8DCM","3P7RGTLO6EZ76AO3386R8ZK9IWWKAW","","329.9000000357628","img/flower1.png","76","330.4000000357628","3","1","3","1","1,0.333,0.333,0.333,1,0.333,0.333,0.333,1","1,0.333,0.333,0.333,1,0.333,0.333,0.333,1","1",""
"","html-keyboard-response","313","137960","0.0-313.0","3JWH6J9I9TZFJACSX135KLH72Q0NB0","A3KH1OG87C8DCM","3P7RGTLO6EZ76AO3386R8ZK9IWWKAW","","null","<img src=""img/flower1.png"" style=""width:200px; border:14px solid green;"">","null","","","","","","","","",""
"","image-keyboard-response","314","138274","0.0-314.0","3JWH6J9I9TZFJACSX135KLH72Q0NB0","A3KH1OG87C8DCM","3P7RGTLO6EZ76AO3386R8ZK9IWWKAW","","313.7000000476837","img/flower1.png","76","314.19999998807907","3","1","3","1","1,0.333,0.333,0.333,1,0.333,0.333,0.333,1","1,0.333,0.333,0.333,1,0.333,0.333,0.333,1","1",""
"","html-keyboard-response","315","138577","0.0-315.0","3JWH6J9I9TZFJACSX135KLH72Q0NB0","A3KH1OG87C8DCM","3P7RGTLO6EZ76AO3386R8ZK9IWWKAW","","null","<img src=""img/flower1.png"" style=""width:200px; border:14px solid green;"">","null","","","","","","","","",""
"","image-keyboard-response","316","138898","0.0-316.0","3JWH6J9I9TZFJACSX135KLH72Q0NB0","A3KH1OG87C8DCM","3P7RGTLO6EZ76AO3386R8ZK9IWWKAW","","321.4000000357628","img/flower1.png","76","321.80000001192093","3","1","3","1","1,0.333,0.333,0.333,1,0.333,0.333,0.333,1","1,0.333,0.333,0.333,1,0.333,0.333,0.333,1","1",""
"","html-keyboard-response","317","139200","0.0-317.0","3JWH6J9I9TZFJACSX135KLH72Q0NB0","A3KH1OG87C8DCM","3P7RGTLO6EZ76AO3386R8ZK9IWWKAW","","null","<img src=""img/flower1.png"" style=""width:200px; border:14px solid green;"">","null","","","","","","","","",""
"","image-keyboard-response","318","139730","0.0-318.0","3JWH6J9I9TZFJACSX135KLH72Q0NB0","A3KH1OG87C8DCM","3P7RGTLO6EZ76AO3386R8ZK9IWWKAW","","530.0999999642372","img/flower2.png","75","530.5999999642372","2","1","2","1","1,0.333,0.333,0.333,1,0.333,0.333,0.333,1","1,0.333,0.333,0.333,1,0.333,0.333,0.333,1","1",""
"","html-keyboard-response","319","140033","0.0-319.0","3JWH6J9I9TZFJACSX135KLH72Q0NB0","A3KH1OG87C8DCM","3P7RGTLO6EZ76AO3386R8ZK9IWWKAW","","null","<img src=""img/flower2.png"" style=""width:200px; border:14px solid green;"">","null","","","","","","","","",""
"","image-keyboard-response","320","140306","0.0-320.0","3JWH6J9I9TZFJACSX135KLH72Q0NB0","A3KH1OG87C8DCM","3P7RGTLO6EZ76AO3386R8ZK9IWWKAW","","273.2000000476837","img/flower5.png","75","273.69999998807907","2","0","1","1","1,0.333,0.333,0.333,1,0.333,0.333,0.333,1","1,0.333,0.333,0.333,1,0.333,0.333,0.333,1","1",""
"","html-keyboard-response","321","140608","0.0-321.0","3JWH6J9I9TZFJACSX135KLH72Q0NB0","A3KH1OG87C8DCM","3P7RGTLO6EZ76AO3386R8ZK9IWWKAW","","null","<img src=""img/flower5.png"" style=""width:200px;border:14px solid red;"">","null","","","","","","","","",""
"","image-keyboard-response","322","140963","0.0-322.0","3JWH6J9I9TZFJACSX135KLH72Q0NB0","A3KH1OG87C8DCM","3P7RGTLO6EZ76AO3386R8ZK9IWWKAW","","353.80000001192093","img/flower5.png","74","354.2999999523163","1","1","1","1","1,0.333,0.333,0.333,1,0.333,0.333,0.333,1","1,0.333,0.333,0.333,1,0.333,0.333,0.333,1","1",""
"","html-keyboard-response","323","141264","0.0-323.0","3JWH6J9I9TZFJACSX135KLH72Q0NB0","A3KH1OG87C8DCM","3P7RGTLO6EZ76AO3386R8ZK9IWWKAW","","null","<img src=""img/flower5.png"" style=""width:200px; border:14px solid green;"">","null","","","","","","","","",""
"","image-keyboard-response","324","141682","0.0-324.0","3JWH6J9I9TZFJACSX135KLH72Q0NB0","A3KH1OG87C8DCM","3P7RGTLO6EZ76AO3386R8ZK9IWWKAW","","417.5","img/flower2.png","74","418","1","1","2","1","1,0.333,0.333,0.333,1,0.333,0.333,0.333,1","1,0.333,0.333,0.333,1,0.333,0.333,0.333,1","1",""
"","html-keyboard-response","325","141984","0.0-325.0","3JWH6J9I9TZFJACSX135KLH72Q0NB0","A3KH1OG87C8DCM","3P7RGTLO6EZ76AO3386R8ZK9IWWKAW","","null","<img src=""img/flower2.png"" style=""width:200px; border:14px solid green;"">","null","","","","","","","","",""
"","image-keyboard-response","326","142506","0.0-326.0","3JWH6J9I9TZFJACSX135KLH72Q0NB0","A3KH1OG87C8DCM","3P7RGTLO6EZ76AO3386R8ZK9IWWKAW","","521.4000000357628","img/flower2.png","75","521.9000000357628","2","1","2","1","1,0.333,0.333,0.333,1,0.333,0.333,0.333,1","1,0.333,0.333,0.333,1,0.333,0.333,0.333,1","1",""
"","html-keyboard-response","327","142808","0.0-327.0","3JWH6J9I9TZFJACSX135KLH72Q0NB0","A3KH1OG87C8DCM","3P7RGTLO6EZ76AO3386R8ZK9IWWKAW","","null","<img src=""img/flower2.png"" style=""width:200px; border:14px solid green;"">","null","","","","","","","","",""
"","image-keyboard-response","328","143042","0.0-328.0","3JWH6J9I9TZFJACSX135KLH72Q0NB0","A3KH1OG87C8DCM","3P7RGTLO6EZ76AO3386R8ZK9IWWKAW","","233.60000002384186","img/flower1.png","75","234.10000002384186","2","0","3","1","1,0.333,0.333,0.333,1,0.333,0.333,0.333,1","1,0.333,0.333,0.333,1,0.333,0.333,0.333,1","1",""
"","html-keyboard-response","329","143344","0.0-329.0","3JWH6J9I9TZFJACSX135KLH72Q0NB0","A3KH1OG87C8DCM","3P7RGTLO6EZ76AO3386R8ZK9IWWKAW","","null","<img src=""img/flower1.png"" style=""width:200px;border:14px solid red;"">","null","","","","","","","","",""
"","image-keyboard-response","330","143955","0.0-330.0","3JWH6J9I9TZFJACSX135KLH72Q0NB0","A3KH1OG87C8DCM","3P7RGTLO6EZ76AO3386R8ZK9IWWKAW","","610.3000000119209","img/flower2.png","75","610.8000000119209","2","1","2","1","1,0.333,0.333,0.333,1,0.333,0.333,0.333,1","1,0.333,0.333,0.333,1,0.333,0.333,0.333,1","1",""
"","html-keyboard-response","331","144256","0.0-331.0","3JWH6J9I9TZFJACSX135KLH72Q0NB0","A3KH1OG87C8DCM","3P7RGTLO6EZ76AO3386R8ZK9IWWKAW","","null","<img src=""img/flower2.png"" style=""width:200px; border:14px solid green;"">","null","","","","","","","","",""
"","image-keyboard-response","332","144690","0.0-332.0","3JWH6J9I9TZFJACSX135KLH72Q0NB0","A3KH1OG87C8DCM","3P7RGTLO6EZ76AO3386R8ZK9IWWKAW","","433.5","img/flower2.png","75","434","2","1","2","1","1,0.333,0.333,0.333,1,0.333,0.333,0.333,1","1,0.333,0.333,0.333,1,0.333,0.333,0.333,1","1",""
"","html-keyboard-response","333","144992","0.0-333.0","3JWH6J9I9TZFJACSX135KLH72Q0NB0","A3KH1OG87C8DCM","3P7RGTLO6EZ76AO3386R8ZK9IWWKAW","","null","<img src=""img/flower2.png"" style=""width:200px; border:14px solid green;"">","null","","","","","","","","",""
"","image-keyboard-response","334","145426","0.0-334.0","3JWH6J9I9TZFJACSX135KLH72Q0NB0","A3KH1OG87C8DCM","3P7RGTLO6EZ76AO3386R8ZK9IWWKAW","","433.5","img/flower5.png","76","434","3","0","1","1","1,0.333,0.333,0.333,1,0.333,0.333,0.333,1","1,0.333,0.333,0.333,1,0.333,0.333,0.333,1","1",""
"","html-keyboard-response","335","145728","0.0-335.0","3JWH6J9I9TZFJACSX135KLH72Q0NB0","A3KH1OG87C8DCM","3P7RGTLO6EZ76AO3386R8ZK9IWWKAW","","null","<img src=""img/flower5.png"" style=""width:200px;border:14px solid red;"">","null","","","","","","","","",""
"","image-keyboard-response","336","146154","0.0-336.0","3JWH6J9I9TZFJACSX135KLH72Q0NB0","A3KH1OG87C8DCM","3P7RGTLO6EZ76AO3386R8ZK9IWWKAW","","425.5","img/flower2.png","75","426.0999999642372","2","1","2","1","1,0.333,0.333,0.333,1,0.333,0.333,0.333,1","1,0.333,0.333,0.333,1,0.333,0.333,0.333,1","1",""
"","html-keyboard-response","337","146457","0.0-337.0","3JWH6J9I9TZFJACSX135KLH72Q0NB0","A3KH1OG87C8DCM","3P7RGTLO6EZ76AO3386R8ZK9IWWKAW","","null","<img src=""img/flower2.png"" style=""width:200px; border:14px solid green;"">","null","","","","","","","","",""
"","image-keyboard-response","338","147210","0.0-338.0","3JWH6J9I9TZFJACSX135KLH72Q0NB0","A3KH1OG87C8DCM","3P7RGTLO6EZ76AO3386R8ZK9IWWKAW","","753.3999999761581","img/flower1.png","75","753.9000000357628","2","1","3","1","1,0.333,0.333,0.333,1,0.333,0.333,0.333,1","1,0.333,0.333,0.333,1,0.333,0.333,0.333,1","1",""
"","html-keyboard-response","339","147513","0.0-339.0","3JWH6J9I9TZFJACSX135KLH72Q0NB0","A3KH1OG87C8DCM","3P7RGTLO6EZ76AO3386R8ZK9IWWKAW","","null","<img src=""img/flower1.png"" style=""width:200px; border:14px solid green;"">","null","","","","","","","","",""
"","image-keyboard-response","340","148074","0.0-340.0","3JWH6J9I9TZFJACSX135KLH72Q0NB0","A3KH1OG87C8DCM","3P7RGTLO6EZ76AO3386R8ZK9IWWKAW","","561.2000000476837","img/flower2.png","76","561.6000000238419","3","0","2","1","1,0.333,0.333,0.333,1,0.333,0.333,0.333,1","1,0.333,0.333,0.333,1,0.333,0.333,0.333,1","1",""
"","html-keyboard-response","341","148376","0.0-341.0","3JWH6J9I9TZFJACSX135KLH72Q0NB0","A3KH1OG87C8DCM","3P7RGTLO6EZ76AO3386R8ZK9IWWKAW","","null","<img src=""img/flower2.png"" style=""width:200px;border:14px solid red;"">","null","","","","","","","","",""
"","image-keyboard-response","342","149130","0.0-342.0","3JWH6J9I9TZFJACSX135KLH72Q0NB0","A3KH1OG87C8DCM","3P7RGTLO6EZ76AO3386R8ZK9IWWKAW","","753.5","img/flower5.png","74","754","1","1","1","1","1,0.333,0.333,0.333,1,0.333,0.333,0.333,1","1,0.333,0.333,0.333,1,0.333,0.333,0.333,1","1",""
"","html-keyboard-response","343","149433","0.0-343.0","3JWH6J9I9TZFJACSX135KLH72Q0NB0","A3KH1OG87C8DCM","3P7RGTLO6EZ76AO3386R8ZK9IWWKAW","","null","<img src=""img/flower5.png"" style=""width:200px; border:14px solid green;"">","null","","","","","","","","",""
"","image-keyboard-response","344","149827","0.0-344.0","3JWH6J9I9TZFJACSX135KLH72Q0NB0","A3KH1OG87C8DCM","3P7RGTLO6EZ76AO3386R8ZK9IWWKAW","","393.30000001192093","img/flower1.png","75","393.89999997615814","2","0","3","1","1,0.333,0.333,0.333,1,0.333,0.333,0.333,1","1,0.333,0.333,0.333,1,0.333,0.333,0.333,1","1",""
"","html-keyboard-response","345","150129","0.0-345.0","3JWH6J9I9TZFJACSX135KLH72Q0NB0","A3KH1OG87C8DCM","3P7RGTLO6EZ76AO3386R8ZK9IWWKAW","","null","<img src=""img/flower1.png"" style=""width:200px;border:14px solid red;"">","null","","","","","","","","",""
"","image-keyboard-response","346","150778","0.0-346.0","3JWH6J9I9TZFJACSX135KLH72Q0NB0","A3KH1OG87C8DCM","3P7RGTLO6EZ76AO3386R8ZK9IWWKAW","","649.1000000238419","img/flower2.png","75","649.6999999880791","2","1","2","1","1,0.333,0.333,0.333,1,0.333,0.333,0.333,1","1,0.333,0.333,0.333,1,0.333,0.333,0.333,1","1",""
"","html-keyboard-response","347","151087","0.0-347.0","3JWH6J9I9TZFJACSX135KLH72Q0NB0","A3KH1OG87C8DCM","3P7RGTLO6EZ76AO3386R8ZK9IWWKAW","","null","<img src=""img/flower2.png"" style=""width:200px; border:14px solid green;"">","null","","","","","","","","",""
"","image-keyboard-response","348","151403","0.0-348.0","3JWH6J9I9TZFJACSX135KLH72Q0NB0","A3KH1OG87C8DCM","3P7RGTLO6EZ76AO3386R8ZK9IWWKAW","","315","img/flower2.png","75","315.39999997615814","2","1","2","1","1,0.333,0.333,0.333,1,0.333,0.333,0.333,1","1,0.333,0.333,0.333,1,0.333,0.333,0.333,1","1",""
"","html-keyboard-response","349","151704","0.0-349.0","3JWH6J9I9TZFJACSX135KLH72Q0NB0","A3KH1OG87C8DCM","3P7RGTLO6EZ76AO3386R8ZK9IWWKAW","","null","<img src=""img/flower2.png"" style=""width:200px; border:14px solid green;"">","null","","","","","","","","",""
"","image-keyboard-response","350","152002","0.0-350.0","3JWH6J9I9TZFJACSX135KLH72Q0NB0","A3KH1OG87C8DCM","3P7RGTLO6EZ76AO3386R8ZK9IWWKAW","","297.5","img/flower2.png","75","297.80000001192093","2","1","2","1","1,0.333,0.333,0.333,1,0.333,0.333,0.333,1","1,0.333,0.333,0.333,1,0.333,0.333,0.333,1","1",""
"","html-keyboard-response","351","152305","0.0-351.0","3JWH6J9I9TZFJACSX135KLH72Q0NB0","A3KH1OG87C8DCM","3P7RGTLO6EZ76AO3386R8ZK9IWWKAW","","null","<img src=""img/flower2.png"" style=""width:200px; border:14px solid green;"">","null","","","","","","","","",""
"","image-keyboard-response","352","152730","0.0-352.0","3JWH6J9I9TZFJACSX135KLH72Q0NB0","A3KH1OG87C8DCM","3P7RGTLO6EZ76AO3386R8ZK9IWWKAW","","425","img/flower1.png","76","425.39999997615814","3","1","3","1","1,0.333,0.333,0.333,1,0.333,0.333,0.333,1","1,0.333,0.333,0.333,1,0.333,0.333,0.333,1","1",""
"","html-keyboard-response","353","153032","0.0-353.0","3JWH6J9I9TZFJACSX135KLH72Q0NB0","A3KH1OG87C8DCM","3P7RGTLO6EZ76AO3386R8ZK9IWWKAW","","null","<img src=""img/flower1.png"" style=""width:200px; border:14px solid green;"">","null","","","","","","","","",""
"","image-keyboard-response","354","153482","0.0-354.0","3JWH6J9I9TZFJACSX135KLH72Q0NB0","A3KH1OG87C8DCM","3P7RGTLO6EZ76AO3386R8ZK9IWWKAW","","449.9000000357628","img/flower5.png","75","450.5999999642372","2","0","1","1","1,0.333,0.333,0.333,1,0.333,0.333,0.333,1","1,0.333,0.333,0.333,1,0.333,0.333,0.333,1","1",""
"","html-keyboard-response","355","153784","0.0-355.0","3JWH6J9I9TZFJACSX135KLH72Q0NB0","A3KH1OG87C8DCM","3P7RGTLO6EZ76AO3386R8ZK9IWWKAW","","null","<img src=""img/flower5.png"" style=""width:200px;border:14px solid red;"">","null","","","","","","","","",""
"","image-keyboard-response","356","154386","0.0-356.0","3JWH6J9I9TZFJACSX135KLH72Q0NB0","A3KH1OG87C8DCM","3P7RGTLO6EZ76AO3386R8ZK9IWWKAW","","601.9000000357628","img/flower1.png","76","602.4000000357628","3","1","3","1","1,0.333,0.333,0.333,1,0.333,0.333,0.333,1","1,0.333,0.333,0.333,1,0.333,0.333,0.333,1","1",""
"","html-keyboard-response","357","154699","0.0-357.0","3JWH6J9I9TZFJACSX135KLH72Q0NB0","A3KH1OG87C8DCM","3P7RGTLO6EZ76AO3386R8ZK9IWWKAW","","null","<img src=""img/flower1.png"" style=""width:200px; border:14px solid green;"">","null","","","","","","","","",""
"","image-keyboard-response","358","155074","0.0-358.0","3JWH6J9I9TZFJACSX135KLH72Q0NB0","A3KH1OG87C8DCM","3P7RGTLO6EZ76AO3386R8ZK9IWWKAW","","374.4000000357628","img/flower5.png","74","374.9000000357628","1","1","1","1","1,0.333,0.333,0.333,1,0.333,0.333,0.333,1","1,0.333,0.333,0.333,1,0.333,0.333,0.333,1","1",""
"","html-keyboard-response","359","155377","0.0-359.0","3JWH6J9I9TZFJACSX135KLH72Q0NB0","A3KH1OG87C8DCM","3P7RGTLO6EZ76AO3386R8ZK9IWWKAW","","null","<img src=""img/flower5.png"" style=""width:200px; border:14px solid green;"">","null","","","","","","","","",""
"","image-keyboard-response","360","155858","0.0-360.0","3JWH6J9I9TZFJACSX135KLH72Q0NB0","A3KH1OG87C8DCM","3P7RGTLO6EZ76AO3386R8ZK9IWWKAW","","481.2000000476837","img/flower5.png","74","481.89999997615814","1","1","1","1","1,0.333,0.333,0.333,1,0.333,0.333,0.333,1","1,0.333,0.333,0.333,1,0.333,0.333,0.333,1","1",""
"","html-keyboard-response","361","156161","0.0-361.0","3JWH6J9I9TZFJACSX135KLH72Q0NB0","A3KH1OG87C8DCM","3P7RGTLO6EZ76AO3386R8ZK9IWWKAW","","null","<img src=""img/flower5.png"" style=""width:200px; border:14px solid green;"">","null","","","","","","","","",""
"","html-keyboard-response","362","162327","0.0-362.0","3JWH6J9I9TZFJACSX135KLH72Q0NB0","A3KH1OG87C8DCM","3P7RGTLO6EZ76AO3386R8ZK9IWWKAW","","","","","","","","","","","","",""
