"rt","url","trial_type","trial_index","time_elapsed","internal_node_id","assignmentID","mturkID","hitID","success","view_history","stimulus","key_press","reactionTime","a","r","s","reward_cond","responses"
"20442.700000047684","consent.html","external-html","0","20511","0.0-0.0","3ZSY5X72NYXKH2TTUDP8ZPMG7N4ROR","A3L0DCUXI7X3A9","3H6W48L9F4B5OEOMH57RM53Z4H1WP0","","","","","","","","","",""
"","","fullscreen","1","36426","0.0-1.0","3ZSY5X72NYXKH2TTUDP8ZPMG7N4ROR","A3L0DCUXI7X3A9","3H6W48L9F4B5OEOMH57RM53Z4H1WP0","true","","","","","","","","",""
"78829","","instructions","2","115257","0.0-2.0","3ZSY5X72NYXKH2TTUDP8ZPMG7N4ROR","A3L0DCUXI7X3A9","3H6W48L9F4B5OEOMH57RM53Z4H1WP0","","[{""page_index"":0,""viewing_time"":13965.800000071526},{""page_index"":1,""viewing_time"":10459.699999928474},{""page_index"":2,""viewing_time"":14485.200000047684},{""page_index"":3,""viewing_time"":9670.299999952316},{""page_index"":4,""viewing_time"":7465.800000071526},{""page_index"":5,""viewing_time"":12036},{""page_index"":6,""viewing_time"":10745.599999904633}]","","","","","","","",""
"28380.5","","instructions","3","143638","0.0-3.0","3ZSY5X72NYXKH2TTUDP8ZPMG7N4ROR","A3L0DCUXI7X3A9","3H6W48L9F4B5OEOMH57RM53Z4H1WP0","","[{""page_index"":0,""viewing_time"":28380.5}]","","","","","","","",""
"981.2999999523163","","image-keyboard-response","4","144620","0.0-4.0","3ZSY5X72NYXKH2TTUDP8ZPMG7N4ROR","A3L0DCUXI7X3A9","3H6W48L9F4B5OEOMH57RM53Z4H1WP0","","","img/flower5.png","75","982.5999999046326","2","1","2","",""
"null","","html-keyboard-response","5","144935","0.0-5.0","3ZSY5X72NYXKH2TTUDP8ZPMG7N4ROR","A3L0DCUXI7X3A9","3H6W48L9F4B5OEOMH57RM53Z4H1WP0","","","<img src=""img/flower5.png"" style=""width:200px; border:14px solid green;"">","null","","","","","",""
"624.5","","image-keyboard-response","6","145562","0.0-6.0","3ZSY5X72NYXKH2TTUDP8ZPMG7N4ROR","A3L0DCUXI7X3A9","3H6W48L9F4B5OEOMH57RM53Z4H1WP0","","","img/flower6.png","76","625.8000000715256","3","1","3","",""
"null","","html-keyboard-response","7","145869","0.0-7.0","3ZSY5X72NYXKH2TTUDP8ZPMG7N4ROR","A3L0DCUXI7X3A9","3H6W48L9F4B5OEOMH57RM53Z4H1WP0","","","<img src=""img/flower6.png"" style=""width:200px; border:14px solid green;"">","null","","","","","",""
"747.3999999761581","","image-keyboard-response","8","146618","0.0-8.0","3ZSY5X72NYXKH2TTUDP8ZPMG7N4ROR","A3L0DCUXI7X3A9","3H6W48L9F4B5OEOMH57RM53Z4H1WP0","","","img/flower5.png","75","748.7999999523163","2","1","2","",""
"null","","html-keyboard-response","9","146925","0.0-9.0","3ZSY5X72NYXKH2TTUDP8ZPMG7N4ROR","A3L0DCUXI7X3A9","3H6W48L9F4B5OEOMH57RM53Z4H1WP0","","","<img src=""img/flower5.png"" style=""width:200px; border:14px solid green;"">","null","","","","","",""
"666.2000000476837","","image-keyboard-response","10","147593","0.0-10.0","3ZSY5X72NYXKH2TTUDP8ZPMG7N4ROR","A3L0DCUXI7X3A9","3H6W48L9F4B5OEOMH57RM53Z4H1WP0","","","img/flower6.png","76","667.3999999761581","3","1","3","",""
"null","","html-keyboard-response","11","147906","0.0-11.0","3ZSY5X72NYXKH2TTUDP8ZPMG7N4ROR","A3L0DCUXI7X3A9","3H6W48L9F4B5OEOMH57RM53Z4H1WP0","","","<img src=""img/flower6.png"" style=""width:200px; border:14px solid green;"">","null","","","","","",""
"725.7000000476837","","image-keyboard-response","12","148633","0.0-12.0","3ZSY5X72NYXKH2TTUDP8ZPMG7N4ROR","A3L0DCUXI7X3A9","3H6W48L9F4B5OEOMH57RM53Z4H1WP0","","","img/flower5.png","75","726.8999999761581","2","1","2","",""
"null","","html-keyboard-response","13","148945","0.0-13.0","3ZSY5X72NYXKH2TTUDP8ZPMG7N4ROR","A3L0DCUXI7X3A9","3H6W48L9F4B5OEOMH57RM53Z4H1WP0","","","<img src=""img/flower5.png"" style=""width:200px; border:14px solid green;"">","null","","","","","",""
"647.2999999523163","","image-keyboard-response","14","149593","0.0-14.0","3ZSY5X72NYXKH2TTUDP8ZPMG7N4ROR","A3L0DCUXI7X3A9","3H6W48L9F4B5OEOMH57RM53Z4H1WP0","","","img/flower4.png","74","648","1","1","1","",""
"null","","html-keyboard-response","15","149909","0.0-15.0","3ZSY5X72NYXKH2TTUDP8ZPMG7N4ROR","A3L0DCUXI7X3A9","3H6W48L9F4B5OEOMH57RM53Z4H1WP0","","","<img src=""img/flower4.png"" style=""width:200px; border:14px solid green;"">","null","","","","","",""
"771.8999999761581","","image-keyboard-response","16","150682","0.0-16.0","3ZSY5X72NYXKH2TTUDP8ZPMG7N4ROR","A3L0DCUXI7X3A9","3H6W48L9F4B5OEOMH57RM53Z4H1WP0","","","img/flower6.png","76","772.8000000715256","3","0","3","",""
"null","","html-keyboard-response","17","150998","0.0-17.0","3ZSY5X72NYXKH2TTUDP8ZPMG7N4ROR","A3L0DCUXI7X3A9","3H6W48L9F4B5OEOMH57RM53Z4H1WP0","","","<img src=""img/flower6.png"" style=""width:200px;border:14px solid red;"">","null","","","","","",""
"1266.5999999046326","","image-keyboard-response","18","152266","0.0-18.0","3ZSY5X72NYXKH2TTUDP8ZPMG7N4ROR","A3L0DCUXI7X3A9","3H6W48L9F4B5OEOMH57RM53Z4H1WP0","","","img/flower5.png","75","1267.5999999046326","2","1","2","",""
"null","","html-keyboard-response","19","152573","0.0-19.0","3ZSY5X72NYXKH2TTUDP8ZPMG7N4ROR","A3L0DCUXI7X3A9","3H6W48L9F4B5OEOMH57RM53Z4H1WP0","","","<img src=""img/flower5.png"" style=""width:200px; border:14px solid green;"">","null","","","","","",""
"748","","image-keyboard-response","20","153323","0.0-20.0","3ZSY5X72NYXKH2TTUDP8ZPMG7N4ROR","A3L0DCUXI7X3A9","3H6W48L9F4B5OEOMH57RM53Z4H1WP0","","","img/flower6.png","76","749.4000000953674","3","1","3","",""
"null","","html-keyboard-response","21","153631","0.0-21.0","3ZSY5X72NYXKH2TTUDP8ZPMG7N4ROR","A3L0DCUXI7X3A9","3H6W48L9F4B5OEOMH57RM53Z4H1WP0","","","<img src=""img/flower6.png"" style=""width:200px; border:14px solid green;"">","null","","","","","",""
"760.6000000238419","","image-keyboard-response","22","154393","0.0-22.0","3ZSY5X72NYXKH2TTUDP8ZPMG7N4ROR","A3L0DCUXI7X3A9","3H6W48L9F4B5OEOMH57RM53Z4H1WP0","","","img/flower4.png","74","761.6000000238419","1","0","1","",""
"null","","html-keyboard-response","23","154704","0.0-23.0","3ZSY5X72NYXKH2TTUDP8ZPMG7N4ROR","A3L0DCUXI7X3A9","3H6W48L9F4B5OEOMH57RM53Z4H1WP0","","","<img src=""img/flower4.png"" style=""width:200px;border:14px solid red;"">","null","","","","","",""
"697.8999999761581","","image-keyboard-response","24","155403","0.0-24.0","3ZSY5X72NYXKH2TTUDP8ZPMG7N4ROR","A3L0DCUXI7X3A9","3H6W48L9F4B5OEOMH57RM53Z4H1WP0","","","img/flower4.png","74","699","1","1","1","",""
"null","","html-keyboard-response","25","155717","0.0-25.0","3ZSY5X72NYXKH2TTUDP8ZPMG7N4ROR","A3L0DCUXI7X3A9","3H6W48L9F4B5OEOMH57RM53Z4H1WP0","","","<img src=""img/flower4.png"" style=""width:200px; border:14px solid green;"">","null","","","","","",""
"803.7999999523163","","image-keyboard-response","26","156522","0.0-26.0","3ZSY5X72NYXKH2TTUDP8ZPMG7N4ROR","A3L0DCUXI7X3A9","3H6W48L9F4B5OEOMH57RM53Z4H1WP0","","","img/flower6.png","76","805","3","1","3","",""
"null","","html-keyboard-response","27","156832","0.0-27.0","3ZSY5X72NYXKH2TTUDP8ZPMG7N4ROR","A3L0DCUXI7X3A9","3H6W48L9F4B5OEOMH57RM53Z4H1WP0","","","<img src=""img/flower6.png"" style=""width:200px; border:14px solid green;"">","null","","","","","",""
"583.8000000715256","","image-keyboard-response","28","157417","0.0-28.0","3ZSY5X72NYXKH2TTUDP8ZPMG7N4ROR","A3L0DCUXI7X3A9","3H6W48L9F4B5OEOMH57RM53Z4H1WP0","","","img/flower6.png","76","584.8000000715256","3","1","3","",""
"null","","html-keyboard-response","29","157719","0.0-29.0","3ZSY5X72NYXKH2TTUDP8ZPMG7N4ROR","A3L0DCUXI7X3A9","3H6W48L9F4B5OEOMH57RM53Z4H1WP0","","","<img src=""img/flower6.png"" style=""width:200px; border:14px solid green;"">","null","","","","","",""
"850.2000000476837","","image-keyboard-response","30","158570","0.0-30.0","3ZSY5X72NYXKH2TTUDP8ZPMG7N4ROR","A3L0DCUXI7X3A9","3H6W48L9F4B5OEOMH57RM53Z4H1WP0","","","img/flower4.png","74","851.2000000476837","1","1","1","",""
"null","","html-keyboard-response","31","158885","0.0-31.0","3ZSY5X72NYXKH2TTUDP8ZPMG7N4ROR","A3L0DCUXI7X3A9","3H6W48L9F4B5OEOMH57RM53Z4H1WP0","","","<img src=""img/flower4.png"" style=""width:200px; border:14px solid green;"">","null","","","","","",""
"1043.5999999046326","","image-keyboard-response","32","159930","0.0-32.0","3ZSY5X72NYXKH2TTUDP8ZPMG7N4ROR","A3L0DCUXI7X3A9","3H6W48L9F4B5OEOMH57RM53Z4H1WP0","","","img/flower6.png","76","1044.8000000715256","3","0","3","",""
"null","","html-keyboard-response","33","160235","0.0-33.0","3ZSY5X72NYXKH2TTUDP8ZPMG7N4ROR","A3L0DCUXI7X3A9","3H6W48L9F4B5OEOMH57RM53Z4H1WP0","","","<img src=""img/flower6.png"" style=""width:200px;border:14px solid red;"">","null","","","","","",""
"1021.7000000476837","","image-keyboard-response","34","161258","0.0-34.0","3ZSY5X72NYXKH2TTUDP8ZPMG7N4ROR","A3L0DCUXI7X3A9","3H6W48L9F4B5OEOMH57RM53Z4H1WP0","","","img/flower4.png","74","1022.8999999761581","1","1","1","",""
"null","","html-keyboard-response","35","161569","0.0-35.0","3ZSY5X72NYXKH2TTUDP8ZPMG7N4ROR","A3L0DCUXI7X3A9","3H6W48L9F4B5OEOMH57RM53Z4H1WP0","","","<img src=""img/flower4.png"" style=""width:200px; border:14px solid green;"">","null","","","","","",""
"502.7999999523163","","image-keyboard-response","36","162074","0.0-36.0","3ZSY5X72NYXKH2TTUDP8ZPMG7N4ROR","A3L0DCUXI7X3A9","3H6W48L9F4B5OEOMH57RM53Z4H1WP0","","","img/flower6.png","76","504","3","1","3","",""
"null","","html-keyboard-response","37","162376","0.0-37.0","3ZSY5X72NYXKH2TTUDP8ZPMG7N4ROR","A3L0DCUXI7X3A9","3H6W48L9F4B5OEOMH57RM53Z4H1WP0","","","<img src=""img/flower6.png"" style=""width:200px; border:14px solid green;"">","null","","","","","",""
"720.3000000715256","","image-keyboard-response","38","163098","0.0-38.0","3ZSY5X72NYXKH2TTUDP8ZPMG7N4ROR","A3L0DCUXI7X3A9","3H6W48L9F4B5OEOMH57RM53Z4H1WP0","","","img/flower5.png","75","721.5","2","1","2","",""
"null","","html-keyboard-response","39","163403","0.0-39.0","3ZSY5X72NYXKH2TTUDP8ZPMG7N4ROR","A3L0DCUXI7X3A9","3H6W48L9F4B5OEOMH57RM53Z4H1WP0","","","<img src=""img/flower5.png"" style=""width:200px; border:14px solid green;"">","null","","","","","",""
"445.5","","image-keyboard-response","40","163850","0.0-40.0","3ZSY5X72NYXKH2TTUDP8ZPMG7N4ROR","A3L0DCUXI7X3A9","3H6W48L9F4B5OEOMH57RM53Z4H1WP0","","","img/flower5.png","75","446.7999999523163","2","1","2","",""
"null","","html-keyboard-response","41","164161","0.0-41.0","3ZSY5X72NYXKH2TTUDP8ZPMG7N4ROR","A3L0DCUXI7X3A9","3H6W48L9F4B5OEOMH57RM53Z4H1WP0","","","<img src=""img/flower5.png"" style=""width:200px; border:14px solid green;"">","null","","","","","",""
"729.1999999284744","","image-keyboard-response","42","164891","0.0-42.0","3ZSY5X72NYXKH2TTUDP8ZPMG7N4ROR","A3L0DCUXI7X3A9","3H6W48L9F4B5OEOMH57RM53Z4H1WP0","","","img/flower4.png","74","729.8000000715256","1","1","1","",""
"null","","html-keyboard-response","43","165202","0.0-43.0","3ZSY5X72NYXKH2TTUDP8ZPMG7N4ROR","A3L0DCUXI7X3A9","3H6W48L9F4B5OEOMH57RM53Z4H1WP0","","","<img src=""img/flower4.png"" style=""width:200px; border:14px solid green;"">","null","","","","","",""
"455","","image-keyboard-response","44","165659","0.0-44.0","3ZSY5X72NYXKH2TTUDP8ZPMG7N4ROR","A3L0DCUXI7X3A9","3H6W48L9F4B5OEOMH57RM53Z4H1WP0","","","img/flower4.png","74","456.1999999284744","1","1","1","",""
"null","","html-keyboard-response","45","165966","0.0-45.0","3ZSY5X72NYXKH2TTUDP8ZPMG7N4ROR","A3L0DCUXI7X3A9","3H6W48L9F4B5OEOMH57RM53Z4H1WP0","","","<img src=""img/flower4.png"" style=""width:200px; border:14px solid green;"">","null","","","","","",""
"698.5","","image-keyboard-response","46","166666","0.0-46.0","3ZSY5X72NYXKH2TTUDP8ZPMG7N4ROR","A3L0DCUXI7X3A9","3H6W48L9F4B5OEOMH57RM53Z4H1WP0","","","img/flower6.png","76","699.7000000476837","3","1","3","",""
"null","","html-keyboard-response","47","166975","0.0-47.0","3ZSY5X72NYXKH2TTUDP8ZPMG7N4ROR","A3L0DCUXI7X3A9","3H6W48L9F4B5OEOMH57RM53Z4H1WP0","","","<img src=""img/flower6.png"" style=""width:200px; border:14px solid green;"">","null","","","","","",""
"824.8999999761581","","image-keyboard-response","48","167801","0.0-48.0","3ZSY5X72NYXKH2TTUDP8ZPMG7N4ROR","A3L0DCUXI7X3A9","3H6W48L9F4B5OEOMH57RM53Z4H1WP0","","","img/flower5.png","75","825.7999999523163","2","1","2","",""
"null","","html-keyboard-response","49","168108","0.0-49.0","3ZSY5X72NYXKH2TTUDP8ZPMG7N4ROR","A3L0DCUXI7X3A9","3H6W48L9F4B5OEOMH57RM53Z4H1WP0","","","<img src=""img/flower5.png"" style=""width:200px; border:14px solid green;"">","null","","","","","",""
"957.1000000238419","","image-keyboard-response","50","169067","0.0-50.0","3ZSY5X72NYXKH2TTUDP8ZPMG7N4ROR","A3L0DCUXI7X3A9","3H6W48L9F4B5OEOMH57RM53Z4H1WP0","","","img/flower6.png","76","958.3000000715256","3","1","3","",""
"null","","html-keyboard-response","51","169372","0.0-51.0","3ZSY5X72NYXKH2TTUDP8ZPMG7N4ROR","A3L0DCUXI7X3A9","3H6W48L9F4B5OEOMH57RM53Z4H1WP0","","","<img src=""img/flower6.png"" style=""width:200px; border:14px solid green;"">","null","","","","","",""
"669","","image-keyboard-response","52","170042","0.0-52.0","3ZSY5X72NYXKH2TTUDP8ZPMG7N4ROR","A3L0DCUXI7X3A9","3H6W48L9F4B5OEOMH57RM53Z4H1WP0","","","img/flower4.png","74","669.7000000476837","1","1","1","",""
"null","","html-keyboard-response","53","170348","0.0-53.0","3ZSY5X72NYXKH2TTUDP8ZPMG7N4ROR","A3L0DCUXI7X3A9","3H6W48L9F4B5OEOMH57RM53Z4H1WP0","","","<img src=""img/flower4.png"" style=""width:200px; border:14px solid green;"">","null","","","","","",""
"1292.2999999523163","","image-keyboard-response","54","171642","0.0-54.0","3ZSY5X72NYXKH2TTUDP8ZPMG7N4ROR","A3L0DCUXI7X3A9","3H6W48L9F4B5OEOMH57RM53Z4H1WP0","","","img/flower5.png","75","1293.6000000238419","2","1","2","",""
"null","","html-keyboard-response","55","171949","0.0-55.0","3ZSY5X72NYXKH2TTUDP8ZPMG7N4ROR","A3L0DCUXI7X3A9","3H6W48L9F4B5OEOMH57RM53Z4H1WP0","","","<img src=""img/flower5.png"" style=""width:200px; border:14px solid green;"">","null","","","","","",""
"1019.3999999761581","","image-keyboard-response","56","172970","0.0-56.0","3ZSY5X72NYXKH2TTUDP8ZPMG7N4ROR","A3L0DCUXI7X3A9","3H6W48L9F4B5OEOMH57RM53Z4H1WP0","","","img/flower4.png","74","1020.6000000238419","1","1","1","",""
"null","","html-keyboard-response","57","173284","0.0-57.0","3ZSY5X72NYXKH2TTUDP8ZPMG7N4ROR","A3L0DCUXI7X3A9","3H6W48L9F4B5OEOMH57RM53Z4H1WP0","","","<img src=""img/flower4.png"" style=""width:200px; border:14px solid green;"">","null","","","","","",""
"500.7999999523163","","image-keyboard-response","58","173786","0.0-58.0","3ZSY5X72NYXKH2TTUDP8ZPMG7N4ROR","A3L0DCUXI7X3A9","3H6W48L9F4B5OEOMH57RM53Z4H1WP0","","","img/flower4.png","74","501.6999999284744","1","1","1","",""
"null","","html-keyboard-response","59","174092","0.0-59.0","3ZSY5X72NYXKH2TTUDP8ZPMG7N4ROR","A3L0DCUXI7X3A9","3H6W48L9F4B5OEOMH57RM53Z4H1WP0","","","<img src=""img/flower4.png"" style=""width:200px; border:14px solid green;"">","null","","","","","",""
"908.3000000715256","","image-keyboard-response","60","175002","0.0-60.0","3ZSY5X72NYXKH2TTUDP8ZPMG7N4ROR","A3L0DCUXI7X3A9","3H6W48L9F4B5OEOMH57RM53Z4H1WP0","","","img/flower5.png","75","909.5","2","1","2","",""
"null","","html-keyboard-response","61","175306","0.0-61.0","3ZSY5X72NYXKH2TTUDP8ZPMG7N4ROR","A3L0DCUXI7X3A9","3H6W48L9F4B5OEOMH57RM53Z4H1WP0","","","<img src=""img/flower5.png"" style=""width:200px; border:14px solid green;"">","null","","","","","",""
"429.7000000476837","","image-keyboard-response","62","175737","0.0-62.0","3ZSY5X72NYXKH2TTUDP8ZPMG7N4ROR","A3L0DCUXI7X3A9","3H6W48L9F4B5OEOMH57RM53Z4H1WP0","","","img/flower5.png","75","431","2","1","2","",""
"null","","html-keyboard-response","63","176044","0.0-63.0","3ZSY5X72NYXKH2TTUDP8ZPMG7N4ROR","A3L0DCUXI7X3A9","3H6W48L9F4B5OEOMH57RM53Z4H1WP0","","","<img src=""img/flower5.png"" style=""width:200px; border:14px solid green;"">","null","","","","","",""
"16495.399999976158","","instructions","64","192541","0.0-64.0","3ZSY5X72NYXKH2TTUDP8ZPMG7N4ROR","A3L0DCUXI7X3A9","3H6W48L9F4B5OEOMH57RM53Z4H1WP0","","[{""page_index"":0,""viewing_time"":5987.200000047684},{""page_index"":1,""viewing_time"":10508}]","","","","","","","",""
"941","","image-keyboard-response","65","193483","0.0-65.0","3ZSY5X72NYXKH2TTUDP8ZPMG7N4ROR","A3L0DCUXI7X3A9","3H6W48L9F4B5OEOMH57RM53Z4H1WP0","","","img/flower5.png","75","942","2","0","2","",""
"null","","html-keyboard-response","66","193793","0.0-66.0","3ZSY5X72NYXKH2TTUDP8ZPMG7N4ROR","A3L0DCUXI7X3A9","3H6W48L9F4B5OEOMH57RM53Z4H1WP0","","","<img src=""img/flower5.png"" style=""width:200px;border:14px solid red;"">","null","","","","","",""
"680","","image-keyboard-response","67","194474","0.0-67.0","3ZSY5X72NYXKH2TTUDP8ZPMG7N4ROR","A3L0DCUXI7X3A9","3H6W48L9F4B5OEOMH57RM53Z4H1WP0","","","img/flower6.png","76","681.1000000238419","3","1","3","",""
"null","","html-keyboard-response","68","194788","0.0-68.0","3ZSY5X72NYXKH2TTUDP8ZPMG7N4ROR","A3L0DCUXI7X3A9","3H6W48L9F4B5OEOMH57RM53Z4H1WP0","","","<img src=""img/flower6.png"" style=""width:200px; border:14px solid green;"">","null","","","","","",""
"389.10000002384186","","image-keyboard-response","69","195178","0.0-69.0","3ZSY5X72NYXKH2TTUDP8ZPMG7N4ROR","A3L0DCUXI7X3A9","3H6W48L9F4B5OEOMH57RM53Z4H1WP0","","","img/flower6.png","76","390.1999999284744","3","1","3","",""
"null","","html-keyboard-response","70","195484","0.0-70.0","3ZSY5X72NYXKH2TTUDP8ZPMG7N4ROR","A3L0DCUXI7X3A9","3H6W48L9F4B5OEOMH57RM53Z4H1WP0","","","<img src=""img/flower6.png"" style=""width:200px; border:14px solid green;"">","null","","","","","",""
"396.09999990463257","","image-keyboard-response","71","195882","0.0-71.0","3ZSY5X72NYXKH2TTUDP8ZPMG7N4ROR","A3L0DCUXI7X3A9","3H6W48L9F4B5OEOMH57RM53Z4H1WP0","","","img/flower6.png","76","397.3000000715256","3","1","3","",""
"null","","html-keyboard-response","72","196184","0.0-72.0","3ZSY5X72NYXKH2TTUDP8ZPMG7N4ROR","A3L0DCUXI7X3A9","3H6W48L9F4B5OEOMH57RM53Z4H1WP0","","","<img src=""img/flower6.png"" style=""width:200px; border:14px solid green;"">","null","","","","","",""
"688.0999999046326","","image-keyboard-response","73","196874","0.0-73.0","3ZSY5X72NYXKH2TTUDP8ZPMG7N4ROR","A3L0DCUXI7X3A9","3H6W48L9F4B5OEOMH57RM53Z4H1WP0","","","img/flower4.png","74","689.2000000476837","1","1","1","",""
"null","","html-keyboard-response","74","197188","0.0-74.0","3ZSY5X72NYXKH2TTUDP8ZPMG7N4ROR","A3L0DCUXI7X3A9","3H6W48L9F4B5OEOMH57RM53Z4H1WP0","","","<img src=""img/flower4.png"" style=""width:200px; border:14px solid green;"">","null","","","","","",""
"563.6000000238419","","image-keyboard-response","75","197753","0.0-75.0","3ZSY5X72NYXKH2TTUDP8ZPMG7N4ROR","A3L0DCUXI7X3A9","3H6W48L9F4B5OEOMH57RM53Z4H1WP0","","","img/flower5.png","75","564.5999999046326","2","1","2","",""
"null","","html-keyboard-response","76","198059","0.0-76.0","3ZSY5X72NYXKH2TTUDP8ZPMG7N4ROR","A3L0DCUXI7X3A9","3H6W48L9F4B5OEOMH57RM53Z4H1WP0","","","<img src=""img/flower5.png"" style=""width:200px; border:14px solid green;"">","null","","","","","",""
"637.2999999523163","","image-keyboard-response","77","198698","0.0-77.0","3ZSY5X72NYXKH2TTUDP8ZPMG7N4ROR","A3L0DCUXI7X3A9","3H6W48L9F4B5OEOMH57RM53Z4H1WP0","","","img/flower4.png","74","638.6000000238419","1","0","1","",""
"null","","html-keyboard-response","78","199006","0.0-78.0","3ZSY5X72NYXKH2TTUDP8ZPMG7N4ROR","A3L0DCUXI7X3A9","3H6W48L9F4B5OEOMH57RM53Z4H1WP0","","","<img src=""img/flower4.png"" style=""width:200px;border:14px solid red;"">","null","","","","","",""
"443.39999997615814","","image-keyboard-response","79","199451","0.0-79.0","3ZSY5X72NYXKH2TTUDP8ZPMG7N4ROR","A3L0DCUXI7X3A9","3H6W48L9F4B5OEOMH57RM53Z4H1WP0","","","img/flower4.png","74","444.59999990463257","1","0","1","",""
"null","","html-keyboard-response","80","199764","0.0-80.0","3ZSY5X72NYXKH2TTUDP8ZPMG7N4ROR","A3L0DCUXI7X3A9","3H6W48L9F4B5OEOMH57RM53Z4H1WP0","","","<img src=""img/flower4.png"" style=""width:200px;border:14px solid red;"">","null","","","","","",""
"1093.1000000238419","","image-keyboard-response","81","200859","0.0-81.0","3ZSY5X72NYXKH2TTUDP8ZPMG7N4ROR","A3L0DCUXI7X3A9","3H6W48L9F4B5OEOMH57RM53Z4H1WP0","","","img/flower6.png","76","1094.2999999523163","3","1","3","",""
"null","","html-keyboard-response","82","201162","0.0-82.0","3ZSY5X72NYXKH2TTUDP8ZPMG7N4ROR","A3L0DCUXI7X3A9","3H6W48L9F4B5OEOMH57RM53Z4H1WP0","","","<img src=""img/flower6.png"" style=""width:200px; border:14px solid green;"">","null","","","","","",""
"367.1999999284744","","image-keyboard-response","83","201530","0.0-83.0","3ZSY5X72NYXKH2TTUDP8ZPMG7N4ROR","A3L0DCUXI7X3A9","3H6W48L9F4B5OEOMH57RM53Z4H1WP0","","","img/flower6.png","76","368.40000009536743","3","1","3","",""
"null","","html-keyboard-response","84","201848","0.0-84.0","3ZSY5X72NYXKH2TTUDP8ZPMG7N4ROR","A3L0DCUXI7X3A9","3H6W48L9F4B5OEOMH57RM53Z4H1WP0","","","<img src=""img/flower6.png"" style=""width:200px; border:14px solid green;"">","null","","","","","",""
"801.3999999761581","","image-keyboard-response","85","202651","0.0-85.0","3ZSY5X72NYXKH2TTUDP8ZPMG7N4ROR","A3L0DCUXI7X3A9","3H6W48L9F4B5OEOMH57RM53Z4H1WP0","","","img/flower5.png","75","802.6000000238419","2","1","2","",""
"null","","html-keyboard-response","86","202964","0.0-86.0","3ZSY5X72NYXKH2TTUDP8ZPMG7N4ROR","A3L0DCUXI7X3A9","3H6W48L9F4B5OEOMH57RM53Z4H1WP0","","","<img src=""img/flower5.png"" style=""width:200px; border:14px solid green;"">","null","","","","","",""
"612.2999999523163","","image-keyboard-response","87","203578","0.0-87.0","3ZSY5X72NYXKH2TTUDP8ZPMG7N4ROR","A3L0DCUXI7X3A9","3H6W48L9F4B5OEOMH57RM53Z4H1WP0","","","img/flower4.png","74","613.5","1","0","1","",""
"null","","html-keyboard-response","88","203881","0.0-88.0","3ZSY5X72NYXKH2TTUDP8ZPMG7N4ROR","A3L0DCUXI7X3A9","3H6W48L9F4B5OEOMH57RM53Z4H1WP0","","","<img src=""img/flower4.png"" style=""width:200px;border:14px solid red;"">","null","","","","","",""
"607.6999999284744","","image-keyboard-response","89","204491","0.0-89.0","3ZSY5X72NYXKH2TTUDP8ZPMG7N4ROR","A3L0DCUXI7X3A9","3H6W48L9F4B5OEOMH57RM53Z4H1WP0","","","img/flower5.png","75","608.9000000953674","2","1","2","",""
"null","","html-keyboard-response","90","204799","0.0-90.0","3ZSY5X72NYXKH2TTUDP8ZPMG7N4ROR","A3L0DCUXI7X3A9","3H6W48L9F4B5OEOMH57RM53Z4H1WP0","","","<img src=""img/flower5.png"" style=""width:200px; border:14px solid green;"">","null","","","","","",""
"634.8999999761581","","image-keyboard-response","91","205435","0.0-91.0","3ZSY5X72NYXKH2TTUDP8ZPMG7N4ROR","A3L0DCUXI7X3A9","3H6W48L9F4B5OEOMH57RM53Z4H1WP0","","","img/flower4.png","74","636","1","1","1","",""
"null","","html-keyboard-response","92","205747","0.0-92.0","3ZSY5X72NYXKH2TTUDP8ZPMG7N4ROR","A3L0DCUXI7X3A9","3H6W48L9F4B5OEOMH57RM53Z4H1WP0","","","<img src=""img/flower4.png"" style=""width:200px; border:14px solid green;"">","null","","","","","",""
"422.2000000476837","","image-keyboard-response","93","206170","0.0-93.0","3ZSY5X72NYXKH2TTUDP8ZPMG7N4ROR","A3L0DCUXI7X3A9","3H6W48L9F4B5OEOMH57RM53Z4H1WP0","","","img/flower4.png","74","423.39999997615814","1","1","1","",""
"null","","html-keyboard-response","94","206473","0.0-94.0","3ZSY5X72NYXKH2TTUDP8ZPMG7N4ROR","A3L0DCUXI7X3A9","3H6W48L9F4B5OEOMH57RM53Z4H1WP0","","","<img src=""img/flower4.png"" style=""width:200px; border:14px solid green;"">","null","","","","","",""
"1295.1999999284744","","image-keyboard-response","95","207770","0.0-95.0","3ZSY5X72NYXKH2TTUDP8ZPMG7N4ROR","A3L0DCUXI7X3A9","3H6W48L9F4B5OEOMH57RM53Z4H1WP0","","","img/flower6.png","76","1296.5","3","0","3","",""
"null","","html-keyboard-response","96","208073","0.0-96.0","3ZSY5X72NYXKH2TTUDP8ZPMG7N4ROR","A3L0DCUXI7X3A9","3H6W48L9F4B5OEOMH57RM53Z4H1WP0","","","<img src=""img/flower6.png"" style=""width:200px;border:14px solid red;"">","null","","","","","",""
"720.6000000238419","","image-keyboard-response","97","208795","0.0-97.0","3ZSY5X72NYXKH2TTUDP8ZPMG7N4ROR","A3L0DCUXI7X3A9","3H6W48L9F4B5OEOMH57RM53Z4H1WP0","","","img/flower4.png","74","721.6999999284744","1","1","1","",""
"null","","html-keyboard-response","98","209099","0.0-98.0","3ZSY5X72NYXKH2TTUDP8ZPMG7N4ROR","A3L0DCUXI7X3A9","3H6W48L9F4B5OEOMH57RM53Z4H1WP0","","","<img src=""img/flower4.png"" style=""width:200px; border:14px solid green;"">","null","","","","","",""
"846.3999999761581","","image-keyboard-response","99","209947","0.0-99.0","3ZSY5X72NYXKH2TTUDP8ZPMG7N4ROR","A3L0DCUXI7X3A9","3H6W48L9F4B5OEOMH57RM53Z4H1WP0","","","img/flower5.png","75","847.5","2","1","2","",""
"null","","html-keyboard-response","100","210262","0.0-100.0","3ZSY5X72NYXKH2TTUDP8ZPMG7N4ROR","A3L0DCUXI7X3A9","3H6W48L9F4B5OEOMH57RM53Z4H1WP0","","","<img src=""img/flower5.png"" style=""width:200px; border:14px solid green;"">","null","","","","","",""
"452.39999997615814","","image-keyboard-response","101","210715","0.0-101.0","3ZSY5X72NYXKH2TTUDP8ZPMG7N4ROR","A3L0DCUXI7X3A9","3H6W48L9F4B5OEOMH57RM53Z4H1WP0","","","img/flower5.png","75","453.10000002384186","2","1","2","",""
"null","","html-keyboard-response","102","211022","0.0-102.0","3ZSY5X72NYXKH2TTUDP8ZPMG7N4ROR","A3L0DCUXI7X3A9","3H6W48L9F4B5OEOMH57RM53Z4H1WP0","","","<img src=""img/flower5.png"" style=""width:200px; border:14px solid green;"">","null","","","","","",""
"762.3999999761581","","image-keyboard-response","103","211786","0.0-103.0","3ZSY5X72NYXKH2TTUDP8ZPMG7N4ROR","A3L0DCUXI7X3A9","3H6W48L9F4B5OEOMH57RM53Z4H1WP0","","","img/flower6.png","76","763.6000000238419","3","1","3","",""
"null","","html-keyboard-response","104","212094","0.0-104.0","3ZSY5X72NYXKH2TTUDP8ZPMG7N4ROR","A3L0DCUXI7X3A9","3H6W48L9F4B5OEOMH57RM53Z4H1WP0","","","<img src=""img/flower6.png"" style=""width:200px; border:14px solid green;"">","null","","","","","",""
"1611.2999999523163","","image-keyboard-response","105","213707","0.0-105.0","3ZSY5X72NYXKH2TTUDP8ZPMG7N4ROR","A3L0DCUXI7X3A9","3H6W48L9F4B5OEOMH57RM53Z4H1WP0","","","img/flower5.png","75","1612.6000000238419","2","1","2","",""
"null","","html-keyboard-response","106","214023","0.0-106.0","3ZSY5X72NYXKH2TTUDP8ZPMG7N4ROR","A3L0DCUXI7X3A9","3H6W48L9F4B5OEOMH57RM53Z4H1WP0","","","<img src=""img/flower5.png"" style=""width:200px; border:14px solid green;"">","null","","","","","",""
"641.6999999284744","","image-keyboard-response","107","214666","0.0-107.0","3ZSY5X72NYXKH2TTUDP8ZPMG7N4ROR","A3L0DCUXI7X3A9","3H6W48L9F4B5OEOMH57RM53Z4H1WP0","","","img/flower4.png","74","643.0999999046326","1","1","1","",""
"null","","html-keyboard-response","108","214972","0.0-108.0","3ZSY5X72NYXKH2TTUDP8ZPMG7N4ROR","A3L0DCUXI7X3A9","3H6W48L9F4B5OEOMH57RM53Z4H1WP0","","","<img src=""img/flower4.png"" style=""width:200px; border:14px solid green;"">","null","","","","","",""
"636.8999999761581","","image-keyboard-response","109","215610","0.0-109.0","3ZSY5X72NYXKH2TTUDP8ZPMG7N4ROR","A3L0DCUXI7X3A9","3H6W48L9F4B5OEOMH57RM53Z4H1WP0","","","img/flower5.png","75","638","2","1","2","",""
"null","","html-keyboard-response","110","215920","0.0-110.0","3ZSY5X72NYXKH2TTUDP8ZPMG7N4ROR","A3L0DCUXI7X3A9","3H6W48L9F4B5OEOMH57RM53Z4H1WP0","","","<img src=""img/flower5.png"" style=""width:200px; border:14px solid green;"">","null","","","","","",""
"392.10000002384186","","image-keyboard-response","111","216313","0.0-111.0","3ZSY5X72NYXKH2TTUDP8ZPMG7N4ROR","A3L0DCUXI7X3A9","3H6W48L9F4B5OEOMH57RM53Z4H1WP0","","","img/flower5.png","75","393.10000002384186","2","1","2","",""
"null","","html-keyboard-response","112","216618","0.0-112.0","3ZSY5X72NYXKH2TTUDP8ZPMG7N4ROR","A3L0DCUXI7X3A9","3H6W48L9F4B5OEOMH57RM53Z4H1WP0","","","<img src=""img/flower5.png"" style=""width:200px; border:14px solid green;"">","null","","","","","",""
"687.1000000238419","","image-keyboard-response","113","217307","0.0-113.0","3ZSY5X72NYXKH2TTUDP8ZPMG7N4ROR","A3L0DCUXI7X3A9","3H6W48L9F4B5OEOMH57RM53Z4H1WP0","","","img/flower4.png","74","688.1999999284744","1","1","1","",""
"null","","html-keyboard-response","114","217624","0.0-114.0","3ZSY5X72NYXKH2TTUDP8ZPMG7N4ROR","A3L0DCUXI7X3A9","3H6W48L9F4B5OEOMH57RM53Z4H1WP0","","","<img src=""img/flower4.png"" style=""width:200px; border:14px solid green;"">","null","","","","","",""
"655.6000000238419","","image-keyboard-response","115","218281","0.0-115.0","3ZSY5X72NYXKH2TTUDP8ZPMG7N4ROR","A3L0DCUXI7X3A9","3H6W48L9F4B5OEOMH57RM53Z4H1WP0","","","img/flower6.png","76","656.7000000476837","3","0","3","",""
"null","","html-keyboard-response","116","218588","0.0-116.0","3ZSY5X72NYXKH2TTUDP8ZPMG7N4ROR","A3L0DCUXI7X3A9","3H6W48L9F4B5OEOMH57RM53Z4H1WP0","","","<img src=""img/flower6.png"" style=""width:200px;border:14px solid red;"">","null","","","","","",""
"380.7999999523163","","image-keyboard-response","117","218970","0.0-117.0","3ZSY5X72NYXKH2TTUDP8ZPMG7N4ROR","A3L0DCUXI7X3A9","3H6W48L9F4B5OEOMH57RM53Z4H1WP0","","","img/flower6.png","76","381.40000009536743","3","1","3","",""
"null","","html-keyboard-response","118","219274","0.0-118.0","3ZSY5X72NYXKH2TTUDP8ZPMG7N4ROR","A3L0DCUXI7X3A9","3H6W48L9F4B5OEOMH57RM53Z4H1WP0","","","<img src=""img/flower6.png"" style=""width:200px; border:14px solid green;"">","null","","","","","",""
"430.6999999284744","","image-keyboard-response","119","219706","0.0-119.0","3ZSY5X72NYXKH2TTUDP8ZPMG7N4ROR","A3L0DCUXI7X3A9","3H6W48L9F4B5OEOMH57RM53Z4H1WP0","","","img/flower6.png","76","431.5","3","1","3","",""
"null","","html-keyboard-response","120","220020","0.0-120.0","3ZSY5X72NYXKH2TTUDP8ZPMG7N4ROR","A3L0DCUXI7X3A9","3H6W48L9F4B5OEOMH57RM53Z4H1WP0","","","<img src=""img/flower6.png"" style=""width:200px; border:14px solid green;"">","null","","","","","",""
"821.6000000238419","","image-keyboard-response","121","220843","0.0-121.0","3ZSY5X72NYXKH2TTUDP8ZPMG7N4ROR","A3L0DCUXI7X3A9","3H6W48L9F4B5OEOMH57RM53Z4H1WP0","","","img/flower4.png","74","822.7999999523163","1","0","1","",""
"null","","html-keyboard-response","122","221152","0.0-122.0","3ZSY5X72NYXKH2TTUDP8ZPMG7N4ROR","A3L0DCUXI7X3A9","3H6W48L9F4B5OEOMH57RM53Z4H1WP0","","","<img src=""img/flower4.png"" style=""width:200px;border:14px solid red;"">","null","","","","","",""
"648.3999999761581","","image-keyboard-response","123","221802","0.0-123.0","3ZSY5X72NYXKH2TTUDP8ZPMG7N4ROR","A3L0DCUXI7X3A9","3H6W48L9F4B5OEOMH57RM53Z4H1WP0","","","img/flower5.png","75","649.2000000476837","2","1","2","",""
"null","","html-keyboard-response","124","222105","0.0-124.0","3ZSY5X72NYXKH2TTUDP8ZPMG7N4ROR","A3L0DCUXI7X3A9","3H6W48L9F4B5OEOMH57RM53Z4H1WP0","","","<img src=""img/flower5.png"" style=""width:200px; border:14px solid green;"">","null","","","","","",""
"5318.899999976158","","instructions","125","227425","0.0-125.0","3ZSY5X72NYXKH2TTUDP8ZPMG7N4ROR","A3L0DCUXI7X3A9","3H6W48L9F4B5OEOMH57RM53Z4H1WP0","","[{""page_index"":0,""viewing_time"":5318.600000023842}]","","","","","","","",""
"1095.9000000953674","","image-keyboard-response","126","228521","0.0-126.0","3ZSY5X72NYXKH2TTUDP8ZPMG7N4ROR","A3L0DCUXI7X3A9","3H6W48L9F4B5OEOMH57RM53Z4H1WP0","","","img/flower4.png","74","1096.5","1","0","2","1,1,0,0,1,1,1,0,1",""
"null","","html-keyboard-response","127","228830","0.0-127.0","3ZSY5X72NYXKH2TTUDP8ZPMG7N4ROR","A3L0DCUXI7X3A9","3H6W48L9F4B5OEOMH57RM53Z4H1WP0","","","<img src=""img/flower4.png"" style=""width:200px;border:14px solid red;"">","null","","","","","",""
"1787.7999999523163","","image-keyboard-response","128","230618","0.0-128.0","3ZSY5X72NYXKH2TTUDP8ZPMG7N4ROR","A3L0DCUXI7X3A9","3H6W48L9F4B5OEOMH57RM53Z4H1WP0","","","img/flower2.png","76","1788.2999999523163","3","1","3","1,1,0,0,1,1,1,0,1",""
"null","","html-keyboard-response","129","230925","0.0-129.0","3ZSY5X72NYXKH2TTUDP8ZPMG7N4ROR","A3L0DCUXI7X3A9","3H6W48L9F4B5OEOMH57RM53Z4H1WP0","","","<img src=""img/flower2.png"" style=""width:200px; border:14px solid green;"">","null","","","","","",""
"539.1000000238419","","image-keyboard-response","130","231465","0.0-130.0","3ZSY5X72NYXKH2TTUDP8ZPMG7N4ROR","A3L0DCUXI7X3A9","3H6W48L9F4B5OEOMH57RM53Z4H1WP0","","","img/flower2.png","76","540","3","1","3","1,1,0,0,1,1,1,0,1",""
"null","","html-keyboard-response","131","231769","0.0-131.0","3ZSY5X72NYXKH2TTUDP8ZPMG7N4ROR","A3L0DCUXI7X3A9","3H6W48L9F4B5OEOMH57RM53Z4H1WP0","","","<img src=""img/flower2.png"" style=""width:200px; border:14px solid green;"">","null","","","","","",""
"1343.6000000238419","","image-keyboard-response","132","233113","0.0-132.0","3ZSY5X72NYXKH2TTUDP8ZPMG7N4ROR","A3L0DCUXI7X3A9","3H6W48L9F4B5OEOMH57RM53Z4H1WP0","","","img/flower1.png","74","1344.3999999761581","1","1","1","1,1,0,0,1,1,1,0,1",""
"null","","html-keyboard-response","133","233416","0.0-133.0","3ZSY5X72NYXKH2TTUDP8ZPMG7N4ROR","A3L0DCUXI7X3A9","3H6W48L9F4B5OEOMH57RM53Z4H1WP0","","","<img src=""img/flower1.png"" style=""width:200px; border:14px solid green;"">","null","","","","","",""
"1328.9000000953674","","image-keyboard-response","134","234746","0.0-134.0","3ZSY5X72NYXKH2TTUDP8ZPMG7N4ROR","A3L0DCUXI7X3A9","3H6W48L9F4B5OEOMH57RM53Z4H1WP0","","","img/flower2.png","76","1329.7000000476837","3","1","3","1,1,0,0,1,1,1,0,1",""
"null","","html-keyboard-response","135","235048","0.0-135.0","3ZSY5X72NYXKH2TTUDP8ZPMG7N4ROR","A3L0DCUXI7X3A9","3H6W48L9F4B5OEOMH57RM53Z4H1WP0","","","<img src=""img/flower2.png"" style=""width:200px; border:14px solid green;"">","null","","","","","",""
"608.7999999523163","","image-keyboard-response","136","235658","0.0-136.0","3ZSY5X72NYXKH2TTUDP8ZPMG7N4ROR","A3L0DCUXI7X3A9","3H6W48L9F4B5OEOMH57RM53Z4H1WP0","","","img/flower2.png","76","610","3","1","3","1,1,0,0,1,1,1,0,1",""
"null","","html-keyboard-response","137","235966","0.0-137.0","3ZSY5X72NYXKH2TTUDP8ZPMG7N4ROR","A3L0DCUXI7X3A9","3H6W48L9F4B5OEOMH57RM53Z4H1WP0","","","<img src=""img/flower2.png"" style=""width:200px; border:14px solid green;"">","null","","","","","",""
"523.1000000238419","","image-keyboard-response","138","236490","0.0-138.0","3ZSY5X72NYXKH2TTUDP8ZPMG7N4ROR","A3L0DCUXI7X3A9","3H6W48L9F4B5OEOMH57RM53Z4H1WP0","","","img/flower2.png","76","523.6000000238419","3","1","3","1,1,0,0,1,1,1,0,1",""
"null","","html-keyboard-response","139","236804","0.0-139.0","3ZSY5X72NYXKH2TTUDP8ZPMG7N4ROR","A3L0DCUXI7X3A9","3H6W48L9F4B5OEOMH57RM53Z4H1WP0","","","<img src=""img/flower2.png"" style=""width:200px; border:14px solid green;"">","null","","","","","",""
"883.2999999523163","","image-keyboard-response","140","237689","0.0-140.0","3ZSY5X72NYXKH2TTUDP8ZPMG7N4ROR","A3L0DCUXI7X3A9","3H6W48L9F4B5OEOMH57RM53Z4H1WP0","","","img/flower1.png","74","884.1000000238419","1","1","1","1,1,0,0,1,1,1,0,1",""
"null","","html-keyboard-response","141","238003","0.0-141.0","3ZSY5X72NYXKH2TTUDP8ZPMG7N4ROR","A3L0DCUXI7X3A9","3H6W48L9F4B5OEOMH57RM53Z4H1WP0","","","<img src=""img/flower1.png"" style=""width:200px; border:14px solid green;"">","null","","","","","",""
"868.6999999284744","","image-keyboard-response","142","238873","0.0-142.0","3ZSY5X72NYXKH2TTUDP8ZPMG7N4ROR","A3L0DCUXI7X3A9","3H6W48L9F4B5OEOMH57RM53Z4H1WP0","","","img/flower4.png","75","869.8999999761581","2","1","2","1,1,0,0,1,1,1,0,1",""
"null","","html-keyboard-response","143","239184","0.0-143.0","3ZSY5X72NYXKH2TTUDP8ZPMG7N4ROR","A3L0DCUXI7X3A9","3H6W48L9F4B5OEOMH57RM53Z4H1WP0","","","<img src=""img/flower4.png"" style=""width:200px; border:14px solid green;"">","null","","","","","",""
"1192.3000000715256","","image-keyboard-response","144","240378","0.0-144.0","3ZSY5X72NYXKH2TTUDP8ZPMG7N4ROR","A3L0DCUXI7X3A9","3H6W48L9F4B5OEOMH57RM53Z4H1WP0","","","img/flower2.png","76","1193.5","3","1","3","1,1,0,0,1,1,1,0,1",""
"null","","html-keyboard-response","145","240686","0.0-145.0","3ZSY5X72NYXKH2TTUDP8ZPMG7N4ROR","A3L0DCUXI7X3A9","3H6W48L9F4B5OEOMH57RM53Z4H1WP0","","","<img src=""img/flower2.png"" style=""width:200px; border:14px solid green;"">","null","","","","","",""
"1465.3999999761581","","image-keyboard-response","146","242153","0.0-146.0","3ZSY5X72NYXKH2TTUDP8ZPMG7N4ROR","A3L0DCUXI7X3A9","3H6W48L9F4B5OEOMH57RM53Z4H1WP0","","","img/flower4.png","75","1466.3999999761581","2","1","2","1,1,0,0,1,1,1,0,1",""
"null","","html-keyboard-response","147","242468","0.0-147.0","3ZSY5X72NYXKH2TTUDP8ZPMG7N4ROR","A3L0DCUXI7X3A9","3H6W48L9F4B5OEOMH57RM53Z4H1WP0","","","<img src=""img/flower4.png"" style=""width:200px; border:14px solid green;"">","null","","","","","",""
"1155.6999999284744","","image-keyboard-response","148","243625","0.0-148.0","3ZSY5X72NYXKH2TTUDP8ZPMG7N4ROR","A3L0DCUXI7X3A9","3H6W48L9F4B5OEOMH57RM53Z4H1WP0","","","img/flower2.png","76","1156.8999999761581","3","1","3","1,1,0,0,1,1,1,0,1",""
"null","","html-keyboard-response","149","243929","0.0-149.0","3ZSY5X72NYXKH2TTUDP8ZPMG7N4ROR","A3L0DCUXI7X3A9","3H6W48L9F4B5OEOMH57RM53Z4H1WP0","","","<img src=""img/flower2.png"" style=""width:200px; border:14px solid green;"">","null","","","","","",""
"894.8000000715256","","image-keyboard-response","150","244826","0.0-150.0","3ZSY5X72NYXKH2TTUDP8ZPMG7N4ROR","A3L0DCUXI7X3A9","3H6W48L9F4B5OEOMH57RM53Z4H1WP0","","","img/flower1.png","74","896","1","1","1","1,1,0,0,1,1,1,0,1",""
"null","","html-keyboard-response","151","245142","0.0-151.0","3ZSY5X72NYXKH2TTUDP8ZPMG7N4ROR","A3L0DCUXI7X3A9","3H6W48L9F4B5OEOMH57RM53Z4H1WP0","","","<img src=""img/flower1.png"" style=""width:200px; border:14px solid green;"">","null","","","","","",""
"913.8999999761581","","image-keyboard-response","152","246058","0.0-152.0","3ZSY5X72NYXKH2TTUDP8ZPMG7N4ROR","A3L0DCUXI7X3A9","3H6W48L9F4B5OEOMH57RM53Z4H1WP0","","","img/flower2.png","76","915.1000000238419","3","1","3","1,1,0,0,1,1,1,0,1",""
"null","","html-keyboard-response","153","246373","0.0-153.0","3ZSY5X72NYXKH2TTUDP8ZPMG7N4ROR","A3L0DCUXI7X3A9","3H6W48L9F4B5OEOMH57RM53Z4H1WP0","","","<img src=""img/flower2.png"" style=""width:200px; border:14px solid green;"">","null","","","","","",""
"1170.8999999761581","","image-keyboard-response","154","247545","0.0-154.0","3ZSY5X72NYXKH2TTUDP8ZPMG7N4ROR","A3L0DCUXI7X3A9","3H6W48L9F4B5OEOMH57RM53Z4H1WP0","","","img/flower4.png","75","1171.8000000715256","2","1","2","1,1,0,0,1,1,1,0,1",""
"null","","html-keyboard-response","155","247851","0.0-155.0","3ZSY5X72NYXKH2TTUDP8ZPMG7N4ROR","A3L0DCUXI7X3A9","3H6W48L9F4B5OEOMH57RM53Z4H1WP0","","","<img src=""img/flower4.png"" style=""width:200px; border:14px solid green;"">","null","","","","","",""
"412.5","","image-keyboard-response","156","248264","0.0-156.0","3ZSY5X72NYXKH2TTUDP8ZPMG7N4ROR","A3L0DCUXI7X3A9","3H6W48L9F4B5OEOMH57RM53Z4H1WP0","","","img/flower4.png","75","412.89999997615814","2","1","2","1,1,0,0,1,1,1,0,1",""
"null","","html-keyboard-response","157","248568","0.0-157.0","3ZSY5X72NYXKH2TTUDP8ZPMG7N4ROR","A3L0DCUXI7X3A9","3H6W48L9F4B5OEOMH57RM53Z4H1WP0","","","<img src=""img/flower4.png"" style=""width:200px; border:14px solid green;"">","null","","","","","",""
"783.7000000476837","","image-keyboard-response","158","249353","0.0-158.0","3ZSY5X72NYXKH2TTUDP8ZPMG7N4ROR","A3L0DCUXI7X3A9","3H6W48L9F4B5OEOMH57RM53Z4H1WP0","","","img/flower1.png","74","784.5","1","1","1","1,1,0,0,1,1,1,0,1",""
"null","","html-keyboard-response","159","249655","0.0-159.0","3ZSY5X72NYXKH2TTUDP8ZPMG7N4ROR","A3L0DCUXI7X3A9","3H6W48L9F4B5OEOMH57RM53Z4H1WP0","","","<img src=""img/flower1.png"" style=""width:200px; border:14px solid green;"">","null","","","","","",""
"769.1000000238419","","image-keyboard-response","160","250426","0.0-160.0","3ZSY5X72NYXKH2TTUDP8ZPMG7N4ROR","A3L0DCUXI7X3A9","3H6W48L9F4B5OEOMH57RM53Z4H1WP0","","","img/flower4.png","75","770.2999999523163","2","1","2","1,1,0,0,1,1,1,0,1",""
"null","","html-keyboard-response","161","250739","0.0-161.0","3ZSY5X72NYXKH2TTUDP8ZPMG7N4ROR","A3L0DCUXI7X3A9","3H6W48L9F4B5OEOMH57RM53Z4H1WP0","","","<img src=""img/flower4.png"" style=""width:200px; border:14px solid green;"">","null","","","","","",""
"1301","","image-keyboard-response","162","252042","0.0-162.0","3ZSY5X72NYXKH2TTUDP8ZPMG7N4ROR","A3L0DCUXI7X3A9","3H6W48L9F4B5OEOMH57RM53Z4H1WP0","","","img/flower1.png","74","1302.2000000476837","1","1","1","1,1,0,0,1,1,1,0,1",""
"null","","html-keyboard-response","163","252357","0.0-163.0","3ZSY5X72NYXKH2TTUDP8ZPMG7N4ROR","A3L0DCUXI7X3A9","3H6W48L9F4B5OEOMH57RM53Z4H1WP0","","","<img src=""img/flower1.png"" style=""width:200px; border:14px solid green;"">","null","","","","","",""
"690.5","","image-keyboard-response","164","253050","0.0-164.0","3ZSY5X72NYXKH2TTUDP8ZPMG7N4ROR","A3L0DCUXI7X3A9","3H6W48L9F4B5OEOMH57RM53Z4H1WP0","","","img/flower2.png","76","691.8000000715256","3","1","3","1,1,0,0,1,1,1,0,1",""
"null","","html-keyboard-response","165","253363","0.0-165.0","3ZSY5X72NYXKH2TTUDP8ZPMG7N4ROR","A3L0DCUXI7X3A9","3H6W48L9F4B5OEOMH57RM53Z4H1WP0","","","<img src=""img/flower2.png"" style=""width:200px; border:14px solid green;"">","null","","","","","",""
"1300.3000000715256","","image-keyboard-response","166","254665","0.0-166.0","3ZSY5X72NYXKH2TTUDP8ZPMG7N4ROR","A3L0DCUXI7X3A9","3H6W48L9F4B5OEOMH57RM53Z4H1WP0","","","img/flower1.png","74","1301.2999999523163","1","1","1","1,1,0,0,1,1,1,0,1",""
"null","","html-keyboard-response","167","254982","0.0-167.0","3ZSY5X72NYXKH2TTUDP8ZPMG7N4ROR","A3L0DCUXI7X3A9","3H6W48L9F4B5OEOMH57RM53Z4H1WP0","","","<img src=""img/flower1.png"" style=""width:200px; border:14px solid green;"">","null","","","","","",""
"546.2000000476837","","image-keyboard-response","168","255529","0.0-168.0","3ZSY5X72NYXKH2TTUDP8ZPMG7N4ROR","A3L0DCUXI7X3A9","3H6W48L9F4B5OEOMH57RM53Z4H1WP0","","","img/flower1.png","74","547.2999999523163","1","1","1","1,1,0,0,1,1,1,0,1",""
"null","","html-keyboard-response","169","255836","0.0-169.0","3ZSY5X72NYXKH2TTUDP8ZPMG7N4ROR","A3L0DCUXI7X3A9","3H6W48L9F4B5OEOMH57RM53Z4H1WP0","","","<img src=""img/flower1.png"" style=""width:200px; border:14px solid green;"">","null","","","","","",""
"620.5999999046326","","image-keyboard-response","170","256458","0.0-170.0","3ZSY5X72NYXKH2TTUDP8ZPMG7N4ROR","A3L0DCUXI7X3A9","3H6W48L9F4B5OEOMH57RM53Z4H1WP0","","","img/flower1.png","74","621.8000000715256","1","1","1","1,1,0,0,1,1,1,0,1",""
"null","","html-keyboard-response","171","256767","0.0-171.0","3ZSY5X72NYXKH2TTUDP8ZPMG7N4ROR","A3L0DCUXI7X3A9","3H6W48L9F4B5OEOMH57RM53Z4H1WP0","","","<img src=""img/flower1.png"" style=""width:200px; border:14px solid green;"">","null","","","","","",""
"856.1000000238419","","image-keyboard-response","172","257624","0.0-172.0","3ZSY5X72NYXKH2TTUDP8ZPMG7N4ROR","A3L0DCUXI7X3A9","3H6W48L9F4B5OEOMH57RM53Z4H1WP0","","","img/flower4.png","75","857.3000000715256","2","1","2","1,1,0,0,1,1,1,0,1",""
"null","","html-keyboard-response","173","257933","0.0-173.0","3ZSY5X72NYXKH2TTUDP8ZPMG7N4ROR","A3L0DCUXI7X3A9","3H6W48L9F4B5OEOMH57RM53Z4H1WP0","","","<img src=""img/flower4.png"" style=""width:200px; border:14px solid green;"">","null","","","","","",""
"585.2000000476837","","image-keyboard-response","174","258520","0.0-174.0","3ZSY5X72NYXKH2TTUDP8ZPMG7N4ROR","A3L0DCUXI7X3A9","3H6W48L9F4B5OEOMH57RM53Z4H1WP0","","","img/flower4.png","75","586.1999999284744","2","1","2","1,1,0,0,1,1,1,0,1",""
"null","","html-keyboard-response","175","258823","0.0-175.0","3ZSY5X72NYXKH2TTUDP8ZPMG7N4ROR","A3L0DCUXI7X3A9","3H6W48L9F4B5OEOMH57RM53Z4H1WP0","","","<img src=""img/flower4.png"" style=""width:200px; border:14px solid green;"">","null","","","","","",""
"594.1000000238419","","image-keyboard-response","176","259418","0.0-176.0","3ZSY5X72NYXKH2TTUDP8ZPMG7N4ROR","A3L0DCUXI7X3A9","3H6W48L9F4B5OEOMH57RM53Z4H1WP0","","","img/flower4.png","75","594.7999999523163","2","1","2","1,1,0,0,1,1,1,0,1",""
"null","","html-keyboard-response","177","259724","0.0-177.0","3ZSY5X72NYXKH2TTUDP8ZPMG7N4ROR","A3L0DCUXI7X3A9","3H6W48L9F4B5OEOMH57RM53Z4H1WP0","","","<img src=""img/flower4.png"" style=""width:200px; border:14px solid green;"">","null","","","","","",""
"539.3999999761581","","image-keyboard-response","178","260265","0.0-178.0","3ZSY5X72NYXKH2TTUDP8ZPMG7N4ROR","A3L0DCUXI7X3A9","3H6W48L9F4B5OEOMH57RM53Z4H1WP0","","","img/flower4.png","75","540.6000000238419","2","1","2","1,1,0,0,1,1,1,0,1",""
"null","","html-keyboard-response","179","260582","0.0-179.0","3ZSY5X72NYXKH2TTUDP8ZPMG7N4ROR","A3L0DCUXI7X3A9","3H6W48L9F4B5OEOMH57RM53Z4H1WP0","","","<img src=""img/flower4.png"" style=""width:200px; border:14px solid green;"">","null","","","","","",""
"546.9000000953674","","image-keyboard-response","180","261129","0.0-180.0","3ZSY5X72NYXKH2TTUDP8ZPMG7N4ROR","A3L0DCUXI7X3A9","3H6W48L9F4B5OEOMH57RM53Z4H1WP0","","","img/flower4.png","75","547.8000000715256","2","1","2","1,1,0,0,1,1,1,0,1",""
"null","","html-keyboard-response","181","261435","0.0-181.0","3ZSY5X72NYXKH2TTUDP8ZPMG7N4ROR","A3L0DCUXI7X3A9","3H6W48L9F4B5OEOMH57RM53Z4H1WP0","","","<img src=""img/flower4.png"" style=""width:200px; border:14px solid green;"">","null","","","","","",""
"557.7999999523163","","image-keyboard-response","182","261994","0.0-182.0","3ZSY5X72NYXKH2TTUDP8ZPMG7N4ROR","A3L0DCUXI7X3A9","3H6W48L9F4B5OEOMH57RM53Z4H1WP0","","","img/flower4.png","75","559.0999999046326","2","1","2","1,1,0,0,1,1,1,0,1",""
"null","","html-keyboard-response","183","262303","0.0-183.0","3ZSY5X72NYXKH2TTUDP8ZPMG7N4ROR","A3L0DCUXI7X3A9","3H6W48L9F4B5OEOMH57RM53Z4H1WP0","","","<img src=""img/flower4.png"" style=""width:200px; border:14px solid green;"">","null","","","","","",""
"649.3999999761581","","image-keyboard-response","184","262954","0.0-184.0","3ZSY5X72NYXKH2TTUDP8ZPMG7N4ROR","A3L0DCUXI7X3A9","3H6W48L9F4B5OEOMH57RM53Z4H1WP0","","","img/flower2.png","76","650.6000000238419","3","1","3","1,1,0,0,1,1,1,0,1",""
"null","","html-keyboard-response","185","263264","0.0-185.0","3ZSY5X72NYXKH2TTUDP8ZPMG7N4ROR","A3L0DCUXI7X3A9","3H6W48L9F4B5OEOMH57RM53Z4H1WP0","","","<img src=""img/flower2.png"" style=""width:200px; border:14px solid green;"">","null","","","","","",""
"809.8999999761581","","image-keyboard-response","186","264075","0.0-186.0","3ZSY5X72NYXKH2TTUDP8ZPMG7N4ROR","A3L0DCUXI7X3A9","3H6W48L9F4B5OEOMH57RM53Z4H1WP0","","","img/flower4.png","75","810.7000000476837","2","1","2","1,1,0,0,1,1,1,0,1",""
"null","","html-keyboard-response","187","264384","0.0-187.0","3ZSY5X72NYXKH2TTUDP8ZPMG7N4ROR","A3L0DCUXI7X3A9","3H6W48L9F4B5OEOMH57RM53Z4H1WP0","","","<img src=""img/flower4.png"" style=""width:200px; border:14px solid green;"">","null","","","","","",""
"840.7000000476837","","image-keyboard-response","188","265226","0.0-188.0","3ZSY5X72NYXKH2TTUDP8ZPMG7N4ROR","A3L0DCUXI7X3A9","3H6W48L9F4B5OEOMH57RM53Z4H1WP0","","","img/flower1.png","74","841.9000000953674","1","1","1","1,1,0,0,1,1,1,0,1",""
"null","","html-keyboard-response","189","265535","0.0-189.0","3ZSY5X72NYXKH2TTUDP8ZPMG7N4ROR","A3L0DCUXI7X3A9","3H6W48L9F4B5OEOMH57RM53Z4H1WP0","","","<img src=""img/flower1.png"" style=""width:200px; border:14px solid green;"">","null","","","","","",""
"1064.6000000238419","","image-keyboard-response","190","266602","0.0-190.0","3ZSY5X72NYXKH2TTUDP8ZPMG7N4ROR","A3L0DCUXI7X3A9","3H6W48L9F4B5OEOMH57RM53Z4H1WP0","","","img/flower4.png","75","1065.8999999761581","2","1","2","1,1,0,0,1,1,1,0,1",""
"null","","html-keyboard-response","191","266904","0.0-191.0","3ZSY5X72NYXKH2TTUDP8ZPMG7N4ROR","A3L0DCUXI7X3A9","3H6W48L9F4B5OEOMH57RM53Z4H1WP0","","","<img src=""img/flower4.png"" style=""width:200px; border:14px solid green;"">","null","","","","","",""
"448.5","","image-keyboard-response","192","267354","0.0-192.0","3ZSY5X72NYXKH2TTUDP8ZPMG7N4ROR","A3L0DCUXI7X3A9","3H6W48L9F4B5OEOMH57RM53Z4H1WP0","","","img/flower4.png","75","449.6999999284744","2","1","2","1,1,0,0,1,1,1,0,1",""
"null","","html-keyboard-response","193","267665","0.0-193.0","3ZSY5X72NYXKH2TTUDP8ZPMG7N4ROR","A3L0DCUXI7X3A9","3H6W48L9F4B5OEOMH57RM53Z4H1WP0","","","<img src=""img/flower4.png"" style=""width:200px; border:14px solid green;"">","null","","","","","",""
"1016.3999999761581","","image-keyboard-response","194","268682","0.0-194.0","3ZSY5X72NYXKH2TTUDP8ZPMG7N4ROR","A3L0DCUXI7X3A9","3H6W48L9F4B5OEOMH57RM53Z4H1WP0","","","img/flower1.png","74","1017.2000000476837","1","1","1","1,1,0,0,1,1,1,0,1",""
"null","","html-keyboard-response","195","268989","0.0-195.0","3ZSY5X72NYXKH2TTUDP8ZPMG7N4ROR","A3L0DCUXI7X3A9","3H6W48L9F4B5OEOMH57RM53Z4H1WP0","","","<img src=""img/flower1.png"" style=""width:200px; border:14px solid green;"">","null","","","","","",""
"731.3999999761581","","image-keyboard-response","196","269722","0.0-196.0","3ZSY5X72NYXKH2TTUDP8ZPMG7N4ROR","A3L0DCUXI7X3A9","3H6W48L9F4B5OEOMH57RM53Z4H1WP0","","","img/flower2.png","76","732.6000000238419","3","1","3","1,1,0,0,1,1,1,0,1",""
"null","","html-keyboard-response","197","270030","0.0-197.0","3ZSY5X72NYXKH2TTUDP8ZPMG7N4ROR","A3L0DCUXI7X3A9","3H6W48L9F4B5OEOMH57RM53Z4H1WP0","","","<img src=""img/flower2.png"" style=""width:200px; border:14px solid green;"">","null","","","","","",""
"1113.7999999523163","","image-keyboard-response","198","271145","0.0-198.0","3ZSY5X72NYXKH2TTUDP8ZPMG7N4ROR","A3L0DCUXI7X3A9","3H6W48L9F4B5OEOMH57RM53Z4H1WP0","","","img/flower4.png","75","1114.8999999761581","2","1","2","1,1,0,0,1,1,1,0,1",""
"null","","html-keyboard-response","199","271459","0.0-199.0","3ZSY5X72NYXKH2TTUDP8ZPMG7N4ROR","A3L0DCUXI7X3A9","3H6W48L9F4B5OEOMH57RM53Z4H1WP0","","","<img src=""img/flower4.png"" style=""width:200px; border:14px solid green;"">","null","","","","","",""
"725.6000000238419","","image-keyboard-response","200","272185","0.0-200.0","3ZSY5X72NYXKH2TTUDP8ZPMG7N4ROR","A3L0DCUXI7X3A9","3H6W48L9F4B5OEOMH57RM53Z4H1WP0","","","img/flower1.png","74","726.3999999761581","1","1","1","1,1,0,0,1,1,1,0,1",""
"null","","html-keyboard-response","201","272498","0.0-201.0","3ZSY5X72NYXKH2TTUDP8ZPMG7N4ROR","A3L0DCUXI7X3A9","3H6W48L9F4B5OEOMH57RM53Z4H1WP0","","","<img src=""img/flower1.png"" style=""width:200px; border:14px solid green;"">","null","","","","","",""
"726","","image-keyboard-response","202","273226","0.0-202.0","3ZSY5X72NYXKH2TTUDP8ZPMG7N4ROR","A3L0DCUXI7X3A9","3H6W48L9F4B5OEOMH57RM53Z4H1WP0","","","img/flower4.png","75","727.1000000238419","2","1","2","1,1,0,0,1,1,1,0,1",""
"null","","html-keyboard-response","203","273540","0.0-203.0","3ZSY5X72NYXKH2TTUDP8ZPMG7N4ROR","A3L0DCUXI7X3A9","3H6W48L9F4B5OEOMH57RM53Z4H1WP0","","","<img src=""img/flower4.png"" style=""width:200px; border:14px solid green;"">","null","","","","","",""
"661.1000000238419","","image-keyboard-response","204","274201","0.0-204.0","3ZSY5X72NYXKH2TTUDP8ZPMG7N4ROR","A3L0DCUXI7X3A9","3H6W48L9F4B5OEOMH57RM53Z4H1WP0","","","img/flower2.png","76","661.8999999761581","3","1","3","1,1,0,0,1,1,1,0,1",""
"null","","html-keyboard-response","205","274504","0.0-205.0","3ZSY5X72NYXKH2TTUDP8ZPMG7N4ROR","A3L0DCUXI7X3A9","3H6W48L9F4B5OEOMH57RM53Z4H1WP0","","","<img src=""img/flower2.png"" style=""width:200px; border:14px solid green;"">","null","","","","","",""
"415.39999997615814","","image-keyboard-response","206","274920","0.0-206.0","3ZSY5X72NYXKH2TTUDP8ZPMG7N4ROR","A3L0DCUXI7X3A9","3H6W48L9F4B5OEOMH57RM53Z4H1WP0","","","img/flower2.png","76","416.40000009536743","3","1","3","1,1,0,0,1,1,1,0,1",""
"null","","html-keyboard-response","207","275233","0.0-207.0","3ZSY5X72NYXKH2TTUDP8ZPMG7N4ROR","A3L0DCUXI7X3A9","3H6W48L9F4B5OEOMH57RM53Z4H1WP0","","","<img src=""img/flower2.png"" style=""width:200px; border:14px solid green;"">","null","","","","","",""
"951","","image-keyboard-response","208","276186","0.0-208.0","3ZSY5X72NYXKH2TTUDP8ZPMG7N4ROR","A3L0DCUXI7X3A9","3H6W48L9F4B5OEOMH57RM53Z4H1WP0","","","img/flower4.png","75","952.1000000238419","2","1","2","1,1,0,0,1,1,1,0,1",""
"null","","html-keyboard-response","209","276501","0.0-209.0","3ZSY5X72NYXKH2TTUDP8ZPMG7N4ROR","A3L0DCUXI7X3A9","3H6W48L9F4B5OEOMH57RM53Z4H1WP0","","","<img src=""img/flower4.png"" style=""width:200px; border:14px solid green;"">","null","","","","","",""
"465.39999997615814","","image-keyboard-response","210","276968","0.0-210.0","3ZSY5X72NYXKH2TTUDP8ZPMG7N4ROR","A3L0DCUXI7X3A9","3H6W48L9F4B5OEOMH57RM53Z4H1WP0","","","img/flower4.png","75","466.2999999523163","2","1","2","1,1,0,0,1,1,1,0,1",""
"null","","html-keyboard-response","211","277282","0.0-211.0","3ZSY5X72NYXKH2TTUDP8ZPMG7N4ROR","A3L0DCUXI7X3A9","3H6W48L9F4B5OEOMH57RM53Z4H1WP0","","","<img src=""img/flower4.png"" style=""width:200px; border:14px solid green;"">","null","","","","","",""
"839.8000000715256","","image-keyboard-response","212","278123","0.0-212.0","3ZSY5X72NYXKH2TTUDP8ZPMG7N4ROR","A3L0DCUXI7X3A9","3H6W48L9F4B5OEOMH57RM53Z4H1WP0","","","img/flower2.png","76","840.7999999523163","3","1","3","1,1,0,0,1,1,1,0,1",""
"null","","html-keyboard-response","213","278430","0.0-213.0","3ZSY5X72NYXKH2TTUDP8ZPMG7N4ROR","A3L0DCUXI7X3A9","3H6W48L9F4B5OEOMH57RM53Z4H1WP0","","","<img src=""img/flower2.png"" style=""width:200px; border:14px solid green;"">","null","","","","","",""
"409.89999997615814","","image-keyboard-response","214","278840","0.0-214.0","3ZSY5X72NYXKH2TTUDP8ZPMG7N4ROR","A3L0DCUXI7X3A9","3H6W48L9F4B5OEOMH57RM53Z4H1WP0","","","img/flower2.png","76","410.39999997615814","3","1","3","1,1,0,0,1,1,1,0,1",""
"null","","html-keyboard-response","215","279145","0.0-215.0","3ZSY5X72NYXKH2TTUDP8ZPMG7N4ROR","A3L0DCUXI7X3A9","3H6W48L9F4B5OEOMH57RM53Z4H1WP0","","","<img src=""img/flower2.png"" style=""width:200px; border:14px solid green;"">","null","","","","","",""
"733.3999999761581","","image-keyboard-response","216","279880","0.0-216.0","3ZSY5X72NYXKH2TTUDP8ZPMG7N4ROR","A3L0DCUXI7X3A9","3H6W48L9F4B5OEOMH57RM53Z4H1WP0","","","img/flower1.png","74","734.3999999761581","1","1","1","1,1,0,0,1,1,1,0,1",""
"null","","html-keyboard-response","217","280183","0.0-217.0","3ZSY5X72NYXKH2TTUDP8ZPMG7N4ROR","A3L0DCUXI7X3A9","3H6W48L9F4B5OEOMH57RM53Z4H1WP0","","","<img src=""img/flower1.png"" style=""width:200px; border:14px solid green;"">","null","","","","","",""
"464.60000002384186","","image-keyboard-response","218","280650","0.0-218.0","3ZSY5X72NYXKH2TTUDP8ZPMG7N4ROR","A3L0DCUXI7X3A9","3H6W48L9F4B5OEOMH57RM53Z4H1WP0","","","img/flower1.png","74","465.7999999523163","1","1","1","1,1,0,0,1,1,1,0,1",""
"null","","html-keyboard-response","219","280962","0.0-219.0","3ZSY5X72NYXKH2TTUDP8ZPMG7N4ROR","A3L0DCUXI7X3A9","3H6W48L9F4B5OEOMH57RM53Z4H1WP0","","","<img src=""img/flower1.png"" style=""width:200px; border:14px solid green;"">","null","","","","","",""
"1079.5","","image-keyboard-response","220","282042","0.0-220.0","3ZSY5X72NYXKH2TTUDP8ZPMG7N4ROR","A3L0DCUXI7X3A9","3H6W48L9F4B5OEOMH57RM53Z4H1WP0","","","img/flower2.png","76","1080.1999999284744","3","1","3","1,1,0,0,1,1,1,0,1",""
"null","","html-keyboard-response","221","282345","0.0-221.0","3ZSY5X72NYXKH2TTUDP8ZPMG7N4ROR","A3L0DCUXI7X3A9","3H6W48L9F4B5OEOMH57RM53Z4H1WP0","","","<img src=""img/flower2.png"" style=""width:200px; border:14px solid green;"">","null","","","","","",""
"1278.6999999284744","","image-keyboard-response","222","283625","0.0-222.0","3ZSY5X72NYXKH2TTUDP8ZPMG7N4ROR","A3L0DCUXI7X3A9","3H6W48L9F4B5OEOMH57RM53Z4H1WP0","","","img/flower4.png","75","1279.9000000953674","2","1","2","1,1,0,0,1,1,1,0,1",""
"null","","html-keyboard-response","223","283929","0.0-223.0","3ZSY5X72NYXKH2TTUDP8ZPMG7N4ROR","A3L0DCUXI7X3A9","3H6W48L9F4B5OEOMH57RM53Z4H1WP0","","","<img src=""img/flower4.png"" style=""width:200px; border:14px solid green;"">","null","","","","","",""
"703.3999999761581","","image-keyboard-response","224","284634","0.0-224.0","3ZSY5X72NYXKH2TTUDP8ZPMG7N4ROR","A3L0DCUXI7X3A9","3H6W48L9F4B5OEOMH57RM53Z4H1WP0","","","img/flower1.png","74","704.4000000953674","1","1","1","1,1,0,0,1,1,1,0,1",""
"null","","html-keyboard-response","225","284941","0.0-225.0","3ZSY5X72NYXKH2TTUDP8ZPMG7N4ROR","A3L0DCUXI7X3A9","3H6W48L9F4B5OEOMH57RM53Z4H1WP0","","","<img src=""img/flower1.png"" style=""width:200px; border:14px solid green;"">","null","","","","","",""
"810.5","","image-keyboard-response","226","285753","0.0-226.0","3ZSY5X72NYXKH2TTUDP8ZPMG7N4ROR","A3L0DCUXI7X3A9","3H6W48L9F4B5OEOMH57RM53Z4H1WP0","","","img/flower2.png","76","811.3999999761581","3","1","3","1,1,0,0,1,1,1,0,1",""
"null","","html-keyboard-response","227","286059","0.0-227.0","3ZSY5X72NYXKH2TTUDP8ZPMG7N4ROR","A3L0DCUXI7X3A9","3H6W48L9F4B5OEOMH57RM53Z4H1WP0","","","<img src=""img/flower2.png"" style=""width:200px; border:14px solid green;"">","null","","","","","",""
"812","","image-keyboard-response","228","286872","0.0-228.0","3ZSY5X72NYXKH2TTUDP8ZPMG7N4ROR","A3L0DCUXI7X3A9","3H6W48L9F4B5OEOMH57RM53Z4H1WP0","","","img/flower1.png","74","813.1999999284744","1","1","1","1,1,0,0,1,1,1,0,1",""
"null","","html-keyboard-response","229","287178","0.0-229.0","3ZSY5X72NYXKH2TTUDP8ZPMG7N4ROR","A3L0DCUXI7X3A9","3H6W48L9F4B5OEOMH57RM53Z4H1WP0","","","<img src=""img/flower1.png"" style=""width:200px; border:14px solid green;"">","null","","","","","",""
"413.8000000715256","","image-keyboard-response","230","287594","0.0-230.0","3ZSY5X72NYXKH2TTUDP8ZPMG7N4ROR","A3L0DCUXI7X3A9","3H6W48L9F4B5OEOMH57RM53Z4H1WP0","","","img/flower1.png","74","415.40000009536743","1","1","1","1,1,0,0,1,1,1,0,1",""
"null","","html-keyboard-response","231","287905","0.0-231.0","3ZSY5X72NYXKH2TTUDP8ZPMG7N4ROR","A3L0DCUXI7X3A9","3H6W48L9F4B5OEOMH57RM53Z4H1WP0","","","<img src=""img/flower1.png"" style=""width:200px; border:14px solid green;"">","null","","","","","",""
"999.3000000715256","","image-keyboard-response","232","288904","0.0-232.0","3ZSY5X72NYXKH2TTUDP8ZPMG7N4ROR","A3L0DCUXI7X3A9","3H6W48L9F4B5OEOMH57RM53Z4H1WP0","","","img/flower4.png","75","999.8999999761581","2","1","2","1,1,0,0,1,1,1,0,1",""
"null","","html-keyboard-response","233","289213","0.0-233.0","3ZSY5X72NYXKH2TTUDP8ZPMG7N4ROR","A3L0DCUXI7X3A9","3H6W48L9F4B5OEOMH57RM53Z4H1WP0","","","<img src=""img/flower4.png"" style=""width:200px; border:14px solid green;"">","null","","","","","",""
"954.5","","image-keyboard-response","234","290169","0.0-234.0","3ZSY5X72NYXKH2TTUDP8ZPMG7N4ROR","A3L0DCUXI7X3A9","3H6W48L9F4B5OEOMH57RM53Z4H1WP0","","","img/flower1.png","74","955.7000000476837","1","1","1","1,1,0,0,1,1,1,0,1",""
"null","","html-keyboard-response","235","290474","0.0-235.0","3ZSY5X72NYXKH2TTUDP8ZPMG7N4ROR","A3L0DCUXI7X3A9","3H6W48L9F4B5OEOMH57RM53Z4H1WP0","","","<img src=""img/flower1.png"" style=""width:200px; border:14px solid green;"">","null","","","","","",""
"718.2999999523163","","image-keyboard-response","236","291194","0.0-236.0","3ZSY5X72NYXKH2TTUDP8ZPMG7N4ROR","A3L0DCUXI7X3A9","3H6W48L9F4B5OEOMH57RM53Z4H1WP0","","","img/flower4.png","75","719.8000000715256","2","1","2","1,1,0,0,1,1,1,0,1",""
"null","","html-keyboard-response","237","291498","0.0-237.0","3ZSY5X72NYXKH2TTUDP8ZPMG7N4ROR","A3L0DCUXI7X3A9","3H6W48L9F4B5OEOMH57RM53Z4H1WP0","","","<img src=""img/flower4.png"" style=""width:200px; border:14px solid green;"">","null","","","","","",""
"381.10000002384186","","image-keyboard-response","238","291881","0.0-238.0","3ZSY5X72NYXKH2TTUDP8ZPMG7N4ROR","A3L0DCUXI7X3A9","3H6W48L9F4B5OEOMH57RM53Z4H1WP0","","","img/flower4.png","75","382.10000002384186","2","1","2","1,1,0,0,1,1,1,0,1",""
"null","","html-keyboard-response","239","292184","0.0-239.0","3ZSY5X72NYXKH2TTUDP8ZPMG7N4ROR","A3L0DCUXI7X3A9","3H6W48L9F4B5OEOMH57RM53Z4H1WP0","","","<img src=""img/flower4.png"" style=""width:200px; border:14px solid green;"">","null","","","","","",""
"702.8999999761581","","image-keyboard-response","240","292889","0.0-240.0","3ZSY5X72NYXKH2TTUDP8ZPMG7N4ROR","A3L0DCUXI7X3A9","3H6W48L9F4B5OEOMH57RM53Z4H1WP0","","","img/flower2.png","76","703.8999999761581","3","1","3","1,1,0,0,1,1,1,0,1",""
"null","","html-keyboard-response","241","293196","0.0-241.0","3ZSY5X72NYXKH2TTUDP8ZPMG7N4ROR","A3L0DCUXI7X3A9","3H6W48L9F4B5OEOMH57RM53Z4H1WP0","","","<img src=""img/flower2.png"" style=""width:200px; border:14px solid green;"">","null","","","","","",""
"972","","image-keyboard-response","242","294170","0.0-242.0","3ZSY5X72NYXKH2TTUDP8ZPMG7N4ROR","A3L0DCUXI7X3A9","3H6W48L9F4B5OEOMH57RM53Z4H1WP0","","","img/flower4.png","75","973.2999999523163","2","1","2","1,1,0,0,1,1,1,0,1",""
"null","","html-keyboard-response","243","294485","0.0-243.0","3ZSY5X72NYXKH2TTUDP8ZPMG7N4ROR","A3L0DCUXI7X3A9","3H6W48L9F4B5OEOMH57RM53Z4H1WP0","","","<img src=""img/flower4.png"" style=""width:200px; border:14px solid green;"">","null","","","","","",""
"821.1000000238419","","image-keyboard-response","244","295306","0.0-244.0","3ZSY5X72NYXKH2TTUDP8ZPMG7N4ROR","A3L0DCUXI7X3A9","3H6W48L9F4B5OEOMH57RM53Z4H1WP0","","","img/flower1.png","74","821.7000000476837","1","1","1","1,1,0,0,1,1,1,0,1",""
"null","","html-keyboard-response","245","295621","0.0-245.0","3ZSY5X72NYXKH2TTUDP8ZPMG7N4ROR","A3L0DCUXI7X3A9","3H6W48L9F4B5OEOMH57RM53Z4H1WP0","","","<img src=""img/flower1.png"" style=""width:200px; border:14px solid green;"">","null","","","","","",""
"802.2999999523163","","image-keyboard-response","246","296425","0.0-246.0","3ZSY5X72NYXKH2TTUDP8ZPMG7N4ROR","A3L0DCUXI7X3A9","3H6W48L9F4B5OEOMH57RM53Z4H1WP0","","","img/flower2.png","76","803.5","3","1","3","1,1,0,0,1,1,1,0,1",""
"null","","html-keyboard-response","247","296738","0.0-247.0","3ZSY5X72NYXKH2TTUDP8ZPMG7N4ROR","A3L0DCUXI7X3A9","3H6W48L9F4B5OEOMH57RM53Z4H1WP0","","","<img src=""img/flower2.png"" style=""width:200px; border:14px solid green;"">","null","","","","","",""
"661.6000000238419","","image-keyboard-response","248","297401","0.0-248.0","3ZSY5X72NYXKH2TTUDP8ZPMG7N4ROR","A3L0DCUXI7X3A9","3H6W48L9F4B5OEOMH57RM53Z4H1WP0","","","img/flower1.png","74","662.6000000238419","1","1","1","1,1,0,0,1,1,1,0,1",""
"null","","html-keyboard-response","249","297714","0.0-249.0","3ZSY5X72NYXKH2TTUDP8ZPMG7N4ROR","A3L0DCUXI7X3A9","3H6W48L9F4B5OEOMH57RM53Z4H1WP0","","","<img src=""img/flower1.png"" style=""width:200px; border:14px solid green;"">","null","","","","","",""
"581.8999999761581","","image-keyboard-response","250","298298","0.0-250.0","3ZSY5X72NYXKH2TTUDP8ZPMG7N4ROR","A3L0DCUXI7X3A9","3H6W48L9F4B5OEOMH57RM53Z4H1WP0","","","img/flower1.png","74","583.1000000238419","1","1","1","1,1,0,0,1,1,1,0,1",""
"null","","html-keyboard-response","251","298600","0.0-251.0","3ZSY5X72NYXKH2TTUDP8ZPMG7N4ROR","A3L0DCUXI7X3A9","3H6W48L9F4B5OEOMH57RM53Z4H1WP0","","","<img src=""img/flower1.png"" style=""width:200px; border:14px solid green;"">","null","","","","","",""
"1024.8999999761581","","image-keyboard-response","252","299626","0.0-252.0","3ZSY5X72NYXKH2TTUDP8ZPMG7N4ROR","A3L0DCUXI7X3A9","3H6W48L9F4B5OEOMH57RM53Z4H1WP0","","","img/flower2.png","76","1026","3","1","3","1,1,0,0,1,1,1,0,1",""
"null","","html-keyboard-response","253","299939","0.0-253.0","3ZSY5X72NYXKH2TTUDP8ZPMG7N4ROR","A3L0DCUXI7X3A9","3H6W48L9F4B5OEOMH57RM53Z4H1WP0","","","<img src=""img/flower2.png"" style=""width:200px; border:14px solid green;"">","null","","","","","",""
"1478.1000000238419","","image-keyboard-response","254","301418","0.0-254.0","3ZSY5X72NYXKH2TTUDP8ZPMG7N4ROR","A3L0DCUXI7X3A9","3H6W48L9F4B5OEOMH57RM53Z4H1WP0","","","img/flower4.png","75","1478.6999999284744","2","1","2","1,1,0,0,1,1,1,0,1",""
"null","","html-keyboard-response","255","301728","0.0-255.0","3ZSY5X72NYXKH2TTUDP8ZPMG7N4ROR","A3L0DCUXI7X3A9","3H6W48L9F4B5OEOMH57RM53Z4H1WP0","","","<img src=""img/flower4.png"" style=""width:200px; border:14px solid green;"">","null","","","","","",""
"855.6000000238419","","image-keyboard-response","256","302585","0.0-256.0","3ZSY5X72NYXKH2TTUDP8ZPMG7N4ROR","A3L0DCUXI7X3A9","3H6W48L9F4B5OEOMH57RM53Z4H1WP0","","","img/flower2.png","76","856.5","3","1","3","1,1,0,0,1,1,1,0,1",""
"null","","html-keyboard-response","257","302898","0.0-257.0","3ZSY5X72NYXKH2TTUDP8ZPMG7N4ROR","A3L0DCUXI7X3A9","3H6W48L9F4B5OEOMH57RM53Z4H1WP0","","","<img src=""img/flower2.png"" style=""width:200px; border:14px solid green;"">","null","","","","","",""
"950","","image-keyboard-response","258","303849","0.0-258.0","3ZSY5X72NYXKH2TTUDP8ZPMG7N4ROR","A3L0DCUXI7X3A9","3H6W48L9F4B5OEOMH57RM53Z4H1WP0","","","img/flower1.png","74","951.1000000238419","1","1","1","1,1,0,0,1,1,1,0,1",""
"null","","html-keyboard-response","259","304164","0.0-259.0","3ZSY5X72NYXKH2TTUDP8ZPMG7N4ROR","A3L0DCUXI7X3A9","3H6W48L9F4B5OEOMH57RM53Z4H1WP0","","","<img src=""img/flower1.png"" style=""width:200px; border:14px solid green;"">","null","","","","","",""
"1395.9000000953674","","image-keyboard-response","260","305562","0.0-260.0","3ZSY5X72NYXKH2TTUDP8ZPMG7N4ROR","A3L0DCUXI7X3A9","3H6W48L9F4B5OEOMH57RM53Z4H1WP0","","","img/flower2.png","76","1397.1000000238419","3","1","3","1,1,0,0,1,1,1,0,1",""
"null","","html-keyboard-response","261","305870","0.0-261.0","3ZSY5X72NYXKH2TTUDP8ZPMG7N4ROR","A3L0DCUXI7X3A9","3H6W48L9F4B5OEOMH57RM53Z4H1WP0","","","<img src=""img/flower2.png"" style=""width:200px; border:14px solid green;"">","null","","","","","",""
"442.2999999523163","","image-keyboard-response","262","306314","0.0-262.0","3ZSY5X72NYXKH2TTUDP8ZPMG7N4ROR","A3L0DCUXI7X3A9","3H6W48L9F4B5OEOMH57RM53Z4H1WP0","","","img/flower2.png","76","443.60000002384186","3","1","3","1,1,0,0,1,1,1,0,1",""
"null","","html-keyboard-response","263","306617","0.0-263.0","3ZSY5X72NYXKH2TTUDP8ZPMG7N4ROR","A3L0DCUXI7X3A9","3H6W48L9F4B5OEOMH57RM53Z4H1WP0","","","<img src=""img/flower2.png"" style=""width:200px; border:14px solid green;"">","null","","","","","",""
"1038.1000000238419","","image-keyboard-response","264","307657","0.0-264.0","3ZSY5X72NYXKH2TTUDP8ZPMG7N4ROR","A3L0DCUXI7X3A9","3H6W48L9F4B5OEOMH57RM53Z4H1WP0","","","img/flower1.png","74","1039.4000000953674","1","1","1","1,1,0,0,1,1,1,0,1",""
"null","","html-keyboard-response","265","307969","0.0-265.0","3ZSY5X72NYXKH2TTUDP8ZPMG7N4ROR","A3L0DCUXI7X3A9","3H6W48L9F4B5OEOMH57RM53Z4H1WP0","","","<img src=""img/flower1.png"" style=""width:200px; border:14px solid green;"">","null","","","","","",""
"471.89999997615814","","image-keyboard-response","266","308442","0.0-266.0","3ZSY5X72NYXKH2TTUDP8ZPMG7N4ROR","A3L0DCUXI7X3A9","3H6W48L9F4B5OEOMH57RM53Z4H1WP0","","","img/flower1.png","74","473.10000002384186","1","1","1","1,1,0,0,1,1,1,0,1",""
"null","","html-keyboard-response","267","308747","0.0-267.0","3ZSY5X72NYXKH2TTUDP8ZPMG7N4ROR","A3L0DCUXI7X3A9","3H6W48L9F4B5OEOMH57RM53Z4H1WP0","","","<img src=""img/flower1.png"" style=""width:200px; border:14px solid green;"">","null","","","","","",""
"462.10000002384186","","image-keyboard-response","268","309210","0.0-268.0","3ZSY5X72NYXKH2TTUDP8ZPMG7N4ROR","A3L0DCUXI7X3A9","3H6W48L9F4B5OEOMH57RM53Z4H1WP0","","","img/flower1.png","74","462.7999999523163","1","1","1","1,1,0,0,1,1,1,0,1",""
"null","","html-keyboard-response","269","309511","0.0-269.0","3ZSY5X72NYXKH2TTUDP8ZPMG7N4ROR","A3L0DCUXI7X3A9","3H6W48L9F4B5OEOMH57RM53Z4H1WP0","","","<img src=""img/flower1.png"" style=""width:200px; border:14px solid green;"">","null","","","","","",""
"641.6000000238419","","image-keyboard-response","270","310154","0.0-270.0","3ZSY5X72NYXKH2TTUDP8ZPMG7N4ROR","A3L0DCUXI7X3A9","3H6W48L9F4B5OEOMH57RM53Z4H1WP0","","","img/flower4.png","75","642.8000000715256","2","1","2","1,1,0,0,1,1,1,0,1",""
"null","","html-keyboard-response","271","310459","0.0-271.0","3ZSY5X72NYXKH2TTUDP8ZPMG7N4ROR","A3L0DCUXI7X3A9","3H6W48L9F4B5OEOMH57RM53Z4H1WP0","","","<img src=""img/flower4.png"" style=""width:200px; border:14px solid green;"">","null","","","","","",""
"412","","image-keyboard-response","272","310872","0.0-272.0","3ZSY5X72NYXKH2TTUDP8ZPMG7N4ROR","A3L0DCUXI7X3A9","3H6W48L9F4B5OEOMH57RM53Z4H1WP0","","","img/flower4.png","75","412.89999997615814","2","1","2","1,1,0,0,1,1,1,0,1",""
"null","","html-keyboard-response","273","311175","0.0-273.0","3ZSY5X72NYXKH2TTUDP8ZPMG7N4ROR","A3L0DCUXI7X3A9","3H6W48L9F4B5OEOMH57RM53Z4H1WP0","","","<img src=""img/flower4.png"" style=""width:200px; border:14px solid green;"">","null","","","","","",""
"689","","image-keyboard-response","274","311866","0.0-274.0","3ZSY5X72NYXKH2TTUDP8ZPMG7N4ROR","A3L0DCUXI7X3A9","3H6W48L9F4B5OEOMH57RM53Z4H1WP0","","","img/flower2.png","76","690.2000000476837","3","1","3","1,1,0,0,1,1,1,0,1",""
"null","","html-keyboard-response","275","312168","0.0-275.0","3ZSY5X72NYXKH2TTUDP8ZPMG7N4ROR","A3L0DCUXI7X3A9","3H6W48L9F4B5OEOMH57RM53Z4H1WP0","","","<img src=""img/flower2.png"" style=""width:200px; border:14px solid green;"">","null","","","","","",""
"945.1000000238419","","image-keyboard-response","276","313115","0.0-276.0","3ZSY5X72NYXKH2TTUDP8ZPMG7N4ROR","A3L0DCUXI7X3A9","3H6W48L9F4B5OEOMH57RM53Z4H1WP0","","","img/flower1.png","74","946","1","1","1","1,1,0,0,1,1,1,0,1",""
"null","","html-keyboard-response","277","313425","0.0-277.0","3ZSY5X72NYXKH2TTUDP8ZPMG7N4ROR","A3L0DCUXI7X3A9","3H6W48L9F4B5OEOMH57RM53Z4H1WP0","","","<img src=""img/flower1.png"" style=""width:200px; border:14px solid green;"">","null","","","","","",""
"391.1999999284744","","image-keyboard-response","278","313817","0.0-278.0","3ZSY5X72NYXKH2TTUDP8ZPMG7N4ROR","A3L0DCUXI7X3A9","3H6W48L9F4B5OEOMH57RM53Z4H1WP0","","","img/flower1.png","74","391.7999999523163","1","1","1","1,1,0,0,1,1,1,0,1",""
"null","","html-keyboard-response","279","314124","0.0-279.0","3ZSY5X72NYXKH2TTUDP8ZPMG7N4ROR","A3L0DCUXI7X3A9","3H6W48L9F4B5OEOMH57RM53Z4H1WP0","","","<img src=""img/flower1.png"" style=""width:200px; border:14px solid green;"">","null","","","","","",""
"716","","image-keyboard-response","280","314841","0.0-280.0","3ZSY5X72NYXKH2TTUDP8ZPMG7N4ROR","A3L0DCUXI7X3A9","3H6W48L9F4B5OEOMH57RM53Z4H1WP0","","","img/flower2.png","76","716.7999999523163","3","1","3","1,1,0,0,1,1,1,0,1",""
"null","","html-keyboard-response","281","315149","0.0-281.0","3ZSY5X72NYXKH2TTUDP8ZPMG7N4ROR","A3L0DCUXI7X3A9","3H6W48L9F4B5OEOMH57RM53Z4H1WP0","","","<img src=""img/flower2.png"" style=""width:200px; border:14px solid green;"">","null","","","","","",""
"395.7999999523163","","image-keyboard-response","282","315546","0.0-282.0","3ZSY5X72NYXKH2TTUDP8ZPMG7N4ROR","A3L0DCUXI7X3A9","3H6W48L9F4B5OEOMH57RM53Z4H1WP0","","","img/flower2.png","76","398.39999997615814","3","1","3","1,1,0,0,1,1,1,0,1",""
"null","","html-keyboard-response","283","315864","0.0-283.0","3ZSY5X72NYXKH2TTUDP8ZPMG7N4ROR","A3L0DCUXI7X3A9","3H6W48L9F4B5OEOMH57RM53Z4H1WP0","","","<img src=""img/flower2.png"" style=""width:200px; border:14px solid green;"">","null","","","","","",""
"432.5","","image-keyboard-response","284","316298","0.0-284.0","3ZSY5X72NYXKH2TTUDP8ZPMG7N4ROR","A3L0DCUXI7X3A9","3H6W48L9F4B5OEOMH57RM53Z4H1WP0","","","img/flower2.png","76","433.39999997615814","3","1","3","1,1,0,0,1,1,1,0,1",""
"null","","html-keyboard-response","285","316610","0.0-285.0","3ZSY5X72NYXKH2TTUDP8ZPMG7N4ROR","A3L0DCUXI7X3A9","3H6W48L9F4B5OEOMH57RM53Z4H1WP0","","","<img src=""img/flower2.png"" style=""width:200px; border:14px solid green;"">","null","","","","","",""
"420.7999999523163","","image-keyboard-response","286","317033","0.0-286.0","3ZSY5X72NYXKH2TTUDP8ZPMG7N4ROR","A3L0DCUXI7X3A9","3H6W48L9F4B5OEOMH57RM53Z4H1WP0","","","img/flower2.png","76","421.7999999523163","3","1","3","1,1,0,0,1,1,1,0,1",""
"null","","html-keyboard-response","287","317342","0.0-287.0","3ZSY5X72NYXKH2TTUDP8ZPMG7N4ROR","A3L0DCUXI7X3A9","3H6W48L9F4B5OEOMH57RM53Z4H1WP0","","","<img src=""img/flower2.png"" style=""width:200px; border:14px solid green;"">","null","","","","","",""
"666.1999999284744","","image-keyboard-response","288","318009","0.0-288.0","3ZSY5X72NYXKH2TTUDP8ZPMG7N4ROR","A3L0DCUXI7X3A9","3H6W48L9F4B5OEOMH57RM53Z4H1WP0","","","img/flower4.png","75","667.1000000238419","2","1","2","1,1,0,0,1,1,1,0,1",""
"null","","html-keyboard-response","289","318321","0.0-289.0","3ZSY5X72NYXKH2TTUDP8ZPMG7N4ROR","A3L0DCUXI7X3A9","3H6W48L9F4B5OEOMH57RM53Z4H1WP0","","","<img src=""img/flower4.png"" style=""width:200px; border:14px solid green;"">","null","","","","","",""
"1079.6999999284744","","image-keyboard-response","290","319402","0.0-290.0","3ZSY5X72NYXKH2TTUDP8ZPMG7N4ROR","A3L0DCUXI7X3A9","3H6W48L9F4B5OEOMH57RM53Z4H1WP0","","","img/flower2.png","76","1080.9000000953674","3","1","3","1,1,0,0,1,1,1,0,1",""
"null","","html-keyboard-response","291","319704","0.0-291.0","3ZSY5X72NYXKH2TTUDP8ZPMG7N4ROR","A3L0DCUXI7X3A9","3H6W48L9F4B5OEOMH57RM53Z4H1WP0","","","<img src=""img/flower2.png"" style=""width:200px; border:14px solid green;"">","null","","","","","",""
"384.5","","image-keyboard-response","292","320090","0.0-292.0","3ZSY5X72NYXKH2TTUDP8ZPMG7N4ROR","A3L0DCUXI7X3A9","3H6W48L9F4B5OEOMH57RM53Z4H1WP0","","","img/flower2.png","76","385.7000000476837","3","1","3","1,1,0,0,1,1,1,0,1",""
"null","","html-keyboard-response","293","320406","0.0-293.0","3ZSY5X72NYXKH2TTUDP8ZPMG7N4ROR","A3L0DCUXI7X3A9","3H6W48L9F4B5OEOMH57RM53Z4H1WP0","","","<img src=""img/flower2.png"" style=""width:200px; border:14px solid green;"">","null","","","","","",""
"899.2999999523163","","image-keyboard-response","294","321306","0.0-294.0","3ZSY5X72NYXKH2TTUDP8ZPMG7N4ROR","A3L0DCUXI7X3A9","3H6W48L9F4B5OEOMH57RM53Z4H1WP0","","","img/flower4.png","75","900","2","1","2","1,1,0,0,1,1,1,0,1",""
"null","","html-keyboard-response","295","321620","0.0-295.0","3ZSY5X72NYXKH2TTUDP8ZPMG7N4ROR","A3L0DCUXI7X3A9","3H6W48L9F4B5OEOMH57RM53Z4H1WP0","","","<img src=""img/flower4.png"" style=""width:200px; border:14px solid green;"">","null","","","","","",""
"371.10000002384186","","image-keyboard-response","296","321993","0.0-296.0","3ZSY5X72NYXKH2TTUDP8ZPMG7N4ROR","A3L0DCUXI7X3A9","3H6W48L9F4B5OEOMH57RM53Z4H1WP0","","","img/flower4.png","75","372.10000002384186","2","1","2","1,1,0,0,1,1,1,0,1",""
"null","","html-keyboard-response","297","322303","0.0-297.0","3ZSY5X72NYXKH2TTUDP8ZPMG7N4ROR","A3L0DCUXI7X3A9","3H6W48L9F4B5OEOMH57RM53Z4H1WP0","","","<img src=""img/flower4.png"" style=""width:200px; border:14px solid green;"">","null","","","","","",""
"727.8999999761581","","image-keyboard-response","298","323033","0.0-298.0","3ZSY5X72NYXKH2TTUDP8ZPMG7N4ROR","A3L0DCUXI7X3A9","3H6W48L9F4B5OEOMH57RM53Z4H1WP0","","","img/flower1.png","74","728.7999999523163","1","1","1","1,1,0,0,1,1,1,0,1",""
"null","","html-keyboard-response","299","323339","0.0-299.0","3ZSY5X72NYXKH2TTUDP8ZPMG7N4ROR","A3L0DCUXI7X3A9","3H6W48L9F4B5OEOMH57RM53Z4H1WP0","","","<img src=""img/flower1.png"" style=""width:200px; border:14px solid green;"">","null","","","","","",""
"429.39999997615814","","image-keyboard-response","300","323770","0.0-300.0","3ZSY5X72NYXKH2TTUDP8ZPMG7N4ROR","A3L0DCUXI7X3A9","3H6W48L9F4B5OEOMH57RM53Z4H1WP0","","","img/flower1.png","74","430.59999990463257","1","1","1","1,1,0,0,1,1,1,0,1",""
"null","","html-keyboard-response","301","324084","0.0-301.0","3ZSY5X72NYXKH2TTUDP8ZPMG7N4ROR","A3L0DCUXI7X3A9","3H6W48L9F4B5OEOMH57RM53Z4H1WP0","","","<img src=""img/flower1.png"" style=""width:200px; border:14px solid green;"">","null","","","","","",""
"405.2999999523163","","image-keyboard-response","302","324490","0.0-302.0","3ZSY5X72NYXKH2TTUDP8ZPMG7N4ROR","A3L0DCUXI7X3A9","3H6W48L9F4B5OEOMH57RM53Z4H1WP0","","","img/flower1.png","74","406.2999999523163","1","1","1","1,1,0,0,1,1,1,0,1",""
"null","","html-keyboard-response","303","324797","0.0-303.0","3ZSY5X72NYXKH2TTUDP8ZPMG7N4ROR","A3L0DCUXI7X3A9","3H6W48L9F4B5OEOMH57RM53Z4H1WP0","","","<img src=""img/flower1.png"" style=""width:200px; border:14px solid green;"">","null","","","","","",""
"379.59999990463257","","image-keyboard-response","304","325178","0.0-304.0","3ZSY5X72NYXKH2TTUDP8ZPMG7N4ROR","A3L0DCUXI7X3A9","3H6W48L9F4B5OEOMH57RM53Z4H1WP0","","","img/flower1.png","74","380.90000009536743","1","1","1","1,1,0,0,1,1,1,0,1",""
"null","","html-keyboard-response","305","325484","0.0-305.0","3ZSY5X72NYXKH2TTUDP8ZPMG7N4ROR","A3L0DCUXI7X3A9","3H6W48L9F4B5OEOMH57RM53Z4H1WP0","","","<img src=""img/flower1.png"" style=""width:200px; border:14px solid green;"">","null","","","","","",""
"","","html-keyboard-response","306","337092","0.0-306.0","3ZSY5X72NYXKH2TTUDP8ZPMG7N4ROR","A3L0DCUXI7X3A9","3H6W48L9F4B5OEOMH57RM53Z4H1WP0","","","","","","","","","",""
"1269.0999999046326","","image-keyboard-response","307","338362","0.0-307.0","3ZSY5X72NYXKH2TTUDP8ZPMG7N4ROR","A3L0DCUXI7X3A9","3H6W48L9F4B5OEOMH57RM53Z4H1WP0","","","img/flower3.png","74","1270","1","1","2","1,0.5,0.5,0.5,1,0.5,0.5,0.5,1",""
"null","","html-keyboard-response","308","338675","0.0-308.0","3ZSY5X72NYXKH2TTUDP8ZPMG7N4ROR","A3L0DCUXI7X3A9","3H6W48L9F4B5OEOMH57RM53Z4H1WP0","","","<img src=""img/flower3.png"" style=""width:200px; border:14px solid green;"">","null","","","","","",""
"1061.3999999761581","","image-keyboard-response","309","339738","0.0-309.0","3ZSY5X72NYXKH2TTUDP8ZPMG7N4ROR","A3L0DCUXI7X3A9","3H6W48L9F4B5OEOMH57RM53Z4H1WP0","","","img/flower5.png","75","1062.6000000238419","2","0","1","1,0.5,0.5,0.5,1,0.5,0.5,0.5,1",""
"null","","html-keyboard-response","310","340045","0.0-310.0","3ZSY5X72NYXKH2TTUDP8ZPMG7N4ROR","A3L0DCUXI7X3A9","3H6W48L9F4B5OEOMH57RM53Z4H1WP0","","","<img src=""img/flower5.png"" style=""width:200px;border:14px solid red;"">","null","","","","","",""
"907.5","","image-keyboard-response","311","340954","0.0-311.0","3ZSY5X72NYXKH2TTUDP8ZPMG7N4ROR","A3L0DCUXI7X3A9","3H6W48L9F4B5OEOMH57RM53Z4H1WP0","","","img/flower3.png","74","908.7000000476837","1","0","2","1,0.5,0.5,0.5,1,0.5,0.5,0.5,1",""
"null","","html-keyboard-response","312","341257","0.0-312.0","3ZSY5X72NYXKH2TTUDP8ZPMG7N4ROR","A3L0DCUXI7X3A9","3H6W48L9F4B5OEOMH57RM53Z4H1WP0","","","<img src=""img/flower3.png"" style=""width:200px;border:14px solid red;"">","null","","","","","",""
"1198.6999999284744","","image-keyboard-response","313","342457","0.0-313.0","3ZSY5X72NYXKH2TTUDP8ZPMG7N4ROR","A3L0DCUXI7X3A9","3H6W48L9F4B5OEOMH57RM53Z4H1WP0","","","img/flower5.png","76","1199.9000000953674","3","0","1","1,0.5,0.5,0.5,1,0.5,0.5,0.5,1",""
"null","","html-keyboard-response","314","342763","0.0-314.0","3ZSY5X72NYXKH2TTUDP8ZPMG7N4ROR","A3L0DCUXI7X3A9","3H6W48L9F4B5OEOMH57RM53Z4H1WP0","","","<img src=""img/flower5.png"" style=""width:200px;border:14px solid red;"">","null","","","","","",""
"1278.5","","image-keyboard-response","315","344043","0.0-315.0","3ZSY5X72NYXKH2TTUDP8ZPMG7N4ROR","A3L0DCUXI7X3A9","3H6W48L9F4B5OEOMH57RM53Z4H1WP0","","","img/flower6.png","76","1279.3999999761581","3","1","3","1,0.5,0.5,0.5,1,0.5,0.5,0.5,1",""
"null","","html-keyboard-response","316","344350","0.0-316.0","3ZSY5X72NYXKH2TTUDP8ZPMG7N4ROR","A3L0DCUXI7X3A9","3H6W48L9F4B5OEOMH57RM53Z4H1WP0","","","<img src=""img/flower6.png"" style=""width:200px; border:14px solid green;"">","null","","","","","",""
"1498.0999999046326","","image-keyboard-response","317","345849","0.0-317.0","3ZSY5X72NYXKH2TTUDP8ZPMG7N4ROR","A3L0DCUXI7X3A9","3H6W48L9F4B5OEOMH57RM53Z4H1WP0","","","img/flower3.png","74","1498.6000000238419","1","1","2","1,0.5,0.5,0.5,1,0.5,0.5,0.5,1",""
"null","","html-keyboard-response","318","346150","0.0-318.0","3ZSY5X72NYXKH2TTUDP8ZPMG7N4ROR","A3L0DCUXI7X3A9","3H6W48L9F4B5OEOMH57RM53Z4H1WP0","","","<img src=""img/flower3.png"" style=""width:200px; border:14px solid green;"">","null","","","","","",""
"1587.9000000953674","","image-keyboard-response","319","347738","0.0-319.0","3ZSY5X72NYXKH2TTUDP8ZPMG7N4ROR","A3L0DCUXI7X3A9","3H6W48L9F4B5OEOMH57RM53Z4H1WP0","","","img/flower5.png","75","1588.7000000476837","2","1","1","1,0.5,0.5,0.5,1,0.5,0.5,0.5,1",""
"null","","html-keyboard-response","320","348040","0.0-320.0","3ZSY5X72NYXKH2TTUDP8ZPMG7N4ROR","A3L0DCUXI7X3A9","3H6W48L9F4B5OEOMH57RM53Z4H1WP0","","","<img src=""img/flower5.png"" style=""width:200px; border:14px solid green;"">","null","","","","","",""
"1440.3999999761581","","image-keyboard-response","321","349482","0.0-321.0","3ZSY5X72NYXKH2TTUDP8ZPMG7N4ROR","A3L0DCUXI7X3A9","3H6W48L9F4B5OEOMH57RM53Z4H1WP0","","","img/flower6.png","76","1441.6999999284744","3","1","3","1,0.5,0.5,0.5,1,0.5,0.5,0.5,1",""
"null","","html-keyboard-response","322","349797","0.0-322.0","3ZSY5X72NYXKH2TTUDP8ZPMG7N4ROR","A3L0DCUXI7X3A9","3H6W48L9F4B5OEOMH57RM53Z4H1WP0","","","<img src=""img/flower6.png"" style=""width:200px; border:14px solid green;"">","null","","","","","",""
"675.4000000953674","","image-keyboard-response","323","350474","0.0-323.0","3ZSY5X72NYXKH2TTUDP8ZPMG7N4ROR","A3L0DCUXI7X3A9","3H6W48L9F4B5OEOMH57RM53Z4H1WP0","","","img/flower6.png","76","676.7000000476837","3","1","3","1,0.5,0.5,0.5,1,0.5,0.5,0.5,1",""
"null","","html-keyboard-response","324","350788","0.0-324.0","3ZSY5X72NYXKH2TTUDP8ZPMG7N4ROR","A3L0DCUXI7X3A9","3H6W48L9F4B5OEOMH57RM53Z4H1WP0","","","<img src=""img/flower6.png"" style=""width:200px; border:14px solid green;"">","null","","","","","",""
"916.8000000715256","","image-keyboard-response","325","351707","0.0-325.0","3ZSY5X72NYXKH2TTUDP8ZPMG7N4ROR","A3L0DCUXI7X3A9","3H6W48L9F4B5OEOMH57RM53Z4H1WP0","","","img/flower5.png","75","918.1000000238419","2","1","1","1,0.5,0.5,0.5,1,0.5,0.5,0.5,1",""
"null","","html-keyboard-response","326","352017","0.0-326.0","3ZSY5X72NYXKH2TTUDP8ZPMG7N4ROR","A3L0DCUXI7X3A9","3H6W48L9F4B5OEOMH57RM53Z4H1WP0","","","<img src=""img/flower5.png"" style=""width:200px; border:14px solid green;"">","null","","","","","",""
"888.1000000238419","","image-keyboard-response","327","352906","0.0-327.0","3ZSY5X72NYXKH2TTUDP8ZPMG7N4ROR","A3L0DCUXI7X3A9","3H6W48L9F4B5OEOMH57RM53Z4H1WP0","","","img/flower3.png","74","888.7999999523163","1","0","2","1,0.5,0.5,0.5,1,0.5,0.5,0.5,1",""
"null","","html-keyboard-response","328","353215","0.0-328.0","3ZSY5X72NYXKH2TTUDP8ZPMG7N4ROR","A3L0DCUXI7X3A9","3H6W48L9F4B5OEOMH57RM53Z4H1WP0","","","<img src=""img/flower3.png"" style=""width:200px;border:14px solid red;"">","null","","","","","",""
"1033.2999999523163","","image-keyboard-response","329","354249","0.0-329.0","3ZSY5X72NYXKH2TTUDP8ZPMG7N4ROR","A3L0DCUXI7X3A9","3H6W48L9F4B5OEOMH57RM53Z4H1WP0","","","img/flower6.png","76","1033.8000000715256","3","1","3","1,0.5,0.5,0.5,1,0.5,0.5,0.5,1",""
"null","","html-keyboard-response","330","354553","0.0-330.0","3ZSY5X72NYXKH2TTUDP8ZPMG7N4ROR","A3L0DCUXI7X3A9","3H6W48L9F4B5OEOMH57RM53Z4H1WP0","","","<img src=""img/flower6.png"" style=""width:200px; border:14px solid green;"">","null","","","","","",""
"1375.5","","image-keyboard-response","331","355930","0.0-331.0","3ZSY5X72NYXKH2TTUDP8ZPMG7N4ROR","A3L0DCUXI7X3A9","3H6W48L9F4B5OEOMH57RM53Z4H1WP0","","","img/flower3.png","74","1376.8999999761581","1","0","2","1,0.5,0.5,0.5,1,0.5,0.5,0.5,1",""
"null","","html-keyboard-response","332","356233","0.0-332.0","3ZSY5X72NYXKH2TTUDP8ZPMG7N4ROR","A3L0DCUXI7X3A9","3H6W48L9F4B5OEOMH57RM53Z4H1WP0","","","<img src=""img/flower3.png"" style=""width:200px;border:14px solid red;"">","null","","","","","",""
"591.2000000476837","","image-keyboard-response","333","356825","0.0-333.0","3ZSY5X72NYXKH2TTUDP8ZPMG7N4ROR","A3L0DCUXI7X3A9","3H6W48L9F4B5OEOMH57RM53Z4H1WP0","","","img/flower3.png","74","592","1","0","2","1,0.5,0.5,0.5,1,0.5,0.5,0.5,1",""
"null","","html-keyboard-response","334","357127","0.0-334.0","3ZSY5X72NYXKH2TTUDP8ZPMG7N4ROR","A3L0DCUXI7X3A9","3H6W48L9F4B5OEOMH57RM53Z4H1WP0","","","<img src=""img/flower3.png"" style=""width:200px;border:14px solid red;"">","null","","","","","",""
"864.8999999761581","","image-keyboard-response","335","357993","0.0-335.0","3ZSY5X72NYXKH2TTUDP8ZPMG7N4ROR","A3L0DCUXI7X3A9","3H6W48L9F4B5OEOMH57RM53Z4H1WP0","","","img/flower5.png","75","865.7000000476837","2","0","1","1,0.5,0.5,0.5,1,0.5,0.5,0.5,1",""
"null","","html-keyboard-response","336","358309","0.0-336.0","3ZSY5X72NYXKH2TTUDP8ZPMG7N4ROR","A3L0DCUXI7X3A9","3H6W48L9F4B5OEOMH57RM53Z4H1WP0","","","<img src=""img/flower5.png"" style=""width:200px;border:14px solid red;"">","null","","","","","",""
"836.1000000238419","","image-keyboard-response","337","359146","0.0-337.0","3ZSY5X72NYXKH2TTUDP8ZPMG7N4ROR","A3L0DCUXI7X3A9","3H6W48L9F4B5OEOMH57RM53Z4H1WP0","","","img/flower6.png","76","837.5","3","1","3","1,0.5,0.5,0.5,1,0.5,0.5,0.5,1",""
"null","","html-keyboard-response","338","359458","0.0-338.0","3ZSY5X72NYXKH2TTUDP8ZPMG7N4ROR","A3L0DCUXI7X3A9","3H6W48L9F4B5OEOMH57RM53Z4H1WP0","","","<img src=""img/flower6.png"" style=""width:200px; border:14px solid green;"">","null","","","","","",""
"407.2000000476837","","image-keyboard-response","339","359867","0.0-339.0","3ZSY5X72NYXKH2TTUDP8ZPMG7N4ROR","A3L0DCUXI7X3A9","3H6W48L9F4B5OEOMH57RM53Z4H1WP0","","","img/flower6.png","76","408.39999997615814","3","1","3","1,0.5,0.5,0.5,1,0.5,0.5,0.5,1",""
"null","","html-keyboard-response","340","360171","0.0-340.0","3ZSY5X72NYXKH2TTUDP8ZPMG7N4ROR","A3L0DCUXI7X3A9","3H6W48L9F4B5OEOMH57RM53Z4H1WP0","","","<img src=""img/flower6.png"" style=""width:200px; border:14px solid green;"">","null","","","","","",""
"1053.6000000238419","","image-keyboard-response","341","361226","0.0-341.0","3ZSY5X72NYXKH2TTUDP8ZPMG7N4ROR","A3L0DCUXI7X3A9","3H6W48L9F4B5OEOMH57RM53Z4H1WP0","","","img/flower3.png","74","1055","1","1","2","1,0.5,0.5,0.5,1,0.5,0.5,0.5,1",""
"null","","html-keyboard-response","342","361540","0.0-342.0","3ZSY5X72NYXKH2TTUDP8ZPMG7N4ROR","A3L0DCUXI7X3A9","3H6W48L9F4B5OEOMH57RM53Z4H1WP0","","","<img src=""img/flower3.png"" style=""width:200px; border:14px solid green;"">","null","","","","","",""
"420.2000000476837","","image-keyboard-response","343","361962","0.0-343.0","3ZSY5X72NYXKH2TTUDP8ZPMG7N4ROR","A3L0DCUXI7X3A9","3H6W48L9F4B5OEOMH57RM53Z4H1WP0","","","img/flower3.png","74","421.39999997615814","1","1","2","1,0.5,0.5,0.5,1,0.5,0.5,0.5,1",""
"null","","html-keyboard-response","344","362270","0.0-344.0","3ZSY5X72NYXKH2TTUDP8ZPMG7N4ROR","A3L0DCUXI7X3A9","3H6W48L9F4B5OEOMH57RM53Z4H1WP0","","","<img src=""img/flower3.png"" style=""width:200px; border:14px solid green;"">","null","","","","","",""
"1147.5","","image-keyboard-response","345","363418","0.0-345.0","3ZSY5X72NYXKH2TTUDP8ZPMG7N4ROR","A3L0DCUXI7X3A9","3H6W48L9F4B5OEOMH57RM53Z4H1WP0","","","img/flower6.png","76","1148.3000000715256","3","1","3","1,0.5,0.5,0.5,1,0.5,0.5,0.5,1",""
"null","","html-keyboard-response","346","363735","0.0-346.0","3ZSY5X72NYXKH2TTUDP8ZPMG7N4ROR","A3L0DCUXI7X3A9","3H6W48L9F4B5OEOMH57RM53Z4H1WP0","","","<img src=""img/flower6.png"" style=""width:200px; border:14px solid green;"">","null","","","","","",""
"882.1000000238419","","image-keyboard-response","347","364617","0.0-347.0","3ZSY5X72NYXKH2TTUDP8ZPMG7N4ROR","A3L0DCUXI7X3A9","3H6W48L9F4B5OEOMH57RM53Z4H1WP0","","","img/flower5.png","75","882.6000000238419","2","0","1","1,0.5,0.5,0.5,1,0.5,0.5,0.5,1",""
"null","","html-keyboard-response","348","364919","0.0-348.0","3ZSY5X72NYXKH2TTUDP8ZPMG7N4ROR","A3L0DCUXI7X3A9","3H6W48L9F4B5OEOMH57RM53Z4H1WP0","","","<img src=""img/flower5.png"" style=""width:200px;border:14px solid red;"">","null","","","","","",""
"417.10000002384186","","image-keyboard-response","349","365338","0.0-349.0","3ZSY5X72NYXKH2TTUDP8ZPMG7N4ROR","A3L0DCUXI7X3A9","3H6W48L9F4B5OEOMH57RM53Z4H1WP0","","","img/flower5.png","75","418.2999999523163","2","1","1","1,0.5,0.5,0.5,1,0.5,0.5,0.5,1",""
"null","","html-keyboard-response","350","365649","0.0-350.0","3ZSY5X72NYXKH2TTUDP8ZPMG7N4ROR","A3L0DCUXI7X3A9","3H6W48L9F4B5OEOMH57RM53Z4H1WP0","","","<img src=""img/flower5.png"" style=""width:200px; border:14px solid green;"">","null","","","","","",""
"1143","","image-keyboard-response","351","366794","0.0-351.0","3ZSY5X72NYXKH2TTUDP8ZPMG7N4ROR","A3L0DCUXI7X3A9","3H6W48L9F4B5OEOMH57RM53Z4H1WP0","","","img/flower6.png","76","1144.1999999284744","3","1","3","1,0.5,0.5,0.5,1,0.5,0.5,0.5,1",""
"null","","html-keyboard-response","352","367098","0.0-352.0","3ZSY5X72NYXKH2TTUDP8ZPMG7N4ROR","A3L0DCUXI7X3A9","3H6W48L9F4B5OEOMH57RM53Z4H1WP0","","","<img src=""img/flower6.png"" style=""width:200px; border:14px solid green;"">","null","","","","","",""
"1342.5","","image-keyboard-response","353","368442","0.0-353.0","3ZSY5X72NYXKH2TTUDP8ZPMG7N4ROR","A3L0DCUXI7X3A9","3H6W48L9F4B5OEOMH57RM53Z4H1WP0","","","img/flower5.png","75","1343.7999999523163","2","0","1","1,0.5,0.5,0.5,1,0.5,0.5,0.5,1",""
"null","","html-keyboard-response","354","368745","0.0-354.0","3ZSY5X72NYXKH2TTUDP8ZPMG7N4ROR","A3L0DCUXI7X3A9","3H6W48L9F4B5OEOMH57RM53Z4H1WP0","","","<img src=""img/flower5.png"" style=""width:200px;border:14px solid red;"">","null","","","","","",""
"896.7000000476837","","image-keyboard-response","355","369642","0.0-355.0","3ZSY5X72NYXKH2TTUDP8ZPMG7N4ROR","A3L0DCUXI7X3A9","3H6W48L9F4B5OEOMH57RM53Z4H1WP0","","","img/flower6.png","76","897.2999999523163","3","1","3","1,0.5,0.5,0.5,1,0.5,0.5,0.5,1",""
"null","","html-keyboard-response","356","369957","0.0-356.0","3ZSY5X72NYXKH2TTUDP8ZPMG7N4ROR","A3L0DCUXI7X3A9","3H6W48L9F4B5OEOMH57RM53Z4H1WP0","","","<img src=""img/flower6.png"" style=""width:200px; border:14px solid green;"">","null","","","","","",""
"691.8000000715256","","image-keyboard-response","357","370650","0.0-357.0","3ZSY5X72NYXKH2TTUDP8ZPMG7N4ROR","A3L0DCUXI7X3A9","3H6W48L9F4B5OEOMH57RM53Z4H1WP0","","","img/flower3.png","74","692.8999999761581","1","0","2","1,0.5,0.5,0.5,1,0.5,0.5,0.5,1",""
"null","","html-keyboard-response","358","370964","0.0-358.0","3ZSY5X72NYXKH2TTUDP8ZPMG7N4ROR","A3L0DCUXI7X3A9","3H6W48L9F4B5OEOMH57RM53Z4H1WP0","","","<img src=""img/flower3.png"" style=""width:200px;border:14px solid red;"">","null","","","","","",""
"451.7999999523163","","image-keyboard-response","359","371417","0.0-359.0","3ZSY5X72NYXKH2TTUDP8ZPMG7N4ROR","A3L0DCUXI7X3A9","3H6W48L9F4B5OEOMH57RM53Z4H1WP0","","","img/flower3.png","74","452.60000002384186","1","1","2","1,0.5,0.5,0.5,1,0.5,0.5,0.5,1",""
"null","","html-keyboard-response","360","371731","0.0-360.0","3ZSY5X72NYXKH2TTUDP8ZPMG7N4ROR","A3L0DCUXI7X3A9","3H6W48L9F4B5OEOMH57RM53Z4H1WP0","","","<img src=""img/flower3.png"" style=""width:200px; border:14px solid green;"">","null","","","","","",""
"421.40000009536743","","image-keyboard-response","361","372154","0.0-361.0","3ZSY5X72NYXKH2TTUDP8ZPMG7N4ROR","A3L0DCUXI7X3A9","3H6W48L9F4B5OEOMH57RM53Z4H1WP0","","","img/flower3.png","74","423","1","0","2","1,0.5,0.5,0.5,1,0.5,0.5,0.5,1",""
"null","","html-keyboard-response","362","372461","0.0-362.0","3ZSY5X72NYXKH2TTUDP8ZPMG7N4ROR","A3L0DCUXI7X3A9","3H6W48L9F4B5OEOMH57RM53Z4H1WP0","","","<img src=""img/flower3.png"" style=""width:200px;border:14px solid red;"">","null","","","","","",""
"476.60000002384186","","image-keyboard-response","363","372938","0.0-363.0","3ZSY5X72NYXKH2TTUDP8ZPMG7N4ROR","A3L0DCUXI7X3A9","3H6W48L9F4B5OEOMH57RM53Z4H1WP0","","","img/flower3.png","74","477.2999999523163","1","0","2","1,0.5,0.5,0.5,1,0.5,0.5,0.5,1",""
"null","","html-keyboard-response","364","373254","0.0-364.0","3ZSY5X72NYXKH2TTUDP8ZPMG7N4ROR","A3L0DCUXI7X3A9","3H6W48L9F4B5OEOMH57RM53Z4H1WP0","","","<img src=""img/flower3.png"" style=""width:200px;border:14px solid red;"">","null","","","","","",""
"1283.2999999523163","","image-keyboard-response","365","374538","0.0-365.0","3ZSY5X72NYXKH2TTUDP8ZPMG7N4ROR","A3L0DCUXI7X3A9","3H6W48L9F4B5OEOMH57RM53Z4H1WP0","","","img/flower5.png","76","1284.1999999284744","3","0","1","1,0.5,0.5,0.5,1,0.5,0.5,0.5,1",""
"null","","html-keyboard-response","366","374840","0.0-366.0","3ZSY5X72NYXKH2TTUDP8ZPMG7N4ROR","A3L0DCUXI7X3A9","3H6W48L9F4B5OEOMH57RM53Z4H1WP0","","","<img src=""img/flower5.png"" style=""width:200px;border:14px solid red;"">","null","","","","","",""
"2065.600000023842","","image-keyboard-response","367","376906","0.0-367.0","3ZSY5X72NYXKH2TTUDP8ZPMG7N4ROR","A3L0DCUXI7X3A9","3H6W48L9F4B5OEOMH57RM53Z4H1WP0","","","img/flower3.png","74","2066.2999999523163","1","1","2","1,0.5,0.5,0.5,1,0.5,0.5,0.5,1",""
"null","","html-keyboard-response","368","377217","0.0-368.0","3ZSY5X72NYXKH2TTUDP8ZPMG7N4ROR","A3L0DCUXI7X3A9","3H6W48L9F4B5OEOMH57RM53Z4H1WP0","","","<img src=""img/flower3.png"" style=""width:200px; border:14px solid green;"">","null","","","","","",""
"678.1000000238419","","image-keyboard-response","369","377897","0.0-369.0","3ZSY5X72NYXKH2TTUDP8ZPMG7N4ROR","A3L0DCUXI7X3A9","3H6W48L9F4B5OEOMH57RM53Z4H1WP0","","","img/flower3.png","74","679","1","0","2","1,0.5,0.5,0.5,1,0.5,0.5,0.5,1",""
"null","","html-keyboard-response","370","378199","0.0-370.0","3ZSY5X72NYXKH2TTUDP8ZPMG7N4ROR","A3L0DCUXI7X3A9","3H6W48L9F4B5OEOMH57RM53Z4H1WP0","","","<img src=""img/flower3.png"" style=""width:200px;border:14px solid red;"">","null","","","","","",""
"833.8999999761581","","image-keyboard-response","371","379035","0.0-371.0","3ZSY5X72NYXKH2TTUDP8ZPMG7N4ROR","A3L0DCUXI7X3A9","3H6W48L9F4B5OEOMH57RM53Z4H1WP0","","","img/flower5.png","75","835.2999999523163","2","1","1","1,0.5,0.5,0.5,1,0.5,0.5,0.5,1",""
"null","","html-keyboard-response","372","379349","0.0-372.0","3ZSY5X72NYXKH2TTUDP8ZPMG7N4ROR","A3L0DCUXI7X3A9","3H6W48L9F4B5OEOMH57RM53Z4H1WP0","","","<img src=""img/flower5.png"" style=""width:200px; border:14px solid green;"">","null","","","","","",""
"723","","image-keyboard-response","373","380074","0.0-373.0","3ZSY5X72NYXKH2TTUDP8ZPMG7N4ROR","A3L0DCUXI7X3A9","3H6W48L9F4B5OEOMH57RM53Z4H1WP0","","","img/flower6.png","76","724.3999999761581","3","1","3","1,0.5,0.5,0.5,1,0.5,0.5,0.5,1",""
"null","","html-keyboard-response","374","380377","0.0-374.0","3ZSY5X72NYXKH2TTUDP8ZPMG7N4ROR","A3L0DCUXI7X3A9","3H6W48L9F4B5OEOMH57RM53Z4H1WP0","","","<img src=""img/flower6.png"" style=""width:200px; border:14px solid green;"">","null","","","","","",""
"1039.2999999523163","","image-keyboard-response","375","381417","0.0-375.0","3ZSY5X72NYXKH2TTUDP8ZPMG7N4ROR","A3L0DCUXI7X3A9","3H6W48L9F4B5OEOMH57RM53Z4H1WP0","","","img/flower5.png","75","1039.7000000476837","2","0","1","1,0.5,0.5,0.5,1,0.5,0.5,0.5,1",""
"null","","html-keyboard-response","376","381732","0.0-376.0","3ZSY5X72NYXKH2TTUDP8ZPMG7N4ROR","A3L0DCUXI7X3A9","3H6W48L9F4B5OEOMH57RM53Z4H1WP0","","","<img src=""img/flower5.png"" style=""width:200px;border:14px solid red;"">","null","","","","","",""
"819.2000000476837","","image-keyboard-response","377","382553","0.0-377.0","3ZSY5X72NYXKH2TTUDP8ZPMG7N4ROR","A3L0DCUXI7X3A9","3H6W48L9F4B5OEOMH57RM53Z4H1WP0","","","img/flower6.png","76","820.2999999523163","3","1","3","1,0.5,0.5,0.5,1,0.5,0.5,0.5,1",""
"null","","html-keyboard-response","378","382868","0.0-378.0","3ZSY5X72NYXKH2TTUDP8ZPMG7N4ROR","A3L0DCUXI7X3A9","3H6W48L9F4B5OEOMH57RM53Z4H1WP0","","","<img src=""img/flower6.png"" style=""width:200px; border:14px solid green;"">","null","","","","","",""
"885.1000000238419","","image-keyboard-response","379","383754","0.0-379.0","3ZSY5X72NYXKH2TTUDP8ZPMG7N4ROR","A3L0DCUXI7X3A9","3H6W48L9F4B5OEOMH57RM53Z4H1WP0","","","img/flower3.png","74","886.2999999523163","1","0","2","1,0.5,0.5,0.5,1,0.5,0.5,0.5,1",""
"null","","html-keyboard-response","380","384062","0.0-380.0","3ZSY5X72NYXKH2TTUDP8ZPMG7N4ROR","A3L0DCUXI7X3A9","3H6W48L9F4B5OEOMH57RM53Z4H1WP0","","","<img src=""img/flower3.png"" style=""width:200px;border:14px solid red;"">","null","","","","","",""
"1081.3999999761581","","image-keyboard-response","381","385145","0.0-381.0","3ZSY5X72NYXKH2TTUDP8ZPMG7N4ROR","A3L0DCUXI7X3A9","3H6W48L9F4B5OEOMH57RM53Z4H1WP0","","","img/flower6.png","76","1082.5","3","1","3","1,0.5,0.5,0.5,1,0.5,0.5,0.5,1",""
"null","","html-keyboard-response","382","385461","0.0-382.0","3ZSY5X72NYXKH2TTUDP8ZPMG7N4ROR","A3L0DCUXI7X3A9","3H6W48L9F4B5OEOMH57RM53Z4H1WP0","","","<img src=""img/flower6.png"" style=""width:200px; border:14px solid green;"">","null","","","","","",""
"372","","image-keyboard-response","383","385834","0.0-383.0","3ZSY5X72NYXKH2TTUDP8ZPMG7N4ROR","A3L0DCUXI7X3A9","3H6W48L9F4B5OEOMH57RM53Z4H1WP0","","","img/flower6.png","76","373.3000000715256","3","1","3","1,0.5,0.5,0.5,1,0.5,0.5,0.5,1",""
"null","","html-keyboard-response","384","386149","0.0-384.0","3ZSY5X72NYXKH2TTUDP8ZPMG7N4ROR","A3L0DCUXI7X3A9","3H6W48L9F4B5OEOMH57RM53Z4H1WP0","","","<img src=""img/flower6.png"" style=""width:200px; border:14px solid green;"">","null","","","","","",""
"786.7999999523163","","image-keyboard-response","385","386937","0.0-385.0","3ZSY5X72NYXKH2TTUDP8ZPMG7N4ROR","A3L0DCUXI7X3A9","3H6W48L9F4B5OEOMH57RM53Z4H1WP0","","","img/flower5.png","75","787.8000000715256","2","0","1","1,0.5,0.5,0.5,1,0.5,0.5,0.5,1",""
"null","","html-keyboard-response","386","387239","0.0-386.0","3ZSY5X72NYXKH2TTUDP8ZPMG7N4ROR","A3L0DCUXI7X3A9","3H6W48L9F4B5OEOMH57RM53Z4H1WP0","","","<img src=""img/flower5.png"" style=""width:200px;border:14px solid red;"">","null","","","","","",""
"401.2999999523163","","image-keyboard-response","387","387642","0.0-387.0","3ZSY5X72NYXKH2TTUDP8ZPMG7N4ROR","A3L0DCUXI7X3A9","3H6W48L9F4B5OEOMH57RM53Z4H1WP0","","","img/flower5.png","75","402.60000002384186","2","0","1","1,0.5,0.5,0.5,1,0.5,0.5,0.5,1",""
"null","","html-keyboard-response","388","387953","0.0-388.0","3ZSY5X72NYXKH2TTUDP8ZPMG7N4ROR","A3L0DCUXI7X3A9","3H6W48L9F4B5OEOMH57RM53Z4H1WP0","","","<img src=""img/flower5.png"" style=""width:200px;border:14px solid red;"">","null","","","","","",""
"503.59999990463257","","image-keyboard-response","389","388458","0.0-389.0","3ZSY5X72NYXKH2TTUDP8ZPMG7N4ROR","A3L0DCUXI7X3A9","3H6W48L9F4B5OEOMH57RM53Z4H1WP0","","","img/flower5.png","75","504.5","2","1","1","1,0.5,0.5,0.5,1,0.5,0.5,0.5,1",""
"null","","html-keyboard-response","390","388775","0.0-390.0","3ZSY5X72NYXKH2TTUDP8ZPMG7N4ROR","A3L0DCUXI7X3A9","3H6W48L9F4B5OEOMH57RM53Z4H1WP0","","","<img src=""img/flower5.png"" style=""width:200px; border:14px solid green;"">","null","","","","","",""
"1538.1000000238419","","image-keyboard-response","391","390314","0.0-391.0","3ZSY5X72NYXKH2TTUDP8ZPMG7N4ROR","A3L0DCUXI7X3A9","3H6W48L9F4B5OEOMH57RM53Z4H1WP0","","","img/flower6.png","76","1539.3999999761581","3","1","3","1,0.5,0.5,0.5,1,0.5,0.5,0.5,1",""
"null","","html-keyboard-response","392","390625","0.0-392.0","3ZSY5X72NYXKH2TTUDP8ZPMG7N4ROR","A3L0DCUXI7X3A9","3H6W48L9F4B5OEOMH57RM53Z4H1WP0","","","<img src=""img/flower6.png"" style=""width:200px; border:14px solid green;"">","null","","","","","",""
"758.1000000238419","","image-keyboard-response","393","391385","0.0-393.0","3ZSY5X72NYXKH2TTUDP8ZPMG7N4ROR","A3L0DCUXI7X3A9","3H6W48L9F4B5OEOMH57RM53Z4H1WP0","","","img/flower3.png","74","758.9000000953674","1","0","2","1,0.5,0.5,0.5,1,0.5,0.5,0.5,1",""
"null","","html-keyboard-response","394","391697","0.0-394.0","3ZSY5X72NYXKH2TTUDP8ZPMG7N4ROR","A3L0DCUXI7X3A9","3H6W48L9F4B5OEOMH57RM53Z4H1WP0","","","<img src=""img/flower3.png"" style=""width:200px;border:14px solid red;"">","null","","","","","",""
"1016.7999999523163","","image-keyboard-response","395","392714","0.0-395.0","3ZSY5X72NYXKH2TTUDP8ZPMG7N4ROR","A3L0DCUXI7X3A9","3H6W48L9F4B5OEOMH57RM53Z4H1WP0","","","img/flower6.png","76","1017.5","3","1","3","1,0.5,0.5,0.5,1,0.5,0.5,0.5,1",""
"null","","html-keyboard-response","396","393030","0.0-396.0","3ZSY5X72NYXKH2TTUDP8ZPMG7N4ROR","A3L0DCUXI7X3A9","3H6W48L9F4B5OEOMH57RM53Z4H1WP0","","","<img src=""img/flower6.png"" style=""width:200px; border:14px solid green;"">","null","","","","","",""
"851","","image-keyboard-response","397","393883","0.0-397.0","3ZSY5X72NYXKH2TTUDP8ZPMG7N4ROR","A3L0DCUXI7X3A9","3H6W48L9F4B5OEOMH57RM53Z4H1WP0","","","img/flower5.png","75","852","2","0","1","1,0.5,0.5,0.5,1,0.5,0.5,0.5,1",""
"null","","html-keyboard-response","398","394192","0.0-398.0","3ZSY5X72NYXKH2TTUDP8ZPMG7N4ROR","A3L0DCUXI7X3A9","3H6W48L9F4B5OEOMH57RM53Z4H1WP0","","","<img src=""img/flower5.png"" style=""width:200px;border:14px solid red;"">","null","","","","","",""
"1401.5","","image-keyboard-response","399","395594","0.0-399.0","3ZSY5X72NYXKH2TTUDP8ZPMG7N4ROR","A3L0DCUXI7X3A9","3H6W48L9F4B5OEOMH57RM53Z4H1WP0","","","img/flower6.png","76","1402.3999999761581","3","1","3","1,0.5,0.5,0.5,1,0.5,0.5,0.5,1",""
"null","","html-keyboard-response","400","395903","0.0-400.0","3ZSY5X72NYXKH2TTUDP8ZPMG7N4ROR","A3L0DCUXI7X3A9","3H6W48L9F4B5OEOMH57RM53Z4H1WP0","","","<img src=""img/flower6.png"" style=""width:200px; border:14px solid green;"">","null","","","","","",""
"393.6999999284744","","image-keyboard-response","401","396298","0.0-401.0","3ZSY5X72NYXKH2TTUDP8ZPMG7N4ROR","A3L0DCUXI7X3A9","3H6W48L9F4B5OEOMH57RM53Z4H1WP0","","","img/flower6.png","76","394.89999997615814","3","1","3","1,0.5,0.5,0.5,1,0.5,0.5,0.5,1",""
"null","","html-keyboard-response","402","396604","0.0-402.0","3ZSY5X72NYXKH2TTUDP8ZPMG7N4ROR","A3L0DCUXI7X3A9","3H6W48L9F4B5OEOMH57RM53Z4H1WP0","","","<img src=""img/flower6.png"" style=""width:200px; border:14px solid green;"">","null","","","","","",""
"428.7999999523163","","image-keyboard-response","403","397034","0.0-403.0","3ZSY5X72NYXKH2TTUDP8ZPMG7N4ROR","A3L0DCUXI7X3A9","3H6W48L9F4B5OEOMH57RM53Z4H1WP0","","","img/flower6.png","76","430.09999990463257","3","1","3","1,0.5,0.5,0.5,1,0.5,0.5,0.5,1",""
"null","","html-keyboard-response","404","397350","0.0-404.0","3ZSY5X72NYXKH2TTUDP8ZPMG7N4ROR","A3L0DCUXI7X3A9","3H6W48L9F4B5OEOMH57RM53Z4H1WP0","","","<img src=""img/flower6.png"" style=""width:200px; border:14px solid green;"">","null","","","","","",""
