"success","trial_type","trial_index","time_elapsed","internal_node_id","assignmentID","mturkID","hitID","view_history","rt","stimulus","key_press","reactionTime","a","r","s","cond","reward_cond","reward_cond_actual","reward_matrix_idx","responses"
"true","fullscreen","0","8401","0.0-0.0","3JWH6J9I9TZFJACSX135KLH72JWNBI","A3L2VS3998R77L","3Z3R5YC0P3915KVY8X6BNRIWYOFFTN","","","","","","","","","","","","",""
"","instructions","1","54077","0.0-1.0","3JWH6J9I9TZFJACSX135KLH72JWNBI","A3L2VS3998R77L","3Z3R5YC0P3915KVY8X6BNRIWYOFFTN","[{""page_index"":0,""viewing_time"":3748},{""page_index"":1,""viewing_time"":2604.5},{""page_index"":2,""viewing_time"":4800.199999809265},{""page_index"":3,""viewing_time"":4923.700000047684},{""page_index"":4,""viewing_time"":4542},{""page_index"":5,""viewing_time"":4520.900000095367},{""page_index"":6,""viewing_time"":12129.799999952316},{""page_index"":7,""viewing_time"":8406.5}]","45675.89999985695","","","","","","","","","","",""
"","image-keyboard-response","2","55950","0.0-2.0","3JWH6J9I9TZFJACSX135KLH72JWNBI","A3L2VS3998R77L","3Z3R5YC0P3915KVY8X6BNRIWYOFFTN","","1872.0999999046326","img/flower4.png","75","1872.5999999046326","2","1","2","1","1,0.333,0.333,0.333,1,0.333,0.333,0.333,1","1,0.333,0.333,0.333,1,0.333,0.333,0.333,1","1",""
"","html-keyboard-response","3","56251","0.0-3.0","3JWH6J9I9TZFJACSX135KLH72JWNBI","A3L2VS3998R77L","3Z3R5YC0P3915KVY8X6BNRIWYOFFTN","","null","<img src=""img/flower4.png"" style=""width:200px; border:14px solid green;"">","null","","","","","","","","",""
"","image-keyboard-response","4","57079","0.0-4.0","3JWH6J9I9TZFJACSX135KLH72JWNBI","A3L2VS3998R77L","3Z3R5YC0P3915KVY8X6BNRIWYOFFTN","","827.5999999046326","img/flower2.png","74","828.0999999046326","1","0","3","1","1,0.333,0.333,0.333,1,0.333,0.333,0.333,1","1,0.333,0.333,0.333,1,0.333,0.333,0.333,1","1",""
"","html-keyboard-response","5","57380","0.0-5.0","3JWH6J9I9TZFJACSX135KLH72JWNBI","A3L2VS3998R77L","3Z3R5YC0P3915KVY8X6BNRIWYOFFTN","","null","<img src=""img/flower2.png"" style=""width:200px;border:14px solid red;"">","null","","","","","","","","",""
"","image-keyboard-response","6","57782","0.0-6.0","3JWH6J9I9TZFJACSX135KLH72JWNBI","A3L2VS3998R77L","3Z3R5YC0P3915KVY8X6BNRIWYOFFTN","","400.7999999523163","img/flower2.png","75","401.2999999523163","2","0","3","1","1,0.333,0.333,0.333,1,0.333,0.333,0.333,1","1,0.333,0.333,0.333,1,0.333,0.333,0.333,1","1",""
"","html-keyboard-response","7","58083","0.0-7.0","3JWH6J9I9TZFJACSX135KLH72JWNBI","A3L2VS3998R77L","3Z3R5YC0P3915KVY8X6BNRIWYOFFTN","","null","<img src=""img/flower2.png"" style=""width:200px;border:14px solid red;"">","null","","","","","","","","",""
"","image-keyboard-response","8","58730","0.0-8.0","3JWH6J9I9TZFJACSX135KLH72JWNBI","A3L2VS3998R77L","3Z3R5YC0P3915KVY8X6BNRIWYOFFTN","","646","img/flower4.png","76","646.5999999046326","3","0","2","1","1,0.333,0.333,0.333,1,0.333,0.333,0.333,1","1,0.333,0.333,0.333,1,0.333,0.333,0.333,1","1",""
"","html-keyboard-response","9","59031","0.0-9.0","3JWH6J9I9TZFJACSX135KLH72JWNBI","A3L2VS3998R77L","3Z3R5YC0P3915KVY8X6BNRIWYOFFTN","","null","<img src=""img/flower4.png"" style=""width:200px;border:14px solid red;"">","null","","","","","","","","",""
"","image-keyboard-response","10","59495","0.0-10.0","3JWH6J9I9TZFJACSX135KLH72JWNBI","A3L2VS3998R77L","3Z3R5YC0P3915KVY8X6BNRIWYOFFTN","","463.09999990463257","img/flower4.png","75","463.7000000476837","2","1","2","1","1,0.333,0.333,0.333,1,0.333,0.333,0.333,1","1,0.333,0.333,0.333,1,0.333,0.333,0.333,1","1",""
"","html-keyboard-response","11","59796","0.0-11.0","3JWH6J9I9TZFJACSX135KLH72JWNBI","A3L2VS3998R77L","3Z3R5YC0P3915KVY8X6BNRIWYOFFTN","","null","<img src=""img/flower4.png"" style=""width:200px; border:14px solid green;"">","null","","","","","","","","",""
"","image-keyboard-response","12","60321","0.0-12.0","3JWH6J9I9TZFJACSX135KLH72JWNBI","A3L2VS3998R77L","3Z3R5YC0P3915KVY8X6BNRIWYOFFTN","","523.6999998092651","img/flower4.png","75","524.1000001430511","2","1","2","1","1,0.333,0.333,0.333,1,0.333,0.333,0.333,1","1,0.333,0.333,0.333,1,0.333,0.333,0.333,1","1",""
"","html-keyboard-response","13","60622","0.0-13.0","3JWH6J9I9TZFJACSX135KLH72JWNBI","A3L2VS3998R77L","3Z3R5YC0P3915KVY8X6BNRIWYOFFTN","","null","<img src=""img/flower4.png"" style=""width:200px; border:14px solid green;"">","null","","","","","","","","",""
"","image-keyboard-response","14","61127","0.0-14.0","3JWH6J9I9TZFJACSX135KLH72JWNBI","A3L2VS3998R77L","3Z3R5YC0P3915KVY8X6BNRIWYOFFTN","","504.2000000476837","img/flower4.png","75","504.7999999523163","2","1","2","1","1,0.333,0.333,0.333,1,0.333,0.333,0.333,1","1,0.333,0.333,0.333,1,0.333,0.333,0.333,1","1",""
"","html-keyboard-response","15","61428","0.0-15.0","3JWH6J9I9TZFJACSX135KLH72JWNBI","A3L2VS3998R77L","3Z3R5YC0P3915KVY8X6BNRIWYOFFTN","","null","<img src=""img/flower4.png"" style=""width:200px; border:14px solid green;"">","null","","","","","","","","",""
"","image-keyboard-response","16","62066","0.0-16.0","3JWH6J9I9TZFJACSX135KLH72JWNBI","A3L2VS3998R77L","3Z3R5YC0P3915KVY8X6BNRIWYOFFTN","","637.9000000953674","img/flower1.png","74","638.2999999523163","1","1","1","1","1,0.333,0.333,0.333,1,0.333,0.333,0.333,1","1,0.333,0.333,0.333,1,0.333,0.333,0.333,1","1",""
"","html-keyboard-response","17","62368","0.0-17.0","3JWH6J9I9TZFJACSX135KLH72JWNBI","A3L2VS3998R77L","3Z3R5YC0P3915KVY8X6BNRIWYOFFTN","","null","<img src=""img/flower1.png"" style=""width:200px; border:14px solid green;"">","null","","","","","","","","",""
"","image-keyboard-response","18","63138","0.0-18.0","3JWH6J9I9TZFJACSX135KLH72JWNBI","A3L2VS3998R77L","3Z3R5YC0P3915KVY8X6BNRIWYOFFTN","","769.5","img/flower2.png","75","770","2","0","3","1","1,0.333,0.333,0.333,1,0.333,0.333,0.333,1","1,0.333,0.333,0.333,1,0.333,0.333,0.333,1","1",""
"","html-keyboard-response","19","63439","0.0-19.0","3JWH6J9I9TZFJACSX135KLH72JWNBI","A3L2VS3998R77L","3Z3R5YC0P3915KVY8X6BNRIWYOFFTN","","null","<img src=""img/flower2.png"" style=""width:200px;border:14px solid red;"">","null","","","","","","","","",""
"","image-keyboard-response","20","63822","0.0-20.0","3JWH6J9I9TZFJACSX135KLH72JWNBI","A3L2VS3998R77L","3Z3R5YC0P3915KVY8X6BNRIWYOFFTN","","382","img/flower2.png","76","382.5","3","1","3","1","1,0.333,0.333,0.333,1,0.333,0.333,0.333,1","1,0.333,0.333,0.333,1,0.333,0.333,0.333,1","1",""
"","html-keyboard-response","21","64123","0.0-21.0","3JWH6J9I9TZFJACSX135KLH72JWNBI","A3L2VS3998R77L","3Z3R5YC0P3915KVY8X6BNRIWYOFFTN","","null","<img src=""img/flower2.png"" style=""width:200px; border:14px solid green;"">","null","","","","","","","","",""
"","image-keyboard-response","22","65048","0.0-22.0","3JWH6J9I9TZFJACSX135KLH72JWNBI","A3L2VS3998R77L","3Z3R5YC0P3915KVY8X6BNRIWYOFFTN","","924.7999999523163","img/flower4.png","75","925.1999998092651","2","1","2","1","1,0.333,0.333,0.333,1,0.333,0.333,0.333,1","1,0.333,0.333,0.333,1,0.333,0.333,0.333,1","1",""
"","html-keyboard-response","23","65349","0.0-23.0","3JWH6J9I9TZFJACSX135KLH72JWNBI","A3L2VS3998R77L","3Z3R5YC0P3915KVY8X6BNRIWYOFFTN","","null","<img src=""img/flower4.png"" style=""width:200px; border:14px solid green;"">","null","","","","","","","","",""
"","image-keyboard-response","24","66152","0.0-24.0","3JWH6J9I9TZFJACSX135KLH72JWNBI","A3L2VS3998R77L","3Z3R5YC0P3915KVY8X6BNRIWYOFFTN","","802.3000001907349","img/flower4.png","75","802.7999999523163","2","1","2","1","1,0.333,0.333,0.333,1,0.333,0.333,0.333,1","1,0.333,0.333,0.333,1,0.333,0.333,0.333,1","1",""
"","html-keyboard-response","25","66454","0.0-25.0","3JWH6J9I9TZFJACSX135KLH72JWNBI","A3L2VS3998R77L","3Z3R5YC0P3915KVY8X6BNRIWYOFFTN","","null","<img src=""img/flower4.png"" style=""width:200px; border:14px solid green;"">","null","","","","","","","","",""
"","image-keyboard-response","26","67292","0.0-26.0","3JWH6J9I9TZFJACSX135KLH72JWNBI","A3L2VS3998R77L","3Z3R5YC0P3915KVY8X6BNRIWYOFFTN","","837.7000000476837","img/flower2.png","76","838.4000000953674","3","1","3","1","1,0.333,0.333,0.333,1,0.333,0.333,0.333,1","1,0.333,0.333,0.333,1,0.333,0.333,0.333,1","1",""
"","html-keyboard-response","27","67594","0.0-27.0","3JWH6J9I9TZFJACSX135KLH72JWNBI","A3L2VS3998R77L","3Z3R5YC0P3915KVY8X6BNRIWYOFFTN","","null","<img src=""img/flower2.png"" style=""width:200px; border:14px solid green;"">","null","","","","","","","","",""
"","image-keyboard-response","28","68127","0.0-28.0","3JWH6J9I9TZFJACSX135KLH72JWNBI","A3L2VS3998R77L","3Z3R5YC0P3915KVY8X6BNRIWYOFFTN","","532.5999999046326","img/flower2.png","76","533.1000001430511","3","1","3","1","1,0.333,0.333,0.333,1,0.333,0.333,0.333,1","1,0.333,0.333,0.333,1,0.333,0.333,0.333,1","1",""
"","html-keyboard-response","29","68428","0.0-29.0","3JWH6J9I9TZFJACSX135KLH72JWNBI","A3L2VS3998R77L","3Z3R5YC0P3915KVY8X6BNRIWYOFFTN","","null","<img src=""img/flower2.png"" style=""width:200px; border:14px solid green;"">","null","","","","","","","","",""
"","image-keyboard-response","30","69052","0.0-30.0","3JWH6J9I9TZFJACSX135KLH72JWNBI","A3L2VS3998R77L","3Z3R5YC0P3915KVY8X6BNRIWYOFFTN","","623.4000000953674","img/flower4.png","75","623.7999999523163","2","1","2","1","1,0.333,0.333,0.333,1,0.333,0.333,0.333,1","1,0.333,0.333,0.333,1,0.333,0.333,0.333,1","1",""
"","html-keyboard-response","31","69353","0.0-31.0","3JWH6J9I9TZFJACSX135KLH72JWNBI","A3L2VS3998R77L","3Z3R5YC0P3915KVY8X6BNRIWYOFFTN","","null","<img src=""img/flower4.png"" style=""width:200px; border:14px solid green;"">","null","","","","","","","","",""
"","image-keyboard-response","32","70056","0.0-32.0","3JWH6J9I9TZFJACSX135KLH72JWNBI","A3L2VS3998R77L","3Z3R5YC0P3915KVY8X6BNRIWYOFFTN","","701.7999999523163","img/flower2.png","76","702.3000001907349","3","1","3","1","1,0.333,0.333,0.333,1,0.333,0.333,0.333,1","1,0.333,0.333,0.333,1,0.333,0.333,0.333,1","1",""
"","html-keyboard-response","33","70357","0.0-33.0","3JWH6J9I9TZFJACSX135KLH72JWNBI","A3L2VS3998R77L","3Z3R5YC0P3915KVY8X6BNRIWYOFFTN","","null","<img src=""img/flower2.png"" style=""width:200px; border:14px solid green;"">","null","","","","","","","","",""
"","image-keyboard-response","34","70963","0.0-34.0","3JWH6J9I9TZFJACSX135KLH72JWNBI","A3L2VS3998R77L","3Z3R5YC0P3915KVY8X6BNRIWYOFFTN","","605","img/flower4.png","75","605.6000001430511","2","1","2","1","1,0.333,0.333,0.333,1,0.333,0.333,0.333,1","1,0.333,0.333,0.333,1,0.333,0.333,0.333,1","1",""
"","html-keyboard-response","35","71264","0.0-35.0","3JWH6J9I9TZFJACSX135KLH72JWNBI","A3L2VS3998R77L","3Z3R5YC0P3915KVY8X6BNRIWYOFFTN","","null","<img src=""img/flower4.png"" style=""width:200px; border:14px solid green;"">","null","","","","","","","","",""
"","image-keyboard-response","36","71729","0.0-36.0","3JWH6J9I9TZFJACSX135KLH72JWNBI","A3L2VS3998R77L","3Z3R5YC0P3915KVY8X6BNRIWYOFFTN","","464.39999985694885","img/flower1.png","76","464.90000009536743","3","1","1","1","1,0.333,0.333,0.333,1,0.333,0.333,0.333,1","1,0.333,0.333,0.333,1,0.333,0.333,0.333,1","1",""
"","html-keyboard-response","37","72030","0.0-37.0","3JWH6J9I9TZFJACSX135KLH72JWNBI","A3L2VS3998R77L","3Z3R5YC0P3915KVY8X6BNRIWYOFFTN","","null","<img src=""img/flower1.png"" style=""width:200px; border:14px solid green;"">","null","","","","","","","","",""
"","image-keyboard-response","38","73252","0.0-38.0","3JWH6J9I9TZFJACSX135KLH72JWNBI","A3L2VS3998R77L","3Z3R5YC0P3915KVY8X6BNRIWYOFFTN","","1221.5","img/flower2.png","75","1222","2","0","3","1","1,0.333,0.333,0.333,1,0.333,0.333,0.333,1","1,0.333,0.333,0.333,1,0.333,0.333,0.333,1","1",""
"","html-keyboard-response","39","73554","0.0-39.0","3JWH6J9I9TZFJACSX135KLH72JWNBI","A3L2VS3998R77L","3Z3R5YC0P3915KVY8X6BNRIWYOFFTN","","null","<img src=""img/flower2.png"" style=""width:200px;border:14px solid red;"">","null","","","","","","","","",""
"","image-keyboard-response","40","74359","0.0-40.0","3JWH6J9I9TZFJACSX135KLH72JWNBI","A3L2VS3998R77L","3Z3R5YC0P3915KVY8X6BNRIWYOFFTN","","804.5999999046326","img/flower4.png","75","805","2","1","2","1","1,0.333,0.333,0.333,1,0.333,0.333,0.333,1","1,0.333,0.333,0.333,1,0.333,0.333,0.333,1","1",""
"","html-keyboard-response","41","74660","0.0-41.0","3JWH6J9I9TZFJACSX135KLH72JWNBI","A3L2VS3998R77L","3Z3R5YC0P3915KVY8X6BNRIWYOFFTN","","null","<img src=""img/flower4.png"" style=""width:200px; border:14px solid green;"">","null","","","","","","","","",""
"","image-keyboard-response","42","75166","0.0-42.0","3JWH6J9I9TZFJACSX135KLH72JWNBI","A3L2VS3998R77L","3Z3R5YC0P3915KVY8X6BNRIWYOFFTN","","504.90000009536743","img/flower4.png","76","505.59999990463257","3","0","2","1","1,0.333,0.333,0.333,1,0.333,0.333,0.333,1","1,0.333,0.333,0.333,1,0.333,0.333,0.333,1","1",""
"","html-keyboard-response","43","75467","0.0-43.0","3JWH6J9I9TZFJACSX135KLH72JWNBI","A3L2VS3998R77L","3Z3R5YC0P3915KVY8X6BNRIWYOFFTN","","null","<img src=""img/flower4.png"" style=""width:200px;border:14px solid red;"">","null","","","","","","","","",""
"","image-keyboard-response","44","76447","0.0-44.0","3JWH6J9I9TZFJACSX135KLH72JWNBI","A3L2VS3998R77L","3Z3R5YC0P3915KVY8X6BNRIWYOFFTN","","979.7999999523163","img/flower1.png","75","980.4000000953674","2","1","1","1","1,0.333,0.333,0.333,1,0.333,0.333,0.333,1","1,0.333,0.333,0.333,1,0.333,0.333,0.333,1","1",""
"","html-keyboard-response","45","76748","0.0-45.0","3JWH6J9I9TZFJACSX135KLH72JWNBI","A3L2VS3998R77L","3Z3R5YC0P3915KVY8X6BNRIWYOFFTN","","null","<img src=""img/flower1.png"" style=""width:200px; border:14px solid green;"">","null","","","","","","","","",""
"","image-keyboard-response","46","77400","0.0-46.0","3JWH6J9I9TZFJACSX135KLH72JWNBI","A3L2VS3998R77L","3Z3R5YC0P3915KVY8X6BNRIWYOFFTN","","651.7999999523163","img/flower2.png","76","652.1999998092651","3","1","3","1","1,0.333,0.333,0.333,1,0.333,0.333,0.333,1","1,0.333,0.333,0.333,1,0.333,0.333,0.333,1","1",""
"","html-keyboard-response","47","77701","0.0-47.0","3JWH6J9I9TZFJACSX135KLH72JWNBI","A3L2VS3998R77L","3Z3R5YC0P3915KVY8X6BNRIWYOFFTN","","null","<img src=""img/flower2.png"" style=""width:200px; border:14px solid green;"">","null","","","","","","","","",""
"","image-keyboard-response","48","78266","0.0-48.0","3JWH6J9I9TZFJACSX135KLH72JWNBI","A3L2VS3998R77L","3Z3R5YC0P3915KVY8X6BNRIWYOFFTN","","564.7000000476837","img/flower1.png","75","565.2000000476837","2","1","1","1","1,0.333,0.333,0.333,1,0.333,0.333,0.333,1","1,0.333,0.333,0.333,1,0.333,0.333,0.333,1","1",""
"","html-keyboard-response","49","78567","0.0-49.0","3JWH6J9I9TZFJACSX135KLH72JWNBI","A3L2VS3998R77L","3Z3R5YC0P3915KVY8X6BNRIWYOFFTN","","null","<img src=""img/flower1.png"" style=""width:200px; border:14px solid green;"">","null","","","","","","","","",""
"","image-keyboard-response","50","79018","0.0-50.0","3JWH6J9I9TZFJACSX135KLH72JWNBI","A3L2VS3998R77L","3Z3R5YC0P3915KVY8X6BNRIWYOFFTN","","450.2999999523163","img/flower4.png","76","450.80000019073486","3","1","2","1","1,0.333,0.333,0.333,1,0.333,0.333,0.333,1","1,0.333,0.333,0.333,1,0.333,0.333,0.333,1","1",""
"","html-keyboard-response","51","79320","0.0-51.0","3JWH6J9I9TZFJACSX135KLH72JWNBI","A3L2VS3998R77L","3Z3R5YC0P3915KVY8X6BNRIWYOFFTN","","null","<img src=""img/flower4.png"" style=""width:200px; border:14px solid green;"">","null","","","","","","","","",""
"","image-keyboard-response","52","80094","0.0-52.0","3JWH6J9I9TZFJACSX135KLH72JWNBI","A3L2VS3998R77L","3Z3R5YC0P3915KVY8X6BNRIWYOFFTN","","773.7000000476837","img/flower2.png","76","774","3","1","3","1","1,0.333,0.333,0.333,1,0.333,0.333,0.333,1","1,0.333,0.333,0.333,1,0.333,0.333,0.333,1","1",""
"","html-keyboard-response","53","80396","0.0-53.0","3JWH6J9I9TZFJACSX135KLH72JWNBI","A3L2VS3998R77L","3Z3R5YC0P3915KVY8X6BNRIWYOFFTN","","null","<img src=""img/flower2.png"" style=""width:200px; border:14px solid green;"">","null","","","","","","","","",""
"","image-keyboard-response","54","81289","0.0-54.0","3JWH6J9I9TZFJACSX135KLH72JWNBI","A3L2VS3998R77L","3Z3R5YC0P3915KVY8X6BNRIWYOFFTN","","892.5","img/flower1.png","75","893","2","0","1","1","1,0.333,0.333,0.333,1,0.333,0.333,0.333,1","1,0.333,0.333,0.333,1,0.333,0.333,0.333,1","1",""
"","html-keyboard-response","55","81590","0.0-55.0","3JWH6J9I9TZFJACSX135KLH72JWNBI","A3L2VS3998R77L","3Z3R5YC0P3915KVY8X6BNRIWYOFFTN","","null","<img src=""img/flower1.png"" style=""width:200px;border:14px solid red;"">","null","","","","","","","","",""
"","image-keyboard-response","56","82260","0.0-56.0","3JWH6J9I9TZFJACSX135KLH72JWNBI","A3L2VS3998R77L","3Z3R5YC0P3915KVY8X6BNRIWYOFFTN","","669.5999999046326","img/flower4.png","74","670","1","0","2","1","1,0.333,0.333,0.333,1,0.333,0.333,0.333,1","1,0.333,0.333,0.333,1,0.333,0.333,0.333,1","1",""
"","html-keyboard-response","57","82561","0.0-57.0","3JWH6J9I9TZFJACSX135KLH72JWNBI","A3L2VS3998R77L","3Z3R5YC0P3915KVY8X6BNRIWYOFFTN","","null","<img src=""img/flower4.png"" style=""width:200px;border:14px solid red;"">","null","","","","","","","","",""
"","image-keyboard-response","58","83204","0.0-58.0","3JWH6J9I9TZFJACSX135KLH72JWNBI","A3L2VS3998R77L","3Z3R5YC0P3915KVY8X6BNRIWYOFFTN","","642.1000001430511","img/flower1.png","75","642.5","2","1","1","1","1,0.333,0.333,0.333,1,0.333,0.333,0.333,1","1,0.333,0.333,0.333,1,0.333,0.333,0.333,1","1",""
"","html-keyboard-response","59","83505","0.0-59.0","3JWH6J9I9TZFJACSX135KLH72JWNBI","A3L2VS3998R77L","3Z3R5YC0P3915KVY8X6BNRIWYOFFTN","","null","<img src=""img/flower1.png"" style=""width:200px; border:14px solid green;"">","null","","","","","","","","",""
"","image-keyboard-response","60","84185","0.0-60.0","3JWH6J9I9TZFJACSX135KLH72JWNBI","A3L2VS3998R77L","3Z3R5YC0P3915KVY8X6BNRIWYOFFTN","","679.3999998569489","img/flower1.png","75","679.7999999523163","2","0","1","1","1,0.333,0.333,0.333,1,0.333,0.333,0.333,1","1,0.333,0.333,0.333,1,0.333,0.333,0.333,1","1",""
"","html-keyboard-response","61","84486","0.0-61.0","3JWH6J9I9TZFJACSX135KLH72JWNBI","A3L2VS3998R77L","3Z3R5YC0P3915KVY8X6BNRIWYOFFTN","","null","<img src=""img/flower1.png"" style=""width:200px;border:14px solid red;"">","null","","","","","","","","",""
"","image-keyboard-response","62","85023","0.0-62.0","3JWH6J9I9TZFJACSX135KLH72JWNBI","A3L2VS3998R77L","3Z3R5YC0P3915KVY8X6BNRIWYOFFTN","","536.8000001907349","img/flower1.png","75","537.0999999046326","2","0","1","1","1,0.333,0.333,0.333,1,0.333,0.333,0.333,1","1,0.333,0.333,0.333,1,0.333,0.333,0.333,1","1",""
"","html-keyboard-response","63","85324","0.0-63.0","3JWH6J9I9TZFJACSX135KLH72JWNBI","A3L2VS3998R77L","3Z3R5YC0P3915KVY8X6BNRIWYOFFTN","","null","<img src=""img/flower1.png"" style=""width:200px;border:14px solid red;"">","null","","","","","","","","",""
"","image-keyboard-response","64","85967","0.0-64.0","3JWH6J9I9TZFJACSX135KLH72JWNBI","A3L2VS3998R77L","3Z3R5YC0P3915KVY8X6BNRIWYOFFTN","","642.5","img/flower4.png","76","643","3","0","2","1","1,0.333,0.333,0.333,1,0.333,0.333,0.333,1","1,0.333,0.333,0.333,1,0.333,0.333,0.333,1","1",""
"","html-keyboard-response","65","86268","0.0-65.0","3JWH6J9I9TZFJACSX135KLH72JWNBI","A3L2VS3998R77L","3Z3R5YC0P3915KVY8X6BNRIWYOFFTN","","null","<img src=""img/flower4.png"" style=""width:200px;border:14px solid red;"">","null","","","","","","","","",""
"","image-keyboard-response","66","87125","0.0-66.0","3JWH6J9I9TZFJACSX135KLH72JWNBI","A3L2VS3998R77L","3Z3R5YC0P3915KVY8X6BNRIWYOFFTN","","856.4000000953674","img/flower1.png","75","856.8999998569489","2","0","1","1","1,0.333,0.333,0.333,1,0.333,0.333,0.333,1","1,0.333,0.333,0.333,1,0.333,0.333,0.333,1","1",""
"","html-keyboard-response","67","87427","0.0-67.0","3JWH6J9I9TZFJACSX135KLH72JWNBI","A3L2VS3998R77L","3Z3R5YC0P3915KVY8X6BNRIWYOFFTN","","null","<img src=""img/flower1.png"" style=""width:200px;border:14px solid red;"">","null","","","","","","","","",""
"","image-keyboard-response","68","87950","0.0-68.0","3JWH6J9I9TZFJACSX135KLH72JWNBI","A3L2VS3998R77L","3Z3R5YC0P3915KVY8X6BNRIWYOFFTN","","522.2999999523163","img/flower1.png","74","522.7000000476837","1","1","1","1","1,0.333,0.333,0.333,1,0.333,0.333,0.333,1","1,0.333,0.333,0.333,1,0.333,0.333,0.333,1","1",""
"","html-keyboard-response","69","88251","0.0-69.0","3JWH6J9I9TZFJACSX135KLH72JWNBI","A3L2VS3998R77L","3Z3R5YC0P3915KVY8X6BNRIWYOFFTN","","null","<img src=""img/flower1.png"" style=""width:200px; border:14px solid green;"">","null","","","","","","","","",""
"","image-keyboard-response","70","89879","0.0-70.0","3JWH6J9I9TZFJACSX135KLH72JWNBI","A3L2VS3998R77L","3Z3R5YC0P3915KVY8X6BNRIWYOFFTN","","1627.1000001430511","img/flower2.png","76","1627.6999998092651","3","1","3","1","1,0.333,0.333,0.333,1,0.333,0.333,0.333,1","1,0.333,0.333,0.333,1,0.333,0.333,0.333,1","1",""
"","html-keyboard-response","71","90180","0.0-71.0","3JWH6J9I9TZFJACSX135KLH72JWNBI","A3L2VS3998R77L","3Z3R5YC0P3915KVY8X6BNRIWYOFFTN","","null","<img src=""img/flower2.png"" style=""width:200px; border:14px solid green;"">","null","","","","","","","","",""
"","image-keyboard-response","72","90700","0.0-72.0","3JWH6J9I9TZFJACSX135KLH72JWNBI","A3L2VS3998R77L","3Z3R5YC0P3915KVY8X6BNRIWYOFFTN","","519.6999998092651","img/flower2.png","76","521","3","1","3","1","1,0.333,0.333,0.333,1,0.333,0.333,0.333,1","1,0.333,0.333,0.333,1,0.333,0.333,0.333,1","1",""
"","html-keyboard-response","73","91002","0.0-73.0","3JWH6J9I9TZFJACSX135KLH72JWNBI","A3L2VS3998R77L","3Z3R5YC0P3915KVY8X6BNRIWYOFFTN","","null","<img src=""img/flower2.png"" style=""width:200px; border:14px solid green;"">","null","","","","","","","","",""
"","image-keyboard-response","74","91922","0.0-74.0","3JWH6J9I9TZFJACSX135KLH72JWNBI","A3L2VS3998R77L","3Z3R5YC0P3915KVY8X6BNRIWYOFFTN","","919.2999999523163","img/flower1.png","75","919.7000000476837","2","1","1","1","1,0.333,0.333,0.333,1,0.333,0.333,0.333,1","1,0.333,0.333,0.333,1,0.333,0.333,0.333,1","1",""
"","html-keyboard-response","75","92223","0.0-75.0","3JWH6J9I9TZFJACSX135KLH72JWNBI","A3L2VS3998R77L","3Z3R5YC0P3915KVY8X6BNRIWYOFFTN","","null","<img src=""img/flower1.png"" style=""width:200px; border:14px solid green;"">","null","","","","","","","","",""
"","image-keyboard-response","76","92902","0.0-76.0","3JWH6J9I9TZFJACSX135KLH72JWNBI","A3L2VS3998R77L","3Z3R5YC0P3915KVY8X6BNRIWYOFFTN","","678.5","img/flower4.png","75","678.9000000953674","2","1","2","1","1,0.333,0.333,0.333,1,0.333,0.333,0.333,1","1,0.333,0.333,0.333,1,0.333,0.333,0.333,1","1",""
"","html-keyboard-response","77","93204","0.0-77.0","3JWH6J9I9TZFJACSX135KLH72JWNBI","A3L2VS3998R77L","3Z3R5YC0P3915KVY8X6BNRIWYOFFTN","","null","<img src=""img/flower4.png"" style=""width:200px; border:14px solid green;"">","null","","","","","","","","",""
"","image-keyboard-response","78","93827","0.0-78.0","3JWH6J9I9TZFJACSX135KLH72JWNBI","A3L2VS3998R77L","3Z3R5YC0P3915KVY8X6BNRIWYOFFTN","","622.6000001430511","img/flower1.png","75","623.0999999046326","2","1","1","1","1,0.333,0.333,0.333,1,0.333,0.333,0.333,1","1,0.333,0.333,0.333,1,0.333,0.333,0.333,1","1",""
"","html-keyboard-response","79","94128","0.0-79.0","3JWH6J9I9TZFJACSX135KLH72JWNBI","A3L2VS3998R77L","3Z3R5YC0P3915KVY8X6BNRIWYOFFTN","","null","<img src=""img/flower1.png"" style=""width:200px; border:14px solid green;"">","null","","","","","","","","",""
"","image-keyboard-response","80","94890","0.0-80.0","3JWH6J9I9TZFJACSX135KLH72JWNBI","A3L2VS3998R77L","3Z3R5YC0P3915KVY8X6BNRIWYOFFTN","","761.5999999046326","img/flower2.png","76","762","3","1","3","1","1,0.333,0.333,0.333,1,0.333,0.333,0.333,1","1,0.333,0.333,0.333,1,0.333,0.333,0.333,1","1",""
"","html-keyboard-response","81","95191","0.0-81.0","3JWH6J9I9TZFJACSX135KLH72JWNBI","A3L2VS3998R77L","3Z3R5YC0P3915KVY8X6BNRIWYOFFTN","","null","<img src=""img/flower2.png"" style=""width:200px; border:14px solid green;"">","null","","","","","","","","",""
"","image-keyboard-response","82","95833","0.0-82.0","3JWH6J9I9TZFJACSX135KLH72JWNBI","A3L2VS3998R77L","3Z3R5YC0P3915KVY8X6BNRIWYOFFTN","","640.8000001907349","img/flower1.png","75","641.2999999523163","2","0","1","1","1,0.333,0.333,0.333,1,0.333,0.333,0.333,1","1,0.333,0.333,0.333,1,0.333,0.333,0.333,1","1",""
"","html-keyboard-response","83","96133","0.0-83.0","3JWH6J9I9TZFJACSX135KLH72JWNBI","A3L2VS3998R77L","3Z3R5YC0P3915KVY8X6BNRIWYOFFTN","","null","<img src=""img/flower1.png"" style=""width:200px;border:14px solid red;"">","null","","","","","","","","",""
"","image-keyboard-response","84","96895","0.0-84.0","3JWH6J9I9TZFJACSX135KLH72JWNBI","A3L2VS3998R77L","3Z3R5YC0P3915KVY8X6BNRIWYOFFTN","","761.2999999523163","img/flower1.png","74","761.7000000476837","1","1","1","1","1,0.333,0.333,0.333,1,0.333,0.333,0.333,1","1,0.333,0.333,0.333,1,0.333,0.333,0.333,1","1",""
"","html-keyboard-response","85","97197","0.0-85.0","3JWH6J9I9TZFJACSX135KLH72JWNBI","A3L2VS3998R77L","3Z3R5YC0P3915KVY8X6BNRIWYOFFTN","","null","<img src=""img/flower1.png"" style=""width:200px; border:14px solid green;"">","null","","","","","","","","",""
"","image-keyboard-response","86","97876","0.0-86.0","3JWH6J9I9TZFJACSX135KLH72JWNBI","A3L2VS3998R77L","3Z3R5YC0P3915KVY8X6BNRIWYOFFTN","","678.6999998092651","img/flower4.png","75","678.8999998569489","2","1","2","1","1,0.333,0.333,0.333,1,0.333,0.333,0.333,1","1,0.333,0.333,0.333,1,0.333,0.333,0.333,1","1",""
"","html-keyboard-response","87","98177","0.0-87.0","3JWH6J9I9TZFJACSX135KLH72JWNBI","A3L2VS3998R77L","3Z3R5YC0P3915KVY8X6BNRIWYOFFTN","","null","<img src=""img/flower4.png"" style=""width:200px; border:14px solid green;"">","null","","","","","","","","",""
"","image-keyboard-response","88","98819","0.0-88.0","3JWH6J9I9TZFJACSX135KLH72JWNBI","A3L2VS3998R77L","3Z3R5YC0P3915KVY8X6BNRIWYOFFTN","","641","img/flower4.png","76","641.3999998569489","3","0","2","1","1,0.333,0.333,0.333,1,0.333,0.333,0.333,1","1,0.333,0.333,0.333,1,0.333,0.333,0.333,1","1",""
"","html-keyboard-response","89","99130","0.0-89.0","3JWH6J9I9TZFJACSX135KLH72JWNBI","A3L2VS3998R77L","3Z3R5YC0P3915KVY8X6BNRIWYOFFTN","","null","<img src=""img/flower4.png"" style=""width:200px;border:14px solid red;"">","null","","","","","","","","",""
"","image-keyboard-response","90","99932","0.0-90.0","3JWH6J9I9TZFJACSX135KLH72JWNBI","A3L2VS3998R77L","3Z3R5YC0P3915KVY8X6BNRIWYOFFTN","","801.7999999523163","img/flower2.png","76","802.2999999523163","3","1","3","1","1,0.333,0.333,0.333,1,0.333,0.333,0.333,1","1,0.333,0.333,0.333,1,0.333,0.333,0.333,1","1",""
"","html-keyboard-response","91","100233","0.0-91.0","3JWH6J9I9TZFJACSX135KLH72JWNBI","A3L2VS3998R77L","3Z3R5YC0P3915KVY8X6BNRIWYOFFTN","","null","<img src=""img/flower2.png"" style=""width:200px; border:14px solid green;"">","null","","","","","","","","",""
"","image-keyboard-response","92","101149","0.0-92.0","3JWH6J9I9TZFJACSX135KLH72JWNBI","A3L2VS3998R77L","3Z3R5YC0P3915KVY8X6BNRIWYOFFTN","","915.2999999523163","img/flower4.png","75","915.7999999523163","2","1","2","1","1,0.333,0.333,0.333,1,0.333,0.333,0.333,1","1,0.333,0.333,0.333,1,0.333,0.333,0.333,1","1",""
"","html-keyboard-response","93","101450","0.0-93.0","3JWH6J9I9TZFJACSX135KLH72JWNBI","A3L2VS3998R77L","3Z3R5YC0P3915KVY8X6BNRIWYOFFTN","","null","<img src=""img/flower4.png"" style=""width:200px; border:14px solid green;"">","null","","","","","","","","",""
"","image-keyboard-response","94","102348","0.0-94.0","3JWH6J9I9TZFJACSX135KLH72JWNBI","A3L2VS3998R77L","3Z3R5YC0P3915KVY8X6BNRIWYOFFTN","","897.9000000953674","img/flower2.png","76","898.2999999523163","3","1","3","1","1,0.333,0.333,0.333,1,0.333,0.333,0.333,1","1,0.333,0.333,0.333,1,0.333,0.333,0.333,1","1",""
"","html-keyboard-response","95","102649","0.0-95.0","3JWH6J9I9TZFJACSX135KLH72JWNBI","A3L2VS3998R77L","3Z3R5YC0P3915KVY8X6BNRIWYOFFTN","","null","<img src=""img/flower2.png"" style=""width:200px; border:14px solid green;"">","null","","","","","","","","",""
"","image-keyboard-response","96","103242","0.0-96.0","3JWH6J9I9TZFJACSX135KLH72JWNBI","A3L2VS3998R77L","3Z3R5YC0P3915KVY8X6BNRIWYOFFTN","","593","img/flower1.png","75","593.5","2","0","1","1","1,0.333,0.333,0.333,1,0.333,0.333,0.333,1","1,0.333,0.333,0.333,1,0.333,0.333,0.333,1","1",""
"","html-keyboard-response","97","103544","0.0-97.0","3JWH6J9I9TZFJACSX135KLH72JWNBI","A3L2VS3998R77L","3Z3R5YC0P3915KVY8X6BNRIWYOFFTN","","null","<img src=""img/flower1.png"" style=""width:200px;border:14px solid red;"">","null","","","","","","","","",""
"","image-keyboard-response","98","104031","0.0-98.0","3JWH6J9I9TZFJACSX135KLH72JWNBI","A3L2VS3998R77L","3Z3R5YC0P3915KVY8X6BNRIWYOFFTN","","486.7000000476837","img/flower2.png","74","487.2999999523163","1","0","3","1","1,0.333,0.333,0.333,1,0.333,0.333,0.333,1","1,0.333,0.333,0.333,1,0.333,0.333,0.333,1","1",""
"","html-keyboard-response","99","104332","0.0-99.0","3JWH6J9I9TZFJACSX135KLH72JWNBI","A3L2VS3998R77L","3Z3R5YC0P3915KVY8X6BNRIWYOFFTN","","null","<img src=""img/flower2.png"" style=""width:200px;border:14px solid red;"">","null","","","","","","","","",""
"","image-keyboard-response","100","105230","0.0-100.0","3JWH6J9I9TZFJACSX135KLH72JWNBI","A3L2VS3998R77L","3Z3R5YC0P3915KVY8X6BNRIWYOFFTN","","897.4000000953674","img/flower1.png","76","897.7999999523163","3","0","1","1","1,0.333,0.333,0.333,1,0.333,0.333,0.333,1","1,0.333,0.333,0.333,1,0.333,0.333,0.333,1","1",""
"","html-keyboard-response","101","105532","0.0-101.0","3JWH6J9I9TZFJACSX135KLH72JWNBI","A3L2VS3998R77L","3Z3R5YC0P3915KVY8X6BNRIWYOFFTN","","null","<img src=""img/flower1.png"" style=""width:200px;border:14px solid red;"">","null","","","","","","","","",""
"","image-keyboard-response","102","106292","0.0-102.0","3JWH6J9I9TZFJACSX135KLH72JWNBI","A3L2VS3998R77L","3Z3R5YC0P3915KVY8X6BNRIWYOFFTN","","759.6000001430511","img/flower1.png","75","760","2","0","1","1","1,0.333,0.333,0.333,1,0.333,0.333,0.333,1","1,0.333,0.333,0.333,1,0.333,0.333,0.333,1","1",""
"","html-keyboard-response","103","106593","0.0-103.0","3JWH6J9I9TZFJACSX135KLH72JWNBI","A3L2VS3998R77L","3Z3R5YC0P3915KVY8X6BNRIWYOFFTN","","null","<img src=""img/flower1.png"" style=""width:200px;border:14px solid red;"">","null","","","","","","","","",""
"","image-keyboard-response","104","107583","0.0-104.0","3JWH6J9I9TZFJACSX135KLH72JWNBI","A3L2VS3998R77L","3Z3R5YC0P3915KVY8X6BNRIWYOFFTN","","988.5999999046326","img/flower2.png","76","989.1000001430511","3","1","3","1","1,0.333,0.333,0.333,1,0.333,0.333,0.333,1","1,0.333,0.333,0.333,1,0.333,0.333,0.333,1","1",""
"","html-keyboard-response","105","107884","0.0-105.0","3JWH6J9I9TZFJACSX135KLH72JWNBI","A3L2VS3998R77L","3Z3R5YC0P3915KVY8X6BNRIWYOFFTN","","null","<img src=""img/flower2.png"" style=""width:200px; border:14px solid green;"">","null","","","","","","","","",""
"","image-keyboard-response","106","108449","0.0-106.0","3JWH6J9I9TZFJACSX135KLH72JWNBI","A3L2VS3998R77L","3Z3R5YC0P3915KVY8X6BNRIWYOFFTN","","565","img/flower2.png","76","565.2999999523163","3","1","3","1","1,0.333,0.333,0.333,1,0.333,0.333,0.333,1","1,0.333,0.333,0.333,1,0.333,0.333,0.333,1","1",""
"","html-keyboard-response","107","108751","0.0-107.0","3JWH6J9I9TZFJACSX135KLH72JWNBI","A3L2VS3998R77L","3Z3R5YC0P3915KVY8X6BNRIWYOFFTN","","null","<img src=""img/flower2.png"" style=""width:200px; border:14px solid green;"">","null","","","","","","","","",""
"","image-keyboard-response","108","109566","0.0-108.0","3JWH6J9I9TZFJACSX135KLH72JWNBI","A3L2VS3998R77L","3Z3R5YC0P3915KVY8X6BNRIWYOFFTN","","814.5","img/flower1.png","75","815","2","1","1","1","1,0.333,0.333,0.333,1,0.333,0.333,0.333,1","1,0.333,0.333,0.333,1,0.333,0.333,0.333,1","1",""
"","html-keyboard-response","109","109867","0.0-109.0","3JWH6J9I9TZFJACSX135KLH72JWNBI","A3L2VS3998R77L","3Z3R5YC0P3915KVY8X6BNRIWYOFFTN","","null","<img src=""img/flower1.png"" style=""width:200px; border:14px solid green;"">","null","","","","","","","","",""
"","image-keyboard-response","110","110664","0.0-110.0","3JWH6J9I9TZFJACSX135KLH72JWNBI","A3L2VS3998R77L","3Z3R5YC0P3915KVY8X6BNRIWYOFFTN","","796.2999999523163","img/flower2.png","76","796.9000000953674","3","1","3","1","1,0.333,0.333,0.333,1,0.333,0.333,0.333,1","1,0.333,0.333,0.333,1,0.333,0.333,0.333,1","1",""
"","html-keyboard-response","111","110965","0.0-111.0","3JWH6J9I9TZFJACSX135KLH72JWNBI","A3L2VS3998R77L","3Z3R5YC0P3915KVY8X6BNRIWYOFFTN","","null","<img src=""img/flower2.png"" style=""width:200px; border:14px solid green;"">","null","","","","","","","","",""
"","image-keyboard-response","112","111768","0.0-112.0","3JWH6J9I9TZFJACSX135KLH72JWNBI","A3L2VS3998R77L","3Z3R5YC0P3915KVY8X6BNRIWYOFFTN","","802.1999998092651","img/flower4.png","75","802.7999999523163","2","1","2","1","1,0.333,0.333,0.333,1,0.333,0.333,0.333,1","1,0.333,0.333,0.333,1,0.333,0.333,0.333,1","1",""
"","html-keyboard-response","113","112069","0.0-113.0","3JWH6J9I9TZFJACSX135KLH72JWNBI","A3L2VS3998R77L","3Z3R5YC0P3915KVY8X6BNRIWYOFFTN","","null","<img src=""img/flower4.png"" style=""width:200px; border:14px solid green;"">","null","","","","","","","","",""
"","image-keyboard-response","114","112606","0.0-114.0","3JWH6J9I9TZFJACSX135KLH72JWNBI","A3L2VS3998R77L","3Z3R5YC0P3915KVY8X6BNRIWYOFFTN","","536.9000000953674","img/flower4.png","75","537.2999999523163","2","1","2","1","1,0.333,0.333,0.333,1,0.333,0.333,0.333,1","1,0.333,0.333,0.333,1,0.333,0.333,0.333,1","1",""
"","html-keyboard-response","115","112907","0.0-115.0","3JWH6J9I9TZFJACSX135KLH72JWNBI","A3L2VS3998R77L","3Z3R5YC0P3915KVY8X6BNRIWYOFFTN","","null","<img src=""img/flower4.png"" style=""width:200px; border:14px solid green;"">","null","","","","","","","","",""
"","image-keyboard-response","116","113655","0.0-116.0","3JWH6J9I9TZFJACSX135KLH72JWNBI","A3L2VS3998R77L","3Z3R5YC0P3915KVY8X6BNRIWYOFFTN","","748.0999999046326","img/flower1.png","74","748.5","1","1","1","1","1,0.333,0.333,0.333,1,0.333,0.333,0.333,1","1,0.333,0.333,0.333,1,0.333,0.333,0.333,1","1",""
"","html-keyboard-response","117","113957","0.0-117.0","3JWH6J9I9TZFJACSX135KLH72JWNBI","A3L2VS3998R77L","3Z3R5YC0P3915KVY8X6BNRIWYOFFTN","","null","<img src=""img/flower1.png"" style=""width:200px; border:14px solid green;"">","null","","","","","","","","",""
"","image-keyboard-response","118","114617","0.0-118.0","3JWH6J9I9TZFJACSX135KLH72JWNBI","A3L2VS3998R77L","3Z3R5YC0P3915KVY8X6BNRIWYOFFTN","","659.2000000476837","img/flower2.png","75","659.8999998569489","2","1","3","1","1,0.333,0.333,0.333,1,0.333,0.333,0.333,1","1,0.333,0.333,0.333,1,0.333,0.333,0.333,1","1",""
"","html-keyboard-response","119","114918","0.0-119.0","3JWH6J9I9TZFJACSX135KLH72JWNBI","A3L2VS3998R77L","3Z3R5YC0P3915KVY8X6BNRIWYOFFTN","","null","<img src=""img/flower2.png"" style=""width:200px; border:14px solid green;"">","null","","","","","","","","",""
"","image-keyboard-response","120","115068","0.0-120.0","3JWH6J9I9TZFJACSX135KLH72JWNBI","A3L2VS3998R77L","3Z3R5YC0P3915KVY8X6BNRIWYOFFTN","","150.10000014305115","img/flower1.png","76","150.5","3","0","1","1","1,0.333,0.333,0.333,1,0.333,0.333,0.333,1","1,0.333,0.333,0.333,1,0.333,0.333,0.333,1","1",""
"","html-keyboard-response","121","115370","0.0-121.0","3JWH6J9I9TZFJACSX135KLH72JWNBI","A3L2VS3998R77L","3Z3R5YC0P3915KVY8X6BNRIWYOFFTN","","null","<img src=""img/flower1.png"" style=""width:200px;border:14px solid red;"">","null","","","","","","","","",""
"","image-keyboard-response","122","116313","0.0-122.0","3JWH6J9I9TZFJACSX135KLH72JWNBI","A3L2VS3998R77L","3Z3R5YC0P3915KVY8X6BNRIWYOFFTN","","942.8999998569489","img/flower4.png","76","943.5","3","0","2","1","1,0.333,0.333,0.333,1,0.333,0.333,0.333,1","1,0.333,0.333,0.333,1,0.333,0.333,0.333,1","1",""
"","html-keyboard-response","123","116614","0.0-123.0","3JWH6J9I9TZFJACSX135KLH72JWNBI","A3L2VS3998R77L","3Z3R5YC0P3915KVY8X6BNRIWYOFFTN","","null","<img src=""img/flower4.png"" style=""width:200px;border:14px solid red;"">","null","","","","","","","","",""
"","image-keyboard-response","124","117089","0.0-124.0","3JWH6J9I9TZFJACSX135KLH72JWNBI","A3L2VS3998R77L","3Z3R5YC0P3915KVY8X6BNRIWYOFFTN","","474.09999990463257","img/flower4.png","75","474.60000014305115","2","1","2","1","1,0.333,0.333,0.333,1,0.333,0.333,0.333,1","1,0.333,0.333,0.333,1,0.333,0.333,0.333,1","1",""
"","html-keyboard-response","125","117390","0.0-125.0","3JWH6J9I9TZFJACSX135KLH72JWNBI","A3L2VS3998R77L","3Z3R5YC0P3915KVY8X6BNRIWYOFFTN","","null","<img src=""img/flower4.png"" style=""width:200px; border:14px solid green;"">","null","","","","","","","","",""
"","image-keyboard-response","126","117877","0.0-126.0","3JWH6J9I9TZFJACSX135KLH72JWNBI","A3L2VS3998R77L","3Z3R5YC0P3915KVY8X6BNRIWYOFFTN","","486.80000019073486","img/flower4.png","75","487.2000000476837","2","1","2","1","1,0.333,0.333,0.333,1,0.333,0.333,0.333,1","1,0.333,0.333,0.333,1,0.333,0.333,0.333,1","1",""
"","html-keyboard-response","127","118179","0.0-127.0","3JWH6J9I9TZFJACSX135KLH72JWNBI","A3L2VS3998R77L","3Z3R5YC0P3915KVY8X6BNRIWYOFFTN","","null","<img src=""img/flower4.png"" style=""width:200px; border:14px solid green;"">","null","","","","","","","","",""
"","image-keyboard-response","128","119144","0.0-128.0","3JWH6J9I9TZFJACSX135KLH72JWNBI","A3L2VS3998R77L","3Z3R5YC0P3915KVY8X6BNRIWYOFFTN","","964.7999999523163","img/flower1.png","75","965.4000000953674","2","0","1","1","1,0.333,0.333,0.333,1,0.333,0.333,0.333,1","1,0.333,0.333,0.333,1,0.333,0.333,0.333,1","1",""
"","html-keyboard-response","129","119445","0.0-129.0","3JWH6J9I9TZFJACSX135KLH72JWNBI","A3L2VS3998R77L","3Z3R5YC0P3915KVY8X6BNRIWYOFFTN","","null","<img src=""img/flower1.png"" style=""width:200px;border:14px solid red;"">","null","","","","","","","","",""
"","image-keyboard-response","130","120076","0.0-130.0","3JWH6J9I9TZFJACSX135KLH72JWNBI","A3L2VS3998R77L","3Z3R5YC0P3915KVY8X6BNRIWYOFFTN","","629","img/flower4.png","74","629.6000001430511","1","0","2","1","1,0.333,0.333,0.333,1,0.333,0.333,0.333,1","1,0.333,0.333,0.333,1,0.333,0.333,0.333,1","1",""
"","html-keyboard-response","131","120377","0.0-131.0","3JWH6J9I9TZFJACSX135KLH72JWNBI","A3L2VS3998R77L","3Z3R5YC0P3915KVY8X6BNRIWYOFFTN","","null","<img src=""img/flower4.png"" style=""width:200px;border:14px solid red;"">","null","","","","","","","","",""
"","image-keyboard-response","132","120920","0.0-132.0","3JWH6J9I9TZFJACSX135KLH72JWNBI","A3L2VS3998R77L","3Z3R5YC0P3915KVY8X6BNRIWYOFFTN","","542.2000000476837","img/flower1.png","75","542.5","2","0","1","1","1,0.333,0.333,0.333,1,0.333,0.333,0.333,1","1,0.333,0.333,0.333,1,0.333,0.333,0.333,1","1",""
"","html-keyboard-response","133","121221","0.0-133.0","3JWH6J9I9TZFJACSX135KLH72JWNBI","A3L2VS3998R77L","3Z3R5YC0P3915KVY8X6BNRIWYOFFTN","","null","<img src=""img/flower1.png"" style=""width:200px;border:14px solid red;"">","null","","","","","","","","",""
"","image-keyboard-response","134","121699","0.0-134.0","3JWH6J9I9TZFJACSX135KLH72JWNBI","A3L2VS3998R77L","3Z3R5YC0P3915KVY8X6BNRIWYOFFTN","","478.40000009536743","img/flower1.png","75","478.7999999523163","2","1","1","1","1,0.333,0.333,0.333,1,0.333,0.333,0.333,1","1,0.333,0.333,0.333,1,0.333,0.333,0.333,1","1",""
"","html-keyboard-response","135","122000","0.0-135.0","3JWH6J9I9TZFJACSX135KLH72JWNBI","A3L2VS3998R77L","3Z3R5YC0P3915KVY8X6BNRIWYOFFTN","","null","<img src=""img/flower1.png"" style=""width:200px; border:14px solid green;"">","null","","","","","","","","",""
"","image-keyboard-response","136","122884","0.0-136.0","3JWH6J9I9TZFJACSX135KLH72JWNBI","A3L2VS3998R77L","3Z3R5YC0P3915KVY8X6BNRIWYOFFTN","","883.5","img/flower2.png","76","884.0999999046326","3","1","3","1","1,0.333,0.333,0.333,1,0.333,0.333,0.333,1","1,0.333,0.333,0.333,1,0.333,0.333,0.333,1","1",""
"","html-keyboard-response","137","123185","0.0-137.0","3JWH6J9I9TZFJACSX135KLH72JWNBI","A3L2VS3998R77L","3Z3R5YC0P3915KVY8X6BNRIWYOFFTN","","null","<img src=""img/flower2.png"" style=""width:200px; border:14px solid green;"">","null","","","","","","","","",""
"","image-keyboard-response","138","123870","0.0-138.0","3JWH6J9I9TZFJACSX135KLH72JWNBI","A3L2VS3998R77L","3Z3R5YC0P3915KVY8X6BNRIWYOFFTN","","683.9000000953674","img/flower1.png","76","684.2999999523163","3","1","1","1","1,0.333,0.333,0.333,1,0.333,0.333,0.333,1","1,0.333,0.333,0.333,1,0.333,0.333,0.333,1","1",""
"","html-keyboard-response","139","124171","0.0-139.0","3JWH6J9I9TZFJACSX135KLH72JWNBI","A3L2VS3998R77L","3Z3R5YC0P3915KVY8X6BNRIWYOFFTN","","null","<img src=""img/flower1.png"" style=""width:200px; border:14px solid green;"">","null","","","","","","","","",""
"","image-keyboard-response","140","124923","0.0-140.0","3JWH6J9I9TZFJACSX135KLH72JWNBI","A3L2VS3998R77L","3Z3R5YC0P3915KVY8X6BNRIWYOFFTN","","751.9000000953674","img/flower1.png","75","752.2999999523163","2","0","1","1","1,0.333,0.333,0.333,1,0.333,0.333,0.333,1","1,0.333,0.333,0.333,1,0.333,0.333,0.333,1","1",""
"","html-keyboard-response","141","125225","0.0-141.0","3JWH6J9I9TZFJACSX135KLH72JWNBI","A3L2VS3998R77L","3Z3R5YC0P3915KVY8X6BNRIWYOFFTN","","null","<img src=""img/flower1.png"" style=""width:200px;border:14px solid red;"">","null","","","","","","","","",""
"","image-keyboard-response","142","125868","0.0-142.0","3JWH6J9I9TZFJACSX135KLH72JWNBI","A3L2VS3998R77L","3Z3R5YC0P3915KVY8X6BNRIWYOFFTN","","641.8000001907349","img/flower2.png","74","642.2999999523163","1","1","3","1","1,0.333,0.333,0.333,1,0.333,0.333,0.333,1","1,0.333,0.333,0.333,1,0.333,0.333,0.333,1","1",""
"","html-keyboard-response","143","126169","0.0-143.0","3JWH6J9I9TZFJACSX135KLH72JWNBI","A3L2VS3998R77L","3Z3R5YC0P3915KVY8X6BNRIWYOFFTN","","null","<img src=""img/flower2.png"" style=""width:200px; border:14px solid green;"">","null","","","","","","","","",""
"","image-keyboard-response","144","126816","0.0-144.0","3JWH6J9I9TZFJACSX135KLH72JWNBI","A3L2VS3998R77L","3Z3R5YC0P3915KVY8X6BNRIWYOFFTN","","647.1000001430511","img/flower2.png","76","647.5999999046326","3","1","3","1","1,0.333,0.333,0.333,1,0.333,0.333,0.333,1","1,0.333,0.333,0.333,1,0.333,0.333,0.333,1","1",""
"","html-keyboard-response","145","127117","0.0-145.0","3JWH6J9I9TZFJACSX135KLH72JWNBI","A3L2VS3998R77L","3Z3R5YC0P3915KVY8X6BNRIWYOFFTN","","null","<img src=""img/flower2.png"" style=""width:200px; border:14px solid green;"">","null","","","","","","","","",""
"","image-keyboard-response","146","127770","0.0-146.0","3JWH6J9I9TZFJACSX135KLH72JWNBI","A3L2VS3998R77L","3Z3R5YC0P3915KVY8X6BNRIWYOFFTN","","651.5999999046326","img/flower1.png","76","652.2000000476837","3","0","1","1","1,0.333,0.333,0.333,1,0.333,0.333,0.333,1","1,0.333,0.333,0.333,1,0.333,0.333,0.333,1","1",""
"","html-keyboard-response","147","128070","0.0-147.0","3JWH6J9I9TZFJACSX135KLH72JWNBI","A3L2VS3998R77L","3Z3R5YC0P3915KVY8X6BNRIWYOFFTN","","null","<img src=""img/flower1.png"" style=""width:200px;border:14px solid red;"">","null","","","","","","","","",""
"","image-keyboard-response","148","128700","0.0-148.0","3JWH6J9I9TZFJACSX135KLH72JWNBI","A3L2VS3998R77L","3Z3R5YC0P3915KVY8X6BNRIWYOFFTN","","629.0999999046326","img/flower2.png","75","629.6000001430511","2","0","3","1","1,0.333,0.333,0.333,1,0.333,0.333,0.333,1","1,0.333,0.333,0.333,1,0.333,0.333,0.333,1","1",""
"","html-keyboard-response","149","129001","0.0-149.0","3JWH6J9I9TZFJACSX135KLH72JWNBI","A3L2VS3998R77L","3Z3R5YC0P3915KVY8X6BNRIWYOFFTN","","null","<img src=""img/flower2.png"" style=""width:200px;border:14px solid red;"">","null","","","","","","","","",""
"","image-keyboard-response","150","129617","0.0-150.0","3JWH6J9I9TZFJACSX135KLH72JWNBI","A3L2VS3998R77L","3Z3R5YC0P3915KVY8X6BNRIWYOFFTN","","615","img/flower1.png","75","615.5999999046326","2","0","1","1","1,0.333,0.333,0.333,1,0.333,0.333,0.333,1","1,0.333,0.333,0.333,1,0.333,0.333,0.333,1","1",""
"","html-keyboard-response","151","129923","0.0-151.0","3JWH6J9I9TZFJACSX135KLH72JWNBI","A3L2VS3998R77L","3Z3R5YC0P3915KVY8X6BNRIWYOFFTN","","null","<img src=""img/flower1.png"" style=""width:200px;border:14px solid red;"">","null","","","","","","","","",""
"","image-keyboard-response","152","130455","0.0-152.0","3JWH6J9I9TZFJACSX135KLH72JWNBI","A3L2VS3998R77L","3Z3R5YC0P3915KVY8X6BNRIWYOFFTN","","532.1000001430511","img/flower1.png","74","532.5999999046326","1","1","1","1","1,0.333,0.333,0.333,1,0.333,0.333,0.333,1","1,0.333,0.333,0.333,1,0.333,0.333,0.333,1","1",""
"","html-keyboard-response","153","130756","0.0-153.0","3JWH6J9I9TZFJACSX135KLH72JWNBI","A3L2VS3998R77L","3Z3R5YC0P3915KVY8X6BNRIWYOFFTN","","null","<img src=""img/flower1.png"" style=""width:200px; border:14px solid green;"">","null","","","","","","","","",""
"","image-keyboard-response","154","131592","0.0-154.0","3JWH6J9I9TZFJACSX135KLH72JWNBI","A3L2VS3998R77L","3Z3R5YC0P3915KVY8X6BNRIWYOFFTN","","834.5999999046326","img/flower4.png","75","835.0999999046326","2","1","2","1","1,0.333,0.333,0.333,1,0.333,0.333,0.333,1","1,0.333,0.333,0.333,1,0.333,0.333,0.333,1","1",""
"","html-keyboard-response","155","131898","0.0-155.0","3JWH6J9I9TZFJACSX135KLH72JWNBI","A3L2VS3998R77L","3Z3R5YC0P3915KVY8X6BNRIWYOFFTN","","null","<img src=""img/flower4.png"" style=""width:200px; border:14px solid green;"">","null","","","","","","","","",""
"","image-keyboard-response","156","132718","0.0-156.0","3JWH6J9I9TZFJACSX135KLH72JWNBI","A3L2VS3998R77L","3Z3R5YC0P3915KVY8X6BNRIWYOFFTN","","819.7000000476837","img/flower2.png","76","820.1999998092651","3","1","3","1","1,0.333,0.333,0.333,1,0.333,0.333,0.333,1","1,0.333,0.333,0.333,1,0.333,0.333,0.333,1","1",""
"","html-keyboard-response","157","133019","0.0-157.0","3JWH6J9I9TZFJACSX135KLH72JWNBI","A3L2VS3998R77L","3Z3R5YC0P3915KVY8X6BNRIWYOFFTN","","null","<img src=""img/flower2.png"" style=""width:200px; border:14px solid green;"">","null","","","","","","","","",""
"","image-keyboard-response","158","133748","0.0-158.0","3JWH6J9I9TZFJACSX135KLH72JWNBI","A3L2VS3998R77L","3Z3R5YC0P3915KVY8X6BNRIWYOFFTN","","728","img/flower1.png","75","728.3999998569489","2","0","1","1","1,0.333,0.333,0.333,1,0.333,0.333,0.333,1","1,0.333,0.333,0.333,1,0.333,0.333,0.333,1","1",""
"","html-keyboard-response","159","134048","0.0-159.0","3JWH6J9I9TZFJACSX135KLH72JWNBI","A3L2VS3998R77L","3Z3R5YC0P3915KVY8X6BNRIWYOFFTN","","null","<img src=""img/flower1.png"" style=""width:200px;border:14px solid red;"">","null","","","","","","","","",""
"","image-keyboard-response","160","134610","0.0-160.0","3JWH6J9I9TZFJACSX135KLH72JWNBI","A3L2VS3998R77L","3Z3R5YC0P3915KVY8X6BNRIWYOFFTN","","561.2999999523163","img/flower2.png","74","561.9000000953674","1","0","3","1","1,0.333,0.333,0.333,1,0.333,0.333,0.333,1","1,0.333,0.333,0.333,1,0.333,0.333,0.333,1","1",""
"","html-keyboard-response","161","134911","0.0-161.0","3JWH6J9I9TZFJACSX135KLH72JWNBI","A3L2VS3998R77L","3Z3R5YC0P3915KVY8X6BNRIWYOFFTN","","null","<img src=""img/flower2.png"" style=""width:200px;border:14px solid red;"">","null","","","","","","","","",""
"","image-keyboard-response","162","135836","0.0-162.0","3JWH6J9I9TZFJACSX135KLH72JWNBI","A3L2VS3998R77L","3Z3R5YC0P3915KVY8X6BNRIWYOFFTN","","923.7000000476837","img/flower4.png","76","924.3000001907349","3","0","2","1","1,0.333,0.333,0.333,1,0.333,0.333,0.333,1","1,0.333,0.333,0.333,1,0.333,0.333,0.333,1","1",""
"","html-keyboard-response","163","136138","0.0-163.0","3JWH6J9I9TZFJACSX135KLH72JWNBI","A3L2VS3998R77L","3Z3R5YC0P3915KVY8X6BNRIWYOFFTN","","null","<img src=""img/flower4.png"" style=""width:200px;border:14px solid red;"">","null","","","","","","","","",""
"","image-keyboard-response","164","137500","0.0-164.0","3JWH6J9I9TZFJACSX135KLH72JWNBI","A3L2VS3998R77L","3Z3R5YC0P3915KVY8X6BNRIWYOFFTN","","1361.2000000476837","img/flower2.png","76","1361.7000000476837","3","1","3","1","1,0.333,0.333,0.333,1,0.333,0.333,0.333,1","1,0.333,0.333,0.333,1,0.333,0.333,0.333,1","1",""
"","html-keyboard-response","165","137801","0.0-165.0","3JWH6J9I9TZFJACSX135KLH72JWNBI","A3L2VS3998R77L","3Z3R5YC0P3915KVY8X6BNRIWYOFFTN","","null","<img src=""img/flower2.png"" style=""width:200px; border:14px solid green;"">","null","","","","","","","","",""
"","image-keyboard-response","166","138276","0.0-166.0","3JWH6J9I9TZFJACSX135KLH72JWNBI","A3L2VS3998R77L","3Z3R5YC0P3915KVY8X6BNRIWYOFFTN","","474.60000014305115","img/flower2.png","76","475.09999990463257","3","1","3","1","1,0.333,0.333,0.333,1,0.333,0.333,0.333,1","1,0.333,0.333,0.333,1,0.333,0.333,0.333,1","1",""
"","html-keyboard-response","167","138578","0.0-167.0","3JWH6J9I9TZFJACSX135KLH72JWNBI","A3L2VS3998R77L","3Z3R5YC0P3915KVY8X6BNRIWYOFFTN","","null","<img src=""img/flower2.png"" style=""width:200px; border:14px solid green;"">","null","","","","","","","","",""
"","image-keyboard-response","168","139355","0.0-168.0","3JWH6J9I9TZFJACSX135KLH72JWNBI","A3L2VS3998R77L","3Z3R5YC0P3915KVY8X6BNRIWYOFFTN","","777.3000001907349","img/flower4.png","75","777.7000000476837","2","1","2","1","1,0.333,0.333,0.333,1,0.333,0.333,0.333,1","1,0.333,0.333,0.333,1,0.333,0.333,0.333,1","1",""
"","html-keyboard-response","169","139656","0.0-169.0","3JWH6J9I9TZFJACSX135KLH72JWNBI","A3L2VS3998R77L","3Z3R5YC0P3915KVY8X6BNRIWYOFFTN","","null","<img src=""img/flower4.png"" style=""width:200px; border:14px solid green;"">","null","","","","","","","","",""
"","image-keyboard-response","170","140277","0.0-170.0","3JWH6J9I9TZFJACSX135KLH72JWNBI","A3L2VS3998R77L","3Z3R5YC0P3915KVY8X6BNRIWYOFFTN","","619.7999999523163","img/flower2.png","76","620.2000000476837","3","1","3","1","1,0.333,0.333,0.333,1,0.333,0.333,0.333,1","1,0.333,0.333,0.333,1,0.333,0.333,0.333,1","1",""
"","html-keyboard-response","171","140578","0.0-171.0","3JWH6J9I9TZFJACSX135KLH72JWNBI","A3L2VS3998R77L","3Z3R5YC0P3915KVY8X6BNRIWYOFFTN","","null","<img src=""img/flower2.png"" style=""width:200px; border:14px solid green;"">","null","","","","","","","","",""
"","image-keyboard-response","172","141107","0.0-172.0","3JWH6J9I9TZFJACSX135KLH72JWNBI","A3L2VS3998R77L","3Z3R5YC0P3915KVY8X6BNRIWYOFFTN","","528.4000000953674","img/flower4.png","75","528.7999999523163","2","1","2","1","1,0.333,0.333,0.333,1,0.333,0.333,0.333,1","1,0.333,0.333,0.333,1,0.333,0.333,0.333,1","1",""
"","html-keyboard-response","173","141407","0.0-173.0","3JWH6J9I9TZFJACSX135KLH72JWNBI","A3L2VS3998R77L","3Z3R5YC0P3915KVY8X6BNRIWYOFFTN","","null","<img src=""img/flower4.png"" style=""width:200px; border:14px solid green;"">","null","","","","","","","","",""
"","image-keyboard-response","174","141936","0.0-174.0","3JWH6J9I9TZFJACSX135KLH72JWNBI","A3L2VS3998R77L","3Z3R5YC0P3915KVY8X6BNRIWYOFFTN","","528.5","img/flower2.png","76","529","3","1","3","1","1,0.333,0.333,0.333,1,0.333,0.333,0.333,1","1,0.333,0.333,0.333,1,0.333,0.333,0.333,1","1",""
"","html-keyboard-response","175","142238","0.0-175.0","3JWH6J9I9TZFJACSX135KLH72JWNBI","A3L2VS3998R77L","3Z3R5YC0P3915KVY8X6BNRIWYOFFTN","","null","<img src=""img/flower2.png"" style=""width:200px; border:14px solid green;"">","null","","","","","","","","",""
"","image-keyboard-response","176","142699","0.0-176.0","3JWH6J9I9TZFJACSX135KLH72JWNBI","A3L2VS3998R77L","3Z3R5YC0P3915KVY8X6BNRIWYOFFTN","","459.89999985694885","img/flower4.png","75","460.40000009536743","2","1","2","1","1,0.333,0.333,0.333,1,0.333,0.333,0.333,1","1,0.333,0.333,0.333,1,0.333,0.333,0.333,1","1",""
"","html-keyboard-response","177","143000","0.0-177.0","3JWH6J9I9TZFJACSX135KLH72JWNBI","A3L2VS3998R77L","3Z3R5YC0P3915KVY8X6BNRIWYOFFTN","","null","<img src=""img/flower4.png"" style=""width:200px; border:14px solid green;"">","null","","","","","","","","",""
"","image-keyboard-response","178","143839","0.0-178.0","3JWH6J9I9TZFJACSX135KLH72JWNBI","A3L2VS3998R77L","3Z3R5YC0P3915KVY8X6BNRIWYOFFTN","","838.4000000953674","img/flower1.png","74","838.8999998569489","1","1","1","1","1,0.333,0.333,0.333,1,0.333,0.333,0.333,1","1,0.333,0.333,0.333,1,0.333,0.333,0.333,1","1",""
"","html-keyboard-response","179","144140","0.0-179.0","3JWH6J9I9TZFJACSX135KLH72JWNBI","A3L2VS3998R77L","3Z3R5YC0P3915KVY8X6BNRIWYOFFTN","","null","<img src=""img/flower1.png"" style=""width:200px; border:14px solid green;"">","null","","","","","","","","",""
"","image-keyboard-response","180","144905","0.0-180.0","3JWH6J9I9TZFJACSX135KLH72JWNBI","A3L2VS3998R77L","3Z3R5YC0P3915KVY8X6BNRIWYOFFTN","","765","img/flower4.png","75","765.4000000953674","2","1","2","1","1,0.333,0.333,0.333,1,0.333,0.333,0.333,1","1,0.333,0.333,0.333,1,0.333,0.333,0.333,1","1",""
"","html-keyboard-response","181","145206","0.0-181.0","3JWH6J9I9TZFJACSX135KLH72JWNBI","A3L2VS3998R77L","3Z3R5YC0P3915KVY8X6BNRIWYOFFTN","","null","<img src=""img/flower4.png"" style=""width:200px; border:14px solid green;"">","null","","","","","","","","",""
"","html-keyboard-response","182","158616","0.0-182.0","3JWH6J9I9TZFJACSX135KLH72JWNBI","A3L2VS3998R77L","3Z3R5YC0P3915KVY8X6BNRIWYOFFTN","","","","","","","","","","","","",""
"","image-keyboard-response","183","160230","0.0-183.0","3JWH6J9I9TZFJACSX135KLH72JWNBI","A3L2VS3998R77L","3Z3R5YC0P3915KVY8X6BNRIWYOFFTN","","1612.7999999523163","img/flower6.png","75","1613.5","2","1","2","2","1,0,0,1,1,0,1,0,1","0,1,0,0,1,1,1,1,0","3",""
"","html-keyboard-response","184","160530","0.0-184.0","3JWH6J9I9TZFJACSX135KLH72JWNBI","A3L2VS3998R77L","3Z3R5YC0P3915KVY8X6BNRIWYOFFTN","","null","<img src=""img/flower6.png"" style=""width:200px; border:14px solid green;"">","null","","","","","","","","",""
"","image-keyboard-response","185","161574","0.0-185.0","3JWH6J9I9TZFJACSX135KLH72JWNBI","A3L2VS3998R77L","3Z3R5YC0P3915KVY8X6BNRIWYOFFTN","","1043.5","img/flower3.png","75","1044","2","1","1","2","1,0,0,1,1,0,1,0,1","0,1,0,0,1,1,1,1,0","3",""
"","html-keyboard-response","186","161876","0.0-186.0","3JWH6J9I9TZFJACSX135KLH72JWNBI","A3L2VS3998R77L","3Z3R5YC0P3915KVY8X6BNRIWYOFFTN","","null","<img src=""img/flower3.png"" style=""width:200px; border:14px solid green;"">","null","","","","","","","","",""
"","image-keyboard-response","187","162492","0.0-187.0","3JWH6J9I9TZFJACSX135KLH72JWNBI","A3L2VS3998R77L","3Z3R5YC0P3915KVY8X6BNRIWYOFFTN","","615.2999999523163","img/flower6.png","75","615.7999999523163","2","1","2","2","1,0,0,1,1,0,1,0,1","0,1,0,0,1,1,1,1,0","3",""
"","html-keyboard-response","188","162793","0.0-188.0","3JWH6J9I9TZFJACSX135KLH72JWNBI","A3L2VS3998R77L","3Z3R5YC0P3915KVY8X6BNRIWYOFFTN","","null","<img src=""img/flower6.png"" style=""width:200px; border:14px solid green;"">","null","","","","","","","","",""
"","image-keyboard-response","189","163326","0.0-189.0","3JWH6J9I9TZFJACSX135KLH72JWNBI","A3L2VS3998R77L","3Z3R5YC0P3915KVY8X6BNRIWYOFFTN","","531.8000001907349","img/flower3.png","75","532.3999998569489","2","1","1","2","1,0,0,1,1,0,1,0,1","0,1,0,0,1,1,1,1,0","3",""
"","html-keyboard-response","190","163626","0.0-190.0","3JWH6J9I9TZFJACSX135KLH72JWNBI","A3L2VS3998R77L","3Z3R5YC0P3915KVY8X6BNRIWYOFFTN","","null","<img src=""img/flower3.png"" style=""width:200px; border:14px solid green;"">","null","","","","","","","","",""
"","image-keyboard-response","191","164179","0.0-191.0","3JWH6J9I9TZFJACSX135KLH72JWNBI","A3L2VS3998R77L","3Z3R5YC0P3915KVY8X6BNRIWYOFFTN","","551.5","img/flower6.png","75","552.0999999046326","2","1","2","2","1,0,0,1,1,0,1,0,1","0,1,0,0,1,1,1,1,0","3",""
"","html-keyboard-response","192","164480","0.0-192.0","3JWH6J9I9TZFJACSX135KLH72JWNBI","A3L2VS3998R77L","3Z3R5YC0P3915KVY8X6BNRIWYOFFTN","","null","<img src=""img/flower6.png"" style=""width:200px; border:14px solid green;"">","null","","","","","","","","",""
"","image-keyboard-response","193","165026","0.0-193.0","3JWH6J9I9TZFJACSX135KLH72JWNBI","A3L2VS3998R77L","3Z3R5YC0P3915KVY8X6BNRIWYOFFTN","","545.9000000953674","img/flower3.png","75","546.5","2","1","1","2","1,0,0,1,1,0,1,0,1","0,1,0,0,1,1,1,1,0","3",""
"","html-keyboard-response","194","165329","0.0-194.0","3JWH6J9I9TZFJACSX135KLH72JWNBI","A3L2VS3998R77L","3Z3R5YC0P3915KVY8X6BNRIWYOFFTN","","null","<img src=""img/flower3.png"" style=""width:200px; border:14px solid green;"">","null","","","","","","","","",""
"","image-keyboard-response","195","166049","0.0-195.0","3JWH6J9I9TZFJACSX135KLH72JWNBI","A3L2VS3998R77L","3Z3R5YC0P3915KVY8X6BNRIWYOFFTN","","719","img/flower3.png","75","719.5","2","1","1","2","1,0,0,1,1,0,1,0,1","0,1,0,0,1,1,1,1,0","3",""
"","html-keyboard-response","196","166350","0.0-196.0","3JWH6J9I9TZFJACSX135KLH72JWNBI","A3L2VS3998R77L","3Z3R5YC0P3915KVY8X6BNRIWYOFFTN","","null","<img src=""img/flower3.png"" style=""width:200px; border:14px solid green;"">","null","","","","","","","","",""
"","image-keyboard-response","197","167011","0.0-197.0","3JWH6J9I9TZFJACSX135KLH72JWNBI","A3L2VS3998R77L","3Z3R5YC0P3915KVY8X6BNRIWYOFFTN","","660.4000000953674","img/flower6.png","74","661","1","0","2","2","1,0,0,1,1,0,1,0,1","0,1,0,0,1,1,1,1,0","3",""
"","html-keyboard-response","198","167312","0.0-198.0","3JWH6J9I9TZFJACSX135KLH72JWNBI","A3L2VS3998R77L","3Z3R5YC0P3915KVY8X6BNRIWYOFFTN","","null","<img src=""img/flower6.png"" style=""width:200px;border:14px solid red;"">","null","","","","","","","","",""
"","image-keyboard-response","199","168251","0.0-199.0","3JWH6J9I9TZFJACSX135KLH72JWNBI","A3L2VS3998R77L","3Z3R5YC0P3915KVY8X6BNRIWYOFFTN","","937.7000000476837","img/flower5.png","74","938.1999998092651","1","1","3","2","1,0,0,1,1,0,1,0,1","0,1,0,0,1,1,1,1,0","3",""
"","html-keyboard-response","200","168552","0.0-200.0","3JWH6J9I9TZFJACSX135KLH72JWNBI","A3L2VS3998R77L","3Z3R5YC0P3915KVY8X6BNRIWYOFFTN","","null","<img src=""img/flower5.png"" style=""width:200px; border:14px solid green;"">","null","","","","","","","","",""
"","image-keyboard-response","201","169081","0.0-201.0","3JWH6J9I9TZFJACSX135KLH72JWNBI","A3L2VS3998R77L","3Z3R5YC0P3915KVY8X6BNRIWYOFFTN","","528.0999999046326","img/flower5.png","74","528.7000000476837","1","1","3","2","1,0,0,1,1,0,1,0,1","0,1,0,0,1,1,1,1,0","3",""
"","html-keyboard-response","202","169381","0.0-202.0","3JWH6J9I9TZFJACSX135KLH72JWNBI","A3L2VS3998R77L","3Z3R5YC0P3915KVY8X6BNRIWYOFFTN","","null","<img src=""img/flower5.png"" style=""width:200px; border:14px solid green;"">","null","","","","","","","","",""
"","image-keyboard-response","203","169970","0.0-203.0","3JWH6J9I9TZFJACSX135KLH72JWNBI","A3L2VS3998R77L","3Z3R5YC0P3915KVY8X6BNRIWYOFFTN","","588.7000000476837","img/flower6.png","75","589.0999999046326","2","1","2","2","1,0,0,1,1,0,1,0,1","0,1,0,0,1,1,1,1,0","3",""
"","html-keyboard-response","204","170271","0.0-204.0","3JWH6J9I9TZFJACSX135KLH72JWNBI","A3L2VS3998R77L","3Z3R5YC0P3915KVY8X6BNRIWYOFFTN","","null","<img src=""img/flower6.png"" style=""width:200px; border:14px solid green;"">","null","","","","","","","","",""
"","image-keyboard-response","205","170805","0.0-205.0","3JWH6J9I9TZFJACSX135KLH72JWNBI","A3L2VS3998R77L","3Z3R5YC0P3915KVY8X6BNRIWYOFFTN","","532.7999999523163","img/flower6.png","75","533.4000000953674","2","1","2","2","1,0,0,1,1,0,1,0,1","0,1,0,0,1,1,1,1,0","3",""
"","html-keyboard-response","206","171106","0.0-206.0","3JWH6J9I9TZFJACSX135KLH72JWNBI","A3L2VS3998R77L","3Z3R5YC0P3915KVY8X6BNRIWYOFFTN","","null","<img src=""img/flower6.png"" style=""width:200px; border:14px solid green;"">","null","","","","","","","","",""
"","image-keyboard-response","207","172128","0.0-207.0","3JWH6J9I9TZFJACSX135KLH72JWNBI","A3L2VS3998R77L","3Z3R5YC0P3915KVY8X6BNRIWYOFFTN","","1021.2000000476837","img/flower3.png","74","1021.6999998092651","1","0","1","2","1,0,0,1,1,0,1,0,1","0,1,0,0,1,1,1,1,0","3",""
"","html-keyboard-response","208","172428","0.0-208.0","3JWH6J9I9TZFJACSX135KLH72JWNBI","A3L2VS3998R77L","3Z3R5YC0P3915KVY8X6BNRIWYOFFTN","","null","<img src=""img/flower3.png"" style=""width:200px;border:14px solid red;"">","null","","","","","","","","",""
"","image-keyboard-response","209","172958","0.0-209.0","3JWH6J9I9TZFJACSX135KLH72JWNBI","A3L2VS3998R77L","3Z3R5YC0P3915KVY8X6BNRIWYOFFTN","","528.5","img/flower5.png","76","529","3","0","3","2","1,0,0,1,1,0,1,0,1","0,1,0,0,1,1,1,1,0","3",""
"","html-keyboard-response","210","173259","0.0-210.0","3JWH6J9I9TZFJACSX135KLH72JWNBI","A3L2VS3998R77L","3Z3R5YC0P3915KVY8X6BNRIWYOFFTN","","null","<img src=""img/flower5.png"" style=""width:200px;border:14px solid red;"">","null","","","","","","","","",""
"","image-keyboard-response","211","174645","0.0-211.0","3JWH6J9I9TZFJACSX135KLH72JWNBI","A3L2VS3998R77L","3Z3R5YC0P3915KVY8X6BNRIWYOFFTN","","1385.5","img/flower3.png","76","1386.0999999046326","3","0","1","2","1,0,0,1,1,0,1,0,1","0,1,0,0,1,1,1,1,0","3",""
"","html-keyboard-response","212","174946","0.0-212.0","3JWH6J9I9TZFJACSX135KLH72JWNBI","A3L2VS3998R77L","3Z3R5YC0P3915KVY8X6BNRIWYOFFTN","","null","<img src=""img/flower3.png"" style=""width:200px;border:14px solid red;"">","null","","","","","","","","",""
"","image-keyboard-response","213","175708","0.0-213.0","3JWH6J9I9TZFJACSX135KLH72JWNBI","A3L2VS3998R77L","3Z3R5YC0P3915KVY8X6BNRIWYOFFTN","","760.7000000476837","img/flower6.png","75","761.2999999523163","2","1","2","2","1,0,0,1,1,0,1,0,1","0,1,0,0,1,1,1,1,0","3",""
"","html-keyboard-response","214","176009","0.0-214.0","3JWH6J9I9TZFJACSX135KLH72JWNBI","A3L2VS3998R77L","3Z3R5YC0P3915KVY8X6BNRIWYOFFTN","","null","<img src=""img/flower6.png"" style=""width:200px; border:14px solid green;"">","null","","","","","","","","",""
"","image-keyboard-response","215","176547","0.0-215.0","3JWH6J9I9TZFJACSX135KLH72JWNBI","A3L2VS3998R77L","3Z3R5YC0P3915KVY8X6BNRIWYOFFTN","","537.4000000953674","img/flower6.png","75","537.8999998569489","2","1","2","2","1,0,0,1,1,0,1,0,1","0,1,0,0,1,1,1,1,0","3",""
"","html-keyboard-response","216","176849","0.0-216.0","3JWH6J9I9TZFJACSX135KLH72JWNBI","A3L2VS3998R77L","3Z3R5YC0P3915KVY8X6BNRIWYOFFTN","","null","<img src=""img/flower6.png"" style=""width:200px; border:14px solid green;"">","null","","","","","","","","",""
"","image-keyboard-response","217","177362","0.0-217.0","3JWH6J9I9TZFJACSX135KLH72JWNBI","A3L2VS3998R77L","3Z3R5YC0P3915KVY8X6BNRIWYOFFTN","","512.7999999523163","img/flower6.png","75","513.2999999523163","2","1","2","2","1,0,0,1,1,0,1,0,1","0,1,0,0,1,1,1,1,0","3",""
"","html-keyboard-response","218","177663","0.0-218.0","3JWH6J9I9TZFJACSX135KLH72JWNBI","A3L2VS3998R77L","3Z3R5YC0P3915KVY8X6BNRIWYOFFTN","","null","<img src=""img/flower6.png"" style=""width:200px; border:14px solid green;"">","null","","","","","","","","",""
"","image-keyboard-response","219","178296","0.0-219.0","3JWH6J9I9TZFJACSX135KLH72JWNBI","A3L2VS3998R77L","3Z3R5YC0P3915KVY8X6BNRIWYOFFTN","","632.6000001430511","img/flower3.png","74","633.1999998092651","1","0","1","2","1,0,0,1,1,0,1,0,1","0,1,0,0,1,1,1,1,0","3",""
"","html-keyboard-response","220","178598","0.0-220.0","3JWH6J9I9TZFJACSX135KLH72JWNBI","A3L2VS3998R77L","3Z3R5YC0P3915KVY8X6BNRIWYOFFTN","","null","<img src=""img/flower3.png"" style=""width:200px;border:14px solid red;"">","null","","","","","","","","",""
"","image-keyboard-response","221","179204","0.0-221.0","3JWH6J9I9TZFJACSX135KLH72JWNBI","A3L2VS3998R77L","3Z3R5YC0P3915KVY8X6BNRIWYOFFTN","","605","img/flower6.png","76","605.6000001430511","3","1","2","2","1,0,0,1,1,0,1,0,1","0,1,0,0,1,1,1,1,0","3",""
"","html-keyboard-response","222","179508","0.0-222.0","3JWH6J9I9TZFJACSX135KLH72JWNBI","A3L2VS3998R77L","3Z3R5YC0P3915KVY8X6BNRIWYOFFTN","","null","<img src=""img/flower6.png"" style=""width:200px; border:14px solid green;"">","null","","","","","","","","",""
"","image-keyboard-response","223","180147","0.0-223.0","3JWH6J9I9TZFJACSX135KLH72JWNBI","A3L2VS3998R77L","3Z3R5YC0P3915KVY8X6BNRIWYOFFTN","","638.6000001430511","img/flower6.png","76","639","3","1","2","2","1,0,0,1,1,0,1,0,1","0,1,0,0,1,1,1,1,0","3",""
"","html-keyboard-response","224","180448","0.0-224.0","3JWH6J9I9TZFJACSX135KLH72JWNBI","A3L2VS3998R77L","3Z3R5YC0P3915KVY8X6BNRIWYOFFTN","","null","<img src=""img/flower6.png"" style=""width:200px; border:14px solid green;"">","null","","","","","","","","",""
"","image-keyboard-response","225","181050","0.0-225.0","3JWH6J9I9TZFJACSX135KLH72JWNBI","A3L2VS3998R77L","3Z3R5YC0P3915KVY8X6BNRIWYOFFTN","","601.2999999523163","img/flower6.png","76","601.7999999523163","3","1","2","2","1,0,0,1,1,0,1,0,1","0,1,0,0,1,1,1,1,0","3",""
"","html-keyboard-response","226","181351","0.0-226.0","3JWH6J9I9TZFJACSX135KLH72JWNBI","A3L2VS3998R77L","3Z3R5YC0P3915KVY8X6BNRIWYOFFTN","","null","<img src=""img/flower6.png"" style=""width:200px; border:14px solid green;"">","null","","","","","","","","",""
"","image-keyboard-response","227","181913","0.0-227.0","3JWH6J9I9TZFJACSX135KLH72JWNBI","A3L2VS3998R77L","3Z3R5YC0P3915KVY8X6BNRIWYOFFTN","","560.5","img/flower3.png","75","561.0999999046326","2","1","1","2","1,0,0,1,1,0,1,0,1","0,1,0,0,1,1,1,1,0","3",""
"","html-keyboard-response","228","182213","0.0-228.0","3JWH6J9I9TZFJACSX135KLH72JWNBI","A3L2VS3998R77L","3Z3R5YC0P3915KVY8X6BNRIWYOFFTN","","null","<img src=""img/flower3.png"" style=""width:200px; border:14px solid green;"">","null","","","","","","","","",""
"","image-keyboard-response","229","182755","0.0-229.0","3JWH6J9I9TZFJACSX135KLH72JWNBI","A3L2VS3998R77L","3Z3R5YC0P3915KVY8X6BNRIWYOFFTN","","541.2000000476837","img/flower3.png","75","541.5999999046326","2","1","1","2","1,0,0,1,1,0,1,0,1","0,1,0,0,1,1,1,1,0","3",""
"","html-keyboard-response","230","183057","0.0-230.0","3JWH6J9I9TZFJACSX135KLH72JWNBI","A3L2VS3998R77L","3Z3R5YC0P3915KVY8X6BNRIWYOFFTN","","null","<img src=""img/flower3.png"" style=""width:200px; border:14px solid green;"">","null","","","","","","","","",""
"","image-keyboard-response","231","183827","0.0-231.0","3JWH6J9I9TZFJACSX135KLH72JWNBI","A3L2VS3998R77L","3Z3R5YC0P3915KVY8X6BNRIWYOFFTN","","769.9000000953674","img/flower5.png","74","770.3999998569489","1","1","3","2","1,0,0,1,1,0,1,0,1","0,1,0,0,1,1,1,1,0","3",""
"","html-keyboard-response","232","184128","0.0-232.0","3JWH6J9I9TZFJACSX135KLH72JWNBI","A3L2VS3998R77L","3Z3R5YC0P3915KVY8X6BNRIWYOFFTN","","null","<img src=""img/flower5.png"" style=""width:200px; border:14px solid green;"">","null","","","","","","","","",""
"","image-keyboard-response","233","184958","0.0-233.0","3JWH6J9I9TZFJACSX135KLH72JWNBI","A3L2VS3998R77L","3Z3R5YC0P3915KVY8X6BNRIWYOFFTN","","829.7000000476837","img/flower3.png","75","830.0999999046326","2","1","1","2","1,0,0,1,1,0,1,0,1","0,1,0,0,1,1,1,1,0","3",""
"","html-keyboard-response","234","185259","0.0-234.0","3JWH6J9I9TZFJACSX135KLH72JWNBI","A3L2VS3998R77L","3Z3R5YC0P3915KVY8X6BNRIWYOFFTN","","null","<img src=""img/flower3.png"" style=""width:200px; border:14px solid green;"">","null","","","","","","","","",""
"","image-keyboard-response","235","186134","0.0-235.0","3JWH6J9I9TZFJACSX135KLH72JWNBI","A3L2VS3998R77L","3Z3R5YC0P3915KVY8X6BNRIWYOFFTN","","874","img/flower5.png","74","874.5","1","1","3","2","1,0,0,1,1,0,1,0,1","0,1,0,0,1,1,1,1,0","3",""
"","html-keyboard-response","236","186435","0.0-236.0","3JWH6J9I9TZFJACSX135KLH72JWNBI","A3L2VS3998R77L","3Z3R5YC0P3915KVY8X6BNRIWYOFFTN","","null","<img src=""img/flower5.png"" style=""width:200px; border:14px solid green;"">","null","","","","","","","","",""
"","image-keyboard-response","237","187075","0.0-237.0","3JWH6J9I9TZFJACSX135KLH72JWNBI","A3L2VS3998R77L","3Z3R5YC0P3915KVY8X6BNRIWYOFFTN","","638.9000000953674","img/flower5.png","75","639.6000001430511","2","1","3","2","1,0,0,1,1,0,1,0,1","0,1,0,0,1,1,1,1,0","3",""
"","html-keyboard-response","238","187375","0.0-238.0","3JWH6J9I9TZFJACSX135KLH72JWNBI","A3L2VS3998R77L","3Z3R5YC0P3915KVY8X6BNRIWYOFFTN","","null","<img src=""img/flower5.png"" style=""width:200px; border:14px solid green;"">","null","","","","","","","","",""
"","image-keyboard-response","239","188010","0.0-239.0","3JWH6J9I9TZFJACSX135KLH72JWNBI","A3L2VS3998R77L","3Z3R5YC0P3915KVY8X6BNRIWYOFFTN","","633.7999999523163","img/flower5.png","74","634.4000000953674","1","1","3","2","1,0,0,1,1,0,1,0,1","0,1,0,0,1,1,1,1,0","3",""
"","html-keyboard-response","240","188312","0.0-240.0","3JWH6J9I9TZFJACSX135KLH72JWNBI","A3L2VS3998R77L","3Z3R5YC0P3915KVY8X6BNRIWYOFFTN","","null","<img src=""img/flower5.png"" style=""width:200px; border:14px solid green;"">","null","","","","","","","","",""
"","image-keyboard-response","241","188779","0.0-241.0","3JWH6J9I9TZFJACSX135KLH72JWNBI","A3L2VS3998R77L","3Z3R5YC0P3915KVY8X6BNRIWYOFFTN","","466","img/flower5.png","74","466.5","1","1","3","2","1,0,0,1,1,0,1,0,1","0,1,0,0,1,1,1,1,0","3",""
"","html-keyboard-response","242","189080","0.0-242.0","3JWH6J9I9TZFJACSX135KLH72JWNBI","A3L2VS3998R77L","3Z3R5YC0P3915KVY8X6BNRIWYOFFTN","","null","<img src=""img/flower5.png"" style=""width:200px; border:14px solid green;"">","null","","","","","","","","",""
"","image-keyboard-response","243","189857","0.0-243.0","3JWH6J9I9TZFJACSX135KLH72JWNBI","A3L2VS3998R77L","3Z3R5YC0P3915KVY8X6BNRIWYOFFTN","","776.2000000476837","img/flower6.png","75","776.6999998092651","2","1","2","2","1,0,0,1,1,0,1,0,1","0,1,0,0,1,1,1,1,0","3",""
"","html-keyboard-response","244","190171","0.0-244.0","3JWH6J9I9TZFJACSX135KLH72JWNBI","A3L2VS3998R77L","3Z3R5YC0P3915KVY8X6BNRIWYOFFTN","","null","<img src=""img/flower6.png"" style=""width:200px; border:14px solid green;"">","null","","","","","","","","",""
"","image-keyboard-response","245","190731","0.0-245.0","3JWH6J9I9TZFJACSX135KLH72JWNBI","A3L2VS3998R77L","3Z3R5YC0P3915KVY8X6BNRIWYOFFTN","","558.8999998569489","img/flower6.png","75","559.3000001907349","2","1","2","2","1,0,0,1,1,0,1,0,1","0,1,0,0,1,1,1,1,0","3",""
"","html-keyboard-response","246","191032","0.0-246.0","3JWH6J9I9TZFJACSX135KLH72JWNBI","A3L2VS3998R77L","3Z3R5YC0P3915KVY8X6BNRIWYOFFTN","","null","<img src=""img/flower6.png"" style=""width:200px; border:14px solid green;"">","null","","","","","","","","",""
"","image-keyboard-response","247","191675","0.0-247.0","3JWH6J9I9TZFJACSX135KLH72JWNBI","A3L2VS3998R77L","3Z3R5YC0P3915KVY8X6BNRIWYOFFTN","","642.7999999523163","img/flower5.png","76","643.3000001907349","3","0","3","2","1,0,0,1,1,0,1,0,1","0,1,0,0,1,1,1,1,0","3",""
"","html-keyboard-response","248","191977","0.0-248.0","3JWH6J9I9TZFJACSX135KLH72JWNBI","A3L2VS3998R77L","3Z3R5YC0P3915KVY8X6BNRIWYOFFTN","","null","<img src=""img/flower5.png"" style=""width:200px;border:14px solid red;"">","null","","","","","","","","",""
"","image-keyboard-response","249","192568","0.0-249.0","3JWH6J9I9TZFJACSX135KLH72JWNBI","A3L2VS3998R77L","3Z3R5YC0P3915KVY8X6BNRIWYOFFTN","","591.1000001430511","img/flower6.png","75","591.6000001430511","2","1","2","2","1,0,0,1,1,0,1,0,1","0,1,0,0,1,1,1,1,0","3",""
"","html-keyboard-response","250","192869","0.0-250.0","3JWH6J9I9TZFJACSX135KLH72JWNBI","A3L2VS3998R77L","3Z3R5YC0P3915KVY8X6BNRIWYOFFTN","","null","<img src=""img/flower6.png"" style=""width:200px; border:14px solid green;"">","null","","","","","","","","",""
"","image-keyboard-response","251","194027","0.0-251.0","3JWH6J9I9TZFJACSX135KLH72JWNBI","A3L2VS3998R77L","3Z3R5YC0P3915KVY8X6BNRIWYOFFTN","","1157.5","img/flower3.png","76","1158","3","0","1","2","1,0,0,1,1,0,1,0,1","0,1,0,0,1,1,1,1,0","3",""
"","html-keyboard-response","252","194328","0.0-252.0","3JWH6J9I9TZFJACSX135KLH72JWNBI","A3L2VS3998R77L","3Z3R5YC0P3915KVY8X6BNRIWYOFFTN","","null","<img src=""img/flower3.png"" style=""width:200px;border:14px solid red;"">","null","","","","","","","","",""
"","image-keyboard-response","253","194852","0.0-253.0","3JWH6J9I9TZFJACSX135KLH72JWNBI","A3L2VS3998R77L","3Z3R5YC0P3915KVY8X6BNRIWYOFFTN","","524","img/flower5.png","74","524.5","1","1","3","2","1,0,0,1,1,0,1,0,1","0,1,0,0,1,1,1,1,0","3",""
"","html-keyboard-response","254","195154","0.0-254.0","3JWH6J9I9TZFJACSX135KLH72JWNBI","A3L2VS3998R77L","3Z3R5YC0P3915KVY8X6BNRIWYOFFTN","","null","<img src=""img/flower5.png"" style=""width:200px; border:14px solid green;"">","null","","","","","","","","",""
"","image-keyboard-response","255","196096","0.0-255.0","3JWH6J9I9TZFJACSX135KLH72JWNBI","A3L2VS3998R77L","3Z3R5YC0P3915KVY8X6BNRIWYOFFTN","","941.7000000476837","img/flower3.png","75","942.2999999523163","2","1","1","2","1,0,0,1,1,0,1,0,1","0,1,0,0,1,1,1,1,0","3",""
"","html-keyboard-response","256","196398","0.0-256.0","3JWH6J9I9TZFJACSX135KLH72JWNBI","A3L2VS3998R77L","3Z3R5YC0P3915KVY8X6BNRIWYOFFTN","","null","<img src=""img/flower3.png"" style=""width:200px; border:14px solid green;"">","null","","","","","","","","",""
"","image-keyboard-response","257","196972","0.0-257.0","3JWH6J9I9TZFJACSX135KLH72JWNBI","A3L2VS3998R77L","3Z3R5YC0P3915KVY8X6BNRIWYOFFTN","","573.9000000953674","img/flower3.png","75","574.4000000953674","2","1","1","2","1,0,0,1,1,0,1,0,1","0,1,0,0,1,1,1,1,0","3",""
"","html-keyboard-response","258","197273","0.0-258.0","3JWH6J9I9TZFJACSX135KLH72JWNBI","A3L2VS3998R77L","3Z3R5YC0P3915KVY8X6BNRIWYOFFTN","","null","<img src=""img/flower3.png"" style=""width:200px; border:14px solid green;"">","null","","","","","","","","",""
"","image-keyboard-response","259","197861","0.0-259.0","3JWH6J9I9TZFJACSX135KLH72JWNBI","A3L2VS3998R77L","3Z3R5YC0P3915KVY8X6BNRIWYOFFTN","","587.2999999523163","img/flower3.png","75","587.8000001907349","2","1","1","2","1,0,0,1,1,0,1,0,1","0,1,0,0,1,1,1,1,0","3",""
"","html-keyboard-response","260","198165","0.0-260.0","3JWH6J9I9TZFJACSX135KLH72JWNBI","A3L2VS3998R77L","3Z3R5YC0P3915KVY8X6BNRIWYOFFTN","","null","<img src=""img/flower3.png"" style=""width:200px; border:14px solid green;"">","null","","","","","","","","",""
"","image-keyboard-response","261","198632","0.0-261.0","3JWH6J9I9TZFJACSX135KLH72JWNBI","A3L2VS3998R77L","3Z3R5YC0P3915KVY8X6BNRIWYOFFTN","","466.2999999523163","img/flower3.png","75","466.7999999523163","2","1","1","2","1,0,0,1,1,0,1,0,1","0,1,0,0,1,1,1,1,0","3",""
"","html-keyboard-response","262","198933","0.0-262.0","3JWH6J9I9TZFJACSX135KLH72JWNBI","A3L2VS3998R77L","3Z3R5YC0P3915KVY8X6BNRIWYOFFTN","","null","<img src=""img/flower3.png"" style=""width:200px; border:14px solid green;"">","null","","","","","","","","",""
"","image-keyboard-response","263","199544","0.0-263.0","3JWH6J9I9TZFJACSX135KLH72JWNBI","A3L2VS3998R77L","3Z3R5YC0P3915KVY8X6BNRIWYOFFTN","","610.7999999523163","img/flower5.png","74","611.2000000476837","1","1","3","2","1,0,0,1,1,0,1,0,1","0,1,0,0,1,1,1,1,0","3",""
"","html-keyboard-response","264","199846","0.0-264.0","3JWH6J9I9TZFJACSX135KLH72JWNBI","A3L2VS3998R77L","3Z3R5YC0P3915KVY8X6BNRIWYOFFTN","","null","<img src=""img/flower5.png"" style=""width:200px; border:14px solid green;"">","null","","","","","","","","",""
"","image-keyboard-response","265","200338","0.0-265.0","3JWH6J9I9TZFJACSX135KLH72JWNBI","A3L2VS3998R77L","3Z3R5YC0P3915KVY8X6BNRIWYOFFTN","","492","img/flower5.png","74","492.39999985694885","1","1","3","2","1,0,0,1,1,0,1,0,1","0,1,0,0,1,1,1,1,0","3",""
"","html-keyboard-response","266","200640","0.0-266.0","3JWH6J9I9TZFJACSX135KLH72JWNBI","A3L2VS3998R77L","3Z3R5YC0P3915KVY8X6BNRIWYOFFTN","","null","<img src=""img/flower5.png"" style=""width:200px; border:14px solid green;"">","null","","","","","","","","",""
"","image-keyboard-response","267","201300","0.0-267.0","3JWH6J9I9TZFJACSX135KLH72JWNBI","A3L2VS3998R77L","3Z3R5YC0P3915KVY8X6BNRIWYOFFTN","","660","img/flower3.png","75","660.2999999523163","2","1","1","2","1,0,0,1,1,0,1,0,1","0,1,0,0,1,1,1,1,0","3",""
"","html-keyboard-response","268","201602","0.0-268.0","3JWH6J9I9TZFJACSX135KLH72JWNBI","A3L2VS3998R77L","3Z3R5YC0P3915KVY8X6BNRIWYOFFTN","","null","<img src=""img/flower3.png"" style=""width:200px; border:14px solid green;"">","null","","","","","","","","",""
"","image-keyboard-response","269","202485","0.0-269.0","3JWH6J9I9TZFJACSX135KLH72JWNBI","A3L2VS3998R77L","3Z3R5YC0P3915KVY8X6BNRIWYOFFTN","","882.1000001430511","img/flower6.png","75","882.5999999046326","2","1","2","2","1,0,0,1,1,0,1,0,1","0,1,0,0,1,1,1,1,0","3",""
"","html-keyboard-response","270","202786","0.0-270.0","3JWH6J9I9TZFJACSX135KLH72JWNBI","A3L2VS3998R77L","3Z3R5YC0P3915KVY8X6BNRIWYOFFTN","","null","<img src=""img/flower6.png"" style=""width:200px; border:14px solid green;"">","null","","","","","","","","",""
"","image-keyboard-response","271","203599","0.0-271.0","3JWH6J9I9TZFJACSX135KLH72JWNBI","A3L2VS3998R77L","3Z3R5YC0P3915KVY8X6BNRIWYOFFTN","","811.8999998569489","img/flower5.png","75","812.5","2","1","3","2","1,0,0,1,1,0,1,0,1","0,1,0,0,1,1,1,1,0","3",""
"","html-keyboard-response","272","203912","0.0-272.0","3JWH6J9I9TZFJACSX135KLH72JWNBI","A3L2VS3998R77L","3Z3R5YC0P3915KVY8X6BNRIWYOFFTN","","null","<img src=""img/flower5.png"" style=""width:200px; border:14px solid green;"">","null","","","","","","","","",""
"","image-keyboard-response","273","204419","0.0-273.0","3JWH6J9I9TZFJACSX135KLH72JWNBI","A3L2VS3998R77L","3Z3R5YC0P3915KVY8X6BNRIWYOFFTN","","507.2000000476837","img/flower5.png","75","507.7999999523163","2","1","3","2","1,0,0,1,1,0,1,0,1","0,1,0,0,1,1,1,1,0","3",""
"","html-keyboard-response","274","204720","0.0-274.0","3JWH6J9I9TZFJACSX135KLH72JWNBI","A3L2VS3998R77L","3Z3R5YC0P3915KVY8X6BNRIWYOFFTN","","null","<img src=""img/flower5.png"" style=""width:200px; border:14px solid green;"">","null","","","","","","","","",""
"","image-keyboard-response","275","205477","0.0-275.0","3JWH6J9I9TZFJACSX135KLH72JWNBI","A3L2VS3998R77L","3Z3R5YC0P3915KVY8X6BNRIWYOFFTN","","756.1999998092651","img/flower6.png","75","756.6000001430511","2","1","2","2","1,0,0,1,1,0,1,0,1","0,1,0,0,1,1,1,1,0","3",""
"","html-keyboard-response","276","205778","0.0-276.0","3JWH6J9I9TZFJACSX135KLH72JWNBI","A3L2VS3998R77L","3Z3R5YC0P3915KVY8X6BNRIWYOFFTN","","null","<img src=""img/flower6.png"" style=""width:200px; border:14px solid green;"">","null","","","","","","","","",""
"","image-keyboard-response","277","206703","0.0-277.0","3JWH6J9I9TZFJACSX135KLH72JWNBI","A3L2VS3998R77L","3Z3R5YC0P3915KVY8X6BNRIWYOFFTN","","924.9000000953674","img/flower3.png","74","925.2999999523163","1","0","1","2","1,0,0,1,1,0,1,0,1","0,1,0,0,1,1,1,1,0","3",""
"","html-keyboard-response","278","207006","0.0-278.0","3JWH6J9I9TZFJACSX135KLH72JWNBI","A3L2VS3998R77L","3Z3R5YC0P3915KVY8X6BNRIWYOFFTN","","null","<img src=""img/flower3.png"" style=""width:200px;border:14px solid red;"">","null","","","","","","","","",""
"","image-keyboard-response","279","207779","0.0-279.0","3JWH6J9I9TZFJACSX135KLH72JWNBI","A3L2VS3998R77L","3Z3R5YC0P3915KVY8X6BNRIWYOFFTN","","773","img/flower5.png","74","773.3999998569489","1","1","3","2","1,0,0,1,1,0,1,0,1","0,1,0,0,1,1,1,1,0","3",""
"","html-keyboard-response","280","208081","0.0-280.0","3JWH6J9I9TZFJACSX135KLH72JWNBI","A3L2VS3998R77L","3Z3R5YC0P3915KVY8X6BNRIWYOFFTN","","null","<img src=""img/flower5.png"" style=""width:200px; border:14px solid green;"">","null","","","","","","","","",""
"","image-keyboard-response","281","208836","0.0-281.0","3JWH6J9I9TZFJACSX135KLH72JWNBI","A3L2VS3998R77L","3Z3R5YC0P3915KVY8X6BNRIWYOFFTN","","754.5","img/flower6.png","75","755","2","1","2","2","1,0,0,1,1,0,1,0,1","0,1,0,0,1,1,1,1,0","3",""
"","html-keyboard-response","282","209138","0.0-282.0","3JWH6J9I9TZFJACSX135KLH72JWNBI","A3L2VS3998R77L","3Z3R5YC0P3915KVY8X6BNRIWYOFFTN","","null","<img src=""img/flower6.png"" style=""width:200px; border:14px solid green;"">","null","","","","","","","","",""
"","image-keyboard-response","283","209817","0.0-283.0","3JWH6J9I9TZFJACSX135KLH72JWNBI","A3L2VS3998R77L","3Z3R5YC0P3915KVY8X6BNRIWYOFFTN","","679.0999999046326","img/flower5.png","75","679.6000001430511","2","1","3","2","1,0,0,1,1,0,1,0,1","0,1,0,0,1,1,1,1,0","3",""
"","html-keyboard-response","284","210118","0.0-284.0","3JWH6J9I9TZFJACSX135KLH72JWNBI","A3L2VS3998R77L","3Z3R5YC0P3915KVY8X6BNRIWYOFFTN","","null","<img src=""img/flower5.png"" style=""width:200px; border:14px solid green;"">","null","","","","","","","","",""
"","image-keyboard-response","285","210701","0.0-285.0","3JWH6J9I9TZFJACSX135KLH72JWNBI","A3L2VS3998R77L","3Z3R5YC0P3915KVY8X6BNRIWYOFFTN","","583","img/flower6.png","75","583.3999998569489","2","1","2","2","1,0,0,1,1,0,1,0,1","0,1,0,0,1,1,1,1,0","3",""
"","html-keyboard-response","286","211002","0.0-286.0","3JWH6J9I9TZFJACSX135KLH72JWNBI","A3L2VS3998R77L","3Z3R5YC0P3915KVY8X6BNRIWYOFFTN","","null","<img src=""img/flower6.png"" style=""width:200px; border:14px solid green;"">","null","","","","","","","","",""
"","image-keyboard-response","287","211777","0.0-287.0","3JWH6J9I9TZFJACSX135KLH72JWNBI","A3L2VS3998R77L","3Z3R5YC0P3915KVY8X6BNRIWYOFFTN","","774.2999999523163","img/flower3.png","75","774.7000000476837","2","1","1","2","1,0,0,1,1,0,1,0,1","0,1,0,0,1,1,1,1,0","3",""
"","html-keyboard-response","288","212079","0.0-288.0","3JWH6J9I9TZFJACSX135KLH72JWNBI","A3L2VS3998R77L","3Z3R5YC0P3915KVY8X6BNRIWYOFFTN","","null","<img src=""img/flower3.png"" style=""width:200px; border:14px solid green;"">","null","","","","","","","","",""
"","image-keyboard-response","289","212725","0.0-289.0","3JWH6J9I9TZFJACSX135KLH72JWNBI","A3L2VS3998R77L","3Z3R5YC0P3915KVY8X6BNRIWYOFFTN","","645.5","img/flower5.png","74","646","1","1","3","2","1,0,0,1,1,0,1,0,1","0,1,0,0,1,1,1,1,0","3",""
"","html-keyboard-response","290","213027","0.0-290.0","3JWH6J9I9TZFJACSX135KLH72JWNBI","A3L2VS3998R77L","3Z3R5YC0P3915KVY8X6BNRIWYOFFTN","","null","<img src=""img/flower5.png"" style=""width:200px; border:14px solid green;"">","null","","","","","","","","",""
"","image-keyboard-response","291","213692","0.0-291.0","3JWH6J9I9TZFJACSX135KLH72JWNBI","A3L2VS3998R77L","3Z3R5YC0P3915KVY8X6BNRIWYOFFTN","","664","img/flower3.png","75","664.3999998569489","2","1","1","2","1,0,0,1,1,0,1,0,1","0,1,0,0,1,1,1,1,0","3",""
"","html-keyboard-response","292","213993","0.0-292.0","3JWH6J9I9TZFJACSX135KLH72JWNBI","A3L2VS3998R77L","3Z3R5YC0P3915KVY8X6BNRIWYOFFTN","","null","<img src=""img/flower3.png"" style=""width:200px; border:14px solid green;"">","null","","","","","","","","",""
"","image-keyboard-response","293","214589","0.0-293.0","3JWH6J9I9TZFJACSX135KLH72JWNBI","A3L2VS3998R77L","3Z3R5YC0P3915KVY8X6BNRIWYOFFTN","","595.5","img/flower6.png","74","595.8999998569489","1","0","2","2","1,0,0,1,1,0,1,0,1","0,1,0,0,1,1,1,1,0","3",""
"","html-keyboard-response","294","214891","0.0-294.0","3JWH6J9I9TZFJACSX135KLH72JWNBI","A3L2VS3998R77L","3Z3R5YC0P3915KVY8X6BNRIWYOFFTN","","null","<img src=""img/flower6.png"" style=""width:200px;border:14px solid red;"">","null","","","","","","","","",""
"","image-keyboard-response","295","215634","0.0-295.0","3JWH6J9I9TZFJACSX135KLH72JWNBI","A3L2VS3998R77L","3Z3R5YC0P3915KVY8X6BNRIWYOFFTN","","742.5999999046326","img/flower3.png","75","743","2","1","1","2","1,0,0,1,1,0,1,0,1","0,1,0,0,1,1,1,1,0","3",""
"","html-keyboard-response","296","215934","0.0-296.0","3JWH6J9I9TZFJACSX135KLH72JWNBI","A3L2VS3998R77L","3Z3R5YC0P3915KVY8X6BNRIWYOFFTN","","null","<img src=""img/flower3.png"" style=""width:200px; border:14px solid green;"">","null","","","","","","","","",""
"","image-keyboard-response","297","216522","0.0-297.0","3JWH6J9I9TZFJACSX135KLH72JWNBI","A3L2VS3998R77L","3Z3R5YC0P3915KVY8X6BNRIWYOFFTN","","587.2000000476837","img/flower3.png","75","587.6999998092651","2","1","1","2","1,0,0,1,1,0,1,0,1","0,1,0,0,1,1,1,1,0","3",""
"","html-keyboard-response","298","216823","0.0-298.0","3JWH6J9I9TZFJACSX135KLH72JWNBI","A3L2VS3998R77L","3Z3R5YC0P3915KVY8X6BNRIWYOFFTN","","null","<img src=""img/flower3.png"" style=""width:200px; border:14px solid green;"">","null","","","","","","","","",""
"","image-keyboard-response","299","217397","0.0-299.0","3JWH6J9I9TZFJACSX135KLH72JWNBI","A3L2VS3998R77L","3Z3R5YC0P3915KVY8X6BNRIWYOFFTN","","573.5","img/flower6.png","75","574.0999999046326","2","1","2","2","1,0,0,1,1,0,1,0,1","0,1,0,0,1,1,1,1,0","3",""
"","html-keyboard-response","300","217698","0.0-300.0","3JWH6J9I9TZFJACSX135KLH72JWNBI","A3L2VS3998R77L","3Z3R5YC0P3915KVY8X6BNRIWYOFFTN","","null","<img src=""img/flower6.png"" style=""width:200px; border:14px solid green;"">","null","","","","","","","","",""
"","image-keyboard-response","301","218705","0.0-301.0","3JWH6J9I9TZFJACSX135KLH72JWNBI","A3L2VS3998R77L","3Z3R5YC0P3915KVY8X6BNRIWYOFFTN","","1006.5999999046326","img/flower5.png","74","1007","1","1","3","2","1,0,0,1,1,0,1,0,1","0,1,0,0,1,1,1,1,0","3",""
"","html-keyboard-response","302","219006","0.0-302.0","3JWH6J9I9TZFJACSX135KLH72JWNBI","A3L2VS3998R77L","3Z3R5YC0P3915KVY8X6BNRIWYOFFTN","","null","<img src=""img/flower5.png"" style=""width:200px; border:14px solid green;"">","null","","","","","","","","",""
"","image-keyboard-response","303","219526","0.0-303.0","3JWH6J9I9TZFJACSX135KLH72JWNBI","A3L2VS3998R77L","3Z3R5YC0P3915KVY8X6BNRIWYOFFTN","","519.1000001430511","img/flower5.png","74","519.5999999046326","1","1","3","2","1,0,0,1,1,0,1,0,1","0,1,0,0,1,1,1,1,0","3",""
"","html-keyboard-response","304","219827","0.0-304.0","3JWH6J9I9TZFJACSX135KLH72JWNBI","A3L2VS3998R77L","3Z3R5YC0P3915KVY8X6BNRIWYOFFTN","","null","<img src=""img/flower5.png"" style=""width:200px; border:14px solid green;"">","null","","","","","","","","",""
"","image-keyboard-response","305","220401","0.0-305.0","3JWH6J9I9TZFJACSX135KLH72JWNBI","A3L2VS3998R77L","3Z3R5YC0P3915KVY8X6BNRIWYOFFTN","","573.5","img/flower5.png","74","574","1","1","3","2","1,0,0,1,1,0,1,0,1","0,1,0,0,1,1,1,1,0","3",""
"","html-keyboard-response","306","220702","0.0-306.0","3JWH6J9I9TZFJACSX135KLH72JWNBI","A3L2VS3998R77L","3Z3R5YC0P3915KVY8X6BNRIWYOFFTN","","null","<img src=""img/flower5.png"" style=""width:200px; border:14px solid green;"">","null","","","","","","","","",""
"","image-keyboard-response","307","221308","0.0-307.0","3JWH6J9I9TZFJACSX135KLH72JWNBI","A3L2VS3998R77L","3Z3R5YC0P3915KVY8X6BNRIWYOFFTN","","605.5","img/flower3.png","75","605.9000000953674","2","1","1","2","1,0,0,1,1,0,1,0,1","0,1,0,0,1,1,1,1,0","3",""
"","html-keyboard-response","308","221609","0.0-308.0","3JWH6J9I9TZFJACSX135KLH72JWNBI","A3L2VS3998R77L","3Z3R5YC0P3915KVY8X6BNRIWYOFFTN","","null","<img src=""img/flower3.png"" style=""width:200px; border:14px solid green;"">","null","","","","","","","","",""
"","image-keyboard-response","309","222407","0.0-309.0","3JWH6J9I9TZFJACSX135KLH72JWNBI","A3L2VS3998R77L","3Z3R5YC0P3915KVY8X6BNRIWYOFFTN","","797.5999999046326","img/flower6.png","75","798.0999999046326","2","1","2","2","1,0,0,1,1,0,1,0,1","0,1,0,0,1,1,1,1,0","3",""
"","html-keyboard-response","310","222709","0.0-310.0","3JWH6J9I9TZFJACSX135KLH72JWNBI","A3L2VS3998R77L","3Z3R5YC0P3915KVY8X6BNRIWYOFFTN","","null","<img src=""img/flower6.png"" style=""width:200px; border:14px solid green;"">","null","","","","","","","","",""
"","image-keyboard-response","311","223259","0.0-311.0","3JWH6J9I9TZFJACSX135KLH72JWNBI","A3L2VS3998R77L","3Z3R5YC0P3915KVY8X6BNRIWYOFFTN","","549.5999999046326","img/flower6.png","75","550.1000001430511","2","1","2","2","1,0,0,1,1,0,1,0,1","0,1,0,0,1,1,1,1,0","3",""
"","html-keyboard-response","312","223561","0.0-312.0","3JWH6J9I9TZFJACSX135KLH72JWNBI","A3L2VS3998R77L","3Z3R5YC0P3915KVY8X6BNRIWYOFFTN","","null","<img src=""img/flower6.png"" style=""width:200px; border:14px solid green;"">","null","","","","","","","","",""
"","image-keyboard-response","313","224467","0.0-313.0","3JWH6J9I9TZFJACSX135KLH72JWNBI","A3L2VS3998R77L","3Z3R5YC0P3915KVY8X6BNRIWYOFFTN","","905.7000000476837","img/flower3.png","74","906.2000000476837","1","0","1","2","1,0,0,1,1,0,1,0,1","0,1,0,0,1,1,1,1,0","3",""
"","html-keyboard-response","314","224769","0.0-314.0","3JWH6J9I9TZFJACSX135KLH72JWNBI","A3L2VS3998R77L","3Z3R5YC0P3915KVY8X6BNRIWYOFFTN","","null","<img src=""img/flower3.png"" style=""width:200px;border:14px solid red;"">","null","","","","","","","","",""
"","image-keyboard-response","315","225361","0.0-315.0","3JWH6J9I9TZFJACSX135KLH72JWNBI","A3L2VS3998R77L","3Z3R5YC0P3915KVY8X6BNRIWYOFFTN","","591.7000000476837","img/flower6.png","75","592.2000000476837","2","1","2","2","1,0,0,1,1,0,1,0,1","0,1,0,0,1,1,1,1,0","3",""
"","html-keyboard-response","316","225662","0.0-316.0","3JWH6J9I9TZFJACSX135KLH72JWNBI","A3L2VS3998R77L","3Z3R5YC0P3915KVY8X6BNRIWYOFFTN","","null","<img src=""img/flower6.png"" style=""width:200px; border:14px solid green;"">","null","","","","","","","","",""
"","image-keyboard-response","317","226189","0.0-317.0","3JWH6J9I9TZFJACSX135KLH72JWNBI","A3L2VS3998R77L","3Z3R5YC0P3915KVY8X6BNRIWYOFFTN","","526.4000000953674","img/flower3.png","75","526.8999998569489","2","1","1","2","1,0,0,1,1,0,1,0,1","0,1,0,0,1,1,1,1,0","3",""
"","html-keyboard-response","318","226490","0.0-318.0","3JWH6J9I9TZFJACSX135KLH72JWNBI","A3L2VS3998R77L","3Z3R5YC0P3915KVY8X6BNRIWYOFFTN","","null","<img src=""img/flower3.png"" style=""width:200px; border:14px solid green;"">","null","","","","","","","","",""
"","image-keyboard-response","319","227060","0.0-319.0","3JWH6J9I9TZFJACSX135KLH72JWNBI","A3L2VS3998R77L","3Z3R5YC0P3915KVY8X6BNRIWYOFFTN","","570","img/flower3.png","75","570.4000000953674","2","1","1","2","1,0,0,1,1,0,1,0,1","0,1,0,0,1,1,1,1,0","3",""
"","html-keyboard-response","320","227361","0.0-320.0","3JWH6J9I9TZFJACSX135KLH72JWNBI","A3L2VS3998R77L","3Z3R5YC0P3915KVY8X6BNRIWYOFFTN","","null","<img src=""img/flower3.png"" style=""width:200px; border:14px solid green;"">","null","","","","","","","","",""
"","image-keyboard-response","321","227912","0.0-321.0","3JWH6J9I9TZFJACSX135KLH72JWNBI","A3L2VS3998R77L","3Z3R5YC0P3915KVY8X6BNRIWYOFFTN","","550.4000000953674","img/flower3.png","75","551","2","1","1","2","1,0,0,1,1,0,1,0,1","0,1,0,0,1,1,1,1,0","3",""
"","html-keyboard-response","322","228213","0.0-322.0","3JWH6J9I9TZFJACSX135KLH72JWNBI","A3L2VS3998R77L","3Z3R5YC0P3915KVY8X6BNRIWYOFFTN","","null","<img src=""img/flower3.png"" style=""width:200px; border:14px solid green;"">","null","","","","","","","","",""
"","image-keyboard-response","323","228815","0.0-323.0","3JWH6J9I9TZFJACSX135KLH72JWNBI","A3L2VS3998R77L","3Z3R5YC0P3915KVY8X6BNRIWYOFFTN","","601.0999999046326","img/flower3.png","75","601.5","2","1","1","2","1,0,0,1,1,0,1,0,1","0,1,0,0,1,1,1,1,0","3",""
"","html-keyboard-response","324","229116","0.0-324.0","3JWH6J9I9TZFJACSX135KLH72JWNBI","A3L2VS3998R77L","3Z3R5YC0P3915KVY8X6BNRIWYOFFTN","","null","<img src=""img/flower3.png"" style=""width:200px; border:14px solid green;"">","null","","","","","","","","",""
"","image-keyboard-response","325","229812","0.0-325.0","3JWH6J9I9TZFJACSX135KLH72JWNBI","A3L2VS3998R77L","3Z3R5YC0P3915KVY8X6BNRIWYOFFTN","","695.2000000476837","img/flower5.png","74","695.5999999046326","1","1","3","2","1,0,0,1,1,0,1,0,1","0,1,0,0,1,1,1,1,0","3",""
"","html-keyboard-response","326","230113","0.0-326.0","3JWH6J9I9TZFJACSX135KLH72JWNBI","A3L2VS3998R77L","3Z3R5YC0P3915KVY8X6BNRIWYOFFTN","","null","<img src=""img/flower5.png"" style=""width:200px; border:14px solid green;"">","null","","","","","","","","",""
"","image-keyboard-response","327","230706","0.0-327.0","3JWH6J9I9TZFJACSX135KLH72JWNBI","A3L2VS3998R77L","3Z3R5YC0P3915KVY8X6BNRIWYOFFTN","","592.2000000476837","img/flower5.png","74","592.7999999523163","1","1","3","2","1,0,0,1,1,0,1,0,1","0,1,0,0,1,1,1,1,0","3",""
"","html-keyboard-response","328","231007","0.0-328.0","3JWH6J9I9TZFJACSX135KLH72JWNBI","A3L2VS3998R77L","3Z3R5YC0P3915KVY8X6BNRIWYOFFTN","","null","<img src=""img/flower5.png"" style=""width:200px; border:14px solid green;"">","null","","","","","","","","",""
"","image-keyboard-response","329","231463","0.0-329.0","3JWH6J9I9TZFJACSX135KLH72JWNBI","A3L2VS3998R77L","3Z3R5YC0P3915KVY8X6BNRIWYOFFTN","","454.90000009536743","img/flower5.png","74","455.30000019073486","1","1","3","2","1,0,0,1,1,0,1,0,1","0,1,0,0,1,1,1,1,0","3",""
"","html-keyboard-response","330","231765","0.0-330.0","3JWH6J9I9TZFJACSX135KLH72JWNBI","A3L2VS3998R77L","3Z3R5YC0P3915KVY8X6BNRIWYOFFTN","","null","<img src=""img/flower5.png"" style=""width:200px; border:14px solid green;"">","null","","","","","","","","",""
"","image-keyboard-response","331","232556","0.0-331.0","3JWH6J9I9TZFJACSX135KLH72JWNBI","A3L2VS3998R77L","3Z3R5YC0P3915KVY8X6BNRIWYOFFTN","","790.2999999523163","img/flower6.png","75","790.9000000953674","2","1","2","2","1,0,0,1,1,0,1,0,1","0,1,0,0,1,1,1,1,0","3",""
"","html-keyboard-response","332","232857","0.0-332.0","3JWH6J9I9TZFJACSX135KLH72JWNBI","A3L2VS3998R77L","3Z3R5YC0P3915KVY8X6BNRIWYOFFTN","","null","<img src=""img/flower6.png"" style=""width:200px; border:14px solid green;"">","null","","","","","","","","",""
"","image-keyboard-response","333","233390","0.0-333.0","3JWH6J9I9TZFJACSX135KLH72JWNBI","A3L2VS3998R77L","3Z3R5YC0P3915KVY8X6BNRIWYOFFTN","","532.5","img/flower6.png","75","533","2","1","2","2","1,0,0,1,1,0,1,0,1","0,1,0,0,1,1,1,1,0","3",""
"","html-keyboard-response","334","233691","0.0-334.0","3JWH6J9I9TZFJACSX135KLH72JWNBI","A3L2VS3998R77L","3Z3R5YC0P3915KVY8X6BNRIWYOFFTN","","null","<img src=""img/flower6.png"" style=""width:200px; border:14px solid green;"">","null","","","","","","","","",""
"","image-keyboard-response","335","234397","0.0-335.0","3JWH6J9I9TZFJACSX135KLH72JWNBI","A3L2VS3998R77L","3Z3R5YC0P3915KVY8X6BNRIWYOFFTN","","705.0999999046326","img/flower5.png","74","705.5999999046326","1","1","3","2","1,0,0,1,1,0,1,0,1","0,1,0,0,1,1,1,1,0","3",""
"","html-keyboard-response","336","234699","0.0-336.0","3JWH6J9I9TZFJACSX135KLH72JWNBI","A3L2VS3998R77L","3Z3R5YC0P3915KVY8X6BNRIWYOFFTN","","null","<img src=""img/flower5.png"" style=""width:200px; border:14px solid green;"">","null","","","","","","","","",""
"","image-keyboard-response","337","235839","0.0-337.0","3JWH6J9I9TZFJACSX135KLH72JWNBI","A3L2VS3998R77L","3Z3R5YC0P3915KVY8X6BNRIWYOFFTN","","1139.4000000953674","img/flower3.png","75","1139.9000000953674","2","1","1","2","1,0,0,1,1,0,1,0,1","0,1,0,0,1,1,1,1,0","3",""
"","html-keyboard-response","338","236140","0.0-338.0","3JWH6J9I9TZFJACSX135KLH72JWNBI","A3L2VS3998R77L","3Z3R5YC0P3915KVY8X6BNRIWYOFFTN","","null","<img src=""img/flower3.png"" style=""width:200px; border:14px solid green;"">","null","","","","","","","","",""
"","image-keyboard-response","339","236613","0.0-339.0","3JWH6J9I9TZFJACSX135KLH72JWNBI","A3L2VS3998R77L","3Z3R5YC0P3915KVY8X6BNRIWYOFFTN","","472.40000009536743","img/flower3.png","75","472.90000009536743","2","1","1","2","1,0,0,1,1,0,1,0,1","0,1,0,0,1,1,1,1,0","3",""
"","html-keyboard-response","340","236914","0.0-340.0","3JWH6J9I9TZFJACSX135KLH72JWNBI","A3L2VS3998R77L","3Z3R5YC0P3915KVY8X6BNRIWYOFFTN","","null","<img src=""img/flower3.png"" style=""width:200px; border:14px solid green;"">","null","","","","","","","","",""
"","image-keyboard-response","341","238683","0.0-341.0","3JWH6J9I9TZFJACSX135KLH72JWNBI","A3L2VS3998R77L","3Z3R5YC0P3915KVY8X6BNRIWYOFFTN","","1768.3999998569489","img/flower5.png","75","1769","2","1","3","2","1,0,0,1,1,0,1,0,1","0,1,0,0,1,1,1,1,0","3",""
"","html-keyboard-response","342","238984","0.0-342.0","3JWH6J9I9TZFJACSX135KLH72JWNBI","A3L2VS3998R77L","3Z3R5YC0P3915KVY8X6BNRIWYOFFTN","","null","<img src=""img/flower5.png"" style=""width:200px; border:14px solid green;"">","null","","","","","","","","",""
"","image-keyboard-response","343","239681","0.0-343.0","3JWH6J9I9TZFJACSX135KLH72JWNBI","A3L2VS3998R77L","3Z3R5YC0P3915KVY8X6BNRIWYOFFTN","","696.2999999523163","img/flower5.png","75","696.7999999523163","2","1","3","2","1,0,0,1,1,0,1,0,1","0,1,0,0,1,1,1,1,0","3",""
"","html-keyboard-response","344","239982","0.0-344.0","3JWH6J9I9TZFJACSX135KLH72JWNBI","A3L2VS3998R77L","3Z3R5YC0P3915KVY8X6BNRIWYOFFTN","","null","<img src=""img/flower5.png"" style=""width:200px; border:14px solid green;"">","null","","","","","","","","",""
"","image-keyboard-response","345","240456","0.0-345.0","3JWH6J9I9TZFJACSX135KLH72JWNBI","A3L2VS3998R77L","3Z3R5YC0P3915KVY8X6BNRIWYOFFTN","","473.19999980926514","img/flower5.png","75","473.7000000476837","2","1","3","2","1,0,0,1,1,0,1,0,1","0,1,0,0,1,1,1,1,0","3",""
"","html-keyboard-response","346","240757","0.0-346.0","3JWH6J9I9TZFJACSX135KLH72JWNBI","A3L2VS3998R77L","3Z3R5YC0P3915KVY8X6BNRIWYOFFTN","","null","<img src=""img/flower5.png"" style=""width:200px; border:14px solid green;"">","null","","","","","","","","",""
"","image-keyboard-response","347","241454","0.0-347.0","3JWH6J9I9TZFJACSX135KLH72JWNBI","A3L2VS3998R77L","3Z3R5YC0P3915KVY8X6BNRIWYOFFTN","","697.2000000476837","img/flower6.png","75","697.7999999523163","2","1","2","2","1,0,0,1,1,0,1,0,1","0,1,0,0,1,1,1,1,0","3",""
"","html-keyboard-response","348","241756","0.0-348.0","3JWH6J9I9TZFJACSX135KLH72JWNBI","A3L2VS3998R77L","3Z3R5YC0P3915KVY8X6BNRIWYOFFTN","","null","<img src=""img/flower6.png"" style=""width:200px; border:14px solid green;"">","null","","","","","","","","",""
"","image-keyboard-response","349","242265","0.0-349.0","3JWH6J9I9TZFJACSX135KLH72JWNBI","A3L2VS3998R77L","3Z3R5YC0P3915KVY8X6BNRIWYOFFTN","","508.59999990463257","img/flower6.png","75","509.10000014305115","2","1","2","2","1,0,0,1,1,0,1,0,1","0,1,0,0,1,1,1,1,0","3",""
"","html-keyboard-response","350","242566","0.0-350.0","3JWH6J9I9TZFJACSX135KLH72JWNBI","A3L2VS3998R77L","3Z3R5YC0P3915KVY8X6BNRIWYOFFTN","","null","<img src=""img/flower6.png"" style=""width:200px; border:14px solid green;"">","null","","","","","","","","",""
"","image-keyboard-response","351","243246","0.0-351.0","3JWH6J9I9TZFJACSX135KLH72JWNBI","A3L2VS3998R77L","3Z3R5YC0P3915KVY8X6BNRIWYOFFTN","","679.2999999523163","img/flower6.png","75","679.8999998569489","2","1","2","2","1,0,0,1,1,0,1,0,1","0,1,0,0,1,1,1,1,0","3",""
"","html-keyboard-response","352","243546","0.0-352.0","3JWH6J9I9TZFJACSX135KLH72JWNBI","A3L2VS3998R77L","3Z3R5YC0P3915KVY8X6BNRIWYOFFTN","","null","<img src=""img/flower6.png"" style=""width:200px; border:14px solid green;"">","null","","","","","","","","",""
"","image-keyboard-response","353","244211","0.0-353.0","3JWH6J9I9TZFJACSX135KLH72JWNBI","A3L2VS3998R77L","3Z3R5YC0P3915KVY8X6BNRIWYOFFTN","","663.9000000953674","img/flower5.png","74","664.5","1","1","3","2","1,0,0,1,1,0,1,0,1","0,1,0,0,1,1,1,1,0","3",""
"","html-keyboard-response","354","244512","0.0-354.0","3JWH6J9I9TZFJACSX135KLH72JWNBI","A3L2VS3998R77L","3Z3R5YC0P3915KVY8X6BNRIWYOFFTN","","null","<img src=""img/flower5.png"" style=""width:200px; border:14px solid green;"">","null","","","","","","","","",""
"","image-keyboard-response","355","245392","0.0-355.0","3JWH6J9I9TZFJACSX135KLH72JWNBI","A3L2VS3998R77L","3Z3R5YC0P3915KVY8X6BNRIWYOFFTN","","880.1000001430511","img/flower3.png","75","880.5999999046326","2","1","1","2","1,0,0,1,1,0,1,0,1","0,1,0,0,1,1,1,1,0","3",""
"","html-keyboard-response","356","245693","0.0-356.0","3JWH6J9I9TZFJACSX135KLH72JWNBI","A3L2VS3998R77L","3Z3R5YC0P3915KVY8X6BNRIWYOFFTN","","null","<img src=""img/flower3.png"" style=""width:200px; border:14px solid green;"">","null","","","","","","","","",""
"","image-keyboard-response","357","246727","0.0-357.0","3JWH6J9I9TZFJACSX135KLH72JWNBI","A3L2VS3998R77L","3Z3R5YC0P3915KVY8X6BNRIWYOFFTN","","1033.2999999523163","img/flower5.png","74","1033.6999998092651","1","1","3","2","1,0,0,1,1,0,1,0,1","0,1,0,0,1,1,1,1,0","3",""
"","html-keyboard-response","358","247028","0.0-358.0","3JWH6J9I9TZFJACSX135KLH72JWNBI","A3L2VS3998R77L","3Z3R5YC0P3915KVY8X6BNRIWYOFFTN","","null","<img src=""img/flower5.png"" style=""width:200px; border:14px solid green;"">","null","","","","","","","","",""
"","image-keyboard-response","359","247608","0.0-359.0","3JWH6J9I9TZFJACSX135KLH72JWNBI","A3L2VS3998R77L","3Z3R5YC0P3915KVY8X6BNRIWYOFFTN","","579.2000000476837","img/flower6.png","75","579.8000001907349","2","1","2","2","1,0,0,1,1,0,1,0,1","0,1,0,0,1,1,1,1,0","3",""
"","html-keyboard-response","360","247909","0.0-360.0","3JWH6J9I9TZFJACSX135KLH72JWNBI","A3L2VS3998R77L","3Z3R5YC0P3915KVY8X6BNRIWYOFFTN","","null","<img src=""img/flower6.png"" style=""width:200px; border:14px solid green;"">","null","","","","","","","","",""
"","image-keyboard-response","361","248410","0.0-361.0","3JWH6J9I9TZFJACSX135KLH72JWNBI","A3L2VS3998R77L","3Z3R5YC0P3915KVY8X6BNRIWYOFFTN","","500.89999985694885","img/flower5.png","75","501.39999985694885","2","1","3","2","1,0,0,1,1,0,1,0,1","0,1,0,0,1,1,1,1,0","3",""
"","html-keyboard-response","362","248711","0.0-362.0","3JWH6J9I9TZFJACSX135KLH72JWNBI","A3L2VS3998R77L","3Z3R5YC0P3915KVY8X6BNRIWYOFFTN","","null","<img src=""img/flower5.png"" style=""width:200px; border:14px solid green;"">","null","","","","","","","","",""
"","instructions","363","252327","0.0-363.0","3JWH6J9I9TZFJACSX135KLH72JWNBI","A3L2VS3998R77L","3Z3R5YC0P3915KVY8X6BNRIWYOFFTN","[{""page_index"":0,""viewing_time"":3614.899999856949}]","3615","","","","","","","","","","",""
"","survey-text","364","259138","0.0-364.0","3JWH6J9I9TZFJACSX135KLH72JWNBI","A3L2VS3998R77L","3Z3R5YC0P3915KVY8X6BNRIWYOFFTN","","6809.200000047684","","","","","","","","","","","{""Q0"":""A3L2VS3998R77L""}"
