"success","trial_type","trial_index","time_elapsed","internal_node_id","assignmentID","mturkID","hitID","view_history","rt","stimulus","key_press","reactionTime","a","r","s","cond","reward_cond","reward_cond_actual","reward_matrix_idx","responses"
"true","fullscreen","0","4232","0.0-0.0","3RYC5T2D74F2225U9D2NOPR6KR9PRG","A3LIRS1WMRIP9P","36U4VBVNQOZD8NFWZXWF9CIHKRIURB","","","","","","","","","","","","",""
"","instructions","1","13777","0.0-1.0","3RYC5T2D74F2225U9D2NOPR6KR9PRG","A3LIRS1WMRIP9P","36U4VBVNQOZD8NFWZXWF9CIHKRIURB","[{""page_index"":0,""viewing_time"":1537},{""page_index"":1,""viewing_time"":1123},{""page_index"":2,""viewing_time"":1046},{""page_index"":3,""viewing_time"":440},{""page_index"":4,""viewing_time"":1321},{""page_index"":5,""viewing_time"":1320},{""page_index"":6,""viewing_time"":1300},{""page_index"":7,""viewing_time"":1455}]","9543","","","","","","","","","","",""
"","image-keyboard-response","2","15117","0.0-2.0","3RYC5T2D74F2225U9D2NOPR6KR9PRG","A3LIRS1WMRIP9P","36U4VBVNQOZD8NFWZXWF9CIHKRIURB","","1337","img/flower6.png","74","1339","1","0","2","2","1,0,0,1,1,0,1,0,1","0,1,0,0,1,1,1,1,0","3",""
"","html-keyboard-response","3","15419","0.0-3.0","3RYC5T2D74F2225U9D2NOPR6KR9PRG","A3LIRS1WMRIP9P","36U4VBVNQOZD8NFWZXWF9CIHKRIURB","","null","<img src=""img/flower6.png"" style=""width:200px;border:14px solid red;"">","null","","","","","","","","",""
"","image-keyboard-response","4","15718","0.0-4.0","3RYC5T2D74F2225U9D2NOPR6KR9PRG","A3LIRS1WMRIP9P","36U4VBVNQOZD8NFWZXWF9CIHKRIURB","","298","img/flower1.png","75","300","2","1","1","2","1,0,0,1,1,0,1,0,1","0,1,0,0,1,1,1,1,0","3",""
"","html-keyboard-response","5","16021","0.0-5.0","3RYC5T2D74F2225U9D2NOPR6KR9PRG","A3LIRS1WMRIP9P","36U4VBVNQOZD8NFWZXWF9CIHKRIURB","","null","<img src=""img/flower1.png"" style=""width:200px; border:14px solid green;"">","null","","","","","","","","",""
"","image-keyboard-response","6","16086","0.0-6.0","3RYC5T2D74F2225U9D2NOPR6KR9PRG","A3LIRS1WMRIP9P","36U4VBVNQOZD8NFWZXWF9CIHKRIURB","","65","img/flower3.png","74","66","1","1","3","2","1,0,0,1,1,0,1,0,1","0,1,0,0,1,1,1,1,0","3",""
"","html-keyboard-response","7","16472","0.0-7.0","3RYC5T2D74F2225U9D2NOPR6KR9PRG","A3LIRS1WMRIP9P","36U4VBVNQOZD8NFWZXWF9CIHKRIURB","","null","<img src=""img/flower3.png"" style=""width:200px; border:14px solid green;"">","null","","","","","","","","",""
"","image-keyboard-response","8","16508","0.0-8.0","3RYC5T2D74F2225U9D2NOPR6KR9PRG","A3LIRS1WMRIP9P","36U4VBVNQOZD8NFWZXWF9CIHKRIURB","","35","img/flower1.png","76","36","3","0","1","2","1,0,0,1,1,0,1,0,1","0,1,0,0,1,1,1,1,0","3",""
"","html-keyboard-response","9","16810","0.0-9.0","3RYC5T2D74F2225U9D2NOPR6KR9PRG","A3LIRS1WMRIP9P","36U4VBVNQOZD8NFWZXWF9CIHKRIURB","","null","<img src=""img/flower1.png"" style=""width:200px;border:14px solid red;"">","null","","","","","","","","",""
"","image-keyboard-response","10","16941","0.0-10.0","3RYC5T2D74F2225U9D2NOPR6KR9PRG","A3LIRS1WMRIP9P","36U4VBVNQOZD8NFWZXWF9CIHKRIURB","","130","img/flower6.png","74","131","1","0","2","2","1,0,0,1,1,0,1,0,1","0,1,0,0,1,1,1,1,0","3",""
"","html-keyboard-response","11","17242","0.0-11.0","3RYC5T2D74F2225U9D2NOPR6KR9PRG","A3LIRS1WMRIP9P","36U4VBVNQOZD8NFWZXWF9CIHKRIURB","","null","<img src=""img/flower6.png"" style=""width:200px;border:14px solid red;"">","null","","","","","","","","",""
"","image-keyboard-response","12","17341","0.0-12.0","3RYC5T2D74F2225U9D2NOPR6KR9PRG","A3LIRS1WMRIP9P","36U4VBVNQOZD8NFWZXWF9CIHKRIURB","","98","img/flower6.png","75","99","2","1","2","2","1,0,0,1,1,0,1,0,1","0,1,0,0,1,1,1,1,0","3",""
"","html-keyboard-response","13","17643","0.0-13.0","3RYC5T2D74F2225U9D2NOPR6KR9PRG","A3LIRS1WMRIP9P","36U4VBVNQOZD8NFWZXWF9CIHKRIURB","","null","<img src=""img/flower6.png"" style=""width:200px; border:14px solid green;"">","null","","","","","","","","",""
"","image-keyboard-response","14","17741","0.0-14.0","3RYC5T2D74F2225U9D2NOPR6KR9PRG","A3LIRS1WMRIP9P","36U4VBVNQOZD8NFWZXWF9CIHKRIURB","","97","img/flower1.png","74","98","1","0","1","2","1,0,0,1,1,0,1,0,1","0,1,0,0,1,1,1,1,0","3",""
"","html-keyboard-response","15","18041","0.0-15.0","3RYC5T2D74F2225U9D2NOPR6KR9PRG","A3LIRS1WMRIP9P","36U4VBVNQOZD8NFWZXWF9CIHKRIURB","","null","<img src=""img/flower1.png"" style=""width:200px;border:14px solid red;"">","null","","","","","","","","",""
"","image-keyboard-response","16","18251","0.0-16.0","3RYC5T2D74F2225U9D2NOPR6KR9PRG","A3LIRS1WMRIP9P","36U4VBVNQOZD8NFWZXWF9CIHKRIURB","","209","img/flower3.png","76","210","3","0","3","2","1,0,0,1,1,0,1,0,1","0,1,0,0,1,1,1,1,0","3",""
"","html-keyboard-response","17","18553","0.0-17.0","3RYC5T2D74F2225U9D2NOPR6KR9PRG","A3LIRS1WMRIP9P","36U4VBVNQOZD8NFWZXWF9CIHKRIURB","","null","<img src=""img/flower3.png"" style=""width:200px;border:14px solid red;"">","null","","","","","","","","",""
"","image-keyboard-response","18","18631","0.0-18.0","3RYC5T2D74F2225U9D2NOPR6KR9PRG","A3LIRS1WMRIP9P","36U4VBVNQOZD8NFWZXWF9CIHKRIURB","","78","img/flower6.png","75","78","2","1","2","2","1,0,0,1,1,0,1,0,1","0,1,0,0,1,1,1,1,0","3",""
"","html-keyboard-response","19","18932","0.0-19.0","3RYC5T2D74F2225U9D2NOPR6KR9PRG","A3LIRS1WMRIP9P","36U4VBVNQOZD8NFWZXWF9CIHKRIURB","","null","<img src=""img/flower6.png"" style=""width:200px; border:14px solid green;"">","null","","","","","","","","",""
"","image-keyboard-response","20","19003","0.0-20.0","3RYC5T2D74F2225U9D2NOPR6KR9PRG","A3LIRS1WMRIP9P","36U4VBVNQOZD8NFWZXWF9CIHKRIURB","","70","img/flower1.png","74","71","1","0","1","2","1,0,0,1,1,0,1,0,1","0,1,0,0,1,1,1,1,0","3",""
"","html-keyboard-response","21","19303","0.0-21.0","3RYC5T2D74F2225U9D2NOPR6KR9PRG","A3LIRS1WMRIP9P","36U4VBVNQOZD8NFWZXWF9CIHKRIURB","","null","<img src=""img/flower1.png"" style=""width:200px;border:14px solid red;"">","null","","","","","","","","",""
"","image-keyboard-response","22","19381","0.0-22.0","3RYC5T2D74F2225U9D2NOPR6KR9PRG","A3LIRS1WMRIP9P","36U4VBVNQOZD8NFWZXWF9CIHKRIURB","","78","img/flower3.png","74","78","1","1","3","2","1,0,0,1,1,0,1,0,1","0,1,0,0,1,1,1,1,0","3",""
"","html-keyboard-response","23","19682","0.0-23.0","3RYC5T2D74F2225U9D2NOPR6KR9PRG","A3LIRS1WMRIP9P","36U4VBVNQOZD8NFWZXWF9CIHKRIURB","","null","<img src=""img/flower3.png"" style=""width:200px; border:14px solid green;"">","null","","","","","","","","",""
"","image-keyboard-response","24","19781","0.0-24.0","3RYC5T2D74F2225U9D2NOPR6KR9PRG","A3LIRS1WMRIP9P","36U4VBVNQOZD8NFWZXWF9CIHKRIURB","","99","img/flower6.png","74","99","1","0","2","2","1,0,0,1,1,0,1,0,1","0,1,0,0,1,1,1,1,0","3",""
"","html-keyboard-response","25","20082","0.0-25.0","3RYC5T2D74F2225U9D2NOPR6KR9PRG","A3LIRS1WMRIP9P","36U4VBVNQOZD8NFWZXWF9CIHKRIURB","","null","<img src=""img/flower6.png"" style=""width:200px;border:14px solid red;"">","null","","","","","","","","",""
"","image-keyboard-response","26","20141","0.0-26.0","3RYC5T2D74F2225U9D2NOPR6KR9PRG","A3LIRS1WMRIP9P","36U4VBVNQOZD8NFWZXWF9CIHKRIURB","","59","img/flower3.png","74","59","1","1","3","2","1,0,0,1,1,0,1,0,1","0,1,0,0,1,1,1,1,0","3",""
"","html-keyboard-response","27","20442","0.0-27.0","3RYC5T2D74F2225U9D2NOPR6KR9PRG","A3LIRS1WMRIP9P","36U4VBVNQOZD8NFWZXWF9CIHKRIURB","","null","<img src=""img/flower3.png"" style=""width:200px; border:14px solid green;"">","null","","","","","","","","",""
"","image-keyboard-response","28","20511","0.0-28.0","3RYC5T2D74F2225U9D2NOPR6KR9PRG","A3LIRS1WMRIP9P","36U4VBVNQOZD8NFWZXWF9CIHKRIURB","","69","img/flower3.png","74","69","1","1","3","2","1,0,0,1,1,0,1,0,1","0,1,0,0,1,1,1,1,0","3",""
"","html-keyboard-response","29","20812","0.0-29.0","3RYC5T2D74F2225U9D2NOPR6KR9PRG","A3LIRS1WMRIP9P","36U4VBVNQOZD8NFWZXWF9CIHKRIURB","","null","<img src=""img/flower3.png"" style=""width:200px; border:14px solid green;"">","null","","","","","","","","",""
"","image-keyboard-response","30","21037","0.0-30.0","3RYC5T2D74F2225U9D2NOPR6KR9PRG","A3LIRS1WMRIP9P","36U4VBVNQOZD8NFWZXWF9CIHKRIURB","","224","img/flower1.png","76","225","3","0","1","2","1,0,0,1,1,0,1,0,1","0,1,0,0,1,1,1,1,0","3",""
"","html-keyboard-response","31","21339","0.0-31.0","3RYC5T2D74F2225U9D2NOPR6KR9PRG","A3LIRS1WMRIP9P","36U4VBVNQOZD8NFWZXWF9CIHKRIURB","","null","<img src=""img/flower1.png"" style=""width:200px;border:14px solid red;"">","null","","","","","","","","",""
"","image-keyboard-response","32","21381","0.0-32.0","3RYC5T2D74F2225U9D2NOPR6KR9PRG","A3LIRS1WMRIP9P","36U4VBVNQOZD8NFWZXWF9CIHKRIURB","","41","img/flower3.png","74","42","1","1","3","2","1,0,0,1,1,0,1,0,1","0,1,0,0,1,1,1,1,0","3",""
"","html-keyboard-response","33","21685","0.0-33.0","3RYC5T2D74F2225U9D2NOPR6KR9PRG","A3LIRS1WMRIP9P","36U4VBVNQOZD8NFWZXWF9CIHKRIURB","","null","<img src=""img/flower3.png"" style=""width:200px; border:14px solid green;"">","null","","","","","","","","",""
"","image-keyboard-response","34","21731","0.0-34.0","3RYC5T2D74F2225U9D2NOPR6KR9PRG","A3LIRS1WMRIP9P","36U4VBVNQOZD8NFWZXWF9CIHKRIURB","","45","img/flower1.png","76","45","3","0","1","2","1,0,0,1,1,0,1,0,1","0,1,0,0,1,1,1,1,0","3",""
"","html-keyboard-response","35","22031","0.0-35.0","3RYC5T2D74F2225U9D2NOPR6KR9PRG","A3LIRS1WMRIP9P","36U4VBVNQOZD8NFWZXWF9CIHKRIURB","","null","<img src=""img/flower1.png"" style=""width:200px;border:14px solid red;"">","null","","","","","","","","",""
"","image-keyboard-response","36","22091","0.0-36.0","3RYC5T2D74F2225U9D2NOPR6KR9PRG","A3LIRS1WMRIP9P","36U4VBVNQOZD8NFWZXWF9CIHKRIURB","","59","img/flower6.png","74","60","1","0","2","2","1,0,0,1,1,0,1,0,1","0,1,0,0,1,1,1,1,0","3",""
"","html-keyboard-response","37","22399","0.0-37.0","3RYC5T2D74F2225U9D2NOPR6KR9PRG","A3LIRS1WMRIP9P","36U4VBVNQOZD8NFWZXWF9CIHKRIURB","","null","<img src=""img/flower6.png"" style=""width:200px;border:14px solid red;"">","null","","","","","","","","",""
"","image-keyboard-response","38","22457","0.0-38.0","3RYC5T2D74F2225U9D2NOPR6KR9PRG","A3LIRS1WMRIP9P","36U4VBVNQOZD8NFWZXWF9CIHKRIURB","","58","img/flower3.png","76","58","3","0","3","2","1,0,0,1,1,0,1,0,1","0,1,0,0,1,1,1,1,0","3",""
"","html-keyboard-response","39","22757","0.0-39.0","3RYC5T2D74F2225U9D2NOPR6KR9PRG","A3LIRS1WMRIP9P","36U4VBVNQOZD8NFWZXWF9CIHKRIURB","","null","<img src=""img/flower3.png"" style=""width:200px;border:14px solid red;"">","null","","","","","","","","",""
"","image-keyboard-response","40","22863","0.0-40.0","3RYC5T2D74F2225U9D2NOPR6KR9PRG","A3LIRS1WMRIP9P","36U4VBVNQOZD8NFWZXWF9CIHKRIURB","","106","img/flower6.png","74","106","1","0","2","2","1,0,0,1,1,0,1,0,1","0,1,0,0,1,1,1,1,0","3",""
"","html-keyboard-response","41","23164","0.0-41.0","3RYC5T2D74F2225U9D2NOPR6KR9PRG","A3LIRS1WMRIP9P","36U4VBVNQOZD8NFWZXWF9CIHKRIURB","","null","<img src=""img/flower6.png"" style=""width:200px;border:14px solid red;"">","null","","","","","","","","",""
"","image-keyboard-response","42","23411","0.0-42.0","3RYC5T2D74F2225U9D2NOPR6KR9PRG","A3LIRS1WMRIP9P","36U4VBVNQOZD8NFWZXWF9CIHKRIURB","","246","img/flower1.png","76","247","3","0","1","2","1,0,0,1,1,0,1,0,1","0,1,0,0,1,1,1,1,0","3",""
"","html-keyboard-response","43","23713","0.0-43.0","3RYC5T2D74F2225U9D2NOPR6KR9PRG","A3LIRS1WMRIP9P","36U4VBVNQOZD8NFWZXWF9CIHKRIURB","","null","<img src=""img/flower1.png"" style=""width:200px;border:14px solid red;"">","null","","","","","","","","",""
"","image-keyboard-response","44","23811","0.0-44.0","3RYC5T2D74F2225U9D2NOPR6KR9PRG","A3LIRS1WMRIP9P","36U4VBVNQOZD8NFWZXWF9CIHKRIURB","","98","img/flower3.png","74","98","1","1","3","2","1,0,0,1,1,0,1,0,1","0,1,0,0,1,1,1,1,0","3",""
"","html-keyboard-response","45","24112","0.0-45.0","3RYC5T2D74F2225U9D2NOPR6KR9PRG","A3LIRS1WMRIP9P","36U4VBVNQOZD8NFWZXWF9CIHKRIURB","","null","<img src=""img/flower3.png"" style=""width:200px; border:14px solid green;"">","null","","","","","","","","",""
"","image-keyboard-response","46","24121","0.0-46.0","3RYC5T2D74F2225U9D2NOPR6KR9PRG","A3LIRS1WMRIP9P","36U4VBVNQOZD8NFWZXWF9CIHKRIURB","","9","img/flower1.png","76","9","3","0","1","2","1,0,0,1,1,0,1,0,1","0,1,0,0,1,1,1,1,0","3",""
"","html-keyboard-response","47","24422","0.0-47.0","3RYC5T2D74F2225U9D2NOPR6KR9PRG","A3LIRS1WMRIP9P","36U4VBVNQOZD8NFWZXWF9CIHKRIURB","","null","<img src=""img/flower1.png"" style=""width:200px;border:14px solid red;"">","null","","","","","","","","",""
"","image-keyboard-response","48","24491","0.0-48.0","3RYC5T2D74F2225U9D2NOPR6KR9PRG","A3LIRS1WMRIP9P","36U4VBVNQOZD8NFWZXWF9CIHKRIURB","","69","img/flower1.png","74","69","1","0","1","2","1,0,0,1,1,0,1,0,1","0,1,0,0,1,1,1,1,0","3",""
"","html-keyboard-response","49","24792","0.0-49.0","3RYC5T2D74F2225U9D2NOPR6KR9PRG","A3LIRS1WMRIP9P","36U4VBVNQOZD8NFWZXWF9CIHKRIURB","","null","<img src=""img/flower1.png"" style=""width:200px;border:14px solid red;"">","null","","","","","","","","",""
"","image-keyboard-response","50","24881","0.0-50.0","3RYC5T2D74F2225U9D2NOPR6KR9PRG","A3LIRS1WMRIP9P","36U4VBVNQOZD8NFWZXWF9CIHKRIURB","","88","img/flower6.png","74","88","1","0","2","2","1,0,0,1,1,0,1,0,1","0,1,0,0,1,1,1,1,0","3",""
"","html-keyboard-response","51","25183","0.0-51.0","3RYC5T2D74F2225U9D2NOPR6KR9PRG","A3LIRS1WMRIP9P","36U4VBVNQOZD8NFWZXWF9CIHKRIURB","","null","<img src=""img/flower6.png"" style=""width:200px;border:14px solid red;"">","null","","","","","","","","",""
"","image-keyboard-response","52","25211","0.0-52.0","3RYC5T2D74F2225U9D2NOPR6KR9PRG","A3LIRS1WMRIP9P","36U4VBVNQOZD8NFWZXWF9CIHKRIURB","","28","img/flower6.png","76","28","3","1","2","2","1,0,0,1,1,0,1,0,1","0,1,0,0,1,1,1,1,0","3",""
"","html-keyboard-response","53","25512","0.0-53.0","3RYC5T2D74F2225U9D2NOPR6KR9PRG","A3LIRS1WMRIP9P","36U4VBVNQOZD8NFWZXWF9CIHKRIURB","","null","<img src=""img/flower6.png"" style=""width:200px; border:14px solid green;"">","null","","","","","","","","",""
"","image-keyboard-response","54","25630","0.0-54.0","3RYC5T2D74F2225U9D2NOPR6KR9PRG","A3LIRS1WMRIP9P","36U4VBVNQOZD8NFWZXWF9CIHKRIURB","","118","img/flower3.png","74","118","1","1","3","2","1,0,0,1,1,0,1,0,1","0,1,0,0,1,1,1,1,0","3",""
"","html-keyboard-response","55","25931","0.0-55.0","3RYC5T2D74F2225U9D2NOPR6KR9PRG","A3LIRS1WMRIP9P","36U4VBVNQOZD8NFWZXWF9CIHKRIURB","","null","<img src=""img/flower3.png"" style=""width:200px; border:14px solid green;"">","null","","","","","","","","",""
"","image-keyboard-response","56","26110","0.0-56.0","3RYC5T2D74F2225U9D2NOPR6KR9PRG","A3LIRS1WMRIP9P","36U4VBVNQOZD8NFWZXWF9CIHKRIURB","","179","img/flower6.png","74","179","1","0","2","2","1,0,0,1,1,0,1,0,1","0,1,0,0,1,1,1,1,0","3",""
"","html-keyboard-response","57","26412","0.0-57.0","3RYC5T2D74F2225U9D2NOPR6KR9PRG","A3LIRS1WMRIP9P","36U4VBVNQOZD8NFWZXWF9CIHKRIURB","","null","<img src=""img/flower6.png"" style=""width:200px;border:14px solid red;"">","null","","","","","","","","",""
"","image-keyboard-response","58","26431","0.0-58.0","3RYC5T2D74F2225U9D2NOPR6KR9PRG","A3LIRS1WMRIP9P","36U4VBVNQOZD8NFWZXWF9CIHKRIURB","","18","img/flower6.png","76","19","3","1","2","2","1,0,0,1,1,0,1,0,1","0,1,0,0,1,1,1,1,0","3",""
"","html-keyboard-response","59","26732","0.0-59.0","3RYC5T2D74F2225U9D2NOPR6KR9PRG","A3LIRS1WMRIP9P","36U4VBVNQOZD8NFWZXWF9CIHKRIURB","","null","<img src=""img/flower6.png"" style=""width:200px; border:14px solid green;"">","null","","","","","","","","",""
"","image-keyboard-response","60","26850","0.0-60.0","3RYC5T2D74F2225U9D2NOPR6KR9PRG","A3LIRS1WMRIP9P","36U4VBVNQOZD8NFWZXWF9CIHKRIURB","","118","img/flower3.png","74","118","1","1","3","2","1,0,0,1,1,0,1,0,1","0,1,0,0,1,1,1,1,0","3",""
"","html-keyboard-response","61","27152","0.0-61.0","3RYC5T2D74F2225U9D2NOPR6KR9PRG","A3LIRS1WMRIP9P","36U4VBVNQOZD8NFWZXWF9CIHKRIURB","","null","<img src=""img/flower3.png"" style=""width:200px; border:14px solid green;"">","null","","","","","","","","",""
"","image-keyboard-response","62","27331","0.0-62.0","3RYC5T2D74F2225U9D2NOPR6KR9PRG","A3LIRS1WMRIP9P","36U4VBVNQOZD8NFWZXWF9CIHKRIURB","","179","img/flower3.png","76","179","3","0","3","2","1,0,0,1,1,0,1,0,1","0,1,0,0,1,1,1,1,0","3",""
"","html-keyboard-response","63","27631","0.0-63.0","3RYC5T2D74F2225U9D2NOPR6KR9PRG","A3LIRS1WMRIP9P","36U4VBVNQOZD8NFWZXWF9CIHKRIURB","","null","<img src=""img/flower3.png"" style=""width:200px;border:14px solid red;"">","null","","","","","","","","",""
"","image-keyboard-response","64","27711","0.0-64.0","3RYC5T2D74F2225U9D2NOPR6KR9PRG","A3LIRS1WMRIP9P","36U4VBVNQOZD8NFWZXWF9CIHKRIURB","","80","img/flower3.png","75","80","2","1","3","2","1,0,0,1,1,0,1,0,1","0,1,0,0,1,1,1,1,0","3",""
"","html-keyboard-response","65","28011","0.0-65.0","3RYC5T2D74F2225U9D2NOPR6KR9PRG","A3LIRS1WMRIP9P","36U4VBVNQOZD8NFWZXWF9CIHKRIURB","","null","<img src=""img/flower3.png"" style=""width:200px; border:14px solid green;"">","null","","","","","","","","",""
"","image-keyboard-response","66","28171","0.0-66.0","3RYC5T2D74F2225U9D2NOPR6KR9PRG","A3LIRS1WMRIP9P","36U4VBVNQOZD8NFWZXWF9CIHKRIURB","","159","img/flower3.png","75","160","2","1","3","2","1,0,0,1,1,0,1,0,1","0,1,0,0,1,1,1,1,0","3",""
"","html-keyboard-response","67","28472","0.0-67.0","3RYC5T2D74F2225U9D2NOPR6KR9PRG","A3LIRS1WMRIP9P","36U4VBVNQOZD8NFWZXWF9CIHKRIURB","","null","<img src=""img/flower3.png"" style=""width:200px; border:14px solid green;"">","null","","","","","","","","",""
"","image-keyboard-response","68","28632","0.0-68.0","3RYC5T2D74F2225U9D2NOPR6KR9PRG","A3LIRS1WMRIP9P","36U4VBVNQOZD8NFWZXWF9CIHKRIURB","","160","img/flower1.png","75","160","2","1","1","2","1,0,0,1,1,0,1,0,1","0,1,0,0,1,1,1,1,0","3",""
"","html-keyboard-response","69","28934","0.0-69.0","3RYC5T2D74F2225U9D2NOPR6KR9PRG","A3LIRS1WMRIP9P","36U4VBVNQOZD8NFWZXWF9CIHKRIURB","","null","<img src=""img/flower1.png"" style=""width:200px; border:14px solid green;"">","null","","","","","","","","",""
"","image-keyboard-response","70","29071","0.0-70.0","3RYC5T2D74F2225U9D2NOPR6KR9PRG","A3LIRS1WMRIP9P","36U4VBVNQOZD8NFWZXWF9CIHKRIURB","","136","img/flower6.png","74","137","1","0","2","2","1,0,0,1,1,0,1,0,1","0,1,0,0,1,1,1,1,0","3",""
"","html-keyboard-response","71","29371","0.0-71.0","3RYC5T2D74F2225U9D2NOPR6KR9PRG","A3LIRS1WMRIP9P","36U4VBVNQOZD8NFWZXWF9CIHKRIURB","","null","<img src=""img/flower6.png"" style=""width:200px;border:14px solid red;"">","null","","","","","","","","",""
"","image-keyboard-response","72","29512","0.0-72.0","3RYC5T2D74F2225U9D2NOPR6KR9PRG","A3LIRS1WMRIP9P","36U4VBVNQOZD8NFWZXWF9CIHKRIURB","","141","img/flower3.png","74","141","1","1","3","2","1,0,0,1,1,0,1,0,1","0,1,0,0,1,1,1,1,0","3",""
"","html-keyboard-response","73","29814","0.0-73.0","3RYC5T2D74F2225U9D2NOPR6KR9PRG","A3LIRS1WMRIP9P","36U4VBVNQOZD8NFWZXWF9CIHKRIURB","","null","<img src=""img/flower3.png"" style=""width:200px; border:14px solid green;"">","null","","","","","","","","",""
"","image-keyboard-response","74","30311","0.0-74.0","3RYC5T2D74F2225U9D2NOPR6KR9PRG","A3LIRS1WMRIP9P","36U4VBVNQOZD8NFWZXWF9CIHKRIURB","","496","img/flower6.png","74","497","1","0","2","2","1,0,0,1,1,0,1,0,1","0,1,0,0,1,1,1,1,0","3",""
"","html-keyboard-response","75","30611","0.0-75.0","3RYC5T2D74F2225U9D2NOPR6KR9PRG","A3LIRS1WMRIP9P","36U4VBVNQOZD8NFWZXWF9CIHKRIURB","","null","<img src=""img/flower6.png"" style=""width:200px;border:14px solid red;"">","null","","","","","","","","",""
"","image-keyboard-response","76","30630","0.0-76.0","3RYC5T2D74F2225U9D2NOPR6KR9PRG","A3LIRS1WMRIP9P","36U4VBVNQOZD8NFWZXWF9CIHKRIURB","","18","img/flower1.png","75","19","2","1","1","2","1,0,0,1,1,0,1,0,1","0,1,0,0,1,1,1,1,0","3",""
"","html-keyboard-response","77","30932","0.0-77.0","3RYC5T2D74F2225U9D2NOPR6KR9PRG","A3LIRS1WMRIP9P","36U4VBVNQOZD8NFWZXWF9CIHKRIURB","","null","<img src=""img/flower1.png"" style=""width:200px; border:14px solid green;"">","null","","","","","","","","",""
"","image-keyboard-response","78","30943","0.0-78.0","3RYC5T2D74F2225U9D2NOPR6KR9PRG","A3LIRS1WMRIP9P","36U4VBVNQOZD8NFWZXWF9CIHKRIURB","","11","img/flower3.png","76","11","3","0","3","2","1,0,0,1,1,0,1,0,1","0,1,0,0,1,1,1,1,0","3",""
"","html-keyboard-response","79","31245","0.0-79.0","3RYC5T2D74F2225U9D2NOPR6KR9PRG","A3LIRS1WMRIP9P","36U4VBVNQOZD8NFWZXWF9CIHKRIURB","","null","<img src=""img/flower3.png"" style=""width:200px;border:14px solid red;"">","null","","","","","","","","",""
"","image-keyboard-response","80","31331","0.0-80.0","3RYC5T2D74F2225U9D2NOPR6KR9PRG","A3LIRS1WMRIP9P","36U4VBVNQOZD8NFWZXWF9CIHKRIURB","","85","img/flower1.png","74","86","1","0","1","2","1,0,0,1,1,0,1,0,1","0,1,0,0,1,1,1,1,0","3",""
"","html-keyboard-response","81","31632","0.0-81.0","3RYC5T2D74F2225U9D2NOPR6KR9PRG","A3LIRS1WMRIP9P","36U4VBVNQOZD8NFWZXWF9CIHKRIURB","","null","<img src=""img/flower1.png"" style=""width:200px;border:14px solid red;"">","null","","","","","","","","",""
"","image-keyboard-response","82","31756","0.0-82.0","3RYC5T2D74F2225U9D2NOPR6KR9PRG","A3LIRS1WMRIP9P","36U4VBVNQOZD8NFWZXWF9CIHKRIURB","","123","img/flower6.png","74","124","1","0","2","2","1,0,0,1,1,0,1,0,1","0,1,0,0,1,1,1,1,0","3",""
"","html-keyboard-response","83","32058","0.0-83.0","3RYC5T2D74F2225U9D2NOPR6KR9PRG","A3LIRS1WMRIP9P","36U4VBVNQOZD8NFWZXWF9CIHKRIURB","","null","<img src=""img/flower6.png"" style=""width:200px;border:14px solid red;"">","null","","","","","","","","",""
"","image-keyboard-response","84","32151","0.0-84.0","3RYC5T2D74F2225U9D2NOPR6KR9PRG","A3LIRS1WMRIP9P","36U4VBVNQOZD8NFWZXWF9CIHKRIURB","","93","img/flower1.png","74","93","1","0","1","2","1,0,0,1,1,0,1,0,1","0,1,0,0,1,1,1,1,0","3",""
"","html-keyboard-response","85","32455","0.0-85.0","3RYC5T2D74F2225U9D2NOPR6KR9PRG","A3LIRS1WMRIP9P","36U4VBVNQOZD8NFWZXWF9CIHKRIURB","","null","<img src=""img/flower1.png"" style=""width:200px;border:14px solid red;"">","null","","","","","","","","",""
"","image-keyboard-response","86","32613","0.0-86.0","3RYC5T2D74F2225U9D2NOPR6KR9PRG","A3LIRS1WMRIP9P","36U4VBVNQOZD8NFWZXWF9CIHKRIURB","","157","img/flower3.png","76","158","3","0","3","2","1,0,0,1,1,0,1,0,1","0,1,0,0,1,1,1,1,0","3",""
"","html-keyboard-response","87","32915","0.0-87.0","3RYC5T2D74F2225U9D2NOPR6KR9PRG","A3LIRS1WMRIP9P","36U4VBVNQOZD8NFWZXWF9CIHKRIURB","","null","<img src=""img/flower3.png"" style=""width:200px;border:14px solid red;"">","null","","","","","","","","",""
"","image-keyboard-response","88","33042","0.0-88.0","3RYC5T2D74F2225U9D2NOPR6KR9PRG","A3LIRS1WMRIP9P","36U4VBVNQOZD8NFWZXWF9CIHKRIURB","","127","img/flower6.png","74","127","1","0","2","2","1,0,0,1,1,0,1,0,1","0,1,0,0,1,1,1,1,0","3",""
"","html-keyboard-response","89","33343","0.0-89.0","3RYC5T2D74F2225U9D2NOPR6KR9PRG","A3LIRS1WMRIP9P","36U4VBVNQOZD8NFWZXWF9CIHKRIURB","","null","<img src=""img/flower6.png"" style=""width:200px;border:14px solid red;"">","null","","","","","","","","",""
"","image-keyboard-response","90","33492","0.0-90.0","3RYC5T2D74F2225U9D2NOPR6KR9PRG","A3LIRS1WMRIP9P","36U4VBVNQOZD8NFWZXWF9CIHKRIURB","","149","img/flower1.png","74","149","1","0","1","2","1,0,0,1,1,0,1,0,1","0,1,0,0,1,1,1,1,0","3",""
"","html-keyboard-response","91","33793","0.0-91.0","3RYC5T2D74F2225U9D2NOPR6KR9PRG","A3LIRS1WMRIP9P","36U4VBVNQOZD8NFWZXWF9CIHKRIURB","","null","<img src=""img/flower1.png"" style=""width:200px;border:14px solid red;"">","null","","","","","","","","",""
"","image-keyboard-response","92","33941","0.0-92.0","3RYC5T2D74F2225U9D2NOPR6KR9PRG","A3LIRS1WMRIP9P","36U4VBVNQOZD8NFWZXWF9CIHKRIURB","","148","img/flower3.png","74","148","1","1","3","2","1,0,0,1,1,0,1,0,1","0,1,0,0,1,1,1,1,0","3",""
"","html-keyboard-response","93","34243","0.0-93.0","3RYC5T2D74F2225U9D2NOPR6KR9PRG","A3LIRS1WMRIP9P","36U4VBVNQOZD8NFWZXWF9CIHKRIURB","","null","<img src=""img/flower3.png"" style=""width:200px; border:14px solid green;"">","null","","","","","","","","",""
"","image-keyboard-response","94","34371","0.0-94.0","3RYC5T2D74F2225U9D2NOPR6KR9PRG","A3LIRS1WMRIP9P","36U4VBVNQOZD8NFWZXWF9CIHKRIURB","","128","img/flower6.png","74","128","1","0","2","2","1,0,0,1,1,0,1,0,1","0,1,0,0,1,1,1,1,0","3",""
"","html-keyboard-response","95","34672","0.0-95.0","3RYC5T2D74F2225U9D2NOPR6KR9PRG","A3LIRS1WMRIP9P","36U4VBVNQOZD8NFWZXWF9CIHKRIURB","","null","<img src=""img/flower6.png"" style=""width:200px;border:14px solid red;"">","null","","","","","","","","",""
"","image-keyboard-response","96","34811","0.0-96.0","3RYC5T2D74F2225U9D2NOPR6KR9PRG","A3LIRS1WMRIP9P","36U4VBVNQOZD8NFWZXWF9CIHKRIURB","","139","img/flower3.png","74","139","1","1","3","2","1,0,0,1,1,0,1,0,1","0,1,0,0,1,1,1,1,0","3",""
"","html-keyboard-response","97","35113","0.0-97.0","3RYC5T2D74F2225U9D2NOPR6KR9PRG","A3LIRS1WMRIP9P","36U4VBVNQOZD8NFWZXWF9CIHKRIURB","","null","<img src=""img/flower3.png"" style=""width:200px; border:14px solid green;"">","null","","","","","","","","",""
"","image-keyboard-response","98","35241","0.0-98.0","3RYC5T2D74F2225U9D2NOPR6KR9PRG","A3LIRS1WMRIP9P","36U4VBVNQOZD8NFWZXWF9CIHKRIURB","","128","img/flower3.png","74","128","1","1","3","2","1,0,0,1,1,0,1,0,1","0,1,0,0,1,1,1,1,0","3",""
"","html-keyboard-response","99","35543","0.0-99.0","3RYC5T2D74F2225U9D2NOPR6KR9PRG","A3LIRS1WMRIP9P","36U4VBVNQOZD8NFWZXWF9CIHKRIURB","","null","<img src=""img/flower3.png"" style=""width:200px; border:14px solid green;"">","null","","","","","","","","",""
"","image-keyboard-response","100","35711","0.0-100.0","3RYC5T2D74F2225U9D2NOPR6KR9PRG","A3LIRS1WMRIP9P","36U4VBVNQOZD8NFWZXWF9CIHKRIURB","","167","img/flower6.png","74","168","1","0","2","2","1,0,0,1,1,0,1,0,1","0,1,0,0,1,1,1,1,0","3",""
"","html-keyboard-response","101","36013","0.0-101.0","3RYC5T2D74F2225U9D2NOPR6KR9PRG","A3LIRS1WMRIP9P","36U4VBVNQOZD8NFWZXWF9CIHKRIURB","","null","<img src=""img/flower6.png"" style=""width:200px;border:14px solid red;"">","null","","","","","","","","",""
"","image-keyboard-response","102","36031","0.0-102.0","3RYC5T2D74F2225U9D2NOPR6KR9PRG","A3LIRS1WMRIP9P","36U4VBVNQOZD8NFWZXWF9CIHKRIURB","","18","img/flower3.png","76","18","3","0","3","2","1,0,0,1,1,0,1,0,1","0,1,0,0,1,1,1,1,0","3",""
"","html-keyboard-response","103","36332","0.0-103.0","3RYC5T2D74F2225U9D2NOPR6KR9PRG","A3LIRS1WMRIP9P","36U4VBVNQOZD8NFWZXWF9CIHKRIURB","","null","<img src=""img/flower3.png"" style=""width:200px;border:14px solid red;"">","null","","","","","","","","",""
"","image-keyboard-response","104","36415","0.0-104.0","3RYC5T2D74F2225U9D2NOPR6KR9PRG","A3LIRS1WMRIP9P","36U4VBVNQOZD8NFWZXWF9CIHKRIURB","","83","img/flower6.png","74","83","1","0","2","2","1,0,0,1,1,0,1,0,1","0,1,0,0,1,1,1,1,0","3",""
"","html-keyboard-response","105","36716","0.0-105.0","3RYC5T2D74F2225U9D2NOPR6KR9PRG","A3LIRS1WMRIP9P","36U4VBVNQOZD8NFWZXWF9CIHKRIURB","","null","<img src=""img/flower6.png"" style=""width:200px;border:14px solid red;"">","null","","","","","","","","",""
"","image-keyboard-response","106","36733","0.0-106.0","3RYC5T2D74F2225U9D2NOPR6KR9PRG","A3LIRS1WMRIP9P","36U4VBVNQOZD8NFWZXWF9CIHKRIURB","","13","img/flower1.png","74","16","1","0","1","2","1,0,0,1,1,0,1,0,1","0,1,0,0,1,1,1,1,0","3",""
"","html-keyboard-response","107","37035","0.0-107.0","3RYC5T2D74F2225U9D2NOPR6KR9PRG","A3LIRS1WMRIP9P","36U4VBVNQOZD8NFWZXWF9CIHKRIURB","","null","<img src=""img/flower1.png"" style=""width:200px;border:14px solid red;"">","null","","","","","","","","",""
"","image-keyboard-response","108","37131","0.0-108.0","3RYC5T2D74F2225U9D2NOPR6KR9PRG","A3LIRS1WMRIP9P","36U4VBVNQOZD8NFWZXWF9CIHKRIURB","","96","img/flower6.png","74","96","1","0","2","2","1,0,0,1,1,0,1,0,1","0,1,0,0,1,1,1,1,0","3",""
"","html-keyboard-response","109","37433","0.0-109.0","3RYC5T2D74F2225U9D2NOPR6KR9PRG","A3LIRS1WMRIP9P","36U4VBVNQOZD8NFWZXWF9CIHKRIURB","","null","<img src=""img/flower6.png"" style=""width:200px;border:14px solid red;"">","null","","","","","","","","",""
"","image-keyboard-response","110","37651","0.0-110.0","3RYC5T2D74F2225U9D2NOPR6KR9PRG","A3LIRS1WMRIP9P","36U4VBVNQOZD8NFWZXWF9CIHKRIURB","","218","img/flower1.png","75","218","2","1","1","2","1,0,0,1,1,0,1,0,1","0,1,0,0,1,1,1,1,0","3",""
"","html-keyboard-response","111","37953","0.0-111.0","3RYC5T2D74F2225U9D2NOPR6KR9PRG","A3LIRS1WMRIP9P","36U4VBVNQOZD8NFWZXWF9CIHKRIURB","","null","<img src=""img/flower1.png"" style=""width:200px; border:14px solid green;"">","null","","","","","","","","",""
"","image-keyboard-response","112","38051","0.0-112.0","3RYC5T2D74F2225U9D2NOPR6KR9PRG","A3LIRS1WMRIP9P","36U4VBVNQOZD8NFWZXWF9CIHKRIURB","","97","img/flower6.png","74","98","1","0","2","2","1,0,0,1,1,0,1,0,1","0,1,0,0,1,1,1,1,0","3",""
"","html-keyboard-response","113","38352","0.0-113.0","3RYC5T2D74F2225U9D2NOPR6KR9PRG","A3LIRS1WMRIP9P","36U4VBVNQOZD8NFWZXWF9CIHKRIURB","","null","<img src=""img/flower6.png"" style=""width:200px;border:14px solid red;"">","null","","","","","","","","",""
"","image-keyboard-response","114","38371","0.0-114.0","3RYC5T2D74F2225U9D2NOPR6KR9PRG","A3LIRS1WMRIP9P","36U4VBVNQOZD8NFWZXWF9CIHKRIURB","","19","img/flower1.png","75","20","2","1","1","2","1,0,0,1,1,0,1,0,1","0,1,0,0,1,1,1,1,0","3",""
"","html-keyboard-response","115","38672","0.0-115.0","3RYC5T2D74F2225U9D2NOPR6KR9PRG","A3LIRS1WMRIP9P","36U4VBVNQOZD8NFWZXWF9CIHKRIURB","","null","<img src=""img/flower1.png"" style=""width:200px; border:14px solid green;"">","null","","","","","","","","",""
"","image-keyboard-response","116","38792","0.0-116.0","3RYC5T2D74F2225U9D2NOPR6KR9PRG","A3LIRS1WMRIP9P","36U4VBVNQOZD8NFWZXWF9CIHKRIURB","","119","img/flower3.png","74","120","1","1","3","2","1,0,0,1,1,0,1,0,1","0,1,0,0,1,1,1,1,0","3",""
"","html-keyboard-response","117","39092","0.0-117.0","3RYC5T2D74F2225U9D2NOPR6KR9PRG","A3LIRS1WMRIP9P","36U4VBVNQOZD8NFWZXWF9CIHKRIURB","","null","<img src=""img/flower3.png"" style=""width:200px; border:14px solid green;"">","null","","","","","","","","",""
"","image-keyboard-response","118","39261","0.0-118.0","3RYC5T2D74F2225U9D2NOPR6KR9PRG","A3LIRS1WMRIP9P","36U4VBVNQOZD8NFWZXWF9CIHKRIURB","","169","img/flower3.png","74","170","1","1","3","2","1,0,0,1,1,0,1,0,1","0,1,0,0,1,1,1,1,0","3",""
"","html-keyboard-response","119","39564","0.0-119.0","3RYC5T2D74F2225U9D2NOPR6KR9PRG","A3LIRS1WMRIP9P","36U4VBVNQOZD8NFWZXWF9CIHKRIURB","","null","<img src=""img/flower3.png"" style=""width:200px; border:14px solid green;"">","null","","","","","","","","",""
"","image-keyboard-response","120","39572","0.0-120.0","3RYC5T2D74F2225U9D2NOPR6KR9PRG","A3LIRS1WMRIP9P","36U4VBVNQOZD8NFWZXWF9CIHKRIURB","","7","img/flower3.png","76","10","3","0","3","2","1,0,0,1,1,0,1,0,1","0,1,0,0,1,1,1,1,0","3",""
"","html-keyboard-response","121","39885","0.0-121.0","3RYC5T2D74F2225U9D2NOPR6KR9PRG","A3LIRS1WMRIP9P","36U4VBVNQOZD8NFWZXWF9CIHKRIURB","","null","<img src=""img/flower3.png"" style=""width:200px;border:14px solid red;"">","null","","","","","","","","",""
"","image-keyboard-response","122","39931","0.0-122.0","3RYC5T2D74F2225U9D2NOPR6KR9PRG","A3LIRS1WMRIP9P","36U4VBVNQOZD8NFWZXWF9CIHKRIURB","","45","img/flower1.png","74","45","1","0","1","2","1,0,0,1,1,0,1,0,1","0,1,0,0,1,1,1,1,0","3",""
"","html-keyboard-response","123","40233","0.0-123.0","3RYC5T2D74F2225U9D2NOPR6KR9PRG","A3LIRS1WMRIP9P","36U4VBVNQOZD8NFWZXWF9CIHKRIURB","","null","<img src=""img/flower1.png"" style=""width:200px;border:14px solid red;"">","null","","","","","","","","",""
"","image-keyboard-response","124","40391","0.0-124.0","3RYC5T2D74F2225U9D2NOPR6KR9PRG","A3LIRS1WMRIP9P","36U4VBVNQOZD8NFWZXWF9CIHKRIURB","","158","img/flower1.png","74","158","1","0","1","2","1,0,0,1,1,0,1,0,1","0,1,0,0,1,1,1,1,0","3",""
"","html-keyboard-response","125","40692","0.0-125.0","3RYC5T2D74F2225U9D2NOPR6KR9PRG","A3LIRS1WMRIP9P","36U4VBVNQOZD8NFWZXWF9CIHKRIURB","","null","<img src=""img/flower1.png"" style=""width:200px;border:14px solid red;"">","null","","","","","","","","",""
"","image-keyboard-response","126","40832","0.0-126.0","3RYC5T2D74F2225U9D2NOPR6KR9PRG","A3LIRS1WMRIP9P","36U4VBVNQOZD8NFWZXWF9CIHKRIURB","","139","img/flower1.png","74","140","1","0","1","2","1,0,0,1,1,0,1,0,1","0,1,0,0,1,1,1,1,0","3",""
"","html-keyboard-response","127","41133","0.0-127.0","3RYC5T2D74F2225U9D2NOPR6KR9PRG","A3LIRS1WMRIP9P","36U4VBVNQOZD8NFWZXWF9CIHKRIURB","","null","<img src=""img/flower1.png"" style=""width:200px;border:14px solid red;"">","null","","","","","","","","",""
"","image-keyboard-response","128","41151","0.0-128.0","3RYC5T2D74F2225U9D2NOPR6KR9PRG","A3LIRS1WMRIP9P","36U4VBVNQOZD8NFWZXWF9CIHKRIURB","","18","img/flower3.png","76","18","3","0","3","2","1,0,0,1,1,0,1,0,1","0,1,0,0,1,1,1,1,0","3",""
"","html-keyboard-response","129","41454","0.0-129.0","3RYC5T2D74F2225U9D2NOPR6KR9PRG","A3LIRS1WMRIP9P","36U4VBVNQOZD8NFWZXWF9CIHKRIURB","","null","<img src=""img/flower3.png"" style=""width:200px;border:14px solid red;"">","null","","","","","","","","",""
"","image-keyboard-response","130","41571","0.0-130.0","3RYC5T2D74F2225U9D2NOPR6KR9PRG","A3LIRS1WMRIP9P","36U4VBVNQOZD8NFWZXWF9CIHKRIURB","","117","img/flower6.png","75","117","2","1","2","2","1,0,0,1,1,0,1,0,1","0,1,0,0,1,1,1,1,0","3",""
"","html-keyboard-response","131","41873","0.0-131.0","3RYC5T2D74F2225U9D2NOPR6KR9PRG","A3LIRS1WMRIP9P","36U4VBVNQOZD8NFWZXWF9CIHKRIURB","","null","<img src=""img/flower6.png"" style=""width:200px; border:14px solid green;"">","null","","","","","","","","",""
"","image-keyboard-response","132","41912","0.0-132.0","3RYC5T2D74F2225U9D2NOPR6KR9PRG","A3LIRS1WMRIP9P","36U4VBVNQOZD8NFWZXWF9CIHKRIURB","","39","img/flower3.png","76","39","3","0","3","2","1,0,0,1,1,0,1,0,1","0,1,0,0,1,1,1,1,0","3",""
"","html-keyboard-response","133","42214","0.0-133.0","3RYC5T2D74F2225U9D2NOPR6KR9PRG","A3LIRS1WMRIP9P","36U4VBVNQOZD8NFWZXWF9CIHKRIURB","","null","<img src=""img/flower3.png"" style=""width:200px;border:14px solid red;"">","null","","","","","","","","",""
"","image-keyboard-response","134","42231","0.0-134.0","3RYC5T2D74F2225U9D2NOPR6KR9PRG","A3LIRS1WMRIP9P","36U4VBVNQOZD8NFWZXWF9CIHKRIURB","","17","img/flower6.png","76","17","3","1","2","2","1,0,0,1,1,0,1,0,1","0,1,0,0,1,1,1,1,0","3",""
"","html-keyboard-response","135","42533","0.0-135.0","3RYC5T2D74F2225U9D2NOPR6KR9PRG","A3LIRS1WMRIP9P","36U4VBVNQOZD8NFWZXWF9CIHKRIURB","","null","<img src=""img/flower6.png"" style=""width:200px; border:14px solid green;"">","null","","","","","","","","",""
"","image-keyboard-response","136","42711","0.0-136.0","3RYC5T2D74F2225U9D2NOPR6KR9PRG","A3LIRS1WMRIP9P","36U4VBVNQOZD8NFWZXWF9CIHKRIURB","","178","img/flower3.png","74","179","1","1","3","2","1,0,0,1,1,0,1,0,1","0,1,0,0,1,1,1,1,0","3",""
"","html-keyboard-response","137","43018","0.0-137.0","3RYC5T2D74F2225U9D2NOPR6KR9PRG","A3LIRS1WMRIP9P","36U4VBVNQOZD8NFWZXWF9CIHKRIURB","","null","<img src=""img/flower3.png"" style=""width:200px; border:14px solid green;"">","null","","","","","","","","",""
"","image-keyboard-response","138","43035","0.0-138.0","3RYC5T2D74F2225U9D2NOPR6KR9PRG","A3LIRS1WMRIP9P","36U4VBVNQOZD8NFWZXWF9CIHKRIURB","","14","img/flower6.png","74","16","1","0","2","2","1,0,0,1,1,0,1,0,1","0,1,0,0,1,1,1,1,0","3",""
"","html-keyboard-response","139","43336","0.0-139.0","3RYC5T2D74F2225U9D2NOPR6KR9PRG","A3LIRS1WMRIP9P","36U4VBVNQOZD8NFWZXWF9CIHKRIURB","","null","<img src=""img/flower6.png"" style=""width:200px;border:14px solid red;"">","null","","","","","","","","",""
"","image-keyboard-response","140","43611","0.0-140.0","3RYC5T2D74F2225U9D2NOPR6KR9PRG","A3LIRS1WMRIP9P","36U4VBVNQOZD8NFWZXWF9CIHKRIURB","","275","img/flower1.png","76","276","3","0","1","2","1,0,0,1,1,0,1,0,1","0,1,0,0,1,1,1,1,0","3",""
"","html-keyboard-response","141","43913","0.0-141.0","3RYC5T2D74F2225U9D2NOPR6KR9PRG","A3LIRS1WMRIP9P","36U4VBVNQOZD8NFWZXWF9CIHKRIURB","","null","<img src=""img/flower1.png"" style=""width:200px;border:14px solid red;"">","null","","","","","","","","",""
"","image-keyboard-response","142","44071","0.0-142.0","3RYC5T2D74F2225U9D2NOPR6KR9PRG","A3LIRS1WMRIP9P","36U4VBVNQOZD8NFWZXWF9CIHKRIURB","","157","img/flower1.png","74","158","1","0","1","2","1,0,0,1,1,0,1,0,1","0,1,0,0,1,1,1,1,0","3",""
"","html-keyboard-response","143","44372","0.0-143.0","3RYC5T2D74F2225U9D2NOPR6KR9PRG","A3LIRS1WMRIP9P","36U4VBVNQOZD8NFWZXWF9CIHKRIURB","","null","<img src=""img/flower1.png"" style=""width:200px;border:14px solid red;"">","null","","","","","","","","",""
"","image-keyboard-response","144","44412","0.0-144.0","3RYC5T2D74F2225U9D2NOPR6KR9PRG","A3LIRS1WMRIP9P","36U4VBVNQOZD8NFWZXWF9CIHKRIURB","","39","img/flower3.png","76","40","3","0","3","2","1,0,0,1,1,0,1,0,1","0,1,0,0,1,1,1,1,0","3",""
"","html-keyboard-response","145","44717","0.0-145.0","3RYC5T2D74F2225U9D2NOPR6KR9PRG","A3LIRS1WMRIP9P","36U4VBVNQOZD8NFWZXWF9CIHKRIURB","","null","<img src=""img/flower3.png"" style=""width:200px;border:14px solid red;"">","null","","","","","","","","",""
"","image-keyboard-response","146","44723","0.0-146.0","3RYC5T2D74F2225U9D2NOPR6KR9PRG","A3LIRS1WMRIP9P","36U4VBVNQOZD8NFWZXWF9CIHKRIURB","","5","img/flower1.png","75","5","2","1","1","2","1,0,0,1,1,0,1,0,1","0,1,0,0,1,1,1,1,0","3",""
"","html-keyboard-response","147","45024","0.0-147.0","3RYC5T2D74F2225U9D2NOPR6KR9PRG","A3LIRS1WMRIP9P","36U4VBVNQOZD8NFWZXWF9CIHKRIURB","","null","<img src=""img/flower1.png"" style=""width:200px; border:14px solid green;"">","null","","","","","","","","",""
"","image-keyboard-response","148","45112","0.0-148.0","3RYC5T2D74F2225U9D2NOPR6KR9PRG","A3LIRS1WMRIP9P","36U4VBVNQOZD8NFWZXWF9CIHKRIURB","","88","img/flower1.png","74","88","1","0","1","2","1,0,0,1,1,0,1,0,1","0,1,0,0,1,1,1,1,0","3",""
"","html-keyboard-response","149","45413","0.0-149.0","3RYC5T2D74F2225U9D2NOPR6KR9PRG","A3LIRS1WMRIP9P","36U4VBVNQOZD8NFWZXWF9CIHKRIURB","","null","<img src=""img/flower1.png"" style=""width:200px;border:14px solid red;"">","null","","","","","","","","",""
"","image-keyboard-response","150","45431","0.0-150.0","3RYC5T2D74F2225U9D2NOPR6KR9PRG","A3LIRS1WMRIP9P","36U4VBVNQOZD8NFWZXWF9CIHKRIURB","","17","img/flower1.png","75","18","2","1","1","2","1,0,0,1,1,0,1,0,1","0,1,0,0,1,1,1,1,0","3",""
"","html-keyboard-response","151","45733","0.0-151.0","3RYC5T2D74F2225U9D2NOPR6KR9PRG","A3LIRS1WMRIP9P","36U4VBVNQOZD8NFWZXWF9CIHKRIURB","","null","<img src=""img/flower1.png"" style=""width:200px; border:14px solid green;"">","null","","","","","","","","",""
"","image-keyboard-response","152","45891","0.0-152.0","3RYC5T2D74F2225U9D2NOPR6KR9PRG","A3LIRS1WMRIP9P","36U4VBVNQOZD8NFWZXWF9CIHKRIURB","","157","img/flower1.png","74","159","1","0","1","2","1,0,0,1,1,0,1,0,1","0,1,0,0,1,1,1,1,0","3",""
"","html-keyboard-response","153","46193","0.0-153.0","3RYC5T2D74F2225U9D2NOPR6KR9PRG","A3LIRS1WMRIP9P","36U4VBVNQOZD8NFWZXWF9CIHKRIURB","","null","<img src=""img/flower1.png"" style=""width:200px;border:14px solid red;"">","null","","","","","","","","",""
"","image-keyboard-response","154","46372","0.0-154.0","3RYC5T2D74F2225U9D2NOPR6KR9PRG","A3LIRS1WMRIP9P","36U4VBVNQOZD8NFWZXWF9CIHKRIURB","","178","img/flower3.png","74","179","1","1","3","2","1,0,0,1,1,0,1,0,1","0,1,0,0,1,1,1,1,0","3",""
"","html-keyboard-response","155","46673","0.0-155.0","3RYC5T2D74F2225U9D2NOPR6KR9PRG","A3LIRS1WMRIP9P","36U4VBVNQOZD8NFWZXWF9CIHKRIURB","","null","<img src=""img/flower3.png"" style=""width:200px; border:14px solid green;"">","null","","","","","","","","",""
"","image-keyboard-response","156","46732","0.0-156.0","3RYC5T2D74F2225U9D2NOPR6KR9PRG","A3LIRS1WMRIP9P","36U4VBVNQOZD8NFWZXWF9CIHKRIURB","","58","img/flower6.png","76","59","3","1","2","2","1,0,0,1,1,0,1,0,1","0,1,0,0,1,1,1,1,0","3",""
"","html-keyboard-response","157","47032","0.0-157.0","3RYC5T2D74F2225U9D2NOPR6KR9PRG","A3LIRS1WMRIP9P","36U4VBVNQOZD8NFWZXWF9CIHKRIURB","","null","<img src=""img/flower6.png"" style=""width:200px; border:14px solid green;"">","null","","","","","","","","",""
"","image-keyboard-response","158","47151","0.0-158.0","3RYC5T2D74F2225U9D2NOPR6KR9PRG","A3LIRS1WMRIP9P","36U4VBVNQOZD8NFWZXWF9CIHKRIURB","","119","img/flower3.png","74","119","1","1","3","2","1,0,0,1,1,0,1,0,1","0,1,0,0,1,1,1,1,0","3",""
"","html-keyboard-response","159","47453","0.0-159.0","3RYC5T2D74F2225U9D2NOPR6KR9PRG","A3LIRS1WMRIP9P","36U4VBVNQOZD8NFWZXWF9CIHKRIURB","","null","<img src=""img/flower3.png"" style=""width:200px; border:14px solid green;"">","null","","","","","","","","",""
"","image-keyboard-response","160","47575","0.0-160.0","3RYC5T2D74F2225U9D2NOPR6KR9PRG","A3LIRS1WMRIP9P","36U4VBVNQOZD8NFWZXWF9CIHKRIURB","","122","img/flower1.png","76","122","3","0","1","2","1,0,0,1,1,0,1,0,1","0,1,0,0,1,1,1,1,0","3",""
"","html-keyboard-response","161","47883","0.0-161.0","3RYC5T2D74F2225U9D2NOPR6KR9PRG","A3LIRS1WMRIP9P","36U4VBVNQOZD8NFWZXWF9CIHKRIURB","","null","<img src=""img/flower1.png"" style=""width:200px;border:14px solid red;"">","null","","","","","","","","",""
"","image-keyboard-response","162","47971","0.0-162.0","3RYC5T2D74F2225U9D2NOPR6KR9PRG","A3LIRS1WMRIP9P","36U4VBVNQOZD8NFWZXWF9CIHKRIURB","","87","img/flower1.png","76","87","3","0","1","2","1,0,0,1,1,0,1,0,1","0,1,0,0,1,1,1,1,0","3",""
"","html-keyboard-response","163","48273","0.0-163.0","3RYC5T2D74F2225U9D2NOPR6KR9PRG","A3LIRS1WMRIP9P","36U4VBVNQOZD8NFWZXWF9CIHKRIURB","","null","<img src=""img/flower1.png"" style=""width:200px;border:14px solid red;"">","null","","","","","","","","",""
"","image-keyboard-response","164","48292","0.0-164.0","3RYC5T2D74F2225U9D2NOPR6KR9PRG","A3LIRS1WMRIP9P","36U4VBVNQOZD8NFWZXWF9CIHKRIURB","","18","img/flower3.png","76","19","3","0","3","2","1,0,0,1,1,0,1,0,1","0,1,0,0,1,1,1,1,0","3",""
"","html-keyboard-response","165","48592","0.0-165.0","3RYC5T2D74F2225U9D2NOPR6KR9PRG","A3LIRS1WMRIP9P","36U4VBVNQOZD8NFWZXWF9CIHKRIURB","","null","<img src=""img/flower3.png"" style=""width:200px;border:14px solid red;"">","null","","","","","","","","",""
"","image-keyboard-response","166","48596","0.0-166.0","3RYC5T2D74F2225U9D2NOPR6KR9PRG","A3LIRS1WMRIP9P","36U4VBVNQOZD8NFWZXWF9CIHKRIURB","","3","img/flower6.png","76","4","3","1","2","2","1,0,0,1,1,0,1,0,1","0,1,0,0,1,1,1,1,0","3",""
"","html-keyboard-response","167","48898","0.0-167.0","3RYC5T2D74F2225U9D2NOPR6KR9PRG","A3LIRS1WMRIP9P","36U4VBVNQOZD8NFWZXWF9CIHKRIURB","","null","<img src=""img/flower6.png"" style=""width:200px; border:14px solid green;"">","null","","","","","","","","",""
"","image-keyboard-response","168","49052","0.0-168.0","3RYC5T2D74F2225U9D2NOPR6KR9PRG","A3LIRS1WMRIP9P","36U4VBVNQOZD8NFWZXWF9CIHKRIURB","","153","img/flower6.png","74","154","1","0","2","2","1,0,0,1,1,0,1,0,1","0,1,0,0,1,1,1,1,0","3",""
"","html-keyboard-response","169","49353","0.0-169.0","3RYC5T2D74F2225U9D2NOPR6KR9PRG","A3LIRS1WMRIP9P","36U4VBVNQOZD8NFWZXWF9CIHKRIURB","","null","<img src=""img/flower6.png"" style=""width:200px;border:14px solid red;"">","null","","","","","","","","",""
"","image-keyboard-response","170","49373","0.0-170.0","3RYC5T2D74F2225U9D2NOPR6KR9PRG","A3LIRS1WMRIP9P","36U4VBVNQOZD8NFWZXWF9CIHKRIURB","","20","img/flower6.png","76","20","3","1","2","2","1,0,0,1,1,0,1,0,1","0,1,0,0,1,1,1,1,0","3",""
"","html-keyboard-response","171","49674","0.0-171.0","3RYC5T2D74F2225U9D2NOPR6KR9PRG","A3LIRS1WMRIP9P","36U4VBVNQOZD8NFWZXWF9CIHKRIURB","","null","<img src=""img/flower6.png"" style=""width:200px; border:14px solid green;"">","null","","","","","","","","",""
"","image-keyboard-response","172","49691","0.0-172.0","3RYC5T2D74F2225U9D2NOPR6KR9PRG","A3LIRS1WMRIP9P","36U4VBVNQOZD8NFWZXWF9CIHKRIURB","","16","img/flower6.png","76","17","3","1","2","2","1,0,0,1,1,0,1,0,1","0,1,0,0,1,1,1,1,0","3",""
"","html-keyboard-response","173","49993","0.0-173.0","3RYC5T2D74F2225U9D2NOPR6KR9PRG","A3LIRS1WMRIP9P","36U4VBVNQOZD8NFWZXWF9CIHKRIURB","","null","<img src=""img/flower6.png"" style=""width:200px; border:14px solid green;"">","null","","","","","","","","",""
"","image-keyboard-response","174","50219","0.0-174.0","3RYC5T2D74F2225U9D2NOPR6KR9PRG","A3LIRS1WMRIP9P","36U4VBVNQOZD8NFWZXWF9CIHKRIURB","","225","img/flower1.png","74","226","1","0","1","2","1,0,0,1,1,0,1,0,1","0,1,0,0,1,1,1,1,0","3",""
"","html-keyboard-response","175","50521","0.0-175.0","3RYC5T2D74F2225U9D2NOPR6KR9PRG","A3LIRS1WMRIP9P","36U4VBVNQOZD8NFWZXWF9CIHKRIURB","","null","<img src=""img/flower1.png"" style=""width:200px;border:14px solid red;"">","null","","","","","","","","",""
"","image-keyboard-response","176","50631","0.0-176.0","3RYC5T2D74F2225U9D2NOPR6KR9PRG","A3LIRS1WMRIP9P","36U4VBVNQOZD8NFWZXWF9CIHKRIURB","","110","img/flower6.png","75","110","2","1","2","2","1,0,0,1,1,0,1,0,1","0,1,0,0,1,1,1,1,0","3",""
"","html-keyboard-response","177","50933","0.0-177.0","3RYC5T2D74F2225U9D2NOPR6KR9PRG","A3LIRS1WMRIP9P","36U4VBVNQOZD8NFWZXWF9CIHKRIURB","","null","<img src=""img/flower6.png"" style=""width:200px; border:14px solid green;"">","null","","","","","","","","",""
"","image-keyboard-response","178","50973","0.0-178.0","3RYC5T2D74F2225U9D2NOPR6KR9PRG","A3LIRS1WMRIP9P","36U4VBVNQOZD8NFWZXWF9CIHKRIURB","","40","img/flower6.png","74","40","1","0","2","2","1,0,0,1,1,0,1,0,1","0,1,0,0,1,1,1,1,0","3",""
"","html-keyboard-response","179","51275","0.0-179.0","3RYC5T2D74F2225U9D2NOPR6KR9PRG","A3LIRS1WMRIP9P","36U4VBVNQOZD8NFWZXWF9CIHKRIURB","","null","<img src=""img/flower6.png"" style=""width:200px;border:14px solid red;"">","null","","","","","","","","",""
"","image-keyboard-response","180","51311","0.0-180.0","3RYC5T2D74F2225U9D2NOPR6KR9PRG","A3LIRS1WMRIP9P","36U4VBVNQOZD8NFWZXWF9CIHKRIURB","","36","img/flower1.png","74","36","1","0","1","2","1,0,0,1,1,0,1,0,1","0,1,0,0,1,1,1,1,0","3",""
"","html-keyboard-response","181","51617","0.0-181.0","3RYC5T2D74F2225U9D2NOPR6KR9PRG","A3LIRS1WMRIP9P","36U4VBVNQOZD8NFWZXWF9CIHKRIURB","","null","<img src=""img/flower1.png"" style=""width:200px;border:14px solid red;"">","null","","","","","","","","",""
"","image-keyboard-response","182","51631","0.0-182.0","3RYC5T2D74F2225U9D2NOPR6KR9PRG","A3LIRS1WMRIP9P","36U4VBVNQOZD8NFWZXWF9CIHKRIURB","","13","img/flower5.png","76","14","3","1","3","1","1,0.333,0.333,0.333,1,0.333,0.333,0.333,1","1,0.333,0.333,0.333,1,0.333,0.333,0.333,1","1",""
"","html-keyboard-response","183","51931","0.0-183.0","3RYC5T2D74F2225U9D2NOPR6KR9PRG","A3LIRS1WMRIP9P","36U4VBVNQOZD8NFWZXWF9CIHKRIURB","","null","<img src=""img/flower5.png"" style=""width:200px; border:14px solid green;"">","null","","","","","","","","",""
"","image-keyboard-response","184","52051","0.0-184.0","3RYC5T2D74F2225U9D2NOPR6KR9PRG","A3LIRS1WMRIP9P","36U4VBVNQOZD8NFWZXWF9CIHKRIURB","","120","img/flower2.png","74","121","1","1","1","1","1,0.333,0.333,0.333,1,0.333,0.333,0.333,1","1,0.333,0.333,0.333,1,0.333,0.333,0.333,1","1",""
"","html-keyboard-response","185","52354","0.0-185.0","3RYC5T2D74F2225U9D2NOPR6KR9PRG","A3LIRS1WMRIP9P","36U4VBVNQOZD8NFWZXWF9CIHKRIURB","","null","<img src=""img/flower2.png"" style=""width:200px; border:14px solid green;"">","null","","","","","","","","",""
"","image-keyboard-response","186","52431","0.0-186.0","3RYC5T2D74F2225U9D2NOPR6KR9PRG","A3LIRS1WMRIP9P","36U4VBVNQOZD8NFWZXWF9CIHKRIURB","","76","img/flower2.png","75","77","2","0","1","1","1,0.333,0.333,0.333,1,0.333,0.333,0.333,1","1,0.333,0.333,0.333,1,0.333,0.333,0.333,1","1",""
"","html-keyboard-response","187","52732","0.0-187.0","3RYC5T2D74F2225U9D2NOPR6KR9PRG","A3LIRS1WMRIP9P","36U4VBVNQOZD8NFWZXWF9CIHKRIURB","","null","<img src=""img/flower2.png"" style=""width:200px;border:14px solid red;"">","null","","","","","","","","",""
"","image-keyboard-response","188","52851","0.0-188.0","3RYC5T2D74F2225U9D2NOPR6KR9PRG","A3LIRS1WMRIP9P","36U4VBVNQOZD8NFWZXWF9CIHKRIURB","","119","img/flower5.png","74","119","1","0","3","1","1,0.333,0.333,0.333,1,0.333,0.333,0.333,1","1,0.333,0.333,0.333,1,0.333,0.333,0.333,1","1",""
"","html-keyboard-response","189","53153","0.0-189.0","3RYC5T2D74F2225U9D2NOPR6KR9PRG","A3LIRS1WMRIP9P","36U4VBVNQOZD8NFWZXWF9CIHKRIURB","","null","<img src=""img/flower5.png"" style=""width:200px;border:14px solid red;"">","null","","","","","","","","",""
"","image-keyboard-response","190","53231","0.0-190.0","3RYC5T2D74F2225U9D2NOPR6KR9PRG","A3LIRS1WMRIP9P","36U4VBVNQOZD8NFWZXWF9CIHKRIURB","","78","img/flower5.png","76","78","3","1","3","1","1,0.333,0.333,0.333,1,0.333,0.333,0.333,1","1,0.333,0.333,0.333,1,0.333,0.333,0.333,1","1",""
"","html-keyboard-response","191","53531","0.0-191.0","3RYC5T2D74F2225U9D2NOPR6KR9PRG","A3LIRS1WMRIP9P","36U4VBVNQOZD8NFWZXWF9CIHKRIURB","","null","<img src=""img/flower5.png"" style=""width:200px; border:14px solid green;"">","null","","","","","","","","",""
"","image-keyboard-response","192","53651","0.0-192.0","3RYC5T2D74F2225U9D2NOPR6KR9PRG","A3LIRS1WMRIP9P","36U4VBVNQOZD8NFWZXWF9CIHKRIURB","","120","img/flower4.png","74","120","1","0","2","1","1,0.333,0.333,0.333,1,0.333,0.333,0.333,1","1,0.333,0.333,0.333,1,0.333,0.333,0.333,1","1",""
"","html-keyboard-response","193","53953","0.0-193.0","3RYC5T2D74F2225U9D2NOPR6KR9PRG","A3LIRS1WMRIP9P","36U4VBVNQOZD8NFWZXWF9CIHKRIURB","","null","<img src=""img/flower4.png"" style=""width:200px;border:14px solid red;"">","null","","","","","","","","",""
"","image-keyboard-response","194","53991","0.0-194.0","3RYC5T2D74F2225U9D2NOPR6KR9PRG","A3LIRS1WMRIP9P","36U4VBVNQOZD8NFWZXWF9CIHKRIURB","","37","img/flower5.png","76","38","3","1","3","1","1,0.333,0.333,0.333,1,0.333,0.333,0.333,1","1,0.333,0.333,0.333,1,0.333,0.333,0.333,1","1",""
"","html-keyboard-response","195","54293","0.0-195.0","3RYC5T2D74F2225U9D2NOPR6KR9PRG","A3LIRS1WMRIP9P","36U4VBVNQOZD8NFWZXWF9CIHKRIURB","","null","<img src=""img/flower5.png"" style=""width:200px; border:14px solid green;"">","null","","","","","","","","",""
"","image-keyboard-response","196","54451","0.0-196.0","3RYC5T2D74F2225U9D2NOPR6KR9PRG","A3LIRS1WMRIP9P","36U4VBVNQOZD8NFWZXWF9CIHKRIURB","","158","img/flower4.png","74","158","1","0","2","1","1,0.333,0.333,0.333,1,0.333,0.333,0.333,1","1,0.333,0.333,0.333,1,0.333,0.333,0.333,1","1",""
"","html-keyboard-response","197","54755","0.0-197.0","3RYC5T2D74F2225U9D2NOPR6KR9PRG","A3LIRS1WMRIP9P","36U4VBVNQOZD8NFWZXWF9CIHKRIURB","","null","<img src=""img/flower4.png"" style=""width:200px;border:14px solid red;"">","null","","","","","","","","",""
"","image-keyboard-response","198","54791","0.0-198.0","3RYC5T2D74F2225U9D2NOPR6KR9PRG","A3LIRS1WMRIP9P","36U4VBVNQOZD8NFWZXWF9CIHKRIURB","","31","img/flower5.png","76","35","3","1","3","1","1,0.333,0.333,0.333,1,0.333,0.333,0.333,1","1,0.333,0.333,0.333,1,0.333,0.333,0.333,1","1",""
"","html-keyboard-response","199","55091","0.0-199.0","3RYC5T2D74F2225U9D2NOPR6KR9PRG","A3LIRS1WMRIP9P","36U4VBVNQOZD8NFWZXWF9CIHKRIURB","","null","<img src=""img/flower5.png"" style=""width:200px; border:14px solid green;"">","null","","","","","","","","",""
"","image-keyboard-response","200","55251","0.0-200.0","3RYC5T2D74F2225U9D2NOPR6KR9PRG","A3LIRS1WMRIP9P","36U4VBVNQOZD8NFWZXWF9CIHKRIURB","","159","img/flower4.png","74","160","1","0","2","1","1,0.333,0.333,0.333,1,0.333,0.333,0.333,1","1,0.333,0.333,0.333,1,0.333,0.333,0.333,1","1",""
"","html-keyboard-response","201","55552","0.0-201.0","3RYC5T2D74F2225U9D2NOPR6KR9PRG","A3LIRS1WMRIP9P","36U4VBVNQOZD8NFWZXWF9CIHKRIURB","","null","<img src=""img/flower4.png"" style=""width:200px;border:14px solid red;"">","null","","","","","","","","",""
"","image-keyboard-response","202","55561","0.0-202.0","3RYC5T2D74F2225U9D2NOPR6KR9PRG","A3LIRS1WMRIP9P","36U4VBVNQOZD8NFWZXWF9CIHKRIURB","","7","img/flower2.png","76","9","3","1","1","1","1,0.333,0.333,0.333,1,0.333,0.333,0.333,1","1,0.333,0.333,0.333,1,0.333,0.333,0.333,1","1",""
"","html-keyboard-response","203","55862","0.0-203.0","3RYC5T2D74F2225U9D2NOPR6KR9PRG","A3LIRS1WMRIP9P","36U4VBVNQOZD8NFWZXWF9CIHKRIURB","","null","<img src=""img/flower2.png"" style=""width:200px; border:14px solid green;"">","null","","","","","","","","",""
"","image-keyboard-response","204","56031","0.0-204.0","3RYC5T2D74F2225U9D2NOPR6KR9PRG","A3LIRS1WMRIP9P","36U4VBVNQOZD8NFWZXWF9CIHKRIURB","","169","img/flower5.png","74","170","1","0","3","1","1,0.333,0.333,0.333,1,0.333,0.333,0.333,1","1,0.333,0.333,0.333,1,0.333,0.333,0.333,1","1",""
"","html-keyboard-response","205","56334","0.0-205.0","3RYC5T2D74F2225U9D2NOPR6KR9PRG","A3LIRS1WMRIP9P","36U4VBVNQOZD8NFWZXWF9CIHKRIURB","","null","<img src=""img/flower5.png"" style=""width:200px;border:14px solid red;"">","null","","","","","","","","",""
"","image-keyboard-response","206","56391","0.0-206.0","3RYC5T2D74F2225U9D2NOPR6KR9PRG","A3LIRS1WMRIP9P","36U4VBVNQOZD8NFWZXWF9CIHKRIURB","","57","img/flower4.png","76","57","3","0","2","1","1,0.333,0.333,0.333,1,0.333,0.333,0.333,1","1,0.333,0.333,0.333,1,0.333,0.333,0.333,1","1",""
"","html-keyboard-response","207","56692","0.0-207.0","3RYC5T2D74F2225U9D2NOPR6KR9PRG","A3LIRS1WMRIP9P","36U4VBVNQOZD8NFWZXWF9CIHKRIURB","","null","<img src=""img/flower4.png"" style=""width:200px;border:14px solid red;"">","null","","","","","","","","",""
"","image-keyboard-response","208","56771","0.0-208.0","3RYC5T2D74F2225U9D2NOPR6KR9PRG","A3LIRS1WMRIP9P","36U4VBVNQOZD8NFWZXWF9CIHKRIURB","","79","img/flower4.png","74","79","1","1","2","1","1,0.333,0.333,0.333,1,0.333,0.333,0.333,1","1,0.333,0.333,0.333,1,0.333,0.333,0.333,1","1",""
"","html-keyboard-response","209","57073","0.0-209.0","3RYC5T2D74F2225U9D2NOPR6KR9PRG","A3LIRS1WMRIP9P","36U4VBVNQOZD8NFWZXWF9CIHKRIURB","","null","<img src=""img/flower4.png"" style=""width:200px; border:14px solid green;"">","null","","","","","","","","",""
"","image-keyboard-response","210","57171","0.0-210.0","3RYC5T2D74F2225U9D2NOPR6KR9PRG","A3LIRS1WMRIP9P","36U4VBVNQOZD8NFWZXWF9CIHKRIURB","","97","img/flower2.png","75","98","2","1","1","1","1,0.333,0.333,0.333,1,0.333,0.333,0.333,1","1,0.333,0.333,0.333,1,0.333,0.333,0.333,1","1",""
"","html-keyboard-response","211","57472","0.0-211.0","3RYC5T2D74F2225U9D2NOPR6KR9PRG","A3LIRS1WMRIP9P","36U4VBVNQOZD8NFWZXWF9CIHKRIURB","","null","<img src=""img/flower2.png"" style=""width:200px; border:14px solid green;"">","null","","","","","","","","",""
"","image-keyboard-response","212","57481","0.0-212.0","3RYC5T2D74F2225U9D2NOPR6KR9PRG","A3LIRS1WMRIP9P","36U4VBVNQOZD8NFWZXWF9CIHKRIURB","","8","img/flower5.png","76","9","3","1","3","1","1,0.333,0.333,0.333,1,0.333,0.333,0.333,1","1,0.333,0.333,0.333,1,0.333,0.333,0.333,1","1",""
"","html-keyboard-response","213","57783","0.0-213.0","3RYC5T2D74F2225U9D2NOPR6KR9PRG","A3LIRS1WMRIP9P","36U4VBVNQOZD8NFWZXWF9CIHKRIURB","","null","<img src=""img/flower5.png"" style=""width:200px; border:14px solid green;"">","null","","","","","","","","",""
"","image-keyboard-response","214","57831","0.0-214.0","3RYC5T2D74F2225U9D2NOPR6KR9PRG","A3LIRS1WMRIP9P","36U4VBVNQOZD8NFWZXWF9CIHKRIURB","","48","img/flower2.png","74","48","1","1","1","1","1,0.333,0.333,0.333,1,0.333,0.333,0.333,1","1,0.333,0.333,0.333,1,0.333,0.333,0.333,1","1",""
"","html-keyboard-response","215","58132","0.0-215.0","3RYC5T2D74F2225U9D2NOPR6KR9PRG","A3LIRS1WMRIP9P","36U4VBVNQOZD8NFWZXWF9CIHKRIURB","","null","<img src=""img/flower2.png"" style=""width:200px; border:14px solid green;"">","null","","","","","","","","",""
"","image-keyboard-response","216","58236","0.0-216.0","3RYC5T2D74F2225U9D2NOPR6KR9PRG","A3LIRS1WMRIP9P","36U4VBVNQOZD8NFWZXWF9CIHKRIURB","","104","img/flower2.png","74","104","1","1","1","1","1,0.333,0.333,0.333,1,0.333,0.333,0.333,1","1,0.333,0.333,0.333,1,0.333,0.333,0.333,1","1",""
"","html-keyboard-response","217","58538","0.0-217.0","3RYC5T2D74F2225U9D2NOPR6KR9PRG","A3LIRS1WMRIP9P","36U4VBVNQOZD8NFWZXWF9CIHKRIURB","","null","<img src=""img/flower2.png"" style=""width:200px; border:14px solid green;"">","null","","","","","","","","",""
"","image-keyboard-response","218","58571","0.0-218.0","3RYC5T2D74F2225U9D2NOPR6KR9PRG","A3LIRS1WMRIP9P","36U4VBVNQOZD8NFWZXWF9CIHKRIURB","","32","img/flower5.png","76","33","3","1","3","1","1,0.333,0.333,0.333,1,0.333,0.333,0.333,1","1,0.333,0.333,0.333,1,0.333,0.333,0.333,1","1",""
"","html-keyboard-response","219","58872","0.0-219.0","3RYC5T2D74F2225U9D2NOPR6KR9PRG","A3LIRS1WMRIP9P","36U4VBVNQOZD8NFWZXWF9CIHKRIURB","","null","<img src=""img/flower5.png"" style=""width:200px; border:14px solid green;"">","null","","","","","","","","",""
"","image-keyboard-response","220","58891","0.0-220.0","3RYC5T2D74F2225U9D2NOPR6KR9PRG","A3LIRS1WMRIP9P","36U4VBVNQOZD8NFWZXWF9CIHKRIURB","","19","img/flower4.png","75","19","2","1","2","1","1,0.333,0.333,0.333,1,0.333,0.333,0.333,1","1,0.333,0.333,0.333,1,0.333,0.333,0.333,1","1",""
"","html-keyboard-response","221","59191","0.0-221.0","3RYC5T2D74F2225U9D2NOPR6KR9PRG","A3LIRS1WMRIP9P","36U4VBVNQOZD8NFWZXWF9CIHKRIURB","","null","<img src=""img/flower4.png"" style=""width:200px; border:14px solid green;"">","null","","","","","","","","",""
"","image-keyboard-response","222","59311","0.0-222.0","3RYC5T2D74F2225U9D2NOPR6KR9PRG","A3LIRS1WMRIP9P","36U4VBVNQOZD8NFWZXWF9CIHKRIURB","","120","img/flower2.png","74","120","1","1","1","1","1,0.333,0.333,0.333,1,0.333,0.333,0.333,1","1,0.333,0.333,0.333,1,0.333,0.333,0.333,1","1",""
"","html-keyboard-response","223","59612","0.0-223.0","3RYC5T2D74F2225U9D2NOPR6KR9PRG","A3LIRS1WMRIP9P","36U4VBVNQOZD8NFWZXWF9CIHKRIURB","","null","<img src=""img/flower2.png"" style=""width:200px; border:14px solid green;"">","null","","","","","","","","",""
"","image-keyboard-response","224","59752","0.0-224.0","3RYC5T2D74F2225U9D2NOPR6KR9PRG","A3LIRS1WMRIP9P","36U4VBVNQOZD8NFWZXWF9CIHKRIURB","","139","img/flower2.png","74","140","1","1","1","1","1,0.333,0.333,0.333,1,0.333,0.333,0.333,1","1,0.333,0.333,0.333,1,0.333,0.333,0.333,1","1",""
"","html-keyboard-response","225","60052","0.0-225.0","3RYC5T2D74F2225U9D2NOPR6KR9PRG","A3LIRS1WMRIP9P","36U4VBVNQOZD8NFWZXWF9CIHKRIURB","","null","<img src=""img/flower2.png"" style=""width:200px; border:14px solid green;"">","null","","","","","","","","",""
"","image-keyboard-response","226","60071","0.0-226.0","3RYC5T2D74F2225U9D2NOPR6KR9PRG","A3LIRS1WMRIP9P","36U4VBVNQOZD8NFWZXWF9CIHKRIURB","","18","img/flower2.png","76","19","3","0","1","1","1,0.333,0.333,0.333,1,0.333,0.333,0.333,1","1,0.333,0.333,0.333,1,0.333,0.333,0.333,1","1",""
"","html-keyboard-response","227","60371","0.0-227.0","3RYC5T2D74F2225U9D2NOPR6KR9PRG","A3LIRS1WMRIP9P","36U4VBVNQOZD8NFWZXWF9CIHKRIURB","","null","<img src=""img/flower2.png"" style=""width:200px;border:14px solid red;"">","null","","","","","","","","",""
"","image-keyboard-response","228","60411","0.0-228.0","3RYC5T2D74F2225U9D2NOPR6KR9PRG","A3LIRS1WMRIP9P","36U4VBVNQOZD8NFWZXWF9CIHKRIURB","","40","img/flower2.png","74","41","1","1","1","1","1,0.333,0.333,0.333,1,0.333,0.333,0.333,1","1,0.333,0.333,0.333,1,0.333,0.333,0.333,1","1",""
"","html-keyboard-response","229","60713","0.0-229.0","3RYC5T2D74F2225U9D2NOPR6KR9PRG","A3LIRS1WMRIP9P","36U4VBVNQOZD8NFWZXWF9CIHKRIURB","","null","<img src=""img/flower2.png"" style=""width:200px; border:14px solid green;"">","null","","","","","","","","",""
"","image-keyboard-response","230","60737","0.0-230.0","3RYC5T2D74F2225U9D2NOPR6KR9PRG","A3LIRS1WMRIP9P","36U4VBVNQOZD8NFWZXWF9CIHKRIURB","","24","img/flower4.png","75","24","2","1","2","1","1,0.333,0.333,0.333,1,0.333,0.333,0.333,1","1,0.333,0.333,0.333,1,0.333,0.333,0.333,1","1",""
"","html-keyboard-response","231","61038","0.0-231.0","3RYC5T2D74F2225U9D2NOPR6KR9PRG","A3LIRS1WMRIP9P","36U4VBVNQOZD8NFWZXWF9CIHKRIURB","","null","<img src=""img/flower4.png"" style=""width:200px; border:14px solid green;"">","null","","","","","","","","",""
"","image-keyboard-response","232","61151","0.0-232.0","3RYC5T2D74F2225U9D2NOPR6KR9PRG","A3LIRS1WMRIP9P","36U4VBVNQOZD8NFWZXWF9CIHKRIURB","","112","img/flower5.png","74","113","1","0","3","1","1,0.333,0.333,0.333,1,0.333,0.333,0.333,1","1,0.333,0.333,0.333,1,0.333,0.333,0.333,1","1",""
"","html-keyboard-response","233","61453","0.0-233.0","3RYC5T2D74F2225U9D2NOPR6KR9PRG","A3LIRS1WMRIP9P","36U4VBVNQOZD8NFWZXWF9CIHKRIURB","","null","<img src=""img/flower5.png"" style=""width:200px;border:14px solid red;"">","null","","","","","","","","",""
"","image-keyboard-response","234","61472","0.0-234.0","3RYC5T2D74F2225U9D2NOPR6KR9PRG","A3LIRS1WMRIP9P","36U4VBVNQOZD8NFWZXWF9CIHKRIURB","","19","img/flower2.png","76","19","3","1","1","1","1,0.333,0.333,0.333,1,0.333,0.333,0.333,1","1,0.333,0.333,0.333,1,0.333,0.333,0.333,1","1",""
"","html-keyboard-response","235","61774","0.0-235.0","3RYC5T2D74F2225U9D2NOPR6KR9PRG","A3LIRS1WMRIP9P","36U4VBVNQOZD8NFWZXWF9CIHKRIURB","","null","<img src=""img/flower2.png"" style=""width:200px; border:14px solid green;"">","null","","","","","","","","",""
"","image-keyboard-response","236","61831","0.0-236.0","3RYC5T2D74F2225U9D2NOPR6KR9PRG","A3LIRS1WMRIP9P","36U4VBVNQOZD8NFWZXWF9CIHKRIURB","","57","img/flower5.png","74","57","1","0","3","1","1,0.333,0.333,0.333,1,0.333,0.333,0.333,1","1,0.333,0.333,0.333,1,0.333,0.333,0.333,1","1",""
"","html-keyboard-response","237","62132","0.0-237.0","3RYC5T2D74F2225U9D2NOPR6KR9PRG","A3LIRS1WMRIP9P","36U4VBVNQOZD8NFWZXWF9CIHKRIURB","","null","<img src=""img/flower5.png"" style=""width:200px;border:14px solid red;"">","null","","","","","","","","",""
"","image-keyboard-response","238","62271","0.0-238.0","3RYC5T2D74F2225U9D2NOPR6KR9PRG","A3LIRS1WMRIP9P","36U4VBVNQOZD8NFWZXWF9CIHKRIURB","","138","img/flower4.png","76","139","3","0","2","1","1,0.333,0.333,0.333,1,0.333,0.333,0.333,1","1,0.333,0.333,0.333,1,0.333,0.333,0.333,1","1",""
"","html-keyboard-response","239","62573","0.0-239.0","3RYC5T2D74F2225U9D2NOPR6KR9PRG","A3LIRS1WMRIP9P","36U4VBVNQOZD8NFWZXWF9CIHKRIURB","","null","<img src=""img/flower4.png"" style=""width:200px;border:14px solid red;"">","null","","","","","","","","",""
"","image-keyboard-response","240","62711","0.0-240.0","3RYC5T2D74F2225U9D2NOPR6KR9PRG","A3LIRS1WMRIP9P","36U4VBVNQOZD8NFWZXWF9CIHKRIURB","","138","img/flower2.png","74","138","1","1","1","1","1,0.333,0.333,0.333,1,0.333,0.333,0.333,1","1,0.333,0.333,0.333,1,0.333,0.333,0.333,1","1",""
"","html-keyboard-response","241","63012","0.0-241.0","3RYC5T2D74F2225U9D2NOPR6KR9PRG","A3LIRS1WMRIP9P","36U4VBVNQOZD8NFWZXWF9CIHKRIURB","","null","<img src=""img/flower2.png"" style=""width:200px; border:14px solid green;"">","null","","","","","","","","",""
"","image-keyboard-response","242","63172","0.0-242.0","3RYC5T2D74F2225U9D2NOPR6KR9PRG","A3LIRS1WMRIP9P","36U4VBVNQOZD8NFWZXWF9CIHKRIURB","","159","img/flower2.png","75","160","2","1","1","1","1,0.333,0.333,0.333,1,0.333,0.333,0.333,1","1,0.333,0.333,0.333,1,0.333,0.333,0.333,1","1",""
"","html-keyboard-response","243","63474","0.0-243.0","3RYC5T2D74F2225U9D2NOPR6KR9PRG","A3LIRS1WMRIP9P","36U4VBVNQOZD8NFWZXWF9CIHKRIURB","","null","<img src=""img/flower2.png"" style=""width:200px; border:14px solid green;"">","null","","","","","","","","",""
"","image-keyboard-response","244","63591","0.0-244.0","3RYC5T2D74F2225U9D2NOPR6KR9PRG","A3LIRS1WMRIP9P","36U4VBVNQOZD8NFWZXWF9CIHKRIURB","","117","img/flower5.png","75","117","2","1","3","1","1,0.333,0.333,0.333,1,0.333,0.333,0.333,1","1,0.333,0.333,0.333,1,0.333,0.333,0.333,1","1",""
"","html-keyboard-response","245","63965","0.0-245.0","3RYC5T2D74F2225U9D2NOPR6KR9PRG","A3LIRS1WMRIP9P","36U4VBVNQOZD8NFWZXWF9CIHKRIURB","","null","<img src=""img/flower5.png"" style=""width:200px; border:14px solid green;"">","null","","","","","","","","",""
"","image-keyboard-response","246","64133","0.0-246.0","3RYC5T2D74F2225U9D2NOPR6KR9PRG","A3LIRS1WMRIP9P","36U4VBVNQOZD8NFWZXWF9CIHKRIURB","","167","img/flower4.png","75","168","2","1","2","1","1,0.333,0.333,0.333,1,0.333,0.333,0.333,1","1,0.333,0.333,0.333,1,0.333,0.333,0.333,1","1",""
"","html-keyboard-response","247","64434","0.0-247.0","3RYC5T2D74F2225U9D2NOPR6KR9PRG","A3LIRS1WMRIP9P","36U4VBVNQOZD8NFWZXWF9CIHKRIURB","","null","<img src=""img/flower4.png"" style=""width:200px; border:14px solid green;"">","null","","","","","","","","",""
"","image-keyboard-response","248","64571","0.0-248.0","3RYC5T2D74F2225U9D2NOPR6KR9PRG","A3LIRS1WMRIP9P","36U4VBVNQOZD8NFWZXWF9CIHKRIURB","","136","img/flower2.png","75","137","2","0","1","1","1,0.333,0.333,0.333,1,0.333,0.333,0.333,1","1,0.333,0.333,0.333,1,0.333,0.333,0.333,1","1",""
"","html-keyboard-response","249","64882","0.0-249.0","3RYC5T2D74F2225U9D2NOPR6KR9PRG","A3LIRS1WMRIP9P","36U4VBVNQOZD8NFWZXWF9CIHKRIURB","","null","<img src=""img/flower2.png"" style=""width:200px;border:14px solid red;"">","null","","","","","","","","",""
"","image-keyboard-response","250","65061","0.0-250.0","3RYC5T2D74F2225U9D2NOPR6KR9PRG","A3LIRS1WMRIP9P","36U4VBVNQOZD8NFWZXWF9CIHKRIURB","","178","img/flower2.png","75","179","2","0","1","1","1,0.333,0.333,0.333,1,0.333,0.333,0.333,1","1,0.333,0.333,0.333,1,0.333,0.333,0.333,1","1",""
"","html-keyboard-response","251","65363","0.0-251.0","3RYC5T2D74F2225U9D2NOPR6KR9PRG","A3LIRS1WMRIP9P","36U4VBVNQOZD8NFWZXWF9CIHKRIURB","","null","<img src=""img/flower2.png"" style=""width:200px;border:14px solid red;"">","null","","","","","","","","",""
"","image-keyboard-response","252","65611","0.0-252.0","3RYC5T2D74F2225U9D2NOPR6KR9PRG","A3LIRS1WMRIP9P","36U4VBVNQOZD8NFWZXWF9CIHKRIURB","","248","img/flower2.png","75","248","2","1","1","1","1,0.333,0.333,0.333,1,0.333,0.333,0.333,1","1,0.333,0.333,0.333,1,0.333,0.333,0.333,1","1",""
"","html-keyboard-response","253","65912","0.0-253.0","3RYC5T2D74F2225U9D2NOPR6KR9PRG","A3LIRS1WMRIP9P","36U4VBVNQOZD8NFWZXWF9CIHKRIURB","","null","<img src=""img/flower2.png"" style=""width:200px; border:14px solid green;"">","null","","","","","","","","",""
"","image-keyboard-response","254","66041","0.0-254.0","3RYC5T2D74F2225U9D2NOPR6KR9PRG","A3LIRS1WMRIP9P","36U4VBVNQOZD8NFWZXWF9CIHKRIURB","","128","img/flower4.png","75","129","2","1","2","1","1,0.333,0.333,0.333,1,0.333,0.333,0.333,1","1,0.333,0.333,0.333,1,0.333,0.333,0.333,1","1",""
"","html-keyboard-response","255","66343","0.0-255.0","3RYC5T2D74F2225U9D2NOPR6KR9PRG","A3LIRS1WMRIP9P","36U4VBVNQOZD8NFWZXWF9CIHKRIURB","","null","<img src=""img/flower4.png"" style=""width:200px; border:14px solid green;"">","null","","","","","","","","",""
"","image-keyboard-response","256","66371","0.0-256.0","3RYC5T2D74F2225U9D2NOPR6KR9PRG","A3LIRS1WMRIP9P","36U4VBVNQOZD8NFWZXWF9CIHKRIURB","","28","img/flower2.png","76","28","3","1","1","1","1,0.333,0.333,0.333,1,0.333,0.333,0.333,1","1,0.333,0.333,0.333,1,0.333,0.333,0.333,1","1",""
"","html-keyboard-response","257","66672","0.0-257.0","3RYC5T2D74F2225U9D2NOPR6KR9PRG","A3LIRS1WMRIP9P","36U4VBVNQOZD8NFWZXWF9CIHKRIURB","","null","<img src=""img/flower2.png"" style=""width:200px; border:14px solid green;"">","null","","","","","","","","",""
"","image-keyboard-response","258","66833","0.0-258.0","3RYC5T2D74F2225U9D2NOPR6KR9PRG","A3LIRS1WMRIP9P","36U4VBVNQOZD8NFWZXWF9CIHKRIURB","","161","img/flower2.png","75","161","2","0","1","1","1,0.333,0.333,0.333,1,0.333,0.333,0.333,1","1,0.333,0.333,0.333,1,0.333,0.333,0.333,1","1",""
"","html-keyboard-response","259","67135","0.0-259.0","3RYC5T2D74F2225U9D2NOPR6KR9PRG","A3LIRS1WMRIP9P","36U4VBVNQOZD8NFWZXWF9CIHKRIURB","","null","<img src=""img/flower2.png"" style=""width:200px;border:14px solid red;"">","null","","","","","","","","",""
"","image-keyboard-response","260","67291","0.0-260.0","3RYC5T2D74F2225U9D2NOPR6KR9PRG","A3LIRS1WMRIP9P","36U4VBVNQOZD8NFWZXWF9CIHKRIURB","","154","img/flower4.png","75","155","2","1","2","1","1,0.333,0.333,0.333,1,0.333,0.333,0.333,1","1,0.333,0.333,0.333,1,0.333,0.333,0.333,1","1",""
"","html-keyboard-response","261","67593","0.0-261.0","3RYC5T2D74F2225U9D2NOPR6KR9PRG","A3LIRS1WMRIP9P","36U4VBVNQOZD8NFWZXWF9CIHKRIURB","","null","<img src=""img/flower4.png"" style=""width:200px; border:14px solid green;"">","null","","","","","","","","",""
"","image-keyboard-response","262","67771","0.0-262.0","3RYC5T2D74F2225U9D2NOPR6KR9PRG","A3LIRS1WMRIP9P","36U4VBVNQOZD8NFWZXWF9CIHKRIURB","","178","img/flower2.png","75","178","2","1","1","1","1,0.333,0.333,0.333,1,0.333,0.333,0.333,1","1,0.333,0.333,0.333,1,0.333,0.333,0.333,1","1",""
"","html-keyboard-response","263","68072","0.0-263.0","3RYC5T2D74F2225U9D2NOPR6KR9PRG","A3LIRS1WMRIP9P","36U4VBVNQOZD8NFWZXWF9CIHKRIURB","","null","<img src=""img/flower2.png"" style=""width:200px; border:14px solid green;"">","null","","","","","","","","",""
"","image-keyboard-response","264","68221","0.0-264.0","3RYC5T2D74F2225U9D2NOPR6KR9PRG","A3LIRS1WMRIP9P","36U4VBVNQOZD8NFWZXWF9CIHKRIURB","","149","img/flower5.png","74","149","1","0","3","1","1,0.333,0.333,0.333,1,0.333,0.333,0.333,1","1,0.333,0.333,0.333,1,0.333,0.333,0.333,1","1",""
"","html-keyboard-response","265","68523","0.0-265.0","3RYC5T2D74F2225U9D2NOPR6KR9PRG","A3LIRS1WMRIP9P","36U4VBVNQOZD8NFWZXWF9CIHKRIURB","","null","<img src=""img/flower5.png"" style=""width:200px;border:14px solid red;"">","null","","","","","","","","",""
"","image-keyboard-response","266","68531","0.0-266.0","3RYC5T2D74F2225U9D2NOPR6KR9PRG","A3LIRS1WMRIP9P","36U4VBVNQOZD8NFWZXWF9CIHKRIURB","","8","img/flower4.png","76","8","3","1","2","1","1,0.333,0.333,0.333,1,0.333,0.333,0.333,1","1,0.333,0.333,0.333,1,0.333,0.333,0.333,1","1",""
"","html-keyboard-response","267","68832","0.0-267.0","3RYC5T2D74F2225U9D2NOPR6KR9PRG","A3LIRS1WMRIP9P","36U4VBVNQOZD8NFWZXWF9CIHKRIURB","","null","<img src=""img/flower4.png"" style=""width:200px; border:14px solid green;"">","null","","","","","","","","",""
"","image-keyboard-response","268","68901","0.0-268.0","3RYC5T2D74F2225U9D2NOPR6KR9PRG","A3LIRS1WMRIP9P","36U4VBVNQOZD8NFWZXWF9CIHKRIURB","","69","img/flower4.png","74","69","1","0","2","1","1,0.333,0.333,0.333,1,0.333,0.333,0.333,1","1,0.333,0.333,0.333,1,0.333,0.333,0.333,1","1",""
"","html-keyboard-response","269","69203","0.0-269.0","3RYC5T2D74F2225U9D2NOPR6KR9PRG","A3LIRS1WMRIP9P","36U4VBVNQOZD8NFWZXWF9CIHKRIURB","","null","<img src=""img/flower4.png"" style=""width:200px;border:14px solid red;"">","null","","","","","","","","",""
"","image-keyboard-response","270","69252","0.0-270.0","3RYC5T2D74F2225U9D2NOPR6KR9PRG","A3LIRS1WMRIP9P","36U4VBVNQOZD8NFWZXWF9CIHKRIURB","","48","img/flower5.png","76","49","3","1","3","1","1,0.333,0.333,0.333,1,0.333,0.333,0.333,1","1,0.333,0.333,0.333,1,0.333,0.333,0.333,1","1",""
"","html-keyboard-response","271","69553","0.0-271.0","3RYC5T2D74F2225U9D2NOPR6KR9PRG","A3LIRS1WMRIP9P","36U4VBVNQOZD8NFWZXWF9CIHKRIURB","","null","<img src=""img/flower5.png"" style=""width:200px; border:14px solid green;"">","null","","","","","","","","",""
"","image-keyboard-response","272","69691","0.0-272.0","3RYC5T2D74F2225U9D2NOPR6KR9PRG","A3LIRS1WMRIP9P","36U4VBVNQOZD8NFWZXWF9CIHKRIURB","","137","img/flower4.png","75","138","2","1","2","1","1,0.333,0.333,0.333,1,0.333,0.333,0.333,1","1,0.333,0.333,0.333,1,0.333,0.333,0.333,1","1",""
"","html-keyboard-response","273","70014","0.0-273.0","3RYC5T2D74F2225U9D2NOPR6KR9PRG","A3LIRS1WMRIP9P","36U4VBVNQOZD8NFWZXWF9CIHKRIURB","","null","<img src=""img/flower4.png"" style=""width:200px; border:14px solid green;"">","null","","","","","","","","",""
"","image-keyboard-response","274","70131","0.0-274.0","3RYC5T2D74F2225U9D2NOPR6KR9PRG","A3LIRS1WMRIP9P","36U4VBVNQOZD8NFWZXWF9CIHKRIURB","","114","img/flower4.png","74","116","1","0","2","1","1,0.333,0.333,0.333,1,0.333,0.333,0.333,1","1,0.333,0.333,0.333,1,0.333,0.333,0.333,1","1",""
"","html-keyboard-response","275","70433","0.0-275.0","3RYC5T2D74F2225U9D2NOPR6KR9PRG","A3LIRS1WMRIP9P","36U4VBVNQOZD8NFWZXWF9CIHKRIURB","","null","<img src=""img/flower4.png"" style=""width:200px;border:14px solid red;"">","null","","","","","","","","",""
"","image-keyboard-response","276","70631","0.0-276.0","3RYC5T2D74F2225U9D2NOPR6KR9PRG","A3LIRS1WMRIP9P","36U4VBVNQOZD8NFWZXWF9CIHKRIURB","","198","img/flower4.png","74","198","1","0","2","1","1,0.333,0.333,0.333,1,0.333,0.333,0.333,1","1,0.333,0.333,0.333,1,0.333,0.333,0.333,1","1",""
"","html-keyboard-response","277","70932","0.0-277.0","3RYC5T2D74F2225U9D2NOPR6KR9PRG","A3LIRS1WMRIP9P","36U4VBVNQOZD8NFWZXWF9CIHKRIURB","","null","<img src=""img/flower4.png"" style=""width:200px;border:14px solid red;"">","null","","","","","","","","",""
"","image-keyboard-response","278","71081","0.0-278.0","3RYC5T2D74F2225U9D2NOPR6KR9PRG","A3LIRS1WMRIP9P","36U4VBVNQOZD8NFWZXWF9CIHKRIURB","","148","img/flower4.png","75","149","2","1","2","1","1,0.333,0.333,0.333,1,0.333,0.333,0.333,1","1,0.333,0.333,0.333,1,0.333,0.333,0.333,1","1",""
"","html-keyboard-response","279","71382","0.0-279.0","3RYC5T2D74F2225U9D2NOPR6KR9PRG","A3LIRS1WMRIP9P","36U4VBVNQOZD8NFWZXWF9CIHKRIURB","","null","<img src=""img/flower4.png"" style=""width:200px; border:14px solid green;"">","null","","","","","","","","",""
"","image-keyboard-response","280","71411","0.0-280.0","3RYC5T2D74F2225U9D2NOPR6KR9PRG","A3LIRS1WMRIP9P","36U4VBVNQOZD8NFWZXWF9CIHKRIURB","","29","img/flower4.png","76","29","3","0","2","1","1,0.333,0.333,0.333,1,0.333,0.333,0.333,1","1,0.333,0.333,0.333,1,0.333,0.333,0.333,1","1",""
"","html-keyboard-response","281","71712","0.0-281.0","3RYC5T2D74F2225U9D2NOPR6KR9PRG","A3LIRS1WMRIP9P","36U4VBVNQOZD8NFWZXWF9CIHKRIURB","","null","<img src=""img/flower4.png"" style=""width:200px;border:14px solid red;"">","null","","","","","","","","",""
"","image-keyboard-response","282","71811","0.0-282.0","3RYC5T2D74F2225U9D2NOPR6KR9PRG","A3LIRS1WMRIP9P","36U4VBVNQOZD8NFWZXWF9CIHKRIURB","","99","img/flower5.png","74","100","1","1","3","1","1,0.333,0.333,0.333,1,0.333,0.333,0.333,1","1,0.333,0.333,0.333,1,0.333,0.333,0.333,1","1",""
"","html-keyboard-response","283","72112","0.0-283.0","3RYC5T2D74F2225U9D2NOPR6KR9PRG","A3LIRS1WMRIP9P","36U4VBVNQOZD8NFWZXWF9CIHKRIURB","","null","<img src=""img/flower5.png"" style=""width:200px; border:14px solid green;"">","null","","","","","","","","",""
"","image-keyboard-response","284","72252","0.0-284.0","3RYC5T2D74F2225U9D2NOPR6KR9PRG","A3LIRS1WMRIP9P","36U4VBVNQOZD8NFWZXWF9CIHKRIURB","","139","img/flower4.png","74","140","1","0","2","1","1,0.333,0.333,0.333,1,0.333,0.333,0.333,1","1,0.333,0.333,0.333,1,0.333,0.333,0.333,1","1",""
"","html-keyboard-response","285","72553","0.0-285.0","3RYC5T2D74F2225U9D2NOPR6KR9PRG","A3LIRS1WMRIP9P","36U4VBVNQOZD8NFWZXWF9CIHKRIURB","","null","<img src=""img/flower4.png"" style=""width:200px;border:14px solid red;"">","null","","","","","","","","",""
"","image-keyboard-response","286","72694","0.0-286.0","3RYC5T2D74F2225U9D2NOPR6KR9PRG","A3LIRS1WMRIP9P","36U4VBVNQOZD8NFWZXWF9CIHKRIURB","","140","img/flower5.png","74","141","1","0","3","1","1,0.333,0.333,0.333,1,0.333,0.333,0.333,1","1,0.333,0.333,0.333,1,0.333,0.333,0.333,1","1",""
"","html-keyboard-response","287","72996","0.0-287.0","3RYC5T2D74F2225U9D2NOPR6KR9PRG","A3LIRS1WMRIP9P","36U4VBVNQOZD8NFWZXWF9CIHKRIURB","","null","<img src=""img/flower5.png"" style=""width:200px;border:14px solid red;"">","null","","","","","","","","",""
"","image-keyboard-response","288","73140","0.0-288.0","3RYC5T2D74F2225U9D2NOPR6KR9PRG","A3LIRS1WMRIP9P","36U4VBVNQOZD8NFWZXWF9CIHKRIURB","","143","img/flower5.png","74","144","1","0","3","1","1,0.333,0.333,0.333,1,0.333,0.333,0.333,1","1,0.333,0.333,0.333,1,0.333,0.333,0.333,1","1",""
"","html-keyboard-response","289","73441","0.0-289.0","3RYC5T2D74F2225U9D2NOPR6KR9PRG","A3LIRS1WMRIP9P","36U4VBVNQOZD8NFWZXWF9CIHKRIURB","","null","<img src=""img/flower5.png"" style=""width:200px;border:14px solid red;"">","null","","","","","","","","",""
"","image-keyboard-response","290","73471","0.0-290.0","3RYC5T2D74F2225U9D2NOPR6KR9PRG","A3LIRS1WMRIP9P","36U4VBVNQOZD8NFWZXWF9CIHKRIURB","","29","img/flower2.png","76","30","3","1","1","1","1,0.333,0.333,0.333,1,0.333,0.333,0.333,1","1,0.333,0.333,0.333,1,0.333,0.333,0.333,1","1",""
"","html-keyboard-response","291","73772","0.0-291.0","3RYC5T2D74F2225U9D2NOPR6KR9PRG","A3LIRS1WMRIP9P","36U4VBVNQOZD8NFWZXWF9CIHKRIURB","","null","<img src=""img/flower2.png"" style=""width:200px; border:14px solid green;"">","null","","","","","","","","",""
"","image-keyboard-response","292","73851","0.0-292.0","3RYC5T2D74F2225U9D2NOPR6KR9PRG","A3LIRS1WMRIP9P","36U4VBVNQOZD8NFWZXWF9CIHKRIURB","","78","img/flower4.png","74","79","1","0","2","1","1,0.333,0.333,0.333,1,0.333,0.333,0.333,1","1,0.333,0.333,0.333,1,0.333,0.333,0.333,1","1",""
"","html-keyboard-response","293","74152","0.0-293.0","3RYC5T2D74F2225U9D2NOPR6KR9PRG","A3LIRS1WMRIP9P","36U4VBVNQOZD8NFWZXWF9CIHKRIURB","","null","<img src=""img/flower4.png"" style=""width:200px;border:14px solid red;"">","null","","","","","","","","",""
"","image-keyboard-response","294","74210","0.0-294.0","3RYC5T2D74F2225U9D2NOPR6KR9PRG","A3LIRS1WMRIP9P","36U4VBVNQOZD8NFWZXWF9CIHKRIURB","","57","img/flower5.png","76","59","3","1","3","1","1,0.333,0.333,0.333,1,0.333,0.333,0.333,1","1,0.333,0.333,0.333,1,0.333,0.333,0.333,1","1",""
"","html-keyboard-response","295","74511","0.0-295.0","3RYC5T2D74F2225U9D2NOPR6KR9PRG","A3LIRS1WMRIP9P","36U4VBVNQOZD8NFWZXWF9CIHKRIURB","","null","<img src=""img/flower5.png"" style=""width:200px; border:14px solid green;"">","null","","","","","","","","",""
"","image-keyboard-response","296","74653","0.0-296.0","3RYC5T2D74F2225U9D2NOPR6KR9PRG","A3LIRS1WMRIP9P","36U4VBVNQOZD8NFWZXWF9CIHKRIURB","","141","img/flower4.png","74","142","1","1","2","1","1,0.333,0.333,0.333,1,0.333,0.333,0.333,1","1,0.333,0.333,0.333,1,0.333,0.333,0.333,1","1",""
"","html-keyboard-response","297","74954","0.0-297.0","3RYC5T2D74F2225U9D2NOPR6KR9PRG","A3LIRS1WMRIP9P","36U4VBVNQOZD8NFWZXWF9CIHKRIURB","","null","<img src=""img/flower4.png"" style=""width:200px; border:14px solid green;"">","null","","","","","","","","",""
"","image-keyboard-response","298","75032","0.0-298.0","3RYC5T2D74F2225U9D2NOPR6KR9PRG","A3LIRS1WMRIP9P","36U4VBVNQOZD8NFWZXWF9CIHKRIURB","","77","img/flower5.png","75","79","2","0","3","1","1,0.333,0.333,0.333,1,0.333,0.333,0.333,1","1,0.333,0.333,0.333,1,0.333,0.333,0.333,1","1",""
"","html-keyboard-response","299","75334","0.0-299.0","3RYC5T2D74F2225U9D2NOPR6KR9PRG","A3LIRS1WMRIP9P","36U4VBVNQOZD8NFWZXWF9CIHKRIURB","","null","<img src=""img/flower5.png"" style=""width:200px;border:14px solid red;"">","null","","","","","","","","",""
"","image-keyboard-response","300","75355","0.0-300.0","3RYC5T2D74F2225U9D2NOPR6KR9PRG","A3LIRS1WMRIP9P","36U4VBVNQOZD8NFWZXWF9CIHKRIURB","","20","img/flower5.png","76","22","3","1","3","1","1,0.333,0.333,0.333,1,0.333,0.333,0.333,1","1,0.333,0.333,0.333,1,0.333,0.333,0.333,1","1",""
"","html-keyboard-response","301","75657","0.0-301.0","3RYC5T2D74F2225U9D2NOPR6KR9PRG","A3LIRS1WMRIP9P","36U4VBVNQOZD8NFWZXWF9CIHKRIURB","","null","<img src=""img/flower5.png"" style=""width:200px; border:14px solid green;"">","null","","","","","","","","",""
"","image-keyboard-response","302","75771","0.0-302.0","3RYC5T2D74F2225U9D2NOPR6KR9PRG","A3LIRS1WMRIP9P","36U4VBVNQOZD8NFWZXWF9CIHKRIURB","","114","img/flower2.png","74","114","1","1","1","1","1,0.333,0.333,0.333,1,0.333,0.333,0.333,1","1,0.333,0.333,0.333,1,0.333,0.333,0.333,1","1",""
"","html-keyboard-response","303","76137","0.0-303.0","3RYC5T2D74F2225U9D2NOPR6KR9PRG","A3LIRS1WMRIP9P","36U4VBVNQOZD8NFWZXWF9CIHKRIURB","","null","<img src=""img/flower2.png"" style=""width:200px; border:14px solid green;"">","null","","","","","","","","",""
"","image-keyboard-response","304","76151","0.0-304.0","3RYC5T2D74F2225U9D2NOPR6KR9PRG","A3LIRS1WMRIP9P","36U4VBVNQOZD8NFWZXWF9CIHKRIURB","","12","img/flower4.png","75","13","2","1","2","1","1,0.333,0.333,0.333,1,0.333,0.333,0.333,1","1,0.333,0.333,0.333,1,0.333,0.333,0.333,1","1",""
"","html-keyboard-response","305","76452","0.0-305.0","3RYC5T2D74F2225U9D2NOPR6KR9PRG","A3LIRS1WMRIP9P","36U4VBVNQOZD8NFWZXWF9CIHKRIURB","","null","<img src=""img/flower4.png"" style=""width:200px; border:14px solid green;"">","null","","","","","","","","",""
"","image-keyboard-response","306","76571","0.0-306.0","3RYC5T2D74F2225U9D2NOPR6KR9PRG","A3LIRS1WMRIP9P","36U4VBVNQOZD8NFWZXWF9CIHKRIURB","","118","img/flower5.png","74","119","1","0","3","1","1,0.333,0.333,0.333,1,0.333,0.333,0.333,1","1,0.333,0.333,0.333,1,0.333,0.333,0.333,1","1",""
"","html-keyboard-response","307","76878","0.0-307.0","3RYC5T2D74F2225U9D2NOPR6KR9PRG","A3LIRS1WMRIP9P","36U4VBVNQOZD8NFWZXWF9CIHKRIURB","","null","<img src=""img/flower5.png"" style=""width:200px;border:14px solid red;"">","null","","","","","","","","",""
"","image-keyboard-response","308","76891","0.0-308.0","3RYC5T2D74F2225U9D2NOPR6KR9PRG","A3LIRS1WMRIP9P","36U4VBVNQOZD8NFWZXWF9CIHKRIURB","","12","img/flower4.png","76","12","3","0","2","1","1,0.333,0.333,0.333,1,0.333,0.333,0.333,1","1,0.333,0.333,0.333,1,0.333,0.333,0.333,1","1",""
"","html-keyboard-response","309","77191","0.0-309.0","3RYC5T2D74F2225U9D2NOPR6KR9PRG","A3LIRS1WMRIP9P","36U4VBVNQOZD8NFWZXWF9CIHKRIURB","","null","<img src=""img/flower4.png"" style=""width:200px;border:14px solid red;"">","null","","","","","","","","",""
"","image-keyboard-response","310","77392","0.0-310.0","3RYC5T2D74F2225U9D2NOPR6KR9PRG","A3LIRS1WMRIP9P","36U4VBVNQOZD8NFWZXWF9CIHKRIURB","","199","img/flower2.png","74","201","1","1","1","1","1,0.333,0.333,0.333,1,0.333,0.333,0.333,1","1,0.333,0.333,0.333,1,0.333,0.333,0.333,1","1",""
"","html-keyboard-response","311","77692","0.0-311.0","3RYC5T2D74F2225U9D2NOPR6KR9PRG","A3LIRS1WMRIP9P","36U4VBVNQOZD8NFWZXWF9CIHKRIURB","","null","<img src=""img/flower2.png"" style=""width:200px; border:14px solid green;"">","null","","","","","","","","",""
"","image-keyboard-response","312","77711","0.0-312.0","3RYC5T2D74F2225U9D2NOPR6KR9PRG","A3LIRS1WMRIP9P","36U4VBVNQOZD8NFWZXWF9CIHKRIURB","","18","img/flower2.png","76","19","3","1","1","1","1,0.333,0.333,0.333,1,0.333,0.333,0.333,1","1,0.333,0.333,0.333,1,0.333,0.333,0.333,1","1",""
"","html-keyboard-response","313","78012","0.0-313.0","3RYC5T2D74F2225U9D2NOPR6KR9PRG","A3LIRS1WMRIP9P","36U4VBVNQOZD8NFWZXWF9CIHKRIURB","","null","<img src=""img/flower2.png"" style=""width:200px; border:14px solid green;"">","null","","","","","","","","",""
"","image-keyboard-response","314","78193","0.0-314.0","3RYC5T2D74F2225U9D2NOPR6KR9PRG","A3LIRS1WMRIP9P","36U4VBVNQOZD8NFWZXWF9CIHKRIURB","","180","img/flower2.png","74","181","1","1","1","1","1,0.333,0.333,0.333,1,0.333,0.333,0.333,1","1,0.333,0.333,0.333,1,0.333,0.333,0.333,1","1",""
"","html-keyboard-response","315","78493","0.0-315.0","3RYC5T2D74F2225U9D2NOPR6KR9PRG","A3LIRS1WMRIP9P","36U4VBVNQOZD8NFWZXWF9CIHKRIURB","","null","<img src=""img/flower2.png"" style=""width:200px; border:14px solid green;"">","null","","","","","","","","",""
"","image-keyboard-response","316","78510","0.0-316.0","3RYC5T2D74F2225U9D2NOPR6KR9PRG","A3LIRS1WMRIP9P","36U4VBVNQOZD8NFWZXWF9CIHKRIURB","","16","img/flower2.png","76","18","3","1","1","1","1,0.333,0.333,0.333,1,0.333,0.333,0.333,1","1,0.333,0.333,0.333,1,0.333,0.333,0.333,1","1",""
"","html-keyboard-response","317","78812","0.0-317.0","3RYC5T2D74F2225U9D2NOPR6KR9PRG","A3LIRS1WMRIP9P","36U4VBVNQOZD8NFWZXWF9CIHKRIURB","","null","<img src=""img/flower2.png"" style=""width:200px; border:14px solid green;"">","null","","","","","","","","",""
"","image-keyboard-response","318","78931","0.0-318.0","3RYC5T2D74F2225U9D2NOPR6KR9PRG","A3LIRS1WMRIP9P","36U4VBVNQOZD8NFWZXWF9CIHKRIURB","","118","img/flower5.png","75","119","2","1","3","1","1,0.333,0.333,0.333,1,0.333,0.333,0.333,1","1,0.333,0.333,0.333,1,0.333,0.333,0.333,1","1",""
"","html-keyboard-response","319","79232","0.0-319.0","3RYC5T2D74F2225U9D2NOPR6KR9PRG","A3LIRS1WMRIP9P","36U4VBVNQOZD8NFWZXWF9CIHKRIURB","","null","<img src=""img/flower5.png"" style=""width:200px; border:14px solid green;"">","null","","","","","","","","",""
"","image-keyboard-response","320","79411","0.0-320.0","3RYC5T2D74F2225U9D2NOPR6KR9PRG","A3LIRS1WMRIP9P","36U4VBVNQOZD8NFWZXWF9CIHKRIURB","","179","img/flower2.png","76","179","3","0","1","1","1,0.333,0.333,0.333,1,0.333,0.333,0.333,1","1,0.333,0.333,0.333,1,0.333,0.333,0.333,1","1",""
"","html-keyboard-response","321","79713","0.0-321.0","3RYC5T2D74F2225U9D2NOPR6KR9PRG","A3LIRS1WMRIP9P","36U4VBVNQOZD8NFWZXWF9CIHKRIURB","","null","<img src=""img/flower2.png"" style=""width:200px;border:14px solid red;"">","null","","","","","","","","",""
"","image-keyboard-response","322","79720","0.0-322.0","3RYC5T2D74F2225U9D2NOPR6KR9PRG","A3LIRS1WMRIP9P","36U4VBVNQOZD8NFWZXWF9CIHKRIURB","","6","img/flower4.png","76","7","3","0","2","1","1,0.333,0.333,0.333,1,0.333,0.333,0.333,1","1,0.333,0.333,0.333,1,0.333,0.333,0.333,1","1",""
"","html-keyboard-response","323","80021","0.0-323.0","3RYC5T2D74F2225U9D2NOPR6KR9PRG","A3LIRS1WMRIP9P","36U4VBVNQOZD8NFWZXWF9CIHKRIURB","","null","<img src=""img/flower4.png"" style=""width:200px;border:14px solid red;"">","null","","","","","","","","",""
"","image-keyboard-response","324","80253","0.0-324.0","3RYC5T2D74F2225U9D2NOPR6KR9PRG","A3LIRS1WMRIP9P","36U4VBVNQOZD8NFWZXWF9CIHKRIURB","","231","img/flower2.png","74","232","1","1","1","1","1,0.333,0.333,0.333,1,0.333,0.333,0.333,1","1,0.333,0.333,0.333,1,0.333,0.333,0.333,1","1",""
"","html-keyboard-response","325","80555","0.0-325.0","3RYC5T2D74F2225U9D2NOPR6KR9PRG","A3LIRS1WMRIP9P","36U4VBVNQOZD8NFWZXWF9CIHKRIURB","","null","<img src=""img/flower2.png"" style=""width:200px; border:14px solid green;"">","null","","","","","","","","",""
"","image-keyboard-response","326","80671","0.0-326.0","3RYC5T2D74F2225U9D2NOPR6KR9PRG","A3LIRS1WMRIP9P","36U4VBVNQOZD8NFWZXWF9CIHKRIURB","","115","img/flower5.png","75","116","2","1","3","1","1,0.333,0.333,0.333,1,0.333,0.333,0.333,1","1,0.333,0.333,0.333,1,0.333,0.333,0.333,1","1",""
"","html-keyboard-response","327","80973","0.0-327.0","3RYC5T2D74F2225U9D2NOPR6KR9PRG","A3LIRS1WMRIP9P","36U4VBVNQOZD8NFWZXWF9CIHKRIURB","","null","<img src=""img/flower5.png"" style=""width:200px; border:14px solid green;"">","null","","","","","","","","",""
"","image-keyboard-response","328","81093","0.0-328.0","3RYC5T2D74F2225U9D2NOPR6KR9PRG","A3LIRS1WMRIP9P","36U4VBVNQOZD8NFWZXWF9CIHKRIURB","","120","img/flower2.png","75","120","2","0","1","1","1,0.333,0.333,0.333,1,0.333,0.333,0.333,1","1,0.333,0.333,0.333,1,0.333,0.333,0.333,1","1",""
"","html-keyboard-response","329","81394","0.0-329.0","3RYC5T2D74F2225U9D2NOPR6KR9PRG","A3LIRS1WMRIP9P","36U4VBVNQOZD8NFWZXWF9CIHKRIURB","","null","<img src=""img/flower2.png"" style=""width:200px;border:14px solid red;"">","null","","","","","","","","",""
"","image-keyboard-response","330","81512","0.0-330.0","3RYC5T2D74F2225U9D2NOPR6KR9PRG","A3LIRS1WMRIP9P","36U4VBVNQOZD8NFWZXWF9CIHKRIURB","","116","img/flower2.png","75","118","2","0","1","1","1,0.333,0.333,0.333,1,0.333,0.333,0.333,1","1,0.333,0.333,0.333,1,0.333,0.333,0.333,1","1",""
"","html-keyboard-response","331","81814","0.0-331.0","3RYC5T2D74F2225U9D2NOPR6KR9PRG","A3LIRS1WMRIP9P","36U4VBVNQOZD8NFWZXWF9CIHKRIURB","","null","<img src=""img/flower2.png"" style=""width:200px;border:14px solid red;"">","null","","","","","","","","",""
"","image-keyboard-response","332","81953","0.0-332.0","3RYC5T2D74F2225U9D2NOPR6KR9PRG","A3LIRS1WMRIP9P","36U4VBVNQOZD8NFWZXWF9CIHKRIURB","","139","img/flower4.png","74","139","1","0","2","1","1,0.333,0.333,0.333,1,0.333,0.333,0.333,1","1,0.333,0.333,0.333,1,0.333,0.333,0.333,1","1",""
"","html-keyboard-response","333","82255","0.0-333.0","3RYC5T2D74F2225U9D2NOPR6KR9PRG","A3LIRS1WMRIP9P","36U4VBVNQOZD8NFWZXWF9CIHKRIURB","","null","<img src=""img/flower4.png"" style=""width:200px;border:14px solid red;"">","null","","","","","","","","",""
"","image-keyboard-response","334","82351","0.0-334.0","3RYC5T2D74F2225U9D2NOPR6KR9PRG","A3LIRS1WMRIP9P","36U4VBVNQOZD8NFWZXWF9CIHKRIURB","","95","img/flower4.png","75","96","2","1","2","1","1,0.333,0.333,0.333,1,0.333,0.333,0.333,1","1,0.333,0.333,0.333,1,0.333,0.333,0.333,1","1",""
"","html-keyboard-response","335","82653","0.0-335.0","3RYC5T2D74F2225U9D2NOPR6KR9PRG","A3LIRS1WMRIP9P","36U4VBVNQOZD8NFWZXWF9CIHKRIURB","","null","<img src=""img/flower4.png"" style=""width:200px; border:14px solid green;"">","null","","","","","","","","",""
"","image-keyboard-response","336","82831","0.0-336.0","3RYC5T2D74F2225U9D2NOPR6KR9PRG","A3LIRS1WMRIP9P","36U4VBVNQOZD8NFWZXWF9CIHKRIURB","","178","img/flower5.png","75","178","2","0","3","1","1,0.333,0.333,0.333,1,0.333,0.333,0.333,1","1,0.333,0.333,0.333,1,0.333,0.333,0.333,1","1",""
"","html-keyboard-response","337","83133","0.0-337.0","3RYC5T2D74F2225U9D2NOPR6KR9PRG","A3LIRS1WMRIP9P","36U4VBVNQOZD8NFWZXWF9CIHKRIURB","","null","<img src=""img/flower5.png"" style=""width:200px;border:14px solid red;"">","null","","","","","","","","",""
"","image-keyboard-response","338","83311","0.0-338.0","3RYC5T2D74F2225U9D2NOPR6KR9PRG","A3LIRS1WMRIP9P","36U4VBVNQOZD8NFWZXWF9CIHKRIURB","","178","img/flower5.png","75","178","2","0","3","1","1,0.333,0.333,0.333,1,0.333,0.333,0.333,1","1,0.333,0.333,0.333,1,0.333,0.333,0.333,1","1",""
"","html-keyboard-response","339","83612","0.0-339.0","3RYC5T2D74F2225U9D2NOPR6KR9PRG","A3LIRS1WMRIP9P","36U4VBVNQOZD8NFWZXWF9CIHKRIURB","","null","<img src=""img/flower5.png"" style=""width:200px;border:14px solid red;"">","null","","","","","","","","",""
"","image-keyboard-response","340","83832","0.0-340.0","3RYC5T2D74F2225U9D2NOPR6KR9PRG","A3LIRS1WMRIP9P","36U4VBVNQOZD8NFWZXWF9CIHKRIURB","","220","img/flower2.png","76","220","3","0","1","1","1,0.333,0.333,0.333,1,0.333,0.333,0.333,1","1,0.333,0.333,0.333,1,0.333,0.333,0.333,1","1",""
"","html-keyboard-response","341","84134","0.0-341.0","3RYC5T2D74F2225U9D2NOPR6KR9PRG","A3LIRS1WMRIP9P","36U4VBVNQOZD8NFWZXWF9CIHKRIURB","","null","<img src=""img/flower2.png"" style=""width:200px;border:14px solid red;"">","null","","","","","","","","",""
"","image-keyboard-response","342","84231","0.0-342.0","3RYC5T2D74F2225U9D2NOPR6KR9PRG","A3LIRS1WMRIP9P","36U4VBVNQOZD8NFWZXWF9CIHKRIURB","","97","img/flower4.png","74","97","1","1","2","1","1,0.333,0.333,0.333,1,0.333,0.333,0.333,1","1,0.333,0.333,0.333,1,0.333,0.333,0.333,1","1",""
"","html-keyboard-response","343","84533","0.0-343.0","3RYC5T2D74F2225U9D2NOPR6KR9PRG","A3LIRS1WMRIP9P","36U4VBVNQOZD8NFWZXWF9CIHKRIURB","","null","<img src=""img/flower4.png"" style=""width:200px; border:14px solid green;"">","null","","","","","","","","",""
"","image-keyboard-response","344","84731","0.0-344.0","3RYC5T2D74F2225U9D2NOPR6KR9PRG","A3LIRS1WMRIP9P","36U4VBVNQOZD8NFWZXWF9CIHKRIURB","","198","img/flower5.png","74","198","1","1","3","1","1,0.333,0.333,0.333,1,0.333,0.333,0.333,1","1,0.333,0.333,0.333,1,0.333,0.333,0.333,1","1",""
"","html-keyboard-response","345","85032","0.0-345.0","3RYC5T2D74F2225U9D2NOPR6KR9PRG","A3LIRS1WMRIP9P","36U4VBVNQOZD8NFWZXWF9CIHKRIURB","","null","<img src=""img/flower5.png"" style=""width:200px; border:14px solid green;"">","null","","","","","","","","",""
"","image-keyboard-response","346","85171","0.0-346.0","3RYC5T2D74F2225U9D2NOPR6KR9PRG","A3LIRS1WMRIP9P","36U4VBVNQOZD8NFWZXWF9CIHKRIURB","","139","img/flower5.png","74","139","1","0","3","1","1,0.333,0.333,0.333,1,0.333,0.333,0.333,1","1,0.333,0.333,0.333,1,0.333,0.333,0.333,1","1",""
"","html-keyboard-response","347","85473","0.0-347.0","3RYC5T2D74F2225U9D2NOPR6KR9PRG","A3LIRS1WMRIP9P","36U4VBVNQOZD8NFWZXWF9CIHKRIURB","","null","<img src=""img/flower5.png"" style=""width:200px;border:14px solid red;"">","null","","","","","","","","",""
"","image-keyboard-response","348","85601","0.0-348.0","3RYC5T2D74F2225U9D2NOPR6KR9PRG","A3LIRS1WMRIP9P","36U4VBVNQOZD8NFWZXWF9CIHKRIURB","","128","img/flower4.png","74","128","1","0","2","1","1,0.333,0.333,0.333,1,0.333,0.333,0.333,1","1,0.333,0.333,0.333,1,0.333,0.333,0.333,1","1",""
"","html-keyboard-response","349","85903","0.0-349.0","3RYC5T2D74F2225U9D2NOPR6KR9PRG","A3LIRS1WMRIP9P","36U4VBVNQOZD8NFWZXWF9CIHKRIURB","","null","<img src=""img/flower4.png"" style=""width:200px;border:14px solid red;"">","null","","","","","","","","",""
"","image-keyboard-response","350","85991","0.0-350.0","3RYC5T2D74F2225U9D2NOPR6KR9PRG","A3LIRS1WMRIP9P","36U4VBVNQOZD8NFWZXWF9CIHKRIURB","","88","img/flower5.png","74","88","1","0","3","1","1,0.333,0.333,0.333,1,0.333,0.333,0.333,1","1,0.333,0.333,0.333,1,0.333,0.333,0.333,1","1",""
"","html-keyboard-response","351","86292","0.0-351.0","3RYC5T2D74F2225U9D2NOPR6KR9PRG","A3LIRS1WMRIP9P","36U4VBVNQOZD8NFWZXWF9CIHKRIURB","","null","<img src=""img/flower5.png"" style=""width:200px;border:14px solid red;"">","null","","","","","","","","",""
"","image-keyboard-response","352","86391","0.0-352.0","3RYC5T2D74F2225U9D2NOPR6KR9PRG","A3LIRS1WMRIP9P","36U4VBVNQOZD8NFWZXWF9CIHKRIURB","","99","img/flower5.png","74","99","1","1","3","1","1,0.333,0.333,0.333,1,0.333,0.333,0.333,1","1,0.333,0.333,0.333,1,0.333,0.333,0.333,1","1",""
"","html-keyboard-response","353","86702","0.0-353.0","3RYC5T2D74F2225U9D2NOPR6KR9PRG","A3LIRS1WMRIP9P","36U4VBVNQOZD8NFWZXWF9CIHKRIURB","","null","<img src=""img/flower5.png"" style=""width:200px; border:14px solid green;"">","null","","","","","","","","",""
"","image-keyboard-response","354","86780","0.0-354.0","3RYC5T2D74F2225U9D2NOPR6KR9PRG","A3LIRS1WMRIP9P","36U4VBVNQOZD8NFWZXWF9CIHKRIURB","","78","img/flower4.png","74","78","1","0","2","1","1,0.333,0.333,0.333,1,0.333,0.333,0.333,1","1,0.333,0.333,0.333,1,0.333,0.333,0.333,1","1",""
"","html-keyboard-response","355","87081","0.0-355.0","3RYC5T2D74F2225U9D2NOPR6KR9PRG","A3LIRS1WMRIP9P","36U4VBVNQOZD8NFWZXWF9CIHKRIURB","","null","<img src=""img/flower4.png"" style=""width:200px;border:14px solid red;"">","null","","","","","","","","",""
"","image-keyboard-response","356","87111","0.0-356.0","3RYC5T2D74F2225U9D2NOPR6KR9PRG","A3LIRS1WMRIP9P","36U4VBVNQOZD8NFWZXWF9CIHKRIURB","","30","img/flower4.png","76","30","3","1","2","1","1,0.333,0.333,0.333,1,0.333,0.333,0.333,1","1,0.333,0.333,0.333,1,0.333,0.333,0.333,1","1",""
"","html-keyboard-response","357","87412","0.0-357.0","3RYC5T2D74F2225U9D2NOPR6KR9PRG","A3LIRS1WMRIP9P","36U4VBVNQOZD8NFWZXWF9CIHKRIURB","","null","<img src=""img/flower4.png"" style=""width:200px; border:14px solid green;"">","null","","","","","","","","",""
"","image-keyboard-response","358","87451","0.0-358.0","3RYC5T2D74F2225U9D2NOPR6KR9PRG","A3LIRS1WMRIP9P","36U4VBVNQOZD8NFWZXWF9CIHKRIURB","","39","img/flower5.png","76","39","3","1","3","1","1,0.333,0.333,0.333,1,0.333,0.333,0.333,1","1,0.333,0.333,0.333,1,0.333,0.333,0.333,1","1",""
"","html-keyboard-response","359","87753","0.0-359.0","3RYC5T2D74F2225U9D2NOPR6KR9PRG","A3LIRS1WMRIP9P","36U4VBVNQOZD8NFWZXWF9CIHKRIURB","","null","<img src=""img/flower5.png"" style=""width:200px; border:14px solid green;"">","null","","","","","","","","",""
"","image-keyboard-response","360","87771","0.0-360.0","3RYC5T2D74F2225U9D2NOPR6KR9PRG","A3LIRS1WMRIP9P","36U4VBVNQOZD8NFWZXWF9CIHKRIURB","","18","img/flower5.png","75","19","2","0","3","1","1,0.333,0.333,0.333,1,0.333,0.333,0.333,1","1,0.333,0.333,0.333,1,0.333,0.333,0.333,1","1",""
"","html-keyboard-response","361","88073","0.0-361.0","3RYC5T2D74F2225U9D2NOPR6KR9PRG","A3LIRS1WMRIP9P","36U4VBVNQOZD8NFWZXWF9CIHKRIURB","","null","<img src=""img/flower5.png"" style=""width:200px;border:14px solid red;"">","null","","","","","","","","",""
"","html-keyboard-response","362","90031","0.0-362.0","3RYC5T2D74F2225U9D2NOPR6KR9PRG","A3LIRS1WMRIP9P","36U4VBVNQOZD8NFWZXWF9CIHKRIURB","","","","","","","","","","","","",""
"","instructions","363","91491","0.0-363.0","3RYC5T2D74F2225U9D2NOPR6KR9PRG","A3LIRS1WMRIP9P","36U4VBVNQOZD8NFWZXWF9CIHKRIURB","[{""page_index"":0,""viewing_time"":1459}]","1459","","","","","","","","","","",""
"","survey-text","364","95053","0.0-364.0","3RYC5T2D74F2225U9D2NOPR6KR9PRG","A3LIRS1WMRIP9P","36U4VBVNQOZD8NFWZXWF9CIHKRIURB","","3557","","","","","","","","","","","{""Q0"":""A3LIRS1WMRIP9P""}"
