"rt","url","trial_type","trial_index","time_elapsed","internal_node_id","assignmentID","mturkID","hitID","success","view_history","stimulus","key_press","reactionTime","a","r","s","cond","reward_cond","reward_cond_actual","reward_matrix_idx","responses"
"285086.1999999881","consent.html","external-html","0","285144","0.0-0.0","37W3JXSD67U1JCEHZU8COFSZFE2WY0","A3LVLZS8S41ZD7","3THR0FZ95PF7SK0MYRNAOUHTWA4OLV","","","","","","","","","","","","",""
"","","fullscreen","1","297415","0.0-1.0","37W3JXSD67U1JCEHZU8COFSZFE2WY0","A3LVLZS8S41ZD7","3THR0FZ95PF7SK0MYRNAOUHTWA4OLV","true","","","","","","","","","","","",""
"115190.69999998808","","instructions","2","412607","0.0-2.0","37W3JXSD67U1JCEHZU8COFSZFE2WY0","A3LVLZS8S41ZD7","3THR0FZ95PF7SK0MYRNAOUHTWA4OLV","","[{""page_index"":0,""viewing_time"":17326.5},{""page_index"":1,""viewing_time"":28615.69999998808},{""page_index"":2,""viewing_time"":16336.699999988079},{""page_index"":3,""viewing_time"":17095.30000001192},{""page_index"":4,""viewing_time"":11583.699999988079},{""page_index"":5,""viewing_time"":14712.199999988079},{""page_index"":6,""viewing_time"":9519.900000035763}]","","","","","","","","","","",""
"20806.899999976158","","instructions","3","433415","0.0-3.0","37W3JXSD67U1JCEHZU8COFSZFE2WY0","A3LVLZS8S41ZD7","3THR0FZ95PF7SK0MYRNAOUHTWA4OLV","","[{""page_index"":0,""viewing_time"":20806.5}]","","","","","","","","","","",""
"1350.699999988079","","image-keyboard-response","4","434767","0.0-4.0","37W3JXSD67U1JCEHZU8COFSZFE2WY0","A3LVLZS8S41ZD7","3THR0FZ95PF7SK0MYRNAOUHTWA4OLV","","","img/flower6.png","76","1351.9000000357628","3","1","3","","","","",""
"null","","html-keyboard-response","5","435076","0.0-5.0","37W3JXSD67U1JCEHZU8COFSZFE2WY0","A3LVLZS8S41ZD7","3THR0FZ95PF7SK0MYRNAOUHTWA4OLV","","","<img src=""img/flower6.png"" style=""width:200px; border:14px solid green;"">","null","","","","","","","","",""
"722.1000000238419","","image-keyboard-response","6","435799","0.0-6.0","37W3JXSD67U1JCEHZU8COFSZFE2WY0","A3LVLZS8S41ZD7","3THR0FZ95PF7SK0MYRNAOUHTWA4OLV","","","img/flower4.png","74","722.7999999523163","1","1","1","","","","",""
"null","","html-keyboard-response","7","436102","0.0-7.0","37W3JXSD67U1JCEHZU8COFSZFE2WY0","A3LVLZS8S41ZD7","3THR0FZ95PF7SK0MYRNAOUHTWA4OLV","","","<img src=""img/flower4.png"" style=""width:200px; border:14px solid green;"">","null","","","","","","","","",""
"624.2000000476837","","image-keyboard-response","8","436727","0.0-8.0","37W3JXSD67U1JCEHZU8COFSZFE2WY0","A3LVLZS8S41ZD7","3THR0FZ95PF7SK0MYRNAOUHTWA4OLV","","","img/flower4.png","74","625.2000000476837","1","1","1","","","","",""
"null","","html-keyboard-response","9","437043","0.0-9.0","37W3JXSD67U1JCEHZU8COFSZFE2WY0","A3LVLZS8S41ZD7","3THR0FZ95PF7SK0MYRNAOUHTWA4OLV","","","<img src=""img/flower4.png"" style=""width:200px; border:14px solid green;"">","null","","","","","","","","",""
"658.3999999761581","","image-keyboard-response","10","437703","0.0-10.0","37W3JXSD67U1JCEHZU8COFSZFE2WY0","A3LVLZS8S41ZD7","3THR0FZ95PF7SK0MYRNAOUHTWA4OLV","","","img/flower5.png","75","659.2999999523163","2","1","2","","","","",""
"null","","html-keyboard-response","11","438010","0.0-11.0","37W3JXSD67U1JCEHZU8COFSZFE2WY0","A3LVLZS8S41ZD7","3THR0FZ95PF7SK0MYRNAOUHTWA4OLV","","","<img src=""img/flower5.png"" style=""width:200px; border:14px solid green;"">","null","","","","","","","","",""
"539.8000000119209","","image-keyboard-response","12","438551","0.0-12.0","37W3JXSD67U1JCEHZU8COFSZFE2WY0","A3LVLZS8S41ZD7","3THR0FZ95PF7SK0MYRNAOUHTWA4OLV","","","img/flower5.png","75","540.6999999880791","2","1","2","","","","",""
"null","","html-keyboard-response","13","438863","0.0-13.0","37W3JXSD67U1JCEHZU8COFSZFE2WY0","A3LVLZS8S41ZD7","3THR0FZ95PF7SK0MYRNAOUHTWA4OLV","","","<img src=""img/flower5.png"" style=""width:200px; border:14px solid green;"">","null","","","","","","","","",""
"615.0999999642372","","image-keyboard-response","14","439479","0.0-14.0","37W3JXSD67U1JCEHZU8COFSZFE2WY0","A3LVLZS8S41ZD7","3THR0FZ95PF7SK0MYRNAOUHTWA4OLV","","","img/flower6.png","76","615.8999999761581","3","1","3","","","","",""
"null","","html-keyboard-response","15","439787","0.0-15.0","37W3JXSD67U1JCEHZU8COFSZFE2WY0","A3LVLZS8S41ZD7","3THR0FZ95PF7SK0MYRNAOUHTWA4OLV","","","<img src=""img/flower6.png"" style=""width:200px; border:14px solid green;"">","null","","","","","","","","",""
"642.7999999523163","","image-keyboard-response","16","440431","0.0-16.0","37W3JXSD67U1JCEHZU8COFSZFE2WY0","A3LVLZS8S41ZD7","3THR0FZ95PF7SK0MYRNAOUHTWA4OLV","","","img/flower5.png","75","643.5999999642372","2","1","2","","","","",""
"null","","html-keyboard-response","17","440734","0.0-17.0","37W3JXSD67U1JCEHZU8COFSZFE2WY0","A3LVLZS8S41ZD7","3THR0FZ95PF7SK0MYRNAOUHTWA4OLV","","","<img src=""img/flower5.png"" style=""width:200px; border:14px solid green;"">","null","","","","","","","","",""
"471.5","","image-keyboard-response","18","441207","0.0-18.0","37W3JXSD67U1JCEHZU8COFSZFE2WY0","A3LVLZS8S41ZD7","3THR0FZ95PF7SK0MYRNAOUHTWA4OLV","","","img/flower5.png","75","472.19999998807907","2","1","2","","","","",""
"null","","html-keyboard-response","19","441530","0.0-19.0","37W3JXSD67U1JCEHZU8COFSZFE2WY0","A3LVLZS8S41ZD7","3THR0FZ95PF7SK0MYRNAOUHTWA4OLV","","","<img src=""img/flower5.png"" style=""width:200px; border:14px solid green;"">","null","","","","","","","","",""
"617.6000000238419","","image-keyboard-response","20","442151","0.0-20.0","37W3JXSD67U1JCEHZU8COFSZFE2WY0","A3LVLZS8S41ZD7","3THR0FZ95PF7SK0MYRNAOUHTWA4OLV","","","img/flower4.png","74","618.3000000119209","1","1","1","","","","",""
"null","","html-keyboard-response","21","442458","0.0-21.0","37W3JXSD67U1JCEHZU8COFSZFE2WY0","A3LVLZS8S41ZD7","3THR0FZ95PF7SK0MYRNAOUHTWA4OLV","","","<img src=""img/flower4.png"" style=""width:200px; border:14px solid green;"">","null","","","","","","","","",""
"627.6999999880791","","image-keyboard-response","22","443087","0.0-22.0","37W3JXSD67U1JCEHZU8COFSZFE2WY0","A3LVLZS8S41ZD7","3THR0FZ95PF7SK0MYRNAOUHTWA4OLV","","","img/flower6.png","76","628.5","3","1","3","","","","",""
"null","","html-keyboard-response","23","443401","0.0-23.0","37W3JXSD67U1JCEHZU8COFSZFE2WY0","A3LVLZS8S41ZD7","3THR0FZ95PF7SK0MYRNAOUHTWA4OLV","","","<img src=""img/flower6.png"" style=""width:200px; border:14px solid green;"">","null","","","","","","","","",""
"564.8000000119209","","image-keyboard-response","24","443967","0.0-24.0","37W3JXSD67U1JCEHZU8COFSZFE2WY0","A3LVLZS8S41ZD7","3THR0FZ95PF7SK0MYRNAOUHTWA4OLV","","","img/flower4.png","75","565.5999999642372","2","0","1","","","","",""
"null","","html-keyboard-response","25","444271","0.0-25.0","37W3JXSD67U1JCEHZU8COFSZFE2WY0","A3LVLZS8S41ZD7","3THR0FZ95PF7SK0MYRNAOUHTWA4OLV","","","<img src=""img/flower4.png"" style=""width:200px;border:14px solid red;"">","null","","","","","","","","",""
"1030.1000000238419","","image-keyboard-response","26","445303","0.0-26.0","37W3JXSD67U1JCEHZU8COFSZFE2WY0","A3LVLZS8S41ZD7","3THR0FZ95PF7SK0MYRNAOUHTWA4OLV","","","img/flower4.png","74","1030.9000000357628","1","1","1","","","","",""
"null","","html-keyboard-response","27","445612","0.0-27.0","37W3JXSD67U1JCEHZU8COFSZFE2WY0","A3LVLZS8S41ZD7","3THR0FZ95PF7SK0MYRNAOUHTWA4OLV","","","<img src=""img/flower4.png"" style=""width:200px; border:14px solid green;"">","null","","","","","","","","",""
"625.6999999880791","","image-keyboard-response","28","446239","0.0-28.0","37W3JXSD67U1JCEHZU8COFSZFE2WY0","A3LVLZS8S41ZD7","3THR0FZ95PF7SK0MYRNAOUHTWA4OLV","","","img/flower5.png","75","626.4000000357628","2","0","2","","","","",""
"null","","html-keyboard-response","29","446551","0.0-29.0","37W3JXSD67U1JCEHZU8COFSZFE2WY0","A3LVLZS8S41ZD7","3THR0FZ95PF7SK0MYRNAOUHTWA4OLV","","","<img src=""img/flower5.png"" style=""width:200px;border:14px solid red;"">","null","","","","","","","","",""
"910.5","","image-keyboard-response","30","447463","0.0-30.0","37W3JXSD67U1JCEHZU8COFSZFE2WY0","A3LVLZS8S41ZD7","3THR0FZ95PF7SK0MYRNAOUHTWA4OLV","","","img/flower4.png","74","911.3000000119209","1","0","1","","","","",""
"null","","html-keyboard-response","31","447764","0.0-31.0","37W3JXSD67U1JCEHZU8COFSZFE2WY0","A3LVLZS8S41ZD7","3THR0FZ95PF7SK0MYRNAOUHTWA4OLV","","","<img src=""img/flower4.png"" style=""width:200px;border:14px solid red;"">","null","","","","","","","","",""
"1441.800000011921","","image-keyboard-response","32","449207","0.0-32.0","37W3JXSD67U1JCEHZU8COFSZFE2WY0","A3LVLZS8S41ZD7","3THR0FZ95PF7SK0MYRNAOUHTWA4OLV","","","img/flower4.png","74","1442.5","1","0","1","","","","",""
"null","","html-keyboard-response","33","449513","0.0-33.0","37W3JXSD67U1JCEHZU8COFSZFE2WY0","A3LVLZS8S41ZD7","3THR0FZ95PF7SK0MYRNAOUHTWA4OLV","","","<img src=""img/flower4.png"" style=""width:200px;border:14px solid red;"">","null","","","","","","","","",""
"708.3999999761581","","image-keyboard-response","34","450222","0.0-34.0","37W3JXSD67U1JCEHZU8COFSZFE2WY0","A3LVLZS8S41ZD7","3THR0FZ95PF7SK0MYRNAOUHTWA4OLV","","","img/flower6.png","76","709.0999999642372","3","1","3","","","","",""
"null","","html-keyboard-response","35","450535","0.0-35.0","37W3JXSD67U1JCEHZU8COFSZFE2WY0","A3LVLZS8S41ZD7","3THR0FZ95PF7SK0MYRNAOUHTWA4OLV","","","<img src=""img/flower6.png"" style=""width:200px; border:14px solid green;"">","null","","","","","","","","",""
"662.1000000238419","","image-keyboard-response","36","451199","0.0-36.0","37W3JXSD67U1JCEHZU8COFSZFE2WY0","A3LVLZS8S41ZD7","3THR0FZ95PF7SK0MYRNAOUHTWA4OLV","","","img/flower5.png","75","663.3999999761581","2","1","2","","","","",""
"null","","html-keyboard-response","37","451502","0.0-37.0","37W3JXSD67U1JCEHZU8COFSZFE2WY0","A3LVLZS8S41ZD7","3THR0FZ95PF7SK0MYRNAOUHTWA4OLV","","","<img src=""img/flower5.png"" style=""width:200px; border:14px solid green;"">","null","","","","","","","","",""
"472","","image-keyboard-response","38","451975","0.0-38.0","37W3JXSD67U1JCEHZU8COFSZFE2WY0","A3LVLZS8S41ZD7","3THR0FZ95PF7SK0MYRNAOUHTWA4OLV","","","img/flower5.png","75","472.5999999642372","2","1","2","","","","",""
"null","","html-keyboard-response","39","452280","0.0-39.0","37W3JXSD67U1JCEHZU8COFSZFE2WY0","A3LVLZS8S41ZD7","3THR0FZ95PF7SK0MYRNAOUHTWA4OLV","","","<img src=""img/flower5.png"" style=""width:200px; border:14px solid green;"">","null","","","","","","","","",""
"614.5","","image-keyboard-response","40","452896","0.0-40.0","37W3JXSD67U1JCEHZU8COFSZFE2WY0","A3LVLZS8S41ZD7","3THR0FZ95PF7SK0MYRNAOUHTWA4OLV","","","img/flower6.png","76","615.6999999880791","3","0","3","","","","",""
"null","","html-keyboard-response","41","453200","0.0-41.0","37W3JXSD67U1JCEHZU8COFSZFE2WY0","A3LVLZS8S41ZD7","3THR0FZ95PF7SK0MYRNAOUHTWA4OLV","","","<img src=""img/flower6.png"" style=""width:200px;border:14px solid red;"">","null","","","","","","","","",""
"477.5","","image-keyboard-response","42","453679","0.0-42.0","37W3JXSD67U1JCEHZU8COFSZFE2WY0","A3LVLZS8S41ZD7","3THR0FZ95PF7SK0MYRNAOUHTWA4OLV","","","img/flower6.png","76","478.0999999642372","3","1","3","","","","",""
"null","","html-keyboard-response","43","453995","0.0-43.0","37W3JXSD67U1JCEHZU8COFSZFE2WY0","A3LVLZS8S41ZD7","3THR0FZ95PF7SK0MYRNAOUHTWA4OLV","","","<img src=""img/flower6.png"" style=""width:200px; border:14px solid green;"">","null","","","","","","","","",""
"675.7000000476837","","image-keyboard-response","44","454671","0.0-44.0","37W3JXSD67U1JCEHZU8COFSZFE2WY0","A3LVLZS8S41ZD7","3THR0FZ95PF7SK0MYRNAOUHTWA4OLV","","","img/flower6.png","76","676.6000000238419","3","1","3","","","","",""
"null","","html-keyboard-response","45","454987","0.0-45.0","37W3JXSD67U1JCEHZU8COFSZFE2WY0","A3LVLZS8S41ZD7","3THR0FZ95PF7SK0MYRNAOUHTWA4OLV","","","<img src=""img/flower6.png"" style=""width:200px; border:14px solid green;"">","null","","","","","","","","",""
"745.6999999880791","","image-keyboard-response","46","455735","0.0-46.0","37W3JXSD67U1JCEHZU8COFSZFE2WY0","A3LVLZS8S41ZD7","3THR0FZ95PF7SK0MYRNAOUHTWA4OLV","","","img/flower6.png","76","747.1000000238419","3","1","3","","","","",""
"null","","html-keyboard-response","47","456047","0.0-47.0","37W3JXSD67U1JCEHZU8COFSZFE2WY0","A3LVLZS8S41ZD7","3THR0FZ95PF7SK0MYRNAOUHTWA4OLV","","","<img src=""img/flower6.png"" style=""width:200px; border:14px solid green;"">","null","","","","","","","","",""
"670.6000000238419","","image-keyboard-response","48","456719","0.0-48.0","37W3JXSD67U1JCEHZU8COFSZFE2WY0","A3LVLZS8S41ZD7","3THR0FZ95PF7SK0MYRNAOUHTWA4OLV","","","img/flower6.png","76","671.8000000119209","3","1","3","","","","",""
"null","","html-keyboard-response","49","457027","0.0-49.0","37W3JXSD67U1JCEHZU8COFSZFE2WY0","A3LVLZS8S41ZD7","3THR0FZ95PF7SK0MYRNAOUHTWA4OLV","","","<img src=""img/flower6.png"" style=""width:200px; border:14px solid green;"">","null","","","","","","","","",""
"681.5","","image-keyboard-response","50","457710","0.0-50.0","37W3JXSD67U1JCEHZU8COFSZFE2WY0","A3LVLZS8S41ZD7","3THR0FZ95PF7SK0MYRNAOUHTWA4OLV","","","img/flower4.png","74","682.8999999761581","1","1","1","","","","",""
"null","","html-keyboard-response","51","458023","0.0-51.0","37W3JXSD67U1JCEHZU8COFSZFE2WY0","A3LVLZS8S41ZD7","3THR0FZ95PF7SK0MYRNAOUHTWA4OLV","","","<img src=""img/flower4.png"" style=""width:200px; border:14px solid green;"">","null","","","","","","","","",""
"575.3000000119209","","image-keyboard-response","52","458599","0.0-52.0","37W3JXSD67U1JCEHZU8COFSZFE2WY0","A3LVLZS8S41ZD7","3THR0FZ95PF7SK0MYRNAOUHTWA4OLV","","","img/flower5.png","75","576","2","0","2","","","","",""
"null","","html-keyboard-response","53","458901","0.0-53.0","37W3JXSD67U1JCEHZU8COFSZFE2WY0","A3LVLZS8S41ZD7","3THR0FZ95PF7SK0MYRNAOUHTWA4OLV","","","<img src=""img/flower5.png"" style=""width:200px;border:14px solid red;"">","null","","","","","","","","",""
"544.6000000238419","","image-keyboard-response","54","459447","0.0-54.0","37W3JXSD67U1JCEHZU8COFSZFE2WY0","A3LVLZS8S41ZD7","3THR0FZ95PF7SK0MYRNAOUHTWA4OLV","","","img/flower5.png","75","545.6999999880791","2","1","2","","","","",""
"null","","html-keyboard-response","55","459753","0.0-55.0","37W3JXSD67U1JCEHZU8COFSZFE2WY0","A3LVLZS8S41ZD7","3THR0FZ95PF7SK0MYRNAOUHTWA4OLV","","","<img src=""img/flower5.png"" style=""width:200px; border:14px solid green;"">","null","","","","","","","","",""
"1373.3999999761581","","image-keyboard-response","56","461128","0.0-56.0","37W3JXSD67U1JCEHZU8COFSZFE2WY0","A3LVLZS8S41ZD7","3THR0FZ95PF7SK0MYRNAOUHTWA4OLV","","","img/flower6.png","76","1374.800000011921","3","1","3","","","","",""
"null","","html-keyboard-response","57","461434","0.0-57.0","37W3JXSD67U1JCEHZU8COFSZFE2WY0","A3LVLZS8S41ZD7","3THR0FZ95PF7SK0MYRNAOUHTWA4OLV","","","<img src=""img/flower6.png"" style=""width:200px; border:14px solid green;"">","null","","","","","","","","",""
"627.9000000357628","","image-keyboard-response","58","462063","0.0-58.0","37W3JXSD67U1JCEHZU8COFSZFE2WY0","A3LVLZS8S41ZD7","3THR0FZ95PF7SK0MYRNAOUHTWA4OLV","","","img/flower4.png","74","628.8000000119209","1","1","1","","","","",""
"null","","html-keyboard-response","59","462370","0.0-59.0","37W3JXSD67U1JCEHZU8COFSZFE2WY0","A3LVLZS8S41ZD7","3THR0FZ95PF7SK0MYRNAOUHTWA4OLV","","","<img src=""img/flower4.png"" style=""width:200px; border:14px solid green;"">","null","","","","","","","","",""
"658.8000000119209","","image-keyboard-response","60","463031","0.0-60.0","37W3JXSD67U1JCEHZU8COFSZFE2WY0","A3LVLZS8S41ZD7","3THR0FZ95PF7SK0MYRNAOUHTWA4OLV","","","img/flower5.png","75","660","2","1","2","","","","",""
"null","","html-keyboard-response","61","463333","0.0-61.0","37W3JXSD67U1JCEHZU8COFSZFE2WY0","A3LVLZS8S41ZD7","3THR0FZ95PF7SK0MYRNAOUHTWA4OLV","","","<img src=""img/flower5.png"" style=""width:200px; border:14px solid green;"">","null","","","","","","","","",""
"575.8999999761581","","image-keyboard-response","62","463910","0.0-62.0","37W3JXSD67U1JCEHZU8COFSZFE2WY0","A3LVLZS8S41ZD7","3THR0FZ95PF7SK0MYRNAOUHTWA4OLV","","","img/flower4.png","76","577.0999999642372","3","0","1","","","","",""
"null","","html-keyboard-response","63","464218","0.0-63.0","37W3JXSD67U1JCEHZU8COFSZFE2WY0","A3LVLZS8S41ZD7","3THR0FZ95PF7SK0MYRNAOUHTWA4OLV","","","<img src=""img/flower4.png"" style=""width:200px;border:14px solid red;"">","null","","","","","","","","",""
"23324.19999998808","","instructions","64","487543","0.0-64.0","37W3JXSD67U1JCEHZU8COFSZFE2WY0","A3LVLZS8S41ZD7","3THR0FZ95PF7SK0MYRNAOUHTWA4OLV","","[{""page_index"":0,""viewing_time"":5803.800000011921},{""page_index"":1,""viewing_time"":17520.099999964237}]","","","","","","","","","","",""
"1127","","image-keyboard-response","65","488671","0.0-65.0","37W3JXSD67U1JCEHZU8COFSZFE2WY0","A3LVLZS8S41ZD7","3THR0FZ95PF7SK0MYRNAOUHTWA4OLV","","","img/flower4.png","74","1128","1","1","1","","","","",""
"null","","html-keyboard-response","66","488975","0.0-66.0","37W3JXSD67U1JCEHZU8COFSZFE2WY0","A3LVLZS8S41ZD7","3THR0FZ95PF7SK0MYRNAOUHTWA4OLV","","","<img src=""img/flower4.png"" style=""width:200px; border:14px solid green;"">","null","","","","","","","","",""
"727.4000000357628","","image-keyboard-response","67","489703","0.0-67.0","37W3JXSD67U1JCEHZU8COFSZFE2WY0","A3LVLZS8S41ZD7","3THR0FZ95PF7SK0MYRNAOUHTWA4OLV","","","img/flower5.png","75","728","2","1","2","","","","",""
"null","","html-keyboard-response","68","490020","0.0-68.0","37W3JXSD67U1JCEHZU8COFSZFE2WY0","A3LVLZS8S41ZD7","3THR0FZ95PF7SK0MYRNAOUHTWA4OLV","","","<img src=""img/flower5.png"" style=""width:200px; border:14px solid green;"">","null","","","","","","","","",""
"608.7000000476837","","image-keyboard-response","69","490631","0.0-69.0","37W3JXSD67U1JCEHZU8COFSZFE2WY0","A3LVLZS8S41ZD7","3THR0FZ95PF7SK0MYRNAOUHTWA4OLV","","","img/flower6.png","76","609.8000000119209","3","1","3","","","","",""
"null","","html-keyboard-response","70","490941","0.0-70.0","37W3JXSD67U1JCEHZU8COFSZFE2WY0","A3LVLZS8S41ZD7","3THR0FZ95PF7SK0MYRNAOUHTWA4OLV","","","<img src=""img/flower6.png"" style=""width:200px; border:14px solid green;"">","null","","","","","","","","",""
"705.3999999761581","","image-keyboard-response","71","491648","0.0-71.0","37W3JXSD67U1JCEHZU8COFSZFE2WY0","A3LVLZS8S41ZD7","3THR0FZ95PF7SK0MYRNAOUHTWA4OLV","","","img/flower5.png","75","706.5","2","1","2","","","","",""
"null","","html-keyboard-response","72","491964","0.0-72.0","37W3JXSD67U1JCEHZU8COFSZFE2WY0","A3LVLZS8S41ZD7","3THR0FZ95PF7SK0MYRNAOUHTWA4OLV","","","<img src=""img/flower5.png"" style=""width:200px; border:14px solid green;"">","null","","","","","","","","",""
"568.2999999523163","","image-keyboard-response","73","492535","0.0-73.0","37W3JXSD67U1JCEHZU8COFSZFE2WY0","A3LVLZS8S41ZD7","3THR0FZ95PF7SK0MYRNAOUHTWA4OLV","","","img/flower5.png","75","569.5999999642372","2","0","2","","","","",""
"null","","html-keyboard-response","74","492842","0.0-74.0","37W3JXSD67U1JCEHZU8COFSZFE2WY0","A3LVLZS8S41ZD7","3THR0FZ95PF7SK0MYRNAOUHTWA4OLV","","","<img src=""img/flower5.png"" style=""width:200px;border:14px solid red;"">","null","","","","","","","","",""
"939.6999999880791","","image-keyboard-response","75","493782","0.0-75.0","37W3JXSD67U1JCEHZU8COFSZFE2WY0","A3LVLZS8S41ZD7","3THR0FZ95PF7SK0MYRNAOUHTWA4OLV","","","img/flower5.png","75","940.5","2","1","2","","","","",""
"null","","html-keyboard-response","76","494087","0.0-76.0","37W3JXSD67U1JCEHZU8COFSZFE2WY0","A3LVLZS8S41ZD7","3THR0FZ95PF7SK0MYRNAOUHTWA4OLV","","","<img src=""img/flower5.png"" style=""width:200px; border:14px solid green;"">","null","","","","","","","","",""
"583","","image-keyboard-response","77","494671","0.0-77.0","37W3JXSD67U1JCEHZU8COFSZFE2WY0","A3LVLZS8S41ZD7","3THR0FZ95PF7SK0MYRNAOUHTWA4OLV","","","img/flower6.png","76","583.8000000119209","3","1","3","","","","",""
"null","","html-keyboard-response","78","494985","0.0-78.0","37W3JXSD67U1JCEHZU8COFSZFE2WY0","A3LVLZS8S41ZD7","3THR0FZ95PF7SK0MYRNAOUHTWA4OLV","","","<img src=""img/flower6.png"" style=""width:200px; border:14px solid green;"">","null","","","","","","","","",""
"628.5999999642372","","image-keyboard-response","79","495615","0.0-79.0","37W3JXSD67U1JCEHZU8COFSZFE2WY0","A3LVLZS8S41ZD7","3THR0FZ95PF7SK0MYRNAOUHTWA4OLV","","","img/flower4.png","74","629.3999999761581","1","1","1","","","","",""
"null","","html-keyboard-response","80","495931","0.0-80.0","37W3JXSD67U1JCEHZU8COFSZFE2WY0","A3LVLZS8S41ZD7","3THR0FZ95PF7SK0MYRNAOUHTWA4OLV","","","<img src=""img/flower4.png"" style=""width:200px; border:14px solid green;"">","null","","","","","","","","",""
"593.8000000119209","","image-keyboard-response","81","496527","0.0-81.0","37W3JXSD67U1JCEHZU8COFSZFE2WY0","A3LVLZS8S41ZD7","3THR0FZ95PF7SK0MYRNAOUHTWA4OLV","","","img/flower4.png","75","594.6999999880791","2","0","1","","","","",""
"null","","html-keyboard-response","82","496832","0.0-82.0","37W3JXSD67U1JCEHZU8COFSZFE2WY0","A3LVLZS8S41ZD7","3THR0FZ95PF7SK0MYRNAOUHTWA4OLV","","","<img src=""img/flower4.png"" style=""width:200px;border:14px solid red;"">","null","","","","","","","","",""
"869.8000000119209","","image-keyboard-response","83","497703","0.0-83.0","37W3JXSD67U1JCEHZU8COFSZFE2WY0","A3LVLZS8S41ZD7","3THR0FZ95PF7SK0MYRNAOUHTWA4OLV","","","img/flower5.png","75","870.3999999761581","2","1","2","","","","",""
"null","","html-keyboard-response","84","498015","0.0-84.0","37W3JXSD67U1JCEHZU8COFSZFE2WY0","A3LVLZS8S41ZD7","3THR0FZ95PF7SK0MYRNAOUHTWA4OLV","","","<img src=""img/flower5.png"" style=""width:200px; border:14px solid green;"">","null","","","","","","","","",""
"1630.9000000357628","","image-keyboard-response","85","499647","0.0-85.0","37W3JXSD67U1JCEHZU8COFSZFE2WY0","A3LVLZS8S41ZD7","3THR0FZ95PF7SK0MYRNAOUHTWA4OLV","","","img/flower4.png","75","1631.6000000238419","2","1","1","","","","",""
"null","","html-keyboard-response","86","499955","0.0-86.0","37W3JXSD67U1JCEHZU8COFSZFE2WY0","A3LVLZS8S41ZD7","3THR0FZ95PF7SK0MYRNAOUHTWA4OLV","","","<img src=""img/flower4.png"" style=""width:200px; border:14px solid green;"">","null","","","","","","","","",""
"490.80000001192093","","image-keyboard-response","87","500447","0.0-87.0","37W3JXSD67U1JCEHZU8COFSZFE2WY0","A3LVLZS8S41ZD7","3THR0FZ95PF7SK0MYRNAOUHTWA4OLV","","","img/flower4.png","75","491.39999997615814","2","1","1","","","","",""
"null","","html-keyboard-response","88","500756","0.0-88.0","37W3JXSD67U1JCEHZU8COFSZFE2WY0","A3LVLZS8S41ZD7","3THR0FZ95PF7SK0MYRNAOUHTWA4OLV","","","<img src=""img/flower4.png"" style=""width:200px; border:14px solid green;"">","null","","","","","","","","",""
"505.4000000357628","","image-keyboard-response","89","501262","0.0-89.0","37W3JXSD67U1JCEHZU8COFSZFE2WY0","A3LVLZS8S41ZD7","3THR0FZ95PF7SK0MYRNAOUHTWA4OLV","","","img/flower4.png","75","506.10000002384186","2","1","1","","","","",""
"null","","html-keyboard-response","90","501575","0.0-90.0","37W3JXSD67U1JCEHZU8COFSZFE2WY0","A3LVLZS8S41ZD7","3THR0FZ95PF7SK0MYRNAOUHTWA4OLV","","","<img src=""img/flower4.png"" style=""width:200px; border:14px solid green;"">","null","","","","","","","","",""
"742.8000000119209","","image-keyboard-response","91","502319","0.0-91.0","37W3JXSD67U1JCEHZU8COFSZFE2WY0","A3LVLZS8S41ZD7","3THR0FZ95PF7SK0MYRNAOUHTWA4OLV","","","img/flower6.png","76","743.7000000476837","3","0","3","","","","",""
"null","","html-keyboard-response","92","502630","0.0-92.0","37W3JXSD67U1JCEHZU8COFSZFE2WY0","A3LVLZS8S41ZD7","3THR0FZ95PF7SK0MYRNAOUHTWA4OLV","","","<img src=""img/flower6.png"" style=""width:200px;border:14px solid red;"">","null","","","","","","","","",""
"591.8000000119209","","image-keyboard-response","93","503222","0.0-93.0","37W3JXSD67U1JCEHZU8COFSZFE2WY0","A3LVLZS8S41ZD7","3THR0FZ95PF7SK0MYRNAOUHTWA4OLV","","","img/flower6.png","76","592.6000000238419","3","1","3","","","","",""
"null","","html-keyboard-response","94","503533","0.0-94.0","37W3JXSD67U1JCEHZU8COFSZFE2WY0","A3LVLZS8S41ZD7","3THR0FZ95PF7SK0MYRNAOUHTWA4OLV","","","<img src=""img/flower6.png"" style=""width:200px; border:14px solid green;"">","null","","","","","","","","",""
"849.1999999880791","","image-keyboard-response","95","504383","0.0-95.0","37W3JXSD67U1JCEHZU8COFSZFE2WY0","A3LVLZS8S41ZD7","3THR0FZ95PF7SK0MYRNAOUHTWA4OLV","","","img/flower4.png","74","849.8000000119209","1","1","1","","","","",""
"null","","html-keyboard-response","96","504686","0.0-96.0","37W3JXSD67U1JCEHZU8COFSZFE2WY0","A3LVLZS8S41ZD7","3THR0FZ95PF7SK0MYRNAOUHTWA4OLV","","","<img src=""img/flower4.png"" style=""width:200px; border:14px solid green;"">","null","","","","","","","","",""
"663.7999999523163","","image-keyboard-response","97","505351","0.0-97.0","37W3JXSD67U1JCEHZU8COFSZFE2WY0","A3LVLZS8S41ZD7","3THR0FZ95PF7SK0MYRNAOUHTWA4OLV","","","img/flower6.png","76","664.4000000357628","3","1","3","","","","",""
"null","","html-keyboard-response","98","505667","0.0-98.0","37W3JXSD67U1JCEHZU8COFSZFE2WY0","A3LVLZS8S41ZD7","3THR0FZ95PF7SK0MYRNAOUHTWA4OLV","","","<img src=""img/flower6.png"" style=""width:200px; border:14px solid green;"">","null","","","","","","","","",""
"458.39999997615814","","image-keyboard-response","99","506127","0.0-99.0","37W3JXSD67U1JCEHZU8COFSZFE2WY0","A3LVLZS8S41ZD7","3THR0FZ95PF7SK0MYRNAOUHTWA4OLV","","","img/flower6.png","76","459.0999999642372","3","1","3","","","","",""
"null","","html-keyboard-response","100","506438","0.0-100.0","37W3JXSD67U1JCEHZU8COFSZFE2WY0","A3LVLZS8S41ZD7","3THR0FZ95PF7SK0MYRNAOUHTWA4OLV","","","<img src=""img/flower6.png"" style=""width:200px; border:14px solid green;"">","null","","","","","","","","",""
"599.3999999761581","","image-keyboard-response","101","507039","0.0-101.0","37W3JXSD67U1JCEHZU8COFSZFE2WY0","A3LVLZS8S41ZD7","3THR0FZ95PF7SK0MYRNAOUHTWA4OLV","","","img/flower5.png","75","600.3000000119209","2","0","2","","","","",""
"null","","html-keyboard-response","102","507353","0.0-102.0","37W3JXSD67U1JCEHZU8COFSZFE2WY0","A3LVLZS8S41ZD7","3THR0FZ95PF7SK0MYRNAOUHTWA4OLV","","","<img src=""img/flower5.png"" style=""width:200px;border:14px solid red;"">","null","","","","","","","","",""
"388.7000000476837","","image-keyboard-response","103","507743","0.0-103.0","37W3JXSD67U1JCEHZU8COFSZFE2WY0","A3LVLZS8S41ZD7","3THR0FZ95PF7SK0MYRNAOUHTWA4OLV","","","img/flower5.png","75","389.19999998807907","2","1","2","","","","",""
"null","","html-keyboard-response","104","508054","0.0-104.0","37W3JXSD67U1JCEHZU8COFSZFE2WY0","A3LVLZS8S41ZD7","3THR0FZ95PF7SK0MYRNAOUHTWA4OLV","","","<img src=""img/flower5.png"" style=""width:200px; border:14px solid green;"">","null","","","","","","","","",""
"637.5","","image-keyboard-response","105","508694","0.0-105.0","37W3JXSD67U1JCEHZU8COFSZFE2WY0","A3LVLZS8S41ZD7","3THR0FZ95PF7SK0MYRNAOUHTWA4OLV","","","img/flower4.png","74","639.6999999880791","1","1","1","","","","",""
"null","","html-keyboard-response","106","508998","0.0-106.0","37W3JXSD67U1JCEHZU8COFSZFE2WY0","A3LVLZS8S41ZD7","3THR0FZ95PF7SK0MYRNAOUHTWA4OLV","","","<img src=""img/flower4.png"" style=""width:200px; border:14px solid green;"">","null","","","","","","","","",""
"622.1000000238419","","image-keyboard-response","107","509623","0.0-107.0","37W3JXSD67U1JCEHZU8COFSZFE2WY0","A3LVLZS8S41ZD7","3THR0FZ95PF7SK0MYRNAOUHTWA4OLV","","","img/flower5.png","75","623.4000000357628","2","0","2","","","","",""
"null","","html-keyboard-response","108","509936","0.0-108.0","37W3JXSD67U1JCEHZU8COFSZFE2WY0","A3LVLZS8S41ZD7","3THR0FZ95PF7SK0MYRNAOUHTWA4OLV","","","<img src=""img/flower5.png"" style=""width:200px;border:14px solid red;"">","null","","","","","","","","",""
"622","","image-keyboard-response","109","510559","0.0-109.0","37W3JXSD67U1JCEHZU8COFSZFE2WY0","A3LVLZS8S41ZD7","3THR0FZ95PF7SK0MYRNAOUHTWA4OLV","","","img/flower6.png","76","623.1000000238419","3","1","3","","","","",""
"null","","html-keyboard-response","110","510868","0.0-110.0","37W3JXSD67U1JCEHZU8COFSZFE2WY0","A3LVLZS8S41ZD7","3THR0FZ95PF7SK0MYRNAOUHTWA4OLV","","","<img src=""img/flower6.png"" style=""width:200px; border:14px solid green;"">","null","","","","","","","","",""
"449.60000002384186","","image-keyboard-response","111","511320","0.0-111.0","37W3JXSD67U1JCEHZU8COFSZFE2WY0","A3LVLZS8S41ZD7","3THR0FZ95PF7SK0MYRNAOUHTWA4OLV","","","img/flower6.png","76","451.2999999523163","3","1","3","","","","",""
"null","","html-keyboard-response","112","511628","0.0-112.0","37W3JXSD67U1JCEHZU8COFSZFE2WY0","A3LVLZS8S41ZD7","3THR0FZ95PF7SK0MYRNAOUHTWA4OLV","","","<img src=""img/flower6.png"" style=""width:200px; border:14px solid green;"">","null","","","","","","","","",""
"560.1999999880791","","image-keyboard-response","113","512190","0.0-113.0","37W3JXSD67U1JCEHZU8COFSZFE2WY0","A3LVLZS8S41ZD7","3THR0FZ95PF7SK0MYRNAOUHTWA4OLV","","","img/flower5.png","75","561.6999999880791","2","1","2","","","","",""
"null","","html-keyboard-response","114","512502","0.0-114.0","37W3JXSD67U1JCEHZU8COFSZFE2WY0","A3LVLZS8S41ZD7","3THR0FZ95PF7SK0MYRNAOUHTWA4OLV","","","<img src=""img/flower5.png"" style=""width:200px; border:14px solid green;"">","null","","","","","","","","",""
"694.6999999880791","","image-keyboard-response","115","513199","0.0-115.0","37W3JXSD67U1JCEHZU8COFSZFE2WY0","A3LVLZS8S41ZD7","3THR0FZ95PF7SK0MYRNAOUHTWA4OLV","","","img/flower4.png","74","696.3999999761581","1","1","1","","","","",""
"null","","html-keyboard-response","116","513514","0.0-116.0","37W3JXSD67U1JCEHZU8COFSZFE2WY0","A3LVLZS8S41ZD7","3THR0FZ95PF7SK0MYRNAOUHTWA4OLV","","","<img src=""img/flower4.png"" style=""width:200px; border:14px solid green;"">","null","","","","","","","","",""
"747.5","","image-keyboard-response","117","514264","0.0-117.0","37W3JXSD67U1JCEHZU8COFSZFE2WY0","A3LVLZS8S41ZD7","3THR0FZ95PF7SK0MYRNAOUHTWA4OLV","","","img/flower4.png","75","749.2999999523163","2","0","1","","","","",""
"null","","html-keyboard-response","118","514572","0.0-118.0","37W3JXSD67U1JCEHZU8COFSZFE2WY0","A3LVLZS8S41ZD7","3THR0FZ95PF7SK0MYRNAOUHTWA4OLV","","","<img src=""img/flower4.png"" style=""width:200px;border:14px solid red;"">","null","","","","","","","","",""
"882","","image-keyboard-response","119","515456","0.0-119.0","37W3JXSD67U1JCEHZU8COFSZFE2WY0","A3LVLZS8S41ZD7","3THR0FZ95PF7SK0MYRNAOUHTWA4OLV","","","img/flower6.png","74","883.9000000357628","1","1","3","","","","",""
"null","","html-keyboard-response","120","515764","0.0-120.0","37W3JXSD67U1JCEHZU8COFSZFE2WY0","A3LVLZS8S41ZD7","3THR0FZ95PF7SK0MYRNAOUHTWA4OLV","","","<img src=""img/flower6.png"" style=""width:200px; border:14px solid green;"">","null","","","","","","","","",""
"1122.5","","image-keyboard-response","121","516888","0.0-121.0","37W3JXSD67U1JCEHZU8COFSZFE2WY0","A3LVLZS8S41ZD7","3THR0FZ95PF7SK0MYRNAOUHTWA4OLV","","","img/flower5.png","76","1123.7999999523163","3","1","2","","","","",""
"null","","html-keyboard-response","122","517197","0.0-122.0","37W3JXSD67U1JCEHZU8COFSZFE2WY0","A3LVLZS8S41ZD7","3THR0FZ95PF7SK0MYRNAOUHTWA4OLV","","","<img src=""img/flower5.png"" style=""width:200px; border:14px solid green;"">","null","","","","","","","","",""
"991.7999999523163","","image-keyboard-response","123","518191","0.0-123.0","37W3JXSD67U1JCEHZU8COFSZFE2WY0","A3LVLZS8S41ZD7","3THR0FZ95PF7SK0MYRNAOUHTWA4OLV","","","img/flower6.png","76","993.1000000238419","3","0","3","","","","",""
"null","","html-keyboard-response","124","518506","0.0-124.0","37W3JXSD67U1JCEHZU8COFSZFE2WY0","A3LVLZS8S41ZD7","3THR0FZ95PF7SK0MYRNAOUHTWA4OLV","","","<img src=""img/flower6.png"" style=""width:200px;border:14px solid red;"">","null","","","","","","","","",""
"3499.900000035763","","instructions","125","522007","0.0-125.0","37W3JXSD67U1JCEHZU8COFSZFE2WY0","A3LVLZS8S41ZD7","3THR0FZ95PF7SK0MYRNAOUHTWA4OLV","","[{""page_index"":0,""viewing_time"":3499.7000000476837}]","","","","","","","","","","",""
"1704.0999999642372","","image-keyboard-response","126","523712","0.0-126.0","37W3JXSD67U1JCEHZU8COFSZFE2WY0","A3LVLZS8S41ZD7","3THR0FZ95PF7SK0MYRNAOUHTWA4OLV","","","img/flower2.png","74","1705.4000000357628","1","0","3","1","1,0.333,0.333,0.333,1,0.333,0.333,0.333,1","1,0.333,0.333,0.333,1,0.333,0.333,0.333,1","1",""
"null","","html-keyboard-response","127","524030","0.0-127.0","37W3JXSD67U1JCEHZU8COFSZFE2WY0","A3LVLZS8S41ZD7","3THR0FZ95PF7SK0MYRNAOUHTWA4OLV","","","<img src=""img/flower2.png"" style=""width:200px;border:14px solid red;"">","null","","","","","","","","",""
"3958.300000011921","","image-keyboard-response","128","527991","0.0-128.0","37W3JXSD67U1JCEHZU8COFSZFE2WY0","A3LVLZS8S41ZD7","3THR0FZ95PF7SK0MYRNAOUHTWA4OLV","","","img/flower3.png","74","3959.800000011921","1","1","1","1","1,0.333,0.333,0.333,1,0.333,0.333,0.333,1","1,0.333,0.333,0.333,1,0.333,0.333,0.333,1","1",""
"null","","html-keyboard-response","129","528305","0.0-129.0","37W3JXSD67U1JCEHZU8COFSZFE2WY0","A3LVLZS8S41ZD7","3THR0FZ95PF7SK0MYRNAOUHTWA4OLV","","","<img src=""img/flower3.png"" style=""width:200px; border:14px solid green;"">","null","","","","","","","","",""
"1309.5","","image-keyboard-response","130","529616","0.0-130.0","37W3JXSD67U1JCEHZU8COFSZFE2WY0","A3LVLZS8S41ZD7","3THR0FZ95PF7SK0MYRNAOUHTWA4OLV","","","img/flower2.png","75","1310.699999988079","2","0","3","1","1,0.333,0.333,0.333,1,0.333,0.333,0.333,1","1,0.333,0.333,0.333,1,0.333,0.333,0.333,1","1",""
"null","","html-keyboard-response","131","529923","0.0-131.0","37W3JXSD67U1JCEHZU8COFSZFE2WY0","A3LVLZS8S41ZD7","3THR0FZ95PF7SK0MYRNAOUHTWA4OLV","","","<img src=""img/flower2.png"" style=""width:200px;border:14px solid red;"">","null","","","","","","","","",""
"890.1999999880791","","image-keyboard-response","132","530815","0.0-132.0","37W3JXSD67U1JCEHZU8COFSZFE2WY0","A3LVLZS8S41ZD7","3THR0FZ95PF7SK0MYRNAOUHTWA4OLV","","","img/flower2.png","75","891.1000000238419","2","0","3","1","1,0.333,0.333,0.333,1,0.333,0.333,0.333,1","1,0.333,0.333,0.333,1,0.333,0.333,0.333,1","1",""
"null","","html-keyboard-response","133","531122","0.0-133.0","37W3JXSD67U1JCEHZU8COFSZFE2WY0","A3LVLZS8S41ZD7","3THR0FZ95PF7SK0MYRNAOUHTWA4OLV","","","<img src=""img/flower2.png"" style=""width:200px;border:14px solid red;"">","null","","","","","","","","",""
"1410.5","","image-keyboard-response","134","532535","0.0-134.0","37W3JXSD67U1JCEHZU8COFSZFE2WY0","A3LVLZS8S41ZD7","3THR0FZ95PF7SK0MYRNAOUHTWA4OLV","","","img/flower3.png","75","1412.1000000238419","2","0","1","1","1,0.333,0.333,0.333,1,0.333,0.333,0.333,1","1,0.333,0.333,0.333,1,0.333,0.333,0.333,1","1",""
"null","","html-keyboard-response","135","532850","0.0-135.0","37W3JXSD67U1JCEHZU8COFSZFE2WY0","A3LVLZS8S41ZD7","3THR0FZ95PF7SK0MYRNAOUHTWA4OLV","","","<img src=""img/flower3.png"" style=""width:200px;border:14px solid red;"">","null","","","","","","","","",""
"466.89999997615814","","image-keyboard-response","136","533319","0.0-136.0","37W3JXSD67U1JCEHZU8COFSZFE2WY0","A3LVLZS8S41ZD7","3THR0FZ95PF7SK0MYRNAOUHTWA4OLV","","","img/flower3.png","75","468.5","2","0","1","1","1,0.333,0.333,0.333,1,0.333,0.333,0.333,1","1,0.333,0.333,0.333,1,0.333,0.333,0.333,1","1",""
"null","","html-keyboard-response","137","533628","0.0-137.0","37W3JXSD67U1JCEHZU8COFSZFE2WY0","A3LVLZS8S41ZD7","3THR0FZ95PF7SK0MYRNAOUHTWA4OLV","","","<img src=""img/flower3.png"" style=""width:200px;border:14px solid red;"">","null","","","","","","","","",""
"1360.0999999642372","","image-keyboard-response","138","534990","0.0-138.0","37W3JXSD67U1JCEHZU8COFSZFE2WY0","A3LVLZS8S41ZD7","3THR0FZ95PF7SK0MYRNAOUHTWA4OLV","","","img/flower2.png","76","1361.5","3","1","3","1","1,0.333,0.333,0.333,1,0.333,0.333,0.333,1","1,0.333,0.333,0.333,1,0.333,0.333,0.333,1","1",""
"null","","html-keyboard-response","139","535305","0.0-139.0","37W3JXSD67U1JCEHZU8COFSZFE2WY0","A3LVLZS8S41ZD7","3THR0FZ95PF7SK0MYRNAOUHTWA4OLV","","","<img src=""img/flower2.png"" style=""width:200px; border:14px solid green;"">","null","","","","","","","","",""
"781.8000000119209","","image-keyboard-response","140","536088","0.0-140.0","37W3JXSD67U1JCEHZU8COFSZFE2WY0","A3LVLZS8S41ZD7","3THR0FZ95PF7SK0MYRNAOUHTWA4OLV","","","img/flower2.png","76","782.8999999761581","3","1","3","1","1,0.333,0.333,0.333,1,0.333,0.333,0.333,1","1,0.333,0.333,0.333,1,0.333,0.333,0.333,1","1",""
"null","","html-keyboard-response","141","536396","0.0-141.0","37W3JXSD67U1JCEHZU8COFSZFE2WY0","A3LVLZS8S41ZD7","3THR0FZ95PF7SK0MYRNAOUHTWA4OLV","","","<img src=""img/flower2.png"" style=""width:200px; border:14px solid green;"">","null","","","","","","","","",""
"993.7999999523163","","image-keyboard-response","142","537392","0.0-142.0","37W3JXSD67U1JCEHZU8COFSZFE2WY0","A3LVLZS8S41ZD7","3THR0FZ95PF7SK0MYRNAOUHTWA4OLV","","","img/flower2.png","76","995.8000000119209","3","1","3","1","1,0.333,0.333,0.333,1,0.333,0.333,0.333,1","1,0.333,0.333,0.333,1,0.333,0.333,0.333,1","1",""
"null","","html-keyboard-response","143","537705","0.0-143.0","37W3JXSD67U1JCEHZU8COFSZFE2WY0","A3LVLZS8S41ZD7","3THR0FZ95PF7SK0MYRNAOUHTWA4OLV","","","<img src=""img/flower2.png"" style=""width:200px; border:14px solid green;"">","null","","","","","","","","",""
"2797.400000035763","","image-keyboard-response","144","540504","0.0-144.0","37W3JXSD67U1JCEHZU8COFSZFE2WY0","A3LVLZS8S41ZD7","3THR0FZ95PF7SK0MYRNAOUHTWA4OLV","","","img/flower1.png","75","2798.800000011921","2","1","2","1","1,0.333,0.333,0.333,1,0.333,0.333,0.333,1","1,0.333,0.333,0.333,1,0.333,0.333,0.333,1","1",""
"null","","html-keyboard-response","145","540819","0.0-145.0","37W3JXSD67U1JCEHZU8COFSZFE2WY0","A3LVLZS8S41ZD7","3THR0FZ95PF7SK0MYRNAOUHTWA4OLV","","","<img src=""img/flower1.png"" style=""width:200px; border:14px solid green;"">","null","","","","","","","","",""
"465.69999998807907","","image-keyboard-response","146","541287","0.0-146.0","37W3JXSD67U1JCEHZU8COFSZFE2WY0","A3LVLZS8S41ZD7","3THR0FZ95PF7SK0MYRNAOUHTWA4OLV","","","img/flower1.png","75","466.80000001192093","2","1","2","1","1,0.333,0.333,0.333,1,0.333,0.333,0.333,1","1,0.333,0.333,0.333,1,0.333,0.333,0.333,1","1",""
"null","","html-keyboard-response","147","541599","0.0-147.0","37W3JXSD67U1JCEHZU8COFSZFE2WY0","A3LVLZS8S41ZD7","3THR0FZ95PF7SK0MYRNAOUHTWA4OLV","","","<img src=""img/flower1.png"" style=""width:200px; border:14px solid green;"">","null","","","","","","","","",""
"750.1000000238419","","image-keyboard-response","148","542351","0.0-148.0","37W3JXSD67U1JCEHZU8COFSZFE2WY0","A3LVLZS8S41ZD7","3THR0FZ95PF7SK0MYRNAOUHTWA4OLV","","","img/flower1.png","75","751.6000000238419","2","1","2","1","1,0.333,0.333,0.333,1,0.333,0.333,0.333,1","1,0.333,0.333,0.333,1,0.333,0.333,0.333,1","1",""
"null","","html-keyboard-response","149","542658","0.0-149.0","37W3JXSD67U1JCEHZU8COFSZFE2WY0","A3LVLZS8S41ZD7","3THR0FZ95PF7SK0MYRNAOUHTWA4OLV","","","<img src=""img/flower1.png"" style=""width:200px; border:14px solid green;"">","null","","","","","","","","",""
"610.4000000357628","","image-keyboard-response","150","543271","0.0-150.0","37W3JXSD67U1JCEHZU8COFSZFE2WY0","A3LVLZS8S41ZD7","3THR0FZ95PF7SK0MYRNAOUHTWA4OLV","","","img/flower1.png","75","612","2","1","2","1","1,0.333,0.333,0.333,1,0.333,0.333,0.333,1","1,0.333,0.333,0.333,1,0.333,0.333,0.333,1","1",""
"null","","html-keyboard-response","151","543578","0.0-151.0","37W3JXSD67U1JCEHZU8COFSZFE2WY0","A3LVLZS8S41ZD7","3THR0FZ95PF7SK0MYRNAOUHTWA4OLV","","","<img src=""img/flower1.png"" style=""width:200px; border:14px solid green;"">","null","","","","","","","","",""
"820","","image-keyboard-response","152","544400","0.0-152.0","37W3JXSD67U1JCEHZU8COFSZFE2WY0","A3LVLZS8S41ZD7","3THR0FZ95PF7SK0MYRNAOUHTWA4OLV","","","img/flower2.png","76","821.3000000119209","3","1","3","1","1,0.333,0.333,0.333,1,0.333,0.333,0.333,1","1,0.333,0.333,0.333,1,0.333,0.333,0.333,1","1",""
"null","","html-keyboard-response","153","544705","0.0-153.0","37W3JXSD67U1JCEHZU8COFSZFE2WY0","A3LVLZS8S41ZD7","3THR0FZ95PF7SK0MYRNAOUHTWA4OLV","","","<img src=""img/flower2.png"" style=""width:200px; border:14px solid green;"">","null","","","","","","","","",""
"517.3999999761581","","image-keyboard-response","154","545225","0.0-154.0","37W3JXSD67U1JCEHZU8COFSZFE2WY0","A3LVLZS8S41ZD7","3THR0FZ95PF7SK0MYRNAOUHTWA4OLV","","","img/flower1.png","75","519.0999999642372","2","1","2","1","1,0.333,0.333,0.333,1,0.333,0.333,0.333,1","1,0.333,0.333,0.333,1,0.333,0.333,0.333,1","1",""
"null","","html-keyboard-response","155","545542","0.0-155.0","37W3JXSD67U1JCEHZU8COFSZFE2WY0","A3LVLZS8S41ZD7","3THR0FZ95PF7SK0MYRNAOUHTWA4OLV","","","<img src=""img/flower1.png"" style=""width:200px; border:14px solid green;"">","null","","","","","","","","",""
"854.3999999761581","","image-keyboard-response","156","546399","0.0-156.0","37W3JXSD67U1JCEHZU8COFSZFE2WY0","A3LVLZS8S41ZD7","3THR0FZ95PF7SK0MYRNAOUHTWA4OLV","","","img/flower3.png","74","855.5999999642372","1","1","1","1","1,0.333,0.333,0.333,1,0.333,0.333,0.333,1","1,0.333,0.333,0.333,1,0.333,0.333,0.333,1","1",""
"null","","html-keyboard-response","157","546711","0.0-157.0","37W3JXSD67U1JCEHZU8COFSZFE2WY0","A3LVLZS8S41ZD7","3THR0FZ95PF7SK0MYRNAOUHTWA4OLV","","","<img src=""img/flower3.png"" style=""width:200px; border:14px solid green;"">","null","","","","","","","","",""
"998.0999999642372","","image-keyboard-response","158","547712","0.0-158.0","37W3JXSD67U1JCEHZU8COFSZFE2WY0","A3LVLZS8S41ZD7","3THR0FZ95PF7SK0MYRNAOUHTWA4OLV","","","img/flower1.png","75","1000","2","1","2","1","1,0.333,0.333,0.333,1,0.333,0.333,0.333,1","1,0.333,0.333,0.333,1,0.333,0.333,0.333,1","1",""
"null","","html-keyboard-response","159","548019","0.0-159.0","37W3JXSD67U1JCEHZU8COFSZFE2WY0","A3LVLZS8S41ZD7","3THR0FZ95PF7SK0MYRNAOUHTWA4OLV","","","<img src=""img/flower1.png"" style=""width:200px; border:14px solid green;"">","null","","","","","","","","",""
"835.5999999642372","","image-keyboard-response","160","548856","0.0-160.0","37W3JXSD67U1JCEHZU8COFSZFE2WY0","A3LVLZS8S41ZD7","3THR0FZ95PF7SK0MYRNAOUHTWA4OLV","","","img/flower3.png","74","836.9000000357628","1","1","1","1","1,0.333,0.333,0.333,1,0.333,0.333,0.333,1","1,0.333,0.333,0.333,1,0.333,0.333,0.333,1","1",""
"null","","html-keyboard-response","161","549164","0.0-161.0","37W3JXSD67U1JCEHZU8COFSZFE2WY0","A3LVLZS8S41ZD7","3THR0FZ95PF7SK0MYRNAOUHTWA4OLV","","","<img src=""img/flower3.png"" style=""width:200px; border:14px solid green;"">","null","","","","","","","","",""
"490.19999998807907","","image-keyboard-response","162","549656","0.0-162.0","37W3JXSD67U1JCEHZU8COFSZFE2WY0","A3LVLZS8S41ZD7","3THR0FZ95PF7SK0MYRNAOUHTWA4OLV","","","img/flower3.png","74","491.19999998807907","1","1","1","1","1,0.333,0.333,0.333,1,0.333,0.333,0.333,1","1,0.333,0.333,0.333,1,0.333,0.333,0.333,1","1",""
"null","","html-keyboard-response","163","549960","0.0-163.0","37W3JXSD67U1JCEHZU8COFSZFE2WY0","A3LVLZS8S41ZD7","3THR0FZ95PF7SK0MYRNAOUHTWA4OLV","","","<img src=""img/flower3.png"" style=""width:200px; border:14px solid green;"">","null","","","","","","","","",""
"500.39999997615814","","image-keyboard-response","164","550463","0.0-164.0","37W3JXSD67U1JCEHZU8COFSZFE2WY0","A3LVLZS8S41ZD7","3THR0FZ95PF7SK0MYRNAOUHTWA4OLV","","","img/flower3.png","74","502","1","1","1","1","1,0.333,0.333,0.333,1,0.333,0.333,0.333,1","1,0.333,0.333,0.333,1,0.333,0.333,0.333,1","1",""
"null","","html-keyboard-response","165","550767","0.0-165.0","37W3JXSD67U1JCEHZU8COFSZFE2WY0","A3LVLZS8S41ZD7","3THR0FZ95PF7SK0MYRNAOUHTWA4OLV","","","<img src=""img/flower3.png"" style=""width:200px; border:14px solid green;"">","null","","","","","","","","",""
"623.1999999880791","","image-keyboard-response","166","551390","0.0-166.0","37W3JXSD67U1JCEHZU8COFSZFE2WY0","A3LVLZS8S41ZD7","3THR0FZ95PF7SK0MYRNAOUHTWA4OLV","","","img/flower2.png","76","623.8999999761581","3","1","3","1","1,0.333,0.333,0.333,1,0.333,0.333,0.333,1","1,0.333,0.333,0.333,1,0.333,0.333,0.333,1","1",""
"null","","html-keyboard-response","167","551702","0.0-167.0","37W3JXSD67U1JCEHZU8COFSZFE2WY0","A3LVLZS8S41ZD7","3THR0FZ95PF7SK0MYRNAOUHTWA4OLV","","","<img src=""img/flower2.png"" style=""width:200px; border:14px solid green;"">","null","","","","","","","","",""
"694.8999999761581","","image-keyboard-response","168","552399","0.0-168.0","37W3JXSD67U1JCEHZU8COFSZFE2WY0","A3LVLZS8S41ZD7","3THR0FZ95PF7SK0MYRNAOUHTWA4OLV","","","img/flower3.png","74","696.1000000238419","1","1","1","1","1,0.333,0.333,0.333,1,0.333,0.333,0.333,1","1,0.333,0.333,0.333,1,0.333,0.333,0.333,1","1",""
"null","","html-keyboard-response","169","552711","0.0-169.0","37W3JXSD67U1JCEHZU8COFSZFE2WY0","A3LVLZS8S41ZD7","3THR0FZ95PF7SK0MYRNAOUHTWA4OLV","","","<img src=""img/flower3.png"" style=""width:200px; border:14px solid green;"">","null","","","","","","","","",""
"542.8000000119209","","image-keyboard-response","170","553254","0.0-170.0","37W3JXSD67U1JCEHZU8COFSZFE2WY0","A3LVLZS8S41ZD7","3THR0FZ95PF7SK0MYRNAOUHTWA4OLV","","","img/flower1.png","75","543.6000000238419","2","1","2","1","1,0.333,0.333,0.333,1,0.333,0.333,0.333,1","1,0.333,0.333,0.333,1,0.333,0.333,0.333,1","1",""
"null","","html-keyboard-response","171","553561","0.0-171.0","37W3JXSD67U1JCEHZU8COFSZFE2WY0","A3LVLZS8S41ZD7","3THR0FZ95PF7SK0MYRNAOUHTWA4OLV","","","<img src=""img/flower1.png"" style=""width:200px; border:14px solid green;"">","null","","","","","","","","",""
"644.6000000238419","","image-keyboard-response","172","554206","0.0-172.0","37W3JXSD67U1JCEHZU8COFSZFE2WY0","A3LVLZS8S41ZD7","3THR0FZ95PF7SK0MYRNAOUHTWA4OLV","","","img/flower3.png","74","645.5","1","1","1","1","1,0.333,0.333,0.333,1,0.333,0.333,0.333,1","1,0.333,0.333,0.333,1,0.333,0.333,0.333,1","1",""
"null","","html-keyboard-response","173","554516","0.0-173.0","37W3JXSD67U1JCEHZU8COFSZFE2WY0","A3LVLZS8S41ZD7","3THR0FZ95PF7SK0MYRNAOUHTWA4OLV","","","<img src=""img/flower3.png"" style=""width:200px; border:14px solid green;"">","null","","","","","","","","",""
"425.10000002384186","","image-keyboard-response","174","554942","0.0-174.0","37W3JXSD67U1JCEHZU8COFSZFE2WY0","A3LVLZS8S41ZD7","3THR0FZ95PF7SK0MYRNAOUHTWA4OLV","","","img/flower3.png","74","425.7999999523163","1","1","1","1","1,0.333,0.333,0.333,1,0.333,0.333,0.333,1","1,0.333,0.333,0.333,1,0.333,0.333,0.333,1","1",""
"null","","html-keyboard-response","175","555249","0.0-175.0","37W3JXSD67U1JCEHZU8COFSZFE2WY0","A3LVLZS8S41ZD7","3THR0FZ95PF7SK0MYRNAOUHTWA4OLV","","","<img src=""img/flower3.png"" style=""width:200px; border:14px solid green;"">","null","","","","","","","","",""
"468.4000000357628","","image-keyboard-response","176","555718","0.0-176.0","37W3JXSD67U1JCEHZU8COFSZFE2WY0","A3LVLZS8S41ZD7","3THR0FZ95PF7SK0MYRNAOUHTWA4OLV","","","img/flower3.png","74","469.30000001192093","1","1","1","1","1,0.333,0.333,0.333,1,0.333,0.333,0.333,1","1,0.333,0.333,0.333,1,0.333,0.333,0.333,1","1",""
"null","","html-keyboard-response","177","556019","0.0-177.0","37W3JXSD67U1JCEHZU8COFSZFE2WY0","A3LVLZS8S41ZD7","3THR0FZ95PF7SK0MYRNAOUHTWA4OLV","","","<img src=""img/flower3.png"" style=""width:200px; border:14px solid green;"">","null","","","","","","","","",""
"410.0999999642372","","image-keyboard-response","178","556430","0.0-178.0","37W3JXSD67U1JCEHZU8COFSZFE2WY0","A3LVLZS8S41ZD7","3THR0FZ95PF7SK0MYRNAOUHTWA4OLV","","","img/flower3.png","74","410.80000001192093","1","1","1","1","1,0.333,0.333,0.333,1,0.333,0.333,0.333,1","1,0.333,0.333,0.333,1,0.333,0.333,0.333,1","1",""
"null","","html-keyboard-response","179","556746","0.0-179.0","37W3JXSD67U1JCEHZU8COFSZFE2WY0","A3LVLZS8S41ZD7","3THR0FZ95PF7SK0MYRNAOUHTWA4OLV","","","<img src=""img/flower3.png"" style=""width:200px; border:14px solid green;"">","null","","","","","","","","",""
"571.3999999761581","","image-keyboard-response","180","557318","0.0-180.0","37W3JXSD67U1JCEHZU8COFSZFE2WY0","A3LVLZS8S41ZD7","3THR0FZ95PF7SK0MYRNAOUHTWA4OLV","","","img/flower2.png","76","572","3","1","3","1","1,0.333,0.333,0.333,1,0.333,0.333,0.333,1","1,0.333,0.333,0.333,1,0.333,0.333,0.333,1","1",""
"null","","html-keyboard-response","181","557626","0.0-181.0","37W3JXSD67U1JCEHZU8COFSZFE2WY0","A3LVLZS8S41ZD7","3THR0FZ95PF7SK0MYRNAOUHTWA4OLV","","","<img src=""img/flower2.png"" style=""width:200px; border:14px solid green;"">","null","","","","","","","","",""
"371.5","","image-keyboard-response","182","557998","0.0-182.0","37W3JXSD67U1JCEHZU8COFSZFE2WY0","A3LVLZS8S41ZD7","3THR0FZ95PF7SK0MYRNAOUHTWA4OLV","","","img/flower2.png","76","372.30000001192093","3","1","3","1","1,0.333,0.333,0.333,1,0.333,0.333,0.333,1","1,0.333,0.333,0.333,1,0.333,0.333,0.333,1","1",""
"null","","html-keyboard-response","183","558300","0.0-183.0","37W3JXSD67U1JCEHZU8COFSZFE2WY0","A3LVLZS8S41ZD7","3THR0FZ95PF7SK0MYRNAOUHTWA4OLV","","","<img src=""img/flower2.png"" style=""width:200px; border:14px solid green;"">","null","","","","","","","","",""
"673.3000000119209","","image-keyboard-response","184","558974","0.0-184.0","37W3JXSD67U1JCEHZU8COFSZFE2WY0","A3LVLZS8S41ZD7","3THR0FZ95PF7SK0MYRNAOUHTWA4OLV","","","img/flower3.png","74","674","1","1","1","1","1,0.333,0.333,0.333,1,0.333,0.333,0.333,1","1,0.333,0.333,0.333,1,0.333,0.333,0.333,1","1",""
"null","","html-keyboard-response","185","559281","0.0-185.0","37W3JXSD67U1JCEHZU8COFSZFE2WY0","A3LVLZS8S41ZD7","3THR0FZ95PF7SK0MYRNAOUHTWA4OLV","","","<img src=""img/flower3.png"" style=""width:200px; border:14px solid green;"">","null","","","","","","","","",""
"564.5999999642372","","image-keyboard-response","186","559846","0.0-186.0","37W3JXSD67U1JCEHZU8COFSZFE2WY0","A3LVLZS8S41ZD7","3THR0FZ95PF7SK0MYRNAOUHTWA4OLV","","","img/flower1.png","75","565.3000000119209","2","1","2","1","1,0.333,0.333,0.333,1,0.333,0.333,0.333,1","1,0.333,0.333,0.333,1,0.333,0.333,0.333,1","1",""
"null","","html-keyboard-response","187","560162","0.0-187.0","37W3JXSD67U1JCEHZU8COFSZFE2WY0","A3LVLZS8S41ZD7","3THR0FZ95PF7SK0MYRNAOUHTWA4OLV","","","<img src=""img/flower1.png"" style=""width:200px; border:14px solid green;"">","null","","","","","","","","",""
"539.8000000119209","","image-keyboard-response","188","560702","0.0-188.0","37W3JXSD67U1JCEHZU8COFSZFE2WY0","A3LVLZS8S41ZD7","3THR0FZ95PF7SK0MYRNAOUHTWA4OLV","","","img/flower3.png","74","540.5","1","1","1","1","1,0.333,0.333,0.333,1,0.333,0.333,0.333,1","1,0.333,0.333,0.333,1,0.333,0.333,0.333,1","1",""
"null","","html-keyboard-response","189","561012","0.0-189.0","37W3JXSD67U1JCEHZU8COFSZFE2WY0","A3LVLZS8S41ZD7","3THR0FZ95PF7SK0MYRNAOUHTWA4OLV","","","<img src=""img/flower3.png"" style=""width:200px; border:14px solid green;"">","null","","","","","","","","",""
"626.1000000238419","","image-keyboard-response","190","561639","0.0-190.0","37W3JXSD67U1JCEHZU8COFSZFE2WY0","A3LVLZS8S41ZD7","3THR0FZ95PF7SK0MYRNAOUHTWA4OLV","","","img/flower2.png","76","626.6999999880791","3","1","3","1","1,0.333,0.333,0.333,1,0.333,0.333,0.333,1","1,0.333,0.333,0.333,1,0.333,0.333,0.333,1","1",""
"null","","html-keyboard-response","191","561940","0.0-191.0","37W3JXSD67U1JCEHZU8COFSZFE2WY0","A3LVLZS8S41ZD7","3THR0FZ95PF7SK0MYRNAOUHTWA4OLV","","","<img src=""img/flower2.png"" style=""width:200px; border:14px solid green;"">","null","","","","","","","","",""
"617.6999999880791","","image-keyboard-response","192","562558","0.0-192.0","37W3JXSD67U1JCEHZU8COFSZFE2WY0","A3LVLZS8S41ZD7","3THR0FZ95PF7SK0MYRNAOUHTWA4OLV","","","img/flower1.png","75","618.3999999761581","2","1","2","1","1,0.333,0.333,0.333,1,0.333,0.333,0.333,1","1,0.333,0.333,0.333,1,0.333,0.333,0.333,1","1",""
"null","","html-keyboard-response","193","562868","0.0-193.0","37W3JXSD67U1JCEHZU8COFSZFE2WY0","A3LVLZS8S41ZD7","3THR0FZ95PF7SK0MYRNAOUHTWA4OLV","","","<img src=""img/flower1.png"" style=""width:200px; border:14px solid green;"">","null","","","","","","","","",""
"633.7000000476837","","image-keyboard-response","194","563502","0.0-194.0","37W3JXSD67U1JCEHZU8COFSZFE2WY0","A3LVLZS8S41ZD7","3THR0FZ95PF7SK0MYRNAOUHTWA4OLV","","","img/flower3.png","74","634.3999999761581","1","1","1","1","1,0.333,0.333,0.333,1,0.333,0.333,0.333,1","1,0.333,0.333,0.333,1,0.333,0.333,0.333,1","1",""
"null","","html-keyboard-response","195","563814","0.0-195.0","37W3JXSD67U1JCEHZU8COFSZFE2WY0","A3LVLZS8S41ZD7","3THR0FZ95PF7SK0MYRNAOUHTWA4OLV","","","<img src=""img/flower3.png"" style=""width:200px; border:14px solid green;"">","null","","","","","","","","",""
"575.3000000119209","","image-keyboard-response","196","564390","0.0-196.0","37W3JXSD67U1JCEHZU8COFSZFE2WY0","A3LVLZS8S41ZD7","3THR0FZ95PF7SK0MYRNAOUHTWA4OLV","","","img/flower1.png","75","575.8999999761581","2","1","2","1","1,0.333,0.333,0.333,1,0.333,0.333,0.333,1","1,0.333,0.333,0.333,1,0.333,0.333,0.333,1","1",""
"null","","html-keyboard-response","197","564702","0.0-197.0","37W3JXSD67U1JCEHZU8COFSZFE2WY0","A3LVLZS8S41ZD7","3THR0FZ95PF7SK0MYRNAOUHTWA4OLV","","","<img src=""img/flower1.png"" style=""width:200px; border:14px solid green;"">","null","","","","","","","","",""
"607","","image-keyboard-response","198","565310","0.0-198.0","37W3JXSD67U1JCEHZU8COFSZFE2WY0","A3LVLZS8S41ZD7","3THR0FZ95PF7SK0MYRNAOUHTWA4OLV","","","img/flower3.png","74","607.6000000238419","1","1","1","1","1,0.333,0.333,0.333,1,0.333,0.333,0.333,1","1,0.333,0.333,0.333,1,0.333,0.333,0.333,1","1",""
"null","","html-keyboard-response","199","565619","0.0-199.0","37W3JXSD67U1JCEHZU8COFSZFE2WY0","A3LVLZS8S41ZD7","3THR0FZ95PF7SK0MYRNAOUHTWA4OLV","","","<img src=""img/flower3.png"" style=""width:200px; border:14px solid green;"">","null","","","","","","","","",""
"690.5","","image-keyboard-response","200","566310","0.0-200.0","37W3JXSD67U1JCEHZU8COFSZFE2WY0","A3LVLZS8S41ZD7","3THR0FZ95PF7SK0MYRNAOUHTWA4OLV","","","img/flower2.png","76","691.0999999642372","3","1","3","1","1,0.333,0.333,0.333,1,0.333,0.333,0.333,1","1,0.333,0.333,0.333,1,0.333,0.333,0.333,1","1",""
"null","","html-keyboard-response","201","566612","0.0-201.0","37W3JXSD67U1JCEHZU8COFSZFE2WY0","A3LVLZS8S41ZD7","3THR0FZ95PF7SK0MYRNAOUHTWA4OLV","","","<img src=""img/flower2.png"" style=""width:200px; border:14px solid green;"">","null","","","","","","","","",""
"609.7000000476837","","image-keyboard-response","202","567222","0.0-202.0","37W3JXSD67U1JCEHZU8COFSZFE2WY0","A3LVLZS8S41ZD7","3THR0FZ95PF7SK0MYRNAOUHTWA4OLV","","","img/flower1.png","75","610.2999999523163","2","1","2","1","1,0.333,0.333,0.333,1,0.333,0.333,0.333,1","1,0.333,0.333,0.333,1,0.333,0.333,0.333,1","1",""
"null","","html-keyboard-response","203","567538","0.0-203.0","37W3JXSD67U1JCEHZU8COFSZFE2WY0","A3LVLZS8S41ZD7","3THR0FZ95PF7SK0MYRNAOUHTWA4OLV","","","<img src=""img/flower1.png"" style=""width:200px; border:14px solid green;"">","null","","","","","","","","",""
"403.0999999642372","","image-keyboard-response","204","567942","0.0-204.0","37W3JXSD67U1JCEHZU8COFSZFE2WY0","A3LVLZS8S41ZD7","3THR0FZ95PF7SK0MYRNAOUHTWA4OLV","","","img/flower1.png","75","404.0999999642372","2","1","2","1","1,0.333,0.333,0.333,1,0.333,0.333,0.333,1","1,0.333,0.333,0.333,1,0.333,0.333,0.333,1","1",""
"null","","html-keyboard-response","205","568255","0.0-205.0","37W3JXSD67U1JCEHZU8COFSZFE2WY0","A3LVLZS8S41ZD7","3THR0FZ95PF7SK0MYRNAOUHTWA4OLV","","","<img src=""img/flower1.png"" style=""width:200px; border:14px solid green;"">","null","","","","","","","","",""
"502.0999999642372","","image-keyboard-response","206","568759","0.0-206.0","37W3JXSD67U1JCEHZU8COFSZFE2WY0","A3LVLZS8S41ZD7","3THR0FZ95PF7SK0MYRNAOUHTWA4OLV","","","img/flower2.png","75","503.5","2","0","3","1","1,0.333,0.333,0.333,1,0.333,0.333,0.333,1","1,0.333,0.333,0.333,1,0.333,0.333,0.333,1","1",""
"null","","html-keyboard-response","207","569074","0.0-207.0","37W3JXSD67U1JCEHZU8COFSZFE2WY0","A3LVLZS8S41ZD7","3THR0FZ95PF7SK0MYRNAOUHTWA4OLV","","","<img src=""img/flower2.png"" style=""width:200px;border:14px solid red;"">","null","","","","","","","","",""
"571.8000000119209","","image-keyboard-response","208","569648","0.0-208.0","37W3JXSD67U1JCEHZU8COFSZFE2WY0","A3LVLZS8S41ZD7","3THR0FZ95PF7SK0MYRNAOUHTWA4OLV","","","img/flower2.png","76","573.1999999880791","3","1","3","1","1,0.333,0.333,0.333,1,0.333,0.333,0.333,1","1,0.333,0.333,0.333,1,0.333,0.333,0.333,1","1",""
"null","","html-keyboard-response","209","569950","0.0-209.0","37W3JXSD67U1JCEHZU8COFSZFE2WY0","A3LVLZS8S41ZD7","3THR0FZ95PF7SK0MYRNAOUHTWA4OLV","","","<img src=""img/flower2.png"" style=""width:200px; border:14px solid green;"">","null","","","","","","","","",""
"407.5","","image-keyboard-response","210","570358","0.0-210.0","37W3JXSD67U1JCEHZU8COFSZFE2WY0","A3LVLZS8S41ZD7","3THR0FZ95PF7SK0MYRNAOUHTWA4OLV","","","img/flower2.png","76","408.10000002384186","3","1","3","1","1,0.333,0.333,0.333,1,0.333,0.333,0.333,1","1,0.333,0.333,0.333,1,0.333,0.333,0.333,1","1",""
"null","","html-keyboard-response","211","570664","0.0-211.0","37W3JXSD67U1JCEHZU8COFSZFE2WY0","A3LVLZS8S41ZD7","3THR0FZ95PF7SK0MYRNAOUHTWA4OLV","","","<img src=""img/flower2.png"" style=""width:200px; border:14px solid green;"">","null","","","","","","","","",""
"596.8999999761581","","image-keyboard-response","212","571264","0.0-212.0","37W3JXSD67U1JCEHZU8COFSZFE2WY0","A3LVLZS8S41ZD7","3THR0FZ95PF7SK0MYRNAOUHTWA4OLV","","","img/flower1.png","75","598.6999999880791","2","1","2","1","1,0.333,0.333,0.333,1,0.333,0.333,0.333,1","1,0.333,0.333,0.333,1,0.333,0.333,0.333,1","1",""
"null","","html-keyboard-response","213","571569","0.0-213.0","37W3JXSD67U1JCEHZU8COFSZFE2WY0","A3LVLZS8S41ZD7","3THR0FZ95PF7SK0MYRNAOUHTWA4OLV","","","<img src=""img/flower1.png"" style=""width:200px; border:14px solid green;"">","null","","","","","","","","",""
"382","","image-keyboard-response","214","571952","0.0-214.0","37W3JXSD67U1JCEHZU8COFSZFE2WY0","A3LVLZS8S41ZD7","3THR0FZ95PF7SK0MYRNAOUHTWA4OLV","","","img/flower1.png","75","383.19999998807907","2","1","2","1","1,0.333,0.333,0.333,1,0.333,0.333,0.333,1","1,0.333,0.333,0.333,1,0.333,0.333,0.333,1","1",""
"null","","html-keyboard-response","215","572254","0.0-215.0","37W3JXSD67U1JCEHZU8COFSZFE2WY0","A3LVLZS8S41ZD7","3THR0FZ95PF7SK0MYRNAOUHTWA4OLV","","","<img src=""img/flower1.png"" style=""width:200px; border:14px solid green;"">","null","","","","","","","","",""
"519.6000000238419","","image-keyboard-response","216","572775","0.0-216.0","37W3JXSD67U1JCEHZU8COFSZFE2WY0","A3LVLZS8S41ZD7","3THR0FZ95PF7SK0MYRNAOUHTWA4OLV","","","img/flower3.png","74","520.5","1","1","1","1","1,0.333,0.333,0.333,1,0.333,0.333,0.333,1","1,0.333,0.333,0.333,1,0.333,0.333,0.333,1","1",""
"null","","html-keyboard-response","217","573084","0.0-217.0","37W3JXSD67U1JCEHZU8COFSZFE2WY0","A3LVLZS8S41ZD7","3THR0FZ95PF7SK0MYRNAOUHTWA4OLV","","","<img src=""img/flower3.png"" style=""width:200px; border:14px solid green;"">","null","","","","","","","","",""
"433.89999997615814","","image-keyboard-response","218","573519","0.0-218.0","37W3JXSD67U1JCEHZU8COFSZFE2WY0","A3LVLZS8S41ZD7","3THR0FZ95PF7SK0MYRNAOUHTWA4OLV","","","img/flower1.png","75","435.5","2","1","2","1","1,0.333,0.333,0.333,1,0.333,0.333,0.333,1","1,0.333,0.333,0.333,1,0.333,0.333,0.333,1","1",""
"null","","html-keyboard-response","219","573828","0.0-219.0","37W3JXSD67U1JCEHZU8COFSZFE2WY0","A3LVLZS8S41ZD7","3THR0FZ95PF7SK0MYRNAOUHTWA4OLV","","","<img src=""img/flower1.png"" style=""width:200px; border:14px solid green;"">","null","","","","","","","","",""
"498.2000000476837","","image-keyboard-response","220","574328","0.0-220.0","37W3JXSD67U1JCEHZU8COFSZFE2WY0","A3LVLZS8S41ZD7","3THR0FZ95PF7SK0MYRNAOUHTWA4OLV","","","img/flower2.png","76","499.60000002384186","3","1","3","1","1,0.333,0.333,0.333,1,0.333,0.333,0.333,1","1,0.333,0.333,0.333,1,0.333,0.333,0.333,1","1",""
"null","","html-keyboard-response","221","574644","0.0-221.0","37W3JXSD67U1JCEHZU8COFSZFE2WY0","A3LVLZS8S41ZD7","3THR0FZ95PF7SK0MYRNAOUHTWA4OLV","","","<img src=""img/flower2.png"" style=""width:200px; border:14px solid green;"">","null","","","","","","","","",""
"361.80000001192093","","image-keyboard-response","222","575006","0.0-222.0","37W3JXSD67U1JCEHZU8COFSZFE2WY0","A3LVLZS8S41ZD7","3THR0FZ95PF7SK0MYRNAOUHTWA4OLV","","","img/flower2.png","76","362.5","3","1","3","1","1,0.333,0.333,0.333,1,0.333,0.333,0.333,1","1,0.333,0.333,0.333,1,0.333,0.333,0.333,1","1",""
"null","","html-keyboard-response","223","575310","0.0-223.0","37W3JXSD67U1JCEHZU8COFSZFE2WY0","A3LVLZS8S41ZD7","3THR0FZ95PF7SK0MYRNAOUHTWA4OLV","","","<img src=""img/flower2.png"" style=""width:200px; border:14px solid green;"">","null","","","","","","","","",""
"375.10000002384186","","image-keyboard-response","224","575686","0.0-224.0","37W3JXSD67U1JCEHZU8COFSZFE2WY0","A3LVLZS8S41ZD7","3THR0FZ95PF7SK0MYRNAOUHTWA4OLV","","","img/flower2.png","76","375.7999999523163","3","1","3","1","1,0.333,0.333,0.333,1,0.333,0.333,0.333,1","1,0.333,0.333,0.333,1,0.333,0.333,0.333,1","1",""
"null","","html-keyboard-response","225","576001","0.0-225.0","37W3JXSD67U1JCEHZU8COFSZFE2WY0","A3LVLZS8S41ZD7","3THR0FZ95PF7SK0MYRNAOUHTWA4OLV","","","<img src=""img/flower2.png"" style=""width:200px; border:14px solid green;"">","null","","","","","","","","",""
"748.5","","image-keyboard-response","226","576750","0.0-226.0","37W3JXSD67U1JCEHZU8COFSZFE2WY0","A3LVLZS8S41ZD7","3THR0FZ95PF7SK0MYRNAOUHTWA4OLV","","","img/flower3.png","74","749.0999999642372","1","1","1","1","1,0.333,0.333,0.333,1,0.333,0.333,0.333,1","1,0.333,0.333,0.333,1,0.333,0.333,0.333,1","1",""
"null","","html-keyboard-response","227","577059","0.0-227.0","37W3JXSD67U1JCEHZU8COFSZFE2WY0","A3LVLZS8S41ZD7","3THR0FZ95PF7SK0MYRNAOUHTWA4OLV","","","<img src=""img/flower3.png"" style=""width:200px; border:14px solid green;"">","null","","","","","","","","",""
"418.5","","image-keyboard-response","228","577478","0.0-228.0","37W3JXSD67U1JCEHZU8COFSZFE2WY0","A3LVLZS8S41ZD7","3THR0FZ95PF7SK0MYRNAOUHTWA4OLV","","","img/flower1.png","75","419.10000002384186","2","1","2","1","1,0.333,0.333,0.333,1,0.333,0.333,0.333,1","1,0.333,0.333,0.333,1,0.333,0.333,0.333,1","1",""
"null","","html-keyboard-response","229","577782","0.0-229.0","37W3JXSD67U1JCEHZU8COFSZFE2WY0","A3LVLZS8S41ZD7","3THR0FZ95PF7SK0MYRNAOUHTWA4OLV","","","<img src=""img/flower1.png"" style=""width:200px; border:14px solid green;"">","null","","","","","","","","",""
"663.5","","image-keyboard-response","230","578446","0.0-230.0","37W3JXSD67U1JCEHZU8COFSZFE2WY0","A3LVLZS8S41ZD7","3THR0FZ95PF7SK0MYRNAOUHTWA4OLV","","","img/flower3.png","74","664.1999999880791","1","1","1","1","1,0.333,0.333,0.333,1,0.333,0.333,0.333,1","1,0.333,0.333,0.333,1,0.333,0.333,0.333,1","1",""
"null","","html-keyboard-response","231","578752","0.0-231.0","37W3JXSD67U1JCEHZU8COFSZFE2WY0","A3LVLZS8S41ZD7","3THR0FZ95PF7SK0MYRNAOUHTWA4OLV","","","<img src=""img/flower3.png"" style=""width:200px; border:14px solid green;"">","null","","","","","","","","",""
"373.2000000476837","","image-keyboard-response","232","579126","0.0-232.0","37W3JXSD67U1JCEHZU8COFSZFE2WY0","A3LVLZS8S41ZD7","3THR0FZ95PF7SK0MYRNAOUHTWA4OLV","","","img/flower3.png","74","373.80000001192093","1","1","1","1","1,0.333,0.333,0.333,1,0.333,0.333,0.333,1","1,0.333,0.333,0.333,1,0.333,0.333,0.333,1","1",""
"null","","html-keyboard-response","233","579428","0.0-233.0","37W3JXSD67U1JCEHZU8COFSZFE2WY0","A3LVLZS8S41ZD7","3THR0FZ95PF7SK0MYRNAOUHTWA4OLV","","","<img src=""img/flower3.png"" style=""width:200px; border:14px solid green;"">","null","","","","","","","","",""
"624.1999999880791","","image-keyboard-response","234","580054","0.0-234.0","37W3JXSD67U1JCEHZU8COFSZFE2WY0","A3LVLZS8S41ZD7","3THR0FZ95PF7SK0MYRNAOUHTWA4OLV","","","img/flower3.png","74","625.3000000119209","1","1","1","1","1,0.333,0.333,0.333,1,0.333,0.333,0.333,1","1,0.333,0.333,0.333,1,0.333,0.333,0.333,1","1",""
"null","","html-keyboard-response","235","580359","0.0-235.0","37W3JXSD67U1JCEHZU8COFSZFE2WY0","A3LVLZS8S41ZD7","3THR0FZ95PF7SK0MYRNAOUHTWA4OLV","","","<img src=""img/flower3.png"" style=""width:200px; border:14px solid green;"">","null","","","","","","","","",""
"583.8999999761581","","image-keyboard-response","236","580944","0.0-236.0","37W3JXSD67U1JCEHZU8COFSZFE2WY0","A3LVLZS8S41ZD7","3THR0FZ95PF7SK0MYRNAOUHTWA4OLV","","","img/flower1.png","75","584.8999999761581","2","1","2","1","1,0.333,0.333,0.333,1,0.333,0.333,0.333,1","1,0.333,0.333,0.333,1,0.333,0.333,0.333,1","1",""
"null","","html-keyboard-response","237","581258","0.0-237.0","37W3JXSD67U1JCEHZU8COFSZFE2WY0","A3LVLZS8S41ZD7","3THR0FZ95PF7SK0MYRNAOUHTWA4OLV","","","<img src=""img/flower1.png"" style=""width:200px; border:14px solid green;"">","null","","","","","","","","",""
"602.6000000238419","","image-keyboard-response","238","581862","0.0-238.0","37W3JXSD67U1JCEHZU8COFSZFE2WY0","A3LVLZS8S41ZD7","3THR0FZ95PF7SK0MYRNAOUHTWA4OLV","","","img/flower2.png","76","603.4000000357628","3","1","3","1","1,0.333,0.333,0.333,1,0.333,0.333,0.333,1","1,0.333,0.333,0.333,1,0.333,0.333,0.333,1","1",""
"null","","html-keyboard-response","239","582173","0.0-239.0","37W3JXSD67U1JCEHZU8COFSZFE2WY0","A3LVLZS8S41ZD7","3THR0FZ95PF7SK0MYRNAOUHTWA4OLV","","","<img src=""img/flower2.png"" style=""width:200px; border:14px solid green;"">","null","","","","","","","","",""
"297.9000000357628","","image-keyboard-response","240","582472","0.0-240.0","37W3JXSD67U1JCEHZU8COFSZFE2WY0","A3LVLZS8S41ZD7","3THR0FZ95PF7SK0MYRNAOUHTWA4OLV","","","img/flower2.png","76","299.0999999642372","3","1","3","1","1,0.333,0.333,0.333,1,0.333,0.333,0.333,1","1,0.333,0.333,0.333,1,0.333,0.333,0.333,1","1",""
"null","","html-keyboard-response","241","582785","0.0-241.0","37W3JXSD67U1JCEHZU8COFSZFE2WY0","A3LVLZS8S41ZD7","3THR0FZ95PF7SK0MYRNAOUHTWA4OLV","","","<img src=""img/flower2.png"" style=""width:200px; border:14px solid green;"">","null","","","","","","","","",""
"596.2999999523163","","image-keyboard-response","242","583383","0.0-242.0","37W3JXSD67U1JCEHZU8COFSZFE2WY0","A3LVLZS8S41ZD7","3THR0FZ95PF7SK0MYRNAOUHTWA4OLV","","","img/flower3.png","74","597.5","1","1","1","1","1,0.333,0.333,0.333,1,0.333,0.333,0.333,1","1,0.333,0.333,0.333,1,0.333,0.333,0.333,1","1",""
"null","","html-keyboard-response","243","583698","0.0-243.0","37W3JXSD67U1JCEHZU8COFSZFE2WY0","A3LVLZS8S41ZD7","3THR0FZ95PF7SK0MYRNAOUHTWA4OLV","","","<img src=""img/flower3.png"" style=""width:200px; border:14px solid green;"">","null","","","","","","","","",""
"578.8000000119209","","image-keyboard-response","244","584280","0.0-244.0","37W3JXSD67U1JCEHZU8COFSZFE2WY0","A3LVLZS8S41ZD7","3THR0FZ95PF7SK0MYRNAOUHTWA4OLV","","","img/flower3.png","74","580.6999999880791","1","1","1","1","1,0.333,0.333,0.333,1,0.333,0.333,0.333,1","1,0.333,0.333,0.333,1,0.333,0.333,0.333,1","1",""
"null","","html-keyboard-response","245","584588","0.0-245.0","37W3JXSD67U1JCEHZU8COFSZFE2WY0","A3LVLZS8S41ZD7","3THR0FZ95PF7SK0MYRNAOUHTWA4OLV","","","<img src=""img/flower3.png"" style=""width:200px; border:14px solid green;"">","null","","","","","","","","",""
"681.4000000357628","","image-keyboard-response","246","585272","0.0-246.0","37W3JXSD67U1JCEHZU8COFSZFE2WY0","A3LVLZS8S41ZD7","3THR0FZ95PF7SK0MYRNAOUHTWA4OLV","","","img/flower3.png","74","682.6999999880791","1","1","1","1","1,0.333,0.333,0.333,1,0.333,0.333,0.333,1","1,0.333,0.333,0.333,1,0.333,0.333,0.333,1","1",""
"null","","html-keyboard-response","247","585581","0.0-247.0","37W3JXSD67U1JCEHZU8COFSZFE2WY0","A3LVLZS8S41ZD7","3THR0FZ95PF7SK0MYRNAOUHTWA4OLV","","","<img src=""img/flower3.png"" style=""width:200px; border:14px solid green;"">","null","","","","","","","","",""
"336.60000002384186","","image-keyboard-response","248","585919","0.0-248.0","37W3JXSD67U1JCEHZU8COFSZFE2WY0","A3LVLZS8S41ZD7","3THR0FZ95PF7SK0MYRNAOUHTWA4OLV","","","img/flower3.png","74","337.5999999642372","1","1","1","1","1,0.333,0.333,0.333,1,0.333,0.333,0.333,1","1,0.333,0.333,0.333,1,0.333,0.333,0.333,1","1",""
"null","","html-keyboard-response","249","586236","0.0-249.0","37W3JXSD67U1JCEHZU8COFSZFE2WY0","A3LVLZS8S41ZD7","3THR0FZ95PF7SK0MYRNAOUHTWA4OLV","","","<img src=""img/flower3.png"" style=""width:200px; border:14px solid green;"">","null","","","","","","","","",""
"497.60000002384186","","image-keyboard-response","250","586735","0.0-250.0","37W3JXSD67U1JCEHZU8COFSZFE2WY0","A3LVLZS8S41ZD7","3THR0FZ95PF7SK0MYRNAOUHTWA4OLV","","","img/flower1.png","75","498.80000001192093","2","1","2","1","1,0.333,0.333,0.333,1,0.333,0.333,0.333,1","1,0.333,0.333,0.333,1,0.333,0.333,0.333,1","1",""
"null","","html-keyboard-response","251","587046","0.0-251.0","37W3JXSD67U1JCEHZU8COFSZFE2WY0","A3LVLZS8S41ZD7","3THR0FZ95PF7SK0MYRNAOUHTWA4OLV","","","<img src=""img/flower1.png"" style=""width:200px; border:14px solid green;"">","null","","","","","","","","",""
"528.4000000357628","","image-keyboard-response","252","587576","0.0-252.0","37W3JXSD67U1JCEHZU8COFSZFE2WY0","A3LVLZS8S41ZD7","3THR0FZ95PF7SK0MYRNAOUHTWA4OLV","","","img/flower2.png","76","529.8000000119209","3","1","3","1","1,0.333,0.333,0.333,1,0.333,0.333,0.333,1","1,0.333,0.333,0.333,1,0.333,0.333,0.333,1","1",""
"null","","html-keyboard-response","253","587884","0.0-253.0","37W3JXSD67U1JCEHZU8COFSZFE2WY0","A3LVLZS8S41ZD7","3THR0FZ95PF7SK0MYRNAOUHTWA4OLV","","","<img src=""img/flower2.png"" style=""width:200px; border:14px solid green;"">","null","","","","","","","","",""
"505","","image-keyboard-response","254","588392","0.0-254.0","37W3JXSD67U1JCEHZU8COFSZFE2WY0","A3LVLZS8S41ZD7","3THR0FZ95PF7SK0MYRNAOUHTWA4OLV","","","img/flower1.png","75","507","2","1","2","1","1,0.333,0.333,0.333,1,0.333,0.333,0.333,1","1,0.333,0.333,0.333,1,0.333,0.333,0.333,1","1",""
"null","","html-keyboard-response","255","588710","0.0-255.0","37W3JXSD67U1JCEHZU8COFSZFE2WY0","A3LVLZS8S41ZD7","3THR0FZ95PF7SK0MYRNAOUHTWA4OLV","","","<img src=""img/flower1.png"" style=""width:200px; border:14px solid green;"">","null","","","","","","","","",""
"591.3999999761581","","image-keyboard-response","256","589303","0.0-256.0","37W3JXSD67U1JCEHZU8COFSZFE2WY0","A3LVLZS8S41ZD7","3THR0FZ95PF7SK0MYRNAOUHTWA4OLV","","","img/flower2.png","76","593.4000000357628","3","1","3","1","1,0.333,0.333,0.333,1,0.333,0.333,0.333,1","1,0.333,0.333,0.333,1,0.333,0.333,0.333,1","1",""
"null","","html-keyboard-response","257","589618","0.0-257.0","37W3JXSD67U1JCEHZU8COFSZFE2WY0","A3LVLZS8S41ZD7","3THR0FZ95PF7SK0MYRNAOUHTWA4OLV","","","<img src=""img/flower2.png"" style=""width:200px; border:14px solid green;"">","null","","","","","","","","",""
"491.80000001192093","","image-keyboard-response","258","590110","0.0-258.0","37W3JXSD67U1JCEHZU8COFSZFE2WY0","A3LVLZS8S41ZD7","3THR0FZ95PF7SK0MYRNAOUHTWA4OLV","","","img/flower1.png","75","492.5","2","1","2","1","1,0.333,0.333,0.333,1,0.333,0.333,0.333,1","1,0.333,0.333,0.333,1,0.333,0.333,0.333,1","1",""
"null","","html-keyboard-response","259","590426","0.0-259.0","37W3JXSD67U1JCEHZU8COFSZFE2WY0","A3LVLZS8S41ZD7","3THR0FZ95PF7SK0MYRNAOUHTWA4OLV","","","<img src=""img/flower1.png"" style=""width:200px; border:14px solid green;"">","null","","","","","","","","",""
"532.1000000238419","","image-keyboard-response","260","590960","0.0-260.0","37W3JXSD67U1JCEHZU8COFSZFE2WY0","A3LVLZS8S41ZD7","3THR0FZ95PF7SK0MYRNAOUHTWA4OLV","","","img/flower3.png","74","533.1999999880791","1","1","1","1","1,0.333,0.333,0.333,1,0.333,0.333,0.333,1","1,0.333,0.333,0.333,1,0.333,0.333,0.333,1","1",""
"null","","html-keyboard-response","261","591269","0.0-261.0","37W3JXSD67U1JCEHZU8COFSZFE2WY0","A3LVLZS8S41ZD7","3THR0FZ95PF7SK0MYRNAOUHTWA4OLV","","","<img src=""img/flower3.png"" style=""width:200px; border:14px solid green;"">","null","","","","","","","","",""
"527.7000000476837","","image-keyboard-response","262","591798","0.0-262.0","37W3JXSD67U1JCEHZU8COFSZFE2WY0","A3LVLZS8S41ZD7","3THR0FZ95PF7SK0MYRNAOUHTWA4OLV","","","img/flower2.png","76","528.7999999523163","3","1","3","1","1,0.333,0.333,0.333,1,0.333,0.333,0.333,1","1,0.333,0.333,0.333,1,0.333,0.333,0.333,1","1",""
"null","","html-keyboard-response","263","592105","0.0-263.0","37W3JXSD67U1JCEHZU8COFSZFE2WY0","A3LVLZS8S41ZD7","3THR0FZ95PF7SK0MYRNAOUHTWA4OLV","","","<img src=""img/flower2.png"" style=""width:200px; border:14px solid green;"">","null","","","","","","","","",""
"581.3000000119209","","image-keyboard-response","264","592688","0.0-264.0","37W3JXSD67U1JCEHZU8COFSZFE2WY0","A3LVLZS8S41ZD7","3THR0FZ95PF7SK0MYRNAOUHTWA4OLV","","","img/flower3.png","74","582.6999999880791","1","1","1","1","1,0.333,0.333,0.333,1,0.333,0.333,0.333,1","1,0.333,0.333,0.333,1,0.333,0.333,0.333,1","1",""
"null","","html-keyboard-response","265","592995","0.0-265.0","37W3JXSD67U1JCEHZU8COFSZFE2WY0","A3LVLZS8S41ZD7","3THR0FZ95PF7SK0MYRNAOUHTWA4OLV","","","<img src=""img/flower3.png"" style=""width:200px; border:14px solid green;"">","null","","","","","","","","",""
"546.8000000119209","","image-keyboard-response","266","593543","0.0-266.0","37W3JXSD67U1JCEHZU8COFSZFE2WY0","A3LVLZS8S41ZD7","3THR0FZ95PF7SK0MYRNAOUHTWA4OLV","","","img/flower2.png","76","548.1999999880791","3","1","3","1","1,0.333,0.333,0.333,1,0.333,0.333,0.333,1","1,0.333,0.333,0.333,1,0.333,0.333,0.333,1","1",""
"null","","html-keyboard-response","267","593850","0.0-267.0","37W3JXSD67U1JCEHZU8COFSZFE2WY0","A3LVLZS8S41ZD7","3THR0FZ95PF7SK0MYRNAOUHTWA4OLV","","","<img src=""img/flower2.png"" style=""width:200px; border:14px solid green;"">","null","","","","","","","","",""
"402.60000002384186","","image-keyboard-response","268","594254","0.0-268.0","37W3JXSD67U1JCEHZU8COFSZFE2WY0","A3LVLZS8S41ZD7","3THR0FZ95PF7SK0MYRNAOUHTWA4OLV","","","img/flower2.png","76","403.30000001192093","3","1","3","1","1,0.333,0.333,0.333,1,0.333,0.333,0.333,1","1,0.333,0.333,0.333,1,0.333,0.333,0.333,1","1",""
"null","","html-keyboard-response","269","594566","0.0-269.0","37W3JXSD67U1JCEHZU8COFSZFE2WY0","A3LVLZS8S41ZD7","3THR0FZ95PF7SK0MYRNAOUHTWA4OLV","","","<img src=""img/flower2.png"" style=""width:200px; border:14px solid green;"">","null","","","","","","","","",""
"407.5","","image-keyboard-response","270","594975","0.0-270.0","37W3JXSD67U1JCEHZU8COFSZFE2WY0","A3LVLZS8S41ZD7","3THR0FZ95PF7SK0MYRNAOUHTWA4OLV","","","img/flower2.png","76","408.69999998807907","3","1","3","1","1,0.333,0.333,0.333,1,0.333,0.333,0.333,1","1,0.333,0.333,0.333,1,0.333,0.333,0.333,1","1",""
"null","","html-keyboard-response","271","595282","0.0-271.0","37W3JXSD67U1JCEHZU8COFSZFE2WY0","A3LVLZS8S41ZD7","3THR0FZ95PF7SK0MYRNAOUHTWA4OLV","","","<img src=""img/flower2.png"" style=""width:200px; border:14px solid green;"">","null","","","","","","","","",""
"659","","image-keyboard-response","272","595942","0.0-272.0","37W3JXSD67U1JCEHZU8COFSZFE2WY0","A3LVLZS8S41ZD7","3THR0FZ95PF7SK0MYRNAOUHTWA4OLV","","","img/flower3.png","74","659.8999999761581","1","1","1","1","1,0.333,0.333,0.333,1,0.333,0.333,0.333,1","1,0.333,0.333,0.333,1,0.333,0.333,0.333,1","1",""
"null","","html-keyboard-response","273","596249","0.0-273.0","37W3JXSD67U1JCEHZU8COFSZFE2WY0","A3LVLZS8S41ZD7","3THR0FZ95PF7SK0MYRNAOUHTWA4OLV","","","<img src=""img/flower3.png"" style=""width:200px; border:14px solid green;"">","null","","","","","","","","",""
"700.8999999761581","","image-keyboard-response","274","596950","0.0-274.0","37W3JXSD67U1JCEHZU8COFSZFE2WY0","A3LVLZS8S41ZD7","3THR0FZ95PF7SK0MYRNAOUHTWA4OLV","","","img/flower2.png","76","701.6000000238419","3","1","3","1","1,0.333,0.333,0.333,1,0.333,0.333,0.333,1","1,0.333,0.333,0.333,1,0.333,0.333,0.333,1","1",""
"null","","html-keyboard-response","275","597260","0.0-275.0","37W3JXSD67U1JCEHZU8COFSZFE2WY0","A3LVLZS8S41ZD7","3THR0FZ95PF7SK0MYRNAOUHTWA4OLV","","","<img src=""img/flower2.png"" style=""width:200px; border:14px solid green;"">","null","","","","","","","","",""
"473.39999997615814","","image-keyboard-response","276","597734","0.0-276.0","37W3JXSD67U1JCEHZU8COFSZFE2WY0","A3LVLZS8S41ZD7","3THR0FZ95PF7SK0MYRNAOUHTWA4OLV","","","img/flower1.png","74","474","1","1","2","1","1,0.333,0.333,0.333,1,0.333,0.333,0.333,1","1,0.333,0.333,0.333,1,0.333,0.333,0.333,1","1",""
"null","","html-keyboard-response","277","598044","0.0-277.0","37W3JXSD67U1JCEHZU8COFSZFE2WY0","A3LVLZS8S41ZD7","3THR0FZ95PF7SK0MYRNAOUHTWA4OLV","","","<img src=""img/flower1.png"" style=""width:200px; border:14px solid green;"">","null","","","","","","","","",""
"528.5","","image-keyboard-response","278","598575","0.0-278.0","37W3JXSD67U1JCEHZU8COFSZFE2WY0","A3LVLZS8S41ZD7","3THR0FZ95PF7SK0MYRNAOUHTWA4OLV","","","img/flower1.png","75","529.8999999761581","2","1","2","1","1,0.333,0.333,0.333,1,0.333,0.333,0.333,1","1,0.333,0.333,0.333,1,0.333,0.333,0.333,1","1",""
"null","","html-keyboard-response","279","598886","0.0-279.0","37W3JXSD67U1JCEHZU8COFSZFE2WY0","A3LVLZS8S41ZD7","3THR0FZ95PF7SK0MYRNAOUHTWA4OLV","","","<img src=""img/flower1.png"" style=""width:200px; border:14px solid green;"">","null","","","","","","","","",""
"607.6999999880791","","image-keyboard-response","280","599496","0.0-280.0","37W3JXSD67U1JCEHZU8COFSZFE2WY0","A3LVLZS8S41ZD7","3THR0FZ95PF7SK0MYRNAOUHTWA4OLV","","","img/flower1.png","75","609.4000000357628","2","1","2","1","1,0.333,0.333,0.333,1,0.333,0.333,0.333,1","1,0.333,0.333,0.333,1,0.333,0.333,0.333,1","1",""
"null","","html-keyboard-response","281","599804","0.0-281.0","37W3JXSD67U1JCEHZU8COFSZFE2WY0","A3LVLZS8S41ZD7","3THR0FZ95PF7SK0MYRNAOUHTWA4OLV","","","<img src=""img/flower1.png"" style=""width:200px; border:14px solid green;"">","null","","","","","","","","",""
"648.2000000476837","","image-keyboard-response","282","600454","0.0-282.0","37W3JXSD67U1JCEHZU8COFSZFE2WY0","A3LVLZS8S41ZD7","3THR0FZ95PF7SK0MYRNAOUHTWA4OLV","","","img/flower2.png","76","649.5999999642372","3","1","3","1","1,0.333,0.333,0.333,1,0.333,0.333,0.333,1","1,0.333,0.333,0.333,1,0.333,0.333,0.333,1","1",""
"null","","html-keyboard-response","283","600766","0.0-283.0","37W3JXSD67U1JCEHZU8COFSZFE2WY0","A3LVLZS8S41ZD7","3THR0FZ95PF7SK0MYRNAOUHTWA4OLV","","","<img src=""img/flower2.png"" style=""width:200px; border:14px solid green;"">","null","","","","","","","","",""
"598.9000000357628","","image-keyboard-response","284","601367","0.0-284.0","37W3JXSD67U1JCEHZU8COFSZFE2WY0","A3LVLZS8S41ZD7","3THR0FZ95PF7SK0MYRNAOUHTWA4OLV","","","img/flower1.png","75","600.6000000238419","2","1","2","1","1,0.333,0.333,0.333,1,0.333,0.333,0.333,1","1,0.333,0.333,0.333,1,0.333,0.333,0.333,1","1",""
"null","","html-keyboard-response","285","601684","0.0-285.0","37W3JXSD67U1JCEHZU8COFSZFE2WY0","A3LVLZS8S41ZD7","3THR0FZ95PF7SK0MYRNAOUHTWA4OLV","","","<img src=""img/flower1.png"" style=""width:200px; border:14px solid green;"">","null","","","","","","","","",""
"392.69999998807907","","image-keyboard-response","286","602078","0.0-286.0","37W3JXSD67U1JCEHZU8COFSZFE2WY0","A3LVLZS8S41ZD7","3THR0FZ95PF7SK0MYRNAOUHTWA4OLV","","","img/flower1.png","75","393.5","2","1","2","1","1,0.333,0.333,0.333,1,0.333,0.333,0.333,1","1,0.333,0.333,0.333,1,0.333,0.333,0.333,1","1",""
"null","","html-keyboard-response","287","602386","0.0-287.0","37W3JXSD67U1JCEHZU8COFSZFE2WY0","A3LVLZS8S41ZD7","3THR0FZ95PF7SK0MYRNAOUHTWA4OLV","","","<img src=""img/flower1.png"" style=""width:200px; border:14px solid green;"">","null","","","","","","","","",""
"401.4000000357628","","image-keyboard-response","288","602791","0.0-288.0","37W3JXSD67U1JCEHZU8COFSZFE2WY0","A3LVLZS8S41ZD7","3THR0FZ95PF7SK0MYRNAOUHTWA4OLV","","","img/flower1.png","75","403.5","2","1","2","1","1,0.333,0.333,0.333,1,0.333,0.333,0.333,1","1,0.333,0.333,0.333,1,0.333,0.333,0.333,1","1",""
"null","","html-keyboard-response","289","603103","0.0-289.0","37W3JXSD67U1JCEHZU8COFSZFE2WY0","A3LVLZS8S41ZD7","3THR0FZ95PF7SK0MYRNAOUHTWA4OLV","","","<img src=""img/flower1.png"" style=""width:200px; border:14px solid green;"">","null","","","","","","","","",""
"581.8000000119209","","image-keyboard-response","290","603686","0.0-290.0","37W3JXSD67U1JCEHZU8COFSZFE2WY0","A3LVLZS8S41ZD7","3THR0FZ95PF7SK0MYRNAOUHTWA4OLV","","","img/flower2.png","76","583.1999999880791","3","1","3","1","1,0.333,0.333,0.333,1,0.333,0.333,0.333,1","1,0.333,0.333,0.333,1,0.333,0.333,0.333,1","1",""
"null","","html-keyboard-response","291","603992","0.0-291.0","37W3JXSD67U1JCEHZU8COFSZFE2WY0","A3LVLZS8S41ZD7","3THR0FZ95PF7SK0MYRNAOUHTWA4OLV","","","<img src=""img/flower2.png"" style=""width:200px; border:14px solid green;"">","null","","","","","","","","",""
"614.0999999642372","","image-keyboard-response","292","604607","0.0-292.0","37W3JXSD67U1JCEHZU8COFSZFE2WY0","A3LVLZS8S41ZD7","3THR0FZ95PF7SK0MYRNAOUHTWA4OLV","","","img/flower1.png","75","615.2999999523163","2","1","2","1","1,0.333,0.333,0.333,1,0.333,0.333,0.333,1","1,0.333,0.333,0.333,1,0.333,0.333,0.333,1","1",""
"null","","html-keyboard-response","293","604912","0.0-293.0","37W3JXSD67U1JCEHZU8COFSZFE2WY0","A3LVLZS8S41ZD7","3THR0FZ95PF7SK0MYRNAOUHTWA4OLV","","","<img src=""img/flower1.png"" style=""width:200px; border:14px solid green;"">","null","","","","","","","","",""
"589.8000000119209","","image-keyboard-response","294","605504","0.0-294.0","37W3JXSD67U1JCEHZU8COFSZFE2WY0","A3LVLZS8S41ZD7","3THR0FZ95PF7SK0MYRNAOUHTWA4OLV","","","img/flower2.png","76","591.0999999642372","3","1","3","1","1,0.333,0.333,0.333,1,0.333,0.333,0.333,1","1,0.333,0.333,0.333,1,0.333,0.333,0.333,1","1",""
"null","","html-keyboard-response","295","605815","0.0-295.0","37W3JXSD67U1JCEHZU8COFSZFE2WY0","A3LVLZS8S41ZD7","3THR0FZ95PF7SK0MYRNAOUHTWA4OLV","","","<img src=""img/flower2.png"" style=""width:200px; border:14px solid green;"">","null","","","","","","","","",""
"711.3000000119209","","image-keyboard-response","296","606527","0.0-296.0","37W3JXSD67U1JCEHZU8COFSZFE2WY0","A3LVLZS8S41ZD7","3THR0FZ95PF7SK0MYRNAOUHTWA4OLV","","","img/flower3.png","74","712.1999999880791","1","1","1","1","1,0.333,0.333,0.333,1,0.333,0.333,0.333,1","1,0.333,0.333,0.333,1,0.333,0.333,0.333,1","1",""
"null","","html-keyboard-response","297","606843","0.0-297.0","37W3JXSD67U1JCEHZU8COFSZFE2WY0","A3LVLZS8S41ZD7","3THR0FZ95PF7SK0MYRNAOUHTWA4OLV","","","<img src=""img/flower3.png"" style=""width:200px; border:14px solid green;"">","null","","","","","","","","",""
"595.2000000476837","","image-keyboard-response","298","607439","0.0-298.0","37W3JXSD67U1JCEHZU8COFSZFE2WY0","A3LVLZS8S41ZD7","3THR0FZ95PF7SK0MYRNAOUHTWA4OLV","","","img/flower1.png","75","596.2000000476837","2","1","2","1","1,0.333,0.333,0.333,1,0.333,0.333,0.333,1","1,0.333,0.333,0.333,1,0.333,0.333,0.333,1","1",""
"null","","html-keyboard-response","299","607747","0.0-299.0","37W3JXSD67U1JCEHZU8COFSZFE2WY0","A3LVLZS8S41ZD7","3THR0FZ95PF7SK0MYRNAOUHTWA4OLV","","","<img src=""img/flower1.png"" style=""width:200px; border:14px solid green;"">","null","","","","","","","","",""
"707.0999999642372","","image-keyboard-response","300","608455","0.0-300.0","37W3JXSD67U1JCEHZU8COFSZFE2WY0","A3LVLZS8S41ZD7","3THR0FZ95PF7SK0MYRNAOUHTWA4OLV","","","img/flower3.png","74","708.1999999880791","1","1","1","1","1,0.333,0.333,0.333,1,0.333,0.333,0.333,1","1,0.333,0.333,0.333,1,0.333,0.333,0.333,1","1",""
"null","","html-keyboard-response","301","608760","0.0-301.0","37W3JXSD67U1JCEHZU8COFSZFE2WY0","A3LVLZS8S41ZD7","3THR0FZ95PF7SK0MYRNAOUHTWA4OLV","","","<img src=""img/flower3.png"" style=""width:200px; border:14px solid green;"">","null","","","","","","","","",""
"533.5","","image-keyboard-response","302","609296","0.0-302.0","37W3JXSD67U1JCEHZU8COFSZFE2WY0","A3LVLZS8S41ZD7","3THR0FZ95PF7SK0MYRNAOUHTWA4OLV","","","img/flower1.png","75","535.3999999761581","2","1","2","1","1,0.333,0.333,0.333,1,0.333,0.333,0.333,1","1,0.333,0.333,0.333,1,0.333,0.333,0.333,1","1",""
"null","","html-keyboard-response","303","609599","0.0-303.0","37W3JXSD67U1JCEHZU8COFSZFE2WY0","A3LVLZS8S41ZD7","3THR0FZ95PF7SK0MYRNAOUHTWA4OLV","","","<img src=""img/flower1.png"" style=""width:200px; border:14px solid green;"">","null","","","","","","","","",""
"390.39999997615814","","image-keyboard-response","304","609992","0.0-304.0","37W3JXSD67U1JCEHZU8COFSZFE2WY0","A3LVLZS8S41ZD7","3THR0FZ95PF7SK0MYRNAOUHTWA4OLV","","","img/flower1.png","75","392.30000001192093","2","1","2","1","1,0.333,0.333,0.333,1,0.333,0.333,0.333,1","1,0.333,0.333,0.333,1,0.333,0.333,0.333,1","1",""
"null","","html-keyboard-response","305","610300","0.0-305.0","37W3JXSD67U1JCEHZU8COFSZFE2WY0","A3LVLZS8S41ZD7","3THR0FZ95PF7SK0MYRNAOUHTWA4OLV","","","<img src=""img/flower1.png"" style=""width:200px; border:14px solid green;"">","null","","","","","","","","",""
"","","html-keyboard-response","306","615343","0.0-306.0","37W3JXSD67U1JCEHZU8COFSZFE2WY0","A3LVLZS8S41ZD7","3THR0FZ95PF7SK0MYRNAOUHTWA4OLV","","","","","","","","","","","","",""
"3006.699999988079","","image-keyboard-response","307","618350","0.0-307.0","37W3JXSD67U1JCEHZU8COFSZFE2WY0","A3LVLZS8S41ZD7","3THR0FZ95PF7SK0MYRNAOUHTWA4OLV","","","img/flower4.png","74","3007.600000023842","1","0","3","2","1,0,0,1,1,0,1,0,1","0,0,1,1,0,1,0,1,1","2",""
"null","","html-keyboard-response","308","618656","0.0-308.0","37W3JXSD67U1JCEHZU8COFSZFE2WY0","A3LVLZS8S41ZD7","3THR0FZ95PF7SK0MYRNAOUHTWA4OLV","","","<img src=""img/flower4.png"" style=""width:200px;border:14px solid red;"">","null","","","","","","","","",""
"1829.800000011921","","image-keyboard-response","309","620486","0.0-309.0","37W3JXSD67U1JCEHZU8COFSZFE2WY0","A3LVLZS8S41ZD7","3THR0FZ95PF7SK0MYRNAOUHTWA4OLV","","","img/flower6.png","76","1830.6000000238419","3","1","1","2","1,0,0,1,1,0,1,0,1","0,0,1,1,0,1,0,1,1","2",""
"null","","html-keyboard-response","310","620792","0.0-310.0","37W3JXSD67U1JCEHZU8COFSZFE2WY0","A3LVLZS8S41ZD7","3THR0FZ95PF7SK0MYRNAOUHTWA4OLV","","","<img src=""img/flower6.png"" style=""width:200px; border:14px solid green;"">","null","","","","","","","","",""
"869.5999999642372","","image-keyboard-response","311","621662","0.0-311.0","37W3JXSD67U1JCEHZU8COFSZFE2WY0","A3LVLZS8S41ZD7","3THR0FZ95PF7SK0MYRNAOUHTWA4OLV","","","img/flower5.png","75","870.4000000357628","2","0","2","2","1,0,0,1,1,0,1,0,1","0,0,1,1,0,1,0,1,1","2",""
"null","","html-keyboard-response","312","621972","0.0-312.0","37W3JXSD67U1JCEHZU8COFSZFE2WY0","A3LVLZS8S41ZD7","3THR0FZ95PF7SK0MYRNAOUHTWA4OLV","","","<img src=""img/flower5.png"" style=""width:200px;border:14px solid red;"">","null","","","","","","","","",""
"809.1999999880791","","image-keyboard-response","313","622782","0.0-313.0","37W3JXSD67U1JCEHZU8COFSZFE2WY0","A3LVLZS8S41ZD7","3THR0FZ95PF7SK0MYRNAOUHTWA4OLV","","","img/flower6.png","76","809.9000000357628","3","1","1","2","1,0,0,1,1,0,1,0,1","0,0,1,1,0,1,0,1,1","2",""
"null","","html-keyboard-response","314","623091","0.0-314.0","37W3JXSD67U1JCEHZU8COFSZFE2WY0","A3LVLZS8S41ZD7","3THR0FZ95PF7SK0MYRNAOUHTWA4OLV","","","<img src=""img/flower6.png"" style=""width:200px; border:14px solid green;"">","null","","","","","","","","",""
"890.3000000119209","","image-keyboard-response","315","623982","0.0-315.0","37W3JXSD67U1JCEHZU8COFSZFE2WY0","A3LVLZS8S41ZD7","3THR0FZ95PF7SK0MYRNAOUHTWA4OLV","","","img/flower5.png","74","890.8000000119209","1","1","2","2","1,0,0,1,1,0,1,0,1","0,0,1,1,0,1,0,1,1","2",""
"null","","html-keyboard-response","316","624287","0.0-316.0","37W3JXSD67U1JCEHZU8COFSZFE2WY0","A3LVLZS8S41ZD7","3THR0FZ95PF7SK0MYRNAOUHTWA4OLV","","","<img src=""img/flower5.png"" style=""width:200px; border:14px solid green;"">","null","","","","","","","","",""
"750.6999999880791","","image-keyboard-response","317","625038","0.0-317.0","37W3JXSD67U1JCEHZU8COFSZFE2WY0","A3LVLZS8S41ZD7","3THR0FZ95PF7SK0MYRNAOUHTWA4OLV","","","img/flower4.png","75","751.5","2","1","3","2","1,0,0,1,1,0,1,0,1","0,0,1,1,0,1,0,1,1","2",""
"null","","html-keyboard-response","318","625347","0.0-318.0","37W3JXSD67U1JCEHZU8COFSZFE2WY0","A3LVLZS8S41ZD7","3THR0FZ95PF7SK0MYRNAOUHTWA4OLV","","","<img src=""img/flower4.png"" style=""width:200px; border:14px solid green;"">","null","","","","","","","","",""
"658.3999999761581","","image-keyboard-response","319","626007","0.0-319.0","37W3JXSD67U1JCEHZU8COFSZFE2WY0","A3LVLZS8S41ZD7","3THR0FZ95PF7SK0MYRNAOUHTWA4OLV","","","img/flower6.png","76","659.2000000476837","3","1","1","2","1,0,0,1,1,0,1,0,1","0,0,1,1,0,1,0,1,1","2",""
"null","","html-keyboard-response","320","626313","0.0-320.0","37W3JXSD67U1JCEHZU8COFSZFE2WY0","A3LVLZS8S41ZD7","3THR0FZ95PF7SK0MYRNAOUHTWA4OLV","","","<img src=""img/flower6.png"" style=""width:200px; border:14px solid green;"">","null","","","","","","","","",""
"740.3000000119209","","image-keyboard-response","321","627054","0.0-321.0","37W3JXSD67U1JCEHZU8COFSZFE2WY0","A3LVLZS8S41ZD7","3THR0FZ95PF7SK0MYRNAOUHTWA4OLV","","","img/flower4.png","75","741","2","1","3","2","1,0,0,1,1,0,1,0,1","0,0,1,1,0,1,0,1,1","2",""
"null","","html-keyboard-response","322","627368","0.0-322.0","37W3JXSD67U1JCEHZU8COFSZFE2WY0","A3LVLZS8S41ZD7","3THR0FZ95PF7SK0MYRNAOUHTWA4OLV","","","<img src=""img/flower4.png"" style=""width:200px; border:14px solid green;"">","null","","","","","","","","",""
"453.89999997615814","","image-keyboard-response","323","627823","0.0-323.0","37W3JXSD67U1JCEHZU8COFSZFE2WY0","A3LVLZS8S41ZD7","3THR0FZ95PF7SK0MYRNAOUHTWA4OLV","","","img/flower4.png","75","454.7999999523163","2","1","3","2","1,0,0,1,1,0,1,0,1","0,0,1,1,0,1,0,1,1","2",""
"null","","html-keyboard-response","324","628138","0.0-324.0","37W3JXSD67U1JCEHZU8COFSZFE2WY0","A3LVLZS8S41ZD7","3THR0FZ95PF7SK0MYRNAOUHTWA4OLV","","","<img src=""img/flower4.png"" style=""width:200px; border:14px solid green;"">","null","","","","","","","","",""
"714.2999999523163","","image-keyboard-response","325","628855","0.0-325.0","37W3JXSD67U1JCEHZU8COFSZFE2WY0","A3LVLZS8S41ZD7","3THR0FZ95PF7SK0MYRNAOUHTWA4OLV","","","img/flower6.png","76","715.8999999761581","3","1","1","2","1,0,0,1,1,0,1,0,1","0,0,1,1,0,1,0,1,1","2",""
"null","","html-keyboard-response","326","629164","0.0-326.0","37W3JXSD67U1JCEHZU8COFSZFE2WY0","A3LVLZS8S41ZD7","3THR0FZ95PF7SK0MYRNAOUHTWA4OLV","","","<img src=""img/flower6.png"" style=""width:200px; border:14px solid green;"">","null","","","","","","","","",""
"816.8000000119209","","image-keyboard-response","327","629982","0.0-327.0","37W3JXSD67U1JCEHZU8COFSZFE2WY0","A3LVLZS8S41ZD7","3THR0FZ95PF7SK0MYRNAOUHTWA4OLV","","","img/flower5.png","74","817.8000000119209","1","1","2","2","1,0,0,1,1,0,1,0,1","0,0,1,1,0,1,0,1,1","2",""
"null","","html-keyboard-response","328","630285","0.0-328.0","37W3JXSD67U1JCEHZU8COFSZFE2WY0","A3LVLZS8S41ZD7","3THR0FZ95PF7SK0MYRNAOUHTWA4OLV","","","<img src=""img/flower5.png"" style=""width:200px; border:14px solid green;"">","null","","","","","","","","",""
"567.1999999880791","","image-keyboard-response","329","630854","0.0-329.0","37W3JXSD67U1JCEHZU8COFSZFE2WY0","A3LVLZS8S41ZD7","3THR0FZ95PF7SK0MYRNAOUHTWA4OLV","","","img/flower6.png","76","568.6000000238419","3","1","1","2","1,0,0,1,1,0,1,0,1","0,0,1,1,0,1,0,1,1","2",""
"null","","html-keyboard-response","330","631156","0.0-330.0","37W3JXSD67U1JCEHZU8COFSZFE2WY0","A3LVLZS8S41ZD7","3THR0FZ95PF7SK0MYRNAOUHTWA4OLV","","","<img src=""img/flower6.png"" style=""width:200px; border:14px solid green;"">","null","","","","","","","","",""
"808.7999999523163","","image-keyboard-response","331","631968","0.0-331.0","37W3JXSD67U1JCEHZU8COFSZFE2WY0","A3LVLZS8S41ZD7","3THR0FZ95PF7SK0MYRNAOUHTWA4OLV","","","img/flower4.png","75","810.5999999642372","2","1","3","2","1,0,0,1,1,0,1,0,1","0,0,1,1,0,1,0,1,1","2",""
"null","","html-keyboard-response","332","632277","0.0-332.0","37W3JXSD67U1JCEHZU8COFSZFE2WY0","A3LVLZS8S41ZD7","3THR0FZ95PF7SK0MYRNAOUHTWA4OLV","","","<img src=""img/flower4.png"" style=""width:200px; border:14px solid green;"">","null","","","","","","","","",""
"646.6999999880791","","image-keyboard-response","333","632926","0.0-333.0","37W3JXSD67U1JCEHZU8COFSZFE2WY0","A3LVLZS8S41ZD7","3THR0FZ95PF7SK0MYRNAOUHTWA4OLV","","","img/flower5.png","74","648.1999999880791","1","1","2","2","1,0,0,1,1,0,1,0,1","0,0,1,1,0,1,0,1,1","2",""
"null","","html-keyboard-response","334","633232","0.0-334.0","37W3JXSD67U1JCEHZU8COFSZFE2WY0","A3LVLZS8S41ZD7","3THR0FZ95PF7SK0MYRNAOUHTWA4OLV","","","<img src=""img/flower5.png"" style=""width:200px; border:14px solid green;"">","null","","","","","","","","",""
"548.7999999523163","","image-keyboard-response","335","633783","0.0-335.0","37W3JXSD67U1JCEHZU8COFSZFE2WY0","A3LVLZS8S41ZD7","3THR0FZ95PF7SK0MYRNAOUHTWA4OLV","","","img/flower6.png","76","550.5","3","1","1","2","1,0,0,1,1,0,1,0,1","0,0,1,1,0,1,0,1,1","2",""
"null","","html-keyboard-response","336","634088","0.0-336.0","37W3JXSD67U1JCEHZU8COFSZFE2WY0","A3LVLZS8S41ZD7","3THR0FZ95PF7SK0MYRNAOUHTWA4OLV","","","<img src=""img/flower6.png"" style=""width:200px; border:14px solid green;"">","null","","","","","","","","",""
"733.6000000238419","","image-keyboard-response","337","634823","0.0-337.0","37W3JXSD67U1JCEHZU8COFSZFE2WY0","A3LVLZS8S41ZD7","3THR0FZ95PF7SK0MYRNAOUHTWA4OLV","","","img/flower4.png","75","734.6999999880791","2","1","3","2","1,0,0,1,1,0,1,0,1","0,0,1,1,0,1,0,1,1","2",""
"null","","html-keyboard-response","338","635128","0.0-338.0","37W3JXSD67U1JCEHZU8COFSZFE2WY0","A3LVLZS8S41ZD7","3THR0FZ95PF7SK0MYRNAOUHTWA4OLV","","","<img src=""img/flower4.png"" style=""width:200px; border:14px solid green;"">","null","","","","","","","","",""
"429.60000002384186","","image-keyboard-response","339","635559","0.0-339.0","37W3JXSD67U1JCEHZU8COFSZFE2WY0","A3LVLZS8S41ZD7","3THR0FZ95PF7SK0MYRNAOUHTWA4OLV","","","img/flower4.png","75","430.69999998807907","2","1","3","2","1,0,0,1,1,0,1,0,1","0,0,1,1,0,1,0,1,1","2",""
"null","","html-keyboard-response","340","635875","0.0-340.0","37W3JXSD67U1JCEHZU8COFSZFE2WY0","A3LVLZS8S41ZD7","3THR0FZ95PF7SK0MYRNAOUHTWA4OLV","","","<img src=""img/flower4.png"" style=""width:200px; border:14px solid green;"">","null","","","","","","","","",""
"610.3000000119209","","image-keyboard-response","341","636488","0.0-341.0","37W3JXSD67U1JCEHZU8COFSZFE2WY0","A3LVLZS8S41ZD7","3THR0FZ95PF7SK0MYRNAOUHTWA4OLV","","","img/flower6.png","76","612.1999999880791","3","1","1","2","1,0,0,1,1,0,1,0,1","0,0,1,1,0,1,0,1,1","2",""
"null","","html-keyboard-response","342","636806","0.0-342.0","37W3JXSD67U1JCEHZU8COFSZFE2WY0","A3LVLZS8S41ZD7","3THR0FZ95PF7SK0MYRNAOUHTWA4OLV","","","<img src=""img/flower6.png"" style=""width:200px; border:14px solid green;"">","null","","","","","","","","",""
"631.0999999642372","","image-keyboard-response","343","637439","0.0-343.0","37W3JXSD67U1JCEHZU8COFSZFE2WY0","A3LVLZS8S41ZD7","3THR0FZ95PF7SK0MYRNAOUHTWA4OLV","","","img/flower5.png","74","632.5","1","1","2","2","1,0,0,1,1,0,1,0,1","0,0,1,1,0,1,0,1,1","2",""
"null","","html-keyboard-response","344","637753","0.0-344.0","37W3JXSD67U1JCEHZU8COFSZFE2WY0","A3LVLZS8S41ZD7","3THR0FZ95PF7SK0MYRNAOUHTWA4OLV","","","<img src=""img/flower5.png"" style=""width:200px; border:14px solid green;"">","null","","","","","","","","",""
"580","","image-keyboard-response","345","638335","0.0-345.0","37W3JXSD67U1JCEHZU8COFSZFE2WY0","A3LVLZS8S41ZD7","3THR0FZ95PF7SK0MYRNAOUHTWA4OLV","","","img/flower6.png","76","581","3","1","1","2","1,0,0,1,1,0,1,0,1","0,0,1,1,0,1,0,1,1","2",""
"null","","html-keyboard-response","346","638641","0.0-346.0","37W3JXSD67U1JCEHZU8COFSZFE2WY0","A3LVLZS8S41ZD7","3THR0FZ95PF7SK0MYRNAOUHTWA4OLV","","","<img src=""img/flower6.png"" style=""width:200px; border:14px solid green;"">","null","","","","","","","","",""
"651.7999999523163","","image-keyboard-response","347","639295","0.0-347.0","37W3JXSD67U1JCEHZU8COFSZFE2WY0","A3LVLZS8S41ZD7","3THR0FZ95PF7SK0MYRNAOUHTWA4OLV","","","img/flower4.png","75","653.3000000119209","2","1","3","2","1,0,0,1,1,0,1,0,1","0,0,1,1,0,1,0,1,1","2",""
"null","","html-keyboard-response","348","639604","0.0-348.0","37W3JXSD67U1JCEHZU8COFSZFE2WY0","A3LVLZS8S41ZD7","3THR0FZ95PF7SK0MYRNAOUHTWA4OLV","","","<img src=""img/flower4.png"" style=""width:200px; border:14px solid green;"">","null","","","","","","","","",""
"408.5","","image-keyboard-response","349","640014","0.0-349.0","37W3JXSD67U1JCEHZU8COFSZFE2WY0","A3LVLZS8S41ZD7","3THR0FZ95PF7SK0MYRNAOUHTWA4OLV","","","img/flower4.png","75","409.80000001192093","2","1","3","2","1,0,0,1,1,0,1,0,1","0,0,1,1,0,1,0,1,1","2",""
"null","","html-keyboard-response","350","640321","0.0-350.0","37W3JXSD67U1JCEHZU8COFSZFE2WY0","A3LVLZS8S41ZD7","3THR0FZ95PF7SK0MYRNAOUHTWA4OLV","","","<img src=""img/flower4.png"" style=""width:200px; border:14px solid green;"">","null","","","","","","","","",""
"411.7000000476837","","image-keyboard-response","351","640734","0.0-351.0","37W3JXSD67U1JCEHZU8COFSZFE2WY0","A3LVLZS8S41ZD7","3THR0FZ95PF7SK0MYRNAOUHTWA4OLV","","","img/flower4.png","75","412.69999998807907","2","1","3","2","1,0,0,1,1,0,1,0,1","0,0,1,1,0,1,0,1,1","2",""
"null","","html-keyboard-response","352","641037","0.0-352.0","37W3JXSD67U1JCEHZU8COFSZFE2WY0","A3LVLZS8S41ZD7","3THR0FZ95PF7SK0MYRNAOUHTWA4OLV","","","<img src=""img/flower4.png"" style=""width:200px; border:14px solid green;"">","null","","","","","","","","",""
"608.3999999761581","","image-keyboard-response","353","641646","0.0-353.0","37W3JXSD67U1JCEHZU8COFSZFE2WY0","A3LVLZS8S41ZD7","3THR0FZ95PF7SK0MYRNAOUHTWA4OLV","","","img/flower6.png","76","609.1999999880791","3","1","1","2","1,0,0,1,1,0,1,0,1","0,0,1,1,0,1,0,1,1","2",""
"null","","html-keyboard-response","354","641954","0.0-354.0","37W3JXSD67U1JCEHZU8COFSZFE2WY0","A3LVLZS8S41ZD7","3THR0FZ95PF7SK0MYRNAOUHTWA4OLV","","","<img src=""img/flower6.png"" style=""width:200px; border:14px solid green;"">","null","","","","","","","","",""
"619.3999999761581","","image-keyboard-response","355","642576","0.0-355.0","37W3JXSD67U1JCEHZU8COFSZFE2WY0","A3LVLZS8S41ZD7","3THR0FZ95PF7SK0MYRNAOUHTWA4OLV","","","img/flower5.png","74","621.3000000119209","1","1","2","2","1,0,0,1,1,0,1,0,1","0,0,1,1,0,1,0,1,1","2",""
"null","","html-keyboard-response","356","642888","0.0-356.0","37W3JXSD67U1JCEHZU8COFSZFE2WY0","A3LVLZS8S41ZD7","3THR0FZ95PF7SK0MYRNAOUHTWA4OLV","","","<img src=""img/flower5.png"" style=""width:200px; border:14px solid green;"">","null","","","","","","","","",""
"508.5999999642372","","image-keyboard-response","357","643399","0.0-357.0","37W3JXSD67U1JCEHZU8COFSZFE2WY0","A3LVLZS8S41ZD7","3THR0FZ95PF7SK0MYRNAOUHTWA4OLV","","","img/flower6.png","76","510.39999997615814","3","1","1","2","1,0,0,1,1,0,1,0,1","0,0,1,1,0,1,0,1,1","2",""
"null","","html-keyboard-response","358","643712","0.0-358.0","37W3JXSD67U1JCEHZU8COFSZFE2WY0","A3LVLZS8S41ZD7","3THR0FZ95PF7SK0MYRNAOUHTWA4OLV","","","<img src=""img/flower6.png"" style=""width:200px; border:14px solid green;"">","null","","","","","","","","",""
"540.7999999523163","","image-keyboard-response","359","644255","0.0-359.0","37W3JXSD67U1JCEHZU8COFSZFE2WY0","A3LVLZS8S41ZD7","3THR0FZ95PF7SK0MYRNAOUHTWA4OLV","","","img/flower6.png","76","542","3","1","1","2","1,0,0,1,1,0,1,0,1","0,0,1,1,0,1,0,1,1","2",""
"null","","html-keyboard-response","360","644570","0.0-360.0","37W3JXSD67U1JCEHZU8COFSZFE2WY0","A3LVLZS8S41ZD7","3THR0FZ95PF7SK0MYRNAOUHTWA4OLV","","","<img src=""img/flower6.png"" style=""width:200px; border:14px solid green;"">","null","","","","","","","","",""
"626.8999999761581","","image-keyboard-response","361","645200","0.0-361.0","37W3JXSD67U1JCEHZU8COFSZFE2WY0","A3LVLZS8S41ZD7","3THR0FZ95PF7SK0MYRNAOUHTWA4OLV","","","img/flower5.png","75","628.9000000357628","2","0","2","2","1,0,0,1,1,0,1,0,1","0,0,1,1,0,1,0,1,1","2",""
"null","","html-keyboard-response","362","645505","0.0-362.0","37W3JXSD67U1JCEHZU8COFSZFE2WY0","A3LVLZS8S41ZD7","3THR0FZ95PF7SK0MYRNAOUHTWA4OLV","","","<img src=""img/flower5.png"" style=""width:200px;border:14px solid red;"">","null","","","","","","","","",""
"620.2999999523163","","image-keyboard-response","363","646126","0.0-363.0","37W3JXSD67U1JCEHZU8COFSZFE2WY0","A3LVLZS8S41ZD7","3THR0FZ95PF7SK0MYRNAOUHTWA4OLV","","","img/flower4.png","74","621.1000000238419","1","0","3","2","1,0,0,1,1,0,1,0,1","0,0,1,1,0,1,0,1,1","2",""
"null","","html-keyboard-response","364","646439","0.0-364.0","37W3JXSD67U1JCEHZU8COFSZFE2WY0","A3LVLZS8S41ZD7","3THR0FZ95PF7SK0MYRNAOUHTWA4OLV","","","<img src=""img/flower4.png"" style=""width:200px;border:14px solid red;"">","null","","","","","","","","",""
"710.5","","image-keyboard-response","365","647150","0.0-365.0","37W3JXSD67U1JCEHZU8COFSZFE2WY0","A3LVLZS8S41ZD7","3THR0FZ95PF7SK0MYRNAOUHTWA4OLV","","","img/flower4.png","75","711.1999999880791","2","1","3","2","1,0,0,1,1,0,1,0,1","0,0,1,1,0,1,0,1,1","2",""
"null","","html-keyboard-response","366","647466","0.0-366.0","37W3JXSD67U1JCEHZU8COFSZFE2WY0","A3LVLZS8S41ZD7","3THR0FZ95PF7SK0MYRNAOUHTWA4OLV","","","<img src=""img/flower4.png"" style=""width:200px; border:14px solid green;"">","null","","","","","","","","",""
"379.30000001192093","","image-keyboard-response","367","647847","0.0-367.0","37W3JXSD67U1JCEHZU8COFSZFE2WY0","A3LVLZS8S41ZD7","3THR0FZ95PF7SK0MYRNAOUHTWA4OLV","","","img/flower4.png","75","380.5","2","1","3","2","1,0,0,1,1,0,1,0,1","0,0,1,1,0,1,0,1,1","2",""
