"success","trial_type","trial_index","time_elapsed","internal_node_id","assignmentID","mturkID","hitID","view_history","rt","stimulus","key_press","reactionTime","a","r","s","cond","reward_cond","reward_cond_actual","reward_matrix_idx","responses"
"true","fullscreen","0","2019","0.0-0.0","3A4NIXBJ77LLE1D4CDDZL9OC9USLM9","A3N0QZ9ZKUCTCQ","3566S7OX5D5NH74JOVOPTTMK8IR17K","","","","","","","","","","","","",""
"","instructions","1","14737","0.0-1.0","3A4NIXBJ77LLE1D4CDDZL9OC9USLM9","A3N0QZ9ZKUCTCQ","3566S7OX5D5NH74JOVOPTTMK8IR17K","[{""page_index"":0,""viewing_time"":1812.4000000059605},{""page_index"":1,""viewing_time"":2640},{""page_index"":2,""viewing_time"":1287.8999999985099},{""page_index"":3,""viewing_time"":1424.1999999955297},{""page_index"":4,""viewing_time"":1511.9000000059605},{""page_index"":5,""viewing_time"":1279.6999999955297},{""page_index"":6,""viewing_time"":1152.3000000044703},{""page_index"":7,""viewing_time"":1607.7999999970198}]","12716.5","","","","","","","","","","",""
"","image-keyboard-response","2","15746","0.0-2.0","3A4NIXBJ77LLE1D4CDDZL9OC9USLM9","A3N0QZ9ZKUCTCQ","3566S7OX5D5NH74JOVOPTTMK8IR17K","","1007","img/flower4.png","74","1008.5","1","0","1","2","1,0,0,1,1,0,1,0,1","0,1,0,0,1,1,1,1,0","3",""
"","html-keyboard-response","3","16062","0.0-3.0","3A4NIXBJ77LLE1D4CDDZL9OC9USLM9","A3N0QZ9ZKUCTCQ","3566S7OX5D5NH74JOVOPTTMK8IR17K","","null","<img src=""img/flower4.png"" style=""width:200px;border:14px solid red;"">","null","","","","","","","","",""
"","image-keyboard-response","4","16648","0.0-4.0","3A4NIXBJ77LLE1D4CDDZL9OC9USLM9","A3N0QZ9ZKUCTCQ","3566S7OX5D5NH74JOVOPTTMK8IR17K","","584.8999999985099","img/flower6.png","75","586.1000000014901","2","1","3","2","1,0,0,1,1,0,1,0,1","0,1,0,0,1,1,1,1,0","3",""
"","html-keyboard-response","5","16951","0.0-5.0","3A4NIXBJ77LLE1D4CDDZL9OC9USLM9","A3N0QZ9ZKUCTCQ","3566S7OX5D5NH74JOVOPTTMK8IR17K","","null","<img src=""img/flower6.png"" style=""width:200px; border:14px solid green;"">","null","","","","","","","","",""
"","image-keyboard-response","6","17746","0.0-6.0","3A4NIXBJ77LLE1D4CDDZL9OC9USLM9","A3N0QZ9ZKUCTCQ","3566S7OX5D5NH74JOVOPTTMK8IR17K","","793.5","img/flower3.png","76","794.3999999985099","3","1","2","2","1,0,0,1,1,0,1,0,1","0,1,0,0,1,1,1,1,0","3",""
"","html-keyboard-response","7","18049","0.0-7.0","3A4NIXBJ77LLE1D4CDDZL9OC9USLM9","A3N0QZ9ZKUCTCQ","3566S7OX5D5NH74JOVOPTTMK8IR17K","","null","<img src=""img/flower3.png"" style=""width:200px; border:14px solid green;"">","null","","","","","","","","",""
"","image-keyboard-response","8","18859","0.0-8.0","3A4NIXBJ77LLE1D4CDDZL9OC9USLM9","A3N0QZ9ZKUCTCQ","3566S7OX5D5NH74JOVOPTTMK8IR17K","","809.6000000014901","img/flower6.png","75","810.4000000059605","2","1","3","2","1,0,0,1,1,0,1,0,1","0,1,0,0,1,1,1,1,0","3",""
"","html-keyboard-response","9","19169","0.0-9.0","3A4NIXBJ77LLE1D4CDDZL9OC9USLM9","A3N0QZ9ZKUCTCQ","3566S7OX5D5NH74JOVOPTTMK8IR17K","","null","<img src=""img/flower6.png"" style=""width:200px; border:14px solid green;"">","null","","","","","","","","",""
"","image-keyboard-response","10","19849","0.0-10.0","3A4NIXBJ77LLE1D4CDDZL9OC9USLM9","A3N0QZ9ZKUCTCQ","3566S7OX5D5NH74JOVOPTTMK8IR17K","","679","img/flower3.png","76","679.8000000044703","3","1","2","2","1,0,0,1,1,0,1,0,1","0,1,0,0,1,1,1,1,0","3",""
"","html-keyboard-response","11","20161","0.0-11.0","3A4NIXBJ77LLE1D4CDDZL9OC9USLM9","A3N0QZ9ZKUCTCQ","3566S7OX5D5NH74JOVOPTTMK8IR17K","","null","<img src=""img/flower3.png"" style=""width:200px; border:14px solid green;"">","null","","","","","","","","",""
"","image-keyboard-response","12","20548","0.0-12.0","3A4NIXBJ77LLE1D4CDDZL9OC9USLM9","A3N0QZ9ZKUCTCQ","3566S7OX5D5NH74JOVOPTTMK8IR17K","","385.29999999701977","img/flower3.png","76","386.20000000298023","3","1","2","2","1,0,0,1,1,0,1,0,1","0,1,0,0,1,1,1,1,0","3",""
"","html-keyboard-response","13","20865","0.0-13.0","3A4NIXBJ77LLE1D4CDDZL9OC9USLM9","A3N0QZ9ZKUCTCQ","3566S7OX5D5NH74JOVOPTTMK8IR17K","","null","<img src=""img/flower3.png"" style=""width:200px; border:14px solid green;"">","null","","","","","","","","",""
"","image-keyboard-response","14","21463","0.0-14.0","3A4NIXBJ77LLE1D4CDDZL9OC9USLM9","A3N0QZ9ZKUCTCQ","3566S7OX5D5NH74JOVOPTTMK8IR17K","","596.8999999985099","img/flower4.png","74","597.8999999985099","1","0","1","2","1,0,0,1,1,0,1,0,1","0,1,0,0,1,1,1,1,0","3",""
"","html-keyboard-response","15","21767","0.0-15.0","3A4NIXBJ77LLE1D4CDDZL9OC9USLM9","A3N0QZ9ZKUCTCQ","3566S7OX5D5NH74JOVOPTTMK8IR17K","","null","<img src=""img/flower4.png"" style=""width:200px;border:14px solid red;"">","null","","","","","","","","",""
"","image-keyboard-response","16","22170","0.0-16.0","3A4NIXBJ77LLE1D4CDDZL9OC9USLM9","A3N0QZ9ZKUCTCQ","3566S7OX5D5NH74JOVOPTTMK8IR17K","","401.6000000014901","img/flower4.png","74","402.69999999552965","1","0","1","2","1,0,0,1,1,0,1,0,1","0,1,0,0,1,1,1,1,0","3",""
"","html-keyboard-response","17","22482","0.0-17.0","3A4NIXBJ77LLE1D4CDDZL9OC9USLM9","A3N0QZ9ZKUCTCQ","3566S7OX5D5NH74JOVOPTTMK8IR17K","","null","<img src=""img/flower4.png"" style=""width:200px;border:14px solid red;"">","null","","","","","","","","",""
"","image-keyboard-response","18","22634","0.0-18.0","3A4NIXBJ77LLE1D4CDDZL9OC9USLM9","A3N0QZ9ZKUCTCQ","3566S7OX5D5NH74JOVOPTTMK8IR17K","","150.20000000298023","img/flower3.png","75","151.20000000298023","2","1","2","2","1,0,0,1,1,0,1,0,1","0,1,0,0,1,1,1,1,0","3",""
"","html-keyboard-response","19","22950","0.0-19.0","3A4NIXBJ77LLE1D4CDDZL9OC9USLM9","A3N0QZ9ZKUCTCQ","3566S7OX5D5NH74JOVOPTTMK8IR17K","","null","<img src=""img/flower3.png"" style=""width:200px; border:14px solid green;"">","null","","","","","","","","",""
"","image-keyboard-response","20","23443","0.0-20.0","3A4NIXBJ77LLE1D4CDDZL9OC9USLM9","A3N0QZ9ZKUCTCQ","3566S7OX5D5NH74JOVOPTTMK8IR17K","","491.1000000014901","img/flower4.png","75","492.20000000298023","2","1","1","2","1,0,0,1,1,0,1,0,1","0,1,0,0,1,1,1,1,0","3",""
"","html-keyboard-response","21","23746","0.0-21.0","3A4NIXBJ77LLE1D4CDDZL9OC9USLM9","A3N0QZ9ZKUCTCQ","3566S7OX5D5NH74JOVOPTTMK8IR17K","","null","<img src=""img/flower4.png"" style=""width:200px; border:14px solid green;"">","null","","","","","","","","",""
"","image-keyboard-response","22","24142","0.0-22.0","3A4NIXBJ77LLE1D4CDDZL9OC9USLM9","A3N0QZ9ZKUCTCQ","3566S7OX5D5NH74JOVOPTTMK8IR17K","","395.8999999985099","img/flower4.png","75","396.5","2","1","1","2","1,0,0,1,1,0,1,0,1","0,1,0,0,1,1,1,1,0","3",""
"","html-keyboard-response","23","24445","0.0-23.0","3A4NIXBJ77LLE1D4CDDZL9OC9USLM9","A3N0QZ9ZKUCTCQ","3566S7OX5D5NH74JOVOPTTMK8IR17K","","null","<img src=""img/flower4.png"" style=""width:200px; border:14px solid green;"">","null","","","","","","","","",""
"","image-keyboard-response","24","24916","0.0-24.0","3A4NIXBJ77LLE1D4CDDZL9OC9USLM9","A3N0QZ9ZKUCTCQ","3566S7OX5D5NH74JOVOPTTMK8IR17K","","469.5","img/flower3.png","75","470.20000000298023","2","1","2","2","1,0,0,1,1,0,1,0,1","0,1,0,0,1,1,1,1,0","3",""
"","html-keyboard-response","25","25224","0.0-25.0","3A4NIXBJ77LLE1D4CDDZL9OC9USLM9","A3N0QZ9ZKUCTCQ","3566S7OX5D5NH74JOVOPTTMK8IR17K","","null","<img src=""img/flower3.png"" style=""width:200px; border:14px solid green;"">","null","","","","","","","","",""
"","image-keyboard-response","26","25565","0.0-26.0","3A4NIXBJ77LLE1D4CDDZL9OC9USLM9","A3N0QZ9ZKUCTCQ","3566S7OX5D5NH74JOVOPTTMK8IR17K","","340.19999999552965","img/flower3.png","75","340.69999999552965","2","1","2","2","1,0,0,1,1,0,1,0,1","0,1,0,0,1,1,1,1,0","3",""
"","html-keyboard-response","27","25876","0.0-27.0","3A4NIXBJ77LLE1D4CDDZL9OC9USLM9","A3N0QZ9ZKUCTCQ","3566S7OX5D5NH74JOVOPTTMK8IR17K","","null","<img src=""img/flower3.png"" style=""width:200px; border:14px solid green;"">","null","","","","","","","","",""
"","image-keyboard-response","28","26215","0.0-28.0","3A4NIXBJ77LLE1D4CDDZL9OC9USLM9","A3N0QZ9ZKUCTCQ","3566S7OX5D5NH74JOVOPTTMK8IR17K","","337.79999999701977","img/flower3.png","75","338.69999999552965","2","1","2","2","1,0,0,1,1,0,1,0,1","0,1,0,0,1,1,1,1,0","3",""
"","html-keyboard-response","29","26529","0.0-29.0","3A4NIXBJ77LLE1D4CDDZL9OC9USLM9","A3N0QZ9ZKUCTCQ","3566S7OX5D5NH74JOVOPTTMK8IR17K","","null","<img src=""img/flower3.png"" style=""width:200px; border:14px solid green;"">","null","","","","","","","","",""
"","image-keyboard-response","30","27278","0.0-30.0","3A4NIXBJ77LLE1D4CDDZL9OC9USLM9","A3N0QZ9ZKUCTCQ","3566S7OX5D5NH74JOVOPTTMK8IR17K","","748.3999999985099","img/flower4.png","75","748.8999999985099","2","1","1","2","1,0,0,1,1,0,1,0,1","0,1,0,0,1,1,1,1,0","3",""
"","html-keyboard-response","31","27587","0.0-31.0","3A4NIXBJ77LLE1D4CDDZL9OC9USLM9","A3N0QZ9ZKUCTCQ","3566S7OX5D5NH74JOVOPTTMK8IR17K","","null","<img src=""img/flower4.png"" style=""width:200px; border:14px solid green;"">","null","","","","","","","","",""
"","image-keyboard-response","32","27917","0.0-32.0","3A4NIXBJ77LLE1D4CDDZL9OC9USLM9","A3N0QZ9ZKUCTCQ","3566S7OX5D5NH74JOVOPTTMK8IR17K","","328.40000000596046","img/flower4.png","75","329.20000000298023","2","1","1","2","1,0,0,1,1,0,1,0,1","0,1,0,0,1,1,1,1,0","3",""
"","html-keyboard-response","33","28226","0.0-33.0","3A4NIXBJ77LLE1D4CDDZL9OC9USLM9","A3N0QZ9ZKUCTCQ","3566S7OX5D5NH74JOVOPTTMK8IR17K","","null","<img src=""img/flower4.png"" style=""width:200px; border:14px solid green;"">","null","","","","","","","","",""
"","image-keyboard-response","34","28551","0.0-34.0","3A4NIXBJ77LLE1D4CDDZL9OC9USLM9","A3N0QZ9ZKUCTCQ","3566S7OX5D5NH74JOVOPTTMK8IR17K","","324.29999999701977","img/flower4.png","75","325.5","2","1","1","2","1,0,0,1,1,0,1,0,1","0,1,0,0,1,1,1,1,0","3",""
"","html-keyboard-response","35","28866","0.0-35.0","3A4NIXBJ77LLE1D4CDDZL9OC9USLM9","A3N0QZ9ZKUCTCQ","3566S7OX5D5NH74JOVOPTTMK8IR17K","","null","<img src=""img/flower4.png"" style=""width:200px; border:14px solid green;"">","null","","","","","","","","",""
"","image-keyboard-response","36","29171","0.0-36.0","3A4NIXBJ77LLE1D4CDDZL9OC9USLM9","A3N0QZ9ZKUCTCQ","3566S7OX5D5NH74JOVOPTTMK8IR17K","","303.69999999552965","img/flower4.png","75","304.70000000298023","2","1","1","2","1,0,0,1,1,0,1,0,1","0,1,0,0,1,1,1,1,0","3",""
"","html-keyboard-response","37","29483","0.0-37.0","3A4NIXBJ77LLE1D4CDDZL9OC9USLM9","A3N0QZ9ZKUCTCQ","3566S7OX5D5NH74JOVOPTTMK8IR17K","","null","<img src=""img/flower4.png"" style=""width:200px; border:14px solid green;"">","null","","","","","","","","",""
"","image-keyboard-response","38","30039","0.0-38.0","3A4NIXBJ77LLE1D4CDDZL9OC9USLM9","A3N0QZ9ZKUCTCQ","3566S7OX5D5NH74JOVOPTTMK8IR17K","","555.1000000014901","img/flower6.png","76","555.8000000044703","3","0","3","2","1,0,0,1,1,0,1,0,1","0,1,0,0,1,1,1,1,0","3",""
"","html-keyboard-response","39","30341","0.0-39.0","3A4NIXBJ77LLE1D4CDDZL9OC9USLM9","A3N0QZ9ZKUCTCQ","3566S7OX5D5NH74JOVOPTTMK8IR17K","","null","<img src=""img/flower6.png"" style=""width:200px;border:14px solid red;"">","null","","","","","","","","",""
"","image-keyboard-response","40","30955","0.0-40.0","3A4NIXBJ77LLE1D4CDDZL9OC9USLM9","A3N0QZ9ZKUCTCQ","3566S7OX5D5NH74JOVOPTTMK8IR17K","","612.1000000014901","img/flower3.png","75","613","2","1","2","2","1,0,0,1,1,0,1,0,1","0,1,0,0,1,1,1,1,0","3",""
"","html-keyboard-response","41","31257","0.0-41.0","3A4NIXBJ77LLE1D4CDDZL9OC9USLM9","A3N0QZ9ZKUCTCQ","3566S7OX5D5NH74JOVOPTTMK8IR17K","","null","<img src=""img/flower3.png"" style=""width:200px; border:14px solid green;"">","null","","","","","","","","",""
"","image-keyboard-response","42","32133","0.0-42.0","3A4NIXBJ77LLE1D4CDDZL9OC9USLM9","A3N0QZ9ZKUCTCQ","3566S7OX5D5NH74JOVOPTTMK8IR17K","","874","img/flower4.png","75","875.5","2","1","1","2","1,0,0,1,1,0,1,0,1","0,1,0,0,1,1,1,1,0","3",""
"","html-keyboard-response","43","32435","0.0-43.0","3A4NIXBJ77LLE1D4CDDZL9OC9USLM9","A3N0QZ9ZKUCTCQ","3566S7OX5D5NH74JOVOPTTMK8IR17K","","null","<img src=""img/flower4.png"" style=""width:200px; border:14px solid green;"">","null","","","","","","","","",""
"","image-keyboard-response","44","32791","0.0-44.0","3A4NIXBJ77LLE1D4CDDZL9OC9USLM9","A3N0QZ9ZKUCTCQ","3566S7OX5D5NH74JOVOPTTMK8IR17K","","354.6000000014901","img/flower4.png","75","355.8999999985099","2","1","1","2","1,0,0,1,1,0,1,0,1","0,1,0,0,1,1,1,1,0","3",""
"","html-keyboard-response","45","33093","0.0-45.0","3A4NIXBJ77LLE1D4CDDZL9OC9USLM9","A3N0QZ9ZKUCTCQ","3566S7OX5D5NH74JOVOPTTMK8IR17K","","null","<img src=""img/flower4.png"" style=""width:200px; border:14px solid green;"">","null","","","","","","","","",""
"","image-keyboard-response","46","33411","0.0-46.0","3A4NIXBJ77LLE1D4CDDZL9OC9USLM9","A3N0QZ9ZKUCTCQ","3566S7OX5D5NH74JOVOPTTMK8IR17K","","317.20000000298023","img/flower4.png","75","318.20000000298023","2","1","1","2","1,0,0,1,1,0,1,0,1","0,1,0,0,1,1,1,1,0","3",""
"","html-keyboard-response","47","33714","0.0-47.0","3A4NIXBJ77LLE1D4CDDZL9OC9USLM9","A3N0QZ9ZKUCTCQ","3566S7OX5D5NH74JOVOPTTMK8IR17K","","null","<img src=""img/flower4.png"" style=""width:200px; border:14px solid green;"">","null","","","","","","","","",""
"","image-keyboard-response","48","34230","0.0-48.0","3A4NIXBJ77LLE1D4CDDZL9OC9USLM9","A3N0QZ9ZKUCTCQ","3566S7OX5D5NH74JOVOPTTMK8IR17K","","514","img/flower3.png","75","515.6000000014901","2","1","2","2","1,0,0,1,1,0,1,0,1","0,1,0,0,1,1,1,1,0","3",""
"","html-keyboard-response","49","34532","0.0-49.0","3A4NIXBJ77LLE1D4CDDZL9OC9USLM9","A3N0QZ9ZKUCTCQ","3566S7OX5D5NH74JOVOPTTMK8IR17K","","null","<img src=""img/flower3.png"" style=""width:200px; border:14px solid green;"">","null","","","","","","","","",""
"","image-keyboard-response","50","35017","0.0-50.0","3A4NIXBJ77LLE1D4CDDZL9OC9USLM9","A3N0QZ9ZKUCTCQ","3566S7OX5D5NH74JOVOPTTMK8IR17K","","483.20000000298023","img/flower4.png","75","484.5","2","1","1","2","1,0,0,1,1,0,1,0,1","0,1,0,0,1,1,1,1,0","3",""
"","html-keyboard-response","51","35319","0.0-51.0","3A4NIXBJ77LLE1D4CDDZL9OC9USLM9","A3N0QZ9ZKUCTCQ","3566S7OX5D5NH74JOVOPTTMK8IR17K","","null","<img src=""img/flower4.png"" style=""width:200px; border:14px solid green;"">","null","","","","","","","","",""
"","image-keyboard-response","52","35803","0.0-52.0","3A4NIXBJ77LLE1D4CDDZL9OC9USLM9","A3N0QZ9ZKUCTCQ","3566S7OX5D5NH74JOVOPTTMK8IR17K","","482.5","img/flower3.png","75","483.5","2","1","2","2","1,0,0,1,1,0,1,0,1","0,1,0,0,1,1,1,1,0","3",""
"","html-keyboard-response","53","36105","0.0-53.0","3A4NIXBJ77LLE1D4CDDZL9OC9USLM9","A3N0QZ9ZKUCTCQ","3566S7OX5D5NH74JOVOPTTMK8IR17K","","null","<img src=""img/flower3.png"" style=""width:200px; border:14px solid green;"">","null","","","","","","","","",""
"","image-keyboard-response","54","36581","0.0-54.0","3A4NIXBJ77LLE1D4CDDZL9OC9USLM9","A3N0QZ9ZKUCTCQ","3566S7OX5D5NH74JOVOPTTMK8IR17K","","475","img/flower6.png","74","475.90000000596046","1","1","3","2","1,0,0,1,1,0,1,0,1","0,1,0,0,1,1,1,1,0","3",""
"","html-keyboard-response","55","36884","0.0-55.0","3A4NIXBJ77LLE1D4CDDZL9OC9USLM9","A3N0QZ9ZKUCTCQ","3566S7OX5D5NH74JOVOPTTMK8IR17K","","null","<img src=""img/flower6.png"" style=""width:200px; border:14px solid green;"">","null","","","","","","","","",""
"","image-keyboard-response","56","37340","0.0-56.0","3A4NIXBJ77LLE1D4CDDZL9OC9USLM9","A3N0QZ9ZKUCTCQ","3566S7OX5D5NH74JOVOPTTMK8IR17K","","454.6000000014901","img/flower3.png","75","456","2","1","2","2","1,0,0,1,1,0,1,0,1","0,1,0,0,1,1,1,1,0","3",""
"","html-keyboard-response","57","37643","0.0-57.0","3A4NIXBJ77LLE1D4CDDZL9OC9USLM9","A3N0QZ9ZKUCTCQ","3566S7OX5D5NH74JOVOPTTMK8IR17K","","null","<img src=""img/flower3.png"" style=""width:200px; border:14px solid green;"">","null","","","","","","","","",""
"","image-keyboard-response","58","38080","0.0-58.0","3A4NIXBJ77LLE1D4CDDZL9OC9USLM9","A3N0QZ9ZKUCTCQ","3566S7OX5D5NH74JOVOPTTMK8IR17K","","435.20000000298023","img/flower4.png","75","436.70000000298023","2","1","1","2","1,0,0,1,1,0,1,0,1","0,1,0,0,1,1,1,1,0","3",""
"","html-keyboard-response","59","38382","0.0-59.0","3A4NIXBJ77LLE1D4CDDZL9OC9USLM9","A3N0QZ9ZKUCTCQ","3566S7OX5D5NH74JOVOPTTMK8IR17K","","null","<img src=""img/flower4.png"" style=""width:200px; border:14px solid green;"">","null","","","","","","","","",""
"","image-keyboard-response","60","38798","0.0-60.0","3A4NIXBJ77LLE1D4CDDZL9OC9USLM9","A3N0QZ9ZKUCTCQ","3566S7OX5D5NH74JOVOPTTMK8IR17K","","413.90000000596046","img/flower6.png","74","415.40000000596046","1","1","3","2","1,0,0,1,1,0,1,0,1","0,1,0,0,1,1,1,1,0","3",""
"","html-keyboard-response","61","39101","0.0-61.0","3A4NIXBJ77LLE1D4CDDZL9OC9USLM9","A3N0QZ9ZKUCTCQ","3566S7OX5D5NH74JOVOPTTMK8IR17K","","null","<img src=""img/flower6.png"" style=""width:200px; border:14px solid green;"">","null","","","","","","","","",""
"","image-keyboard-response","62","39507","0.0-62.0","3A4NIXBJ77LLE1D4CDDZL9OC9USLM9","A3N0QZ9ZKUCTCQ","3566S7OX5D5NH74JOVOPTTMK8IR17K","","404.1000000014901","img/flower3.png","75","405.79999999701977","2","1","2","2","1,0,0,1,1,0,1,0,1","0,1,0,0,1,1,1,1,0","3",""
"","html-keyboard-response","63","39810","0.0-63.0","3A4NIXBJ77LLE1D4CDDZL9OC9USLM9","A3N0QZ9ZKUCTCQ","3566S7OX5D5NH74JOVOPTTMK8IR17K","","null","<img src=""img/flower3.png"" style=""width:200px; border:14px solid green;"">","null","","","","","","","","",""
"","image-keyboard-response","64","40052","0.0-64.0","3A4NIXBJ77LLE1D4CDDZL9OC9USLM9","A3N0QZ9ZKUCTCQ","3566S7OX5D5NH74JOVOPTTMK8IR17K","","240.5","img/flower4.png","75","241.79999999701977","2","1","1","2","1,0,0,1,1,0,1,0,1","0,1,0,0,1,1,1,1,0","3",""
"","html-keyboard-response","65","40355","0.0-65.0","3A4NIXBJ77LLE1D4CDDZL9OC9USLM9","A3N0QZ9ZKUCTCQ","3566S7OX5D5NH74JOVOPTTMK8IR17K","","null","<img src=""img/flower4.png"" style=""width:200px; border:14px solid green;"">","null","","","","","","","","",""
"","image-keyboard-response","66","40741","0.0-66.0","3A4NIXBJ77LLE1D4CDDZL9OC9USLM9","A3N0QZ9ZKUCTCQ","3566S7OX5D5NH74JOVOPTTMK8IR17K","","384.1000000014901","img/flower4.png","75","385.69999999552965","2","1","1","2","1,0,0,1,1,0,1,0,1","0,1,0,0,1,1,1,1,0","3",""
"","html-keyboard-response","67","41043","0.0-67.0","3A4NIXBJ77LLE1D4CDDZL9OC9USLM9","A3N0QZ9ZKUCTCQ","3566S7OX5D5NH74JOVOPTTMK8IR17K","","null","<img src=""img/flower4.png"" style=""width:200px; border:14px solid green;"">","null","","","","","","","","",""
"","image-keyboard-response","68","41555","0.0-68.0","3A4NIXBJ77LLE1D4CDDZL9OC9USLM9","A3N0QZ9ZKUCTCQ","3566S7OX5D5NH74JOVOPTTMK8IR17K","","510.6000000014901","img/flower6.png","74","511.70000000298023","1","1","3","2","1,0,0,1,1,0,1,0,1","0,1,0,0,1,1,1,1,0","3",""
"","html-keyboard-response","69","41858","0.0-69.0","3A4NIXBJ77LLE1D4CDDZL9OC9USLM9","A3N0QZ9ZKUCTCQ","3566S7OX5D5NH74JOVOPTTMK8IR17K","","null","<img src=""img/flower6.png"" style=""width:200px; border:14px solid green;"">","null","","","","","","","","",""
"","image-keyboard-response","70","42269","0.0-70.0","3A4NIXBJ77LLE1D4CDDZL9OC9USLM9","A3N0QZ9ZKUCTCQ","3566S7OX5D5NH74JOVOPTTMK8IR17K","","409.6000000014901","img/flower3.png","75","411.1000000014901","2","1","2","2","1,0,0,1,1,0,1,0,1","0,1,0,0,1,1,1,1,0","3",""
"","html-keyboard-response","71","42572","0.0-71.0","3A4NIXBJ77LLE1D4CDDZL9OC9USLM9","A3N0QZ9ZKUCTCQ","3566S7OX5D5NH74JOVOPTTMK8IR17K","","null","<img src=""img/flower3.png"" style=""width:200px; border:14px solid green;"">","null","","","","","","","","",""
"","image-keyboard-response","72","42848","0.0-72.0","3A4NIXBJ77LLE1D4CDDZL9OC9USLM9","A3N0QZ9ZKUCTCQ","3566S7OX5D5NH74JOVOPTTMK8IR17K","","275.19999999552965","img/flower4.png","75","276.09999999403954","2","1","1","2","1,0,0,1,1,0,1,0,1","0,1,0,0,1,1,1,1,0","3",""
"","html-keyboard-response","73","43153","0.0-73.0","3A4NIXBJ77LLE1D4CDDZL9OC9USLM9","A3N0QZ9ZKUCTCQ","3566S7OX5D5NH74JOVOPTTMK8IR17K","","null","<img src=""img/flower4.png"" style=""width:200px; border:14px solid green;"">","null","","","","","","","","",""
"","image-keyboard-response","74","43521","0.0-74.0","3A4NIXBJ77LLE1D4CDDZL9OC9USLM9","A3N0QZ9ZKUCTCQ","3566S7OX5D5NH74JOVOPTTMK8IR17K","","366.79999999701977","img/flower3.png","75","368.29999999701977","2","1","2","2","1,0,0,1,1,0,1,0,1","0,1,0,0,1,1,1,1,0","3",""
"","html-keyboard-response","75","43823","0.0-75.0","3A4NIXBJ77LLE1D4CDDZL9OC9USLM9","A3N0QZ9ZKUCTCQ","3566S7OX5D5NH74JOVOPTTMK8IR17K","","null","<img src=""img/flower3.png"" style=""width:200px; border:14px solid green;"">","null","","","","","","","","",""
"","image-keyboard-response","76","44211","0.0-76.0","3A4NIXBJ77LLE1D4CDDZL9OC9USLM9","A3N0QZ9ZKUCTCQ","3566S7OX5D5NH74JOVOPTTMK8IR17K","","386.1000000014901","img/flower3.png","75","387.80000000447035","2","1","2","2","1,0,0,1,1,0,1,0,1","0,1,0,0,1,1,1,1,0","3",""
"","html-keyboard-response","77","44513","0.0-77.0","3A4NIXBJ77LLE1D4CDDZL9OC9USLM9","A3N0QZ9ZKUCTCQ","3566S7OX5D5NH74JOVOPTTMK8IR17K","","null","<img src=""img/flower3.png"" style=""width:200px; border:14px solid green;"">","null","","","","","","","","",""
"","image-keyboard-response","78","45079","0.0-78.0","3A4NIXBJ77LLE1D4CDDZL9OC9USLM9","A3N0QZ9ZKUCTCQ","3566S7OX5D5NH74JOVOPTTMK8IR17K","","564.5","img/flower4.png","75","565.7999999970198","2","1","1","2","1,0,0,1,1,0,1,0,1","0,1,0,0,1,1,1,1,0","3",""
"","html-keyboard-response","79","45382","0.0-79.0","3A4NIXBJ77LLE1D4CDDZL9OC9USLM9","A3N0QZ9ZKUCTCQ","3566S7OX5D5NH74JOVOPTTMK8IR17K","","null","<img src=""img/flower4.png"" style=""width:200px; border:14px solid green;"">","null","","","","","","","","",""
"","image-keyboard-response","80","45733","0.0-80.0","3A4NIXBJ77LLE1D4CDDZL9OC9USLM9","A3N0QZ9ZKUCTCQ","3566S7OX5D5NH74JOVOPTTMK8IR17K","","349.1000000014901","img/flower3.png","75","350.29999999701977","2","1","2","2","1,0,0,1,1,0,1,0,1","0,1,0,0,1,1,1,1,0","3",""
"","html-keyboard-response","81","46042","0.0-81.0","3A4NIXBJ77LLE1D4CDDZL9OC9USLM9","A3N0QZ9ZKUCTCQ","3566S7OX5D5NH74JOVOPTTMK8IR17K","","null","<img src=""img/flower3.png"" style=""width:200px; border:14px solid green;"">","null","","","","","","","","",""
"","image-keyboard-response","82","46533","0.0-82.0","3A4NIXBJ77LLE1D4CDDZL9OC9USLM9","A3N0QZ9ZKUCTCQ","3566S7OX5D5NH74JOVOPTTMK8IR17K","","490.1000000014901","img/flower4.png","75","491.20000000298023","2","1","1","2","1,0,0,1,1,0,1,0,1","0,1,0,0,1,1,1,1,0","3",""
"","html-keyboard-response","83","46835","0.0-83.0","3A4NIXBJ77LLE1D4CDDZL9OC9USLM9","A3N0QZ9ZKUCTCQ","3566S7OX5D5NH74JOVOPTTMK8IR17K","","null","<img src=""img/flower4.png"" style=""width:200px; border:14px solid green;"">","null","","","","","","","","",""
"","image-keyboard-response","84","47241","0.0-84.0","3A4NIXBJ77LLE1D4CDDZL9OC9USLM9","A3N0QZ9ZKUCTCQ","3566S7OX5D5NH74JOVOPTTMK8IR17K","","404.80000000447035","img/flower3.png","75","405.5","2","1","2","2","1,0,0,1,1,0,1,0,1","0,1,0,0,1,1,1,1,0","3",""
"","html-keyboard-response","85","47543","0.0-85.0","3A4NIXBJ77LLE1D4CDDZL9OC9USLM9","A3N0QZ9ZKUCTCQ","3566S7OX5D5NH74JOVOPTTMK8IR17K","","null","<img src=""img/flower3.png"" style=""width:200px; border:14px solid green;"">","null","","","","","","","","",""
"","image-keyboard-response","86","48041","0.0-86.0","3A4NIXBJ77LLE1D4CDDZL9OC9USLM9","A3N0QZ9ZKUCTCQ","3566S7OX5D5NH74JOVOPTTMK8IR17K","","496.1000000014901","img/flower6.png","74","497.8999999985099","1","1","3","2","1,0,0,1,1,0,1,0,1","0,1,0,0,1,1,1,1,0","3",""
"","html-keyboard-response","87","48344","0.0-87.0","3A4NIXBJ77LLE1D4CDDZL9OC9USLM9","A3N0QZ9ZKUCTCQ","3566S7OX5D5NH74JOVOPTTMK8IR17K","","null","<img src=""img/flower6.png"" style=""width:200px; border:14px solid green;"">","null","","","","","","","","",""
"","image-keyboard-response","88","48744","0.0-88.0","3A4NIXBJ77LLE1D4CDDZL9OC9USLM9","A3N0QZ9ZKUCTCQ","3566S7OX5D5NH74JOVOPTTMK8IR17K","","399.8999999985099","img/flower3.png","75","400.59999999403954","2","1","2","2","1,0,0,1,1,0,1,0,1","0,1,0,0,1,1,1,1,0","3",""
"","html-keyboard-response","89","49046","0.0-89.0","3A4NIXBJ77LLE1D4CDDZL9OC9USLM9","A3N0QZ9ZKUCTCQ","3566S7OX5D5NH74JOVOPTTMK8IR17K","","null","<img src=""img/flower3.png"" style=""width:200px; border:14px solid green;"">","null","","","","","","","","",""
"","image-keyboard-response","90","49433","0.0-90.0","3A4NIXBJ77LLE1D4CDDZL9OC9USLM9","A3N0QZ9ZKUCTCQ","3566S7OX5D5NH74JOVOPTTMK8IR17K","","386","img/flower3.png","75","386.70000000298023","2","1","2","2","1,0,0,1,1,0,1,0,1","0,1,0,0,1,1,1,1,0","3",""
"","html-keyboard-response","91","49735","0.0-91.0","3A4NIXBJ77LLE1D4CDDZL9OC9USLM9","A3N0QZ9ZKUCTCQ","3566S7OX5D5NH74JOVOPTTMK8IR17K","","null","<img src=""img/flower3.png"" style=""width:200px; border:14px solid green;"">","null","","","","","","","","",""
"","image-keyboard-response","92","50228","0.0-92.0","3A4NIXBJ77LLE1D4CDDZL9OC9USLM9","A3N0QZ9ZKUCTCQ","3566S7OX5D5NH74JOVOPTTMK8IR17K","","491.6000000014901","img/flower6.png","74","492.8999999985099","1","1","3","2","1,0,0,1,1,0,1,0,1","0,1,0,0,1,1,1,1,0","3",""
"","html-keyboard-response","93","50530","0.0-93.0","3A4NIXBJ77LLE1D4CDDZL9OC9USLM9","A3N0QZ9ZKUCTCQ","3566S7OX5D5NH74JOVOPTTMK8IR17K","","null","<img src=""img/flower6.png"" style=""width:200px; border:14px solid green;"">","null","","","","","","","","",""
"","image-keyboard-response","94","50937","0.0-94.0","3A4NIXBJ77LLE1D4CDDZL9OC9USLM9","A3N0QZ9ZKUCTCQ","3566S7OX5D5NH74JOVOPTTMK8IR17K","","404.8999999985099","img/flower3.png","75","406.5","2","1","2","2","1,0,0,1,1,0,1,0,1","0,1,0,0,1,1,1,1,0","3",""
"","html-keyboard-response","95","51239","0.0-95.0","3A4NIXBJ77LLE1D4CDDZL9OC9USLM9","A3N0QZ9ZKUCTCQ","3566S7OX5D5NH74JOVOPTTMK8IR17K","","null","<img src=""img/flower3.png"" style=""width:200px; border:14px solid green;"">","null","","","","","","","","",""
"","image-keyboard-response","96","51830","0.0-96.0","3A4NIXBJ77LLE1D4CDDZL9OC9USLM9","A3N0QZ9ZKUCTCQ","3566S7OX5D5NH74JOVOPTTMK8IR17K","","589.5","img/flower6.png","74","590.7999999970198","1","1","3","2","1,0,0,1,1,0,1,0,1","0,1,0,0,1,1,1,1,0","3",""
"","html-keyboard-response","97","52132","0.0-97.0","3A4NIXBJ77LLE1D4CDDZL9OC9USLM9","A3N0QZ9ZKUCTCQ","3566S7OX5D5NH74JOVOPTTMK8IR17K","","null","<img src=""img/flower6.png"" style=""width:200px; border:14px solid green;"">","null","","","","","","","","",""
"","image-keyboard-response","98","52611","0.0-98.0","3A4NIXBJ77LLE1D4CDDZL9OC9USLM9","A3N0QZ9ZKUCTCQ","3566S7OX5D5NH74JOVOPTTMK8IR17K","","476.40000000596046","img/flower6.png","74","478.1000000014901","1","1","3","2","1,0,0,1,1,0,1,0,1","0,1,0,0,1,1,1,1,0","3",""
"","html-keyboard-response","99","52914","0.0-99.0","3A4NIXBJ77LLE1D4CDDZL9OC9USLM9","A3N0QZ9ZKUCTCQ","3566S7OX5D5NH74JOVOPTTMK8IR17K","","null","<img src=""img/flower6.png"" style=""width:200px; border:14px solid green;"">","null","","","","","","","","",""
"","image-keyboard-response","100","53329","0.0-100.0","3A4NIXBJ77LLE1D4CDDZL9OC9USLM9","A3N0QZ9ZKUCTCQ","3566S7OX5D5NH74JOVOPTTMK8IR17K","","412.70000000298023","img/flower6.png","75","414.30000000447035","2","1","3","2","1,0,0,1,1,0,1,0,1","0,1,0,0,1,1,1,1,0","3",""
"","html-keyboard-response","101","53631","0.0-101.0","3A4NIXBJ77LLE1D4CDDZL9OC9USLM9","A3N0QZ9ZKUCTCQ","3566S7OX5D5NH74JOVOPTTMK8IR17K","","null","<img src=""img/flower6.png"" style=""width:200px; border:14px solid green;"">","null","","","","","","","","",""
"","image-keyboard-response","102","54208","0.0-102.0","3A4NIXBJ77LLE1D4CDDZL9OC9USLM9","A3N0QZ9ZKUCTCQ","3566S7OX5D5NH74JOVOPTTMK8IR17K","","575","img/flower6.png","75","576.5","2","1","3","2","1,0,0,1,1,0,1,0,1","0,1,0,0,1,1,1,1,0","3",""
"","html-keyboard-response","103","54511","0.0-103.0","3A4NIXBJ77LLE1D4CDDZL9OC9USLM9","A3N0QZ9ZKUCTCQ","3566S7OX5D5NH74JOVOPTTMK8IR17K","","null","<img src=""img/flower6.png"" style=""width:200px; border:14px solid green;"">","null","","","","","","","","",""
"","image-keyboard-response","104","55080","0.0-104.0","3A4NIXBJ77LLE1D4CDDZL9OC9USLM9","A3N0QZ9ZKUCTCQ","3566S7OX5D5NH74JOVOPTTMK8IR17K","","567.6999999955297","img/flower3.png","75","568.8999999985099","2","1","2","2","1,0,0,1,1,0,1,0,1","0,1,0,0,1,1,1,1,0","3",""
"","html-keyboard-response","105","55382","0.0-105.0","3A4NIXBJ77LLE1D4CDDZL9OC9USLM9","A3N0QZ9ZKUCTCQ","3566S7OX5D5NH74JOVOPTTMK8IR17K","","null","<img src=""img/flower3.png"" style=""width:200px; border:14px solid green;"">","null","","","","","","","","",""
"","image-keyboard-response","106","55735","0.0-106.0","3A4NIXBJ77LLE1D4CDDZL9OC9USLM9","A3N0QZ9ZKUCTCQ","3566S7OX5D5NH74JOVOPTTMK8IR17K","","351","img/flower3.png","75","352.29999999701977","2","1","2","2","1,0,0,1,1,0,1,0,1","0,1,0,0,1,1,1,1,0","3",""
"","html-keyboard-response","107","56037","0.0-107.0","3A4NIXBJ77LLE1D4CDDZL9OC9USLM9","A3N0QZ9ZKUCTCQ","3566S7OX5D5NH74JOVOPTTMK8IR17K","","null","<img src=""img/flower3.png"" style=""width:200px; border:14px solid green;"">","null","","","","","","","","",""
"","image-keyboard-response","108","56535","0.0-108.0","3A4NIXBJ77LLE1D4CDDZL9OC9USLM9","A3N0QZ9ZKUCTCQ","3566S7OX5D5NH74JOVOPTTMK8IR17K","","496.20000000298023","img/flower4.png","74","497.79999999701977","1","0","1","2","1,0,0,1,1,0,1,0,1","0,1,0,0,1,1,1,1,0","3",""
"","html-keyboard-response","109","56837","0.0-109.0","3A4NIXBJ77LLE1D4CDDZL9OC9USLM9","A3N0QZ9ZKUCTCQ","3566S7OX5D5NH74JOVOPTTMK8IR17K","","null","<img src=""img/flower4.png"" style=""width:200px;border:14px solid red;"">","null","","","","","","","","",""
"","image-keyboard-response","110","57143","0.0-110.0","3A4NIXBJ77LLE1D4CDDZL9OC9USLM9","A3N0QZ9ZKUCTCQ","3566S7OX5D5NH74JOVOPTTMK8IR17K","","303.90000000596046","img/flower6.png","75","305.1000000014901","2","1","3","2","1,0,0,1,1,0,1,0,1","0,1,0,0,1,1,1,1,0","3",""
"","html-keyboard-response","111","57445","0.0-111.0","3A4NIXBJ77LLE1D4CDDZL9OC9USLM9","A3N0QZ9ZKUCTCQ","3566S7OX5D5NH74JOVOPTTMK8IR17K","","null","<img src=""img/flower6.png"" style=""width:200px; border:14px solid green;"">","null","","","","","","","","",""
"","image-keyboard-response","112","57932","0.0-112.0","3A4NIXBJ77LLE1D4CDDZL9OC9USLM9","A3N0QZ9ZKUCTCQ","3566S7OX5D5NH74JOVOPTTMK8IR17K","","486.30000000447035","img/flower6.png","75","487.5","2","1","3","2","1,0,0,1,1,0,1,0,1","0,1,0,0,1,1,1,1,0","3",""
"","html-keyboard-response","113","58236","0.0-113.0","3A4NIXBJ77LLE1D4CDDZL9OC9USLM9","A3N0QZ9ZKUCTCQ","3566S7OX5D5NH74JOVOPTTMK8IR17K","","null","<img src=""img/flower6.png"" style=""width:200px; border:14px solid green;"">","null","","","","","","","","",""
"","image-keyboard-response","114","58645","0.0-114.0","3A4NIXBJ77LLE1D4CDDZL9OC9USLM9","A3N0QZ9ZKUCTCQ","3566S7OX5D5NH74JOVOPTTMK8IR17K","","407.5","img/flower3.png","75","408.20000000298023","2","1","2","2","1,0,0,1,1,0,1,0,1","0,1,0,0,1,1,1,1,0","3",""
"","html-keyboard-response","115","58946","0.0-115.0","3A4NIXBJ77LLE1D4CDDZL9OC9USLM9","A3N0QZ9ZKUCTCQ","3566S7OX5D5NH74JOVOPTTMK8IR17K","","null","<img src=""img/flower3.png"" style=""width:200px; border:14px solid green;"">","null","","","","","","","","",""
"","image-keyboard-response","116","59210","0.0-116.0","3A4NIXBJ77LLE1D4CDDZL9OC9USLM9","A3N0QZ9ZKUCTCQ","3566S7OX5D5NH74JOVOPTTMK8IR17K","","262.5","img/flower4.png","75","264","2","1","1","2","1,0,0,1,1,0,1,0,1","0,1,0,0,1,1,1,1,0","3",""
"","html-keyboard-response","117","59513","0.0-117.0","3A4NIXBJ77LLE1D4CDDZL9OC9USLM9","A3N0QZ9ZKUCTCQ","3566S7OX5D5NH74JOVOPTTMK8IR17K","","null","<img src=""img/flower4.png"" style=""width:200px; border:14px solid green;"">","null","","","","","","","","",""
"","image-keyboard-response","118","59785","0.0-118.0","3A4NIXBJ77LLE1D4CDDZL9OC9USLM9","A3N0QZ9ZKUCTCQ","3566S7OX5D5NH74JOVOPTTMK8IR17K","","270.19999999552965","img/flower6.png","75","271.69999999552965","2","1","3","2","1,0,0,1,1,0,1,0,1","0,1,0,0,1,1,1,1,0","3",""
"","html-keyboard-response","119","60101","0.0-119.0","3A4NIXBJ77LLE1D4CDDZL9OC9USLM9","A3N0QZ9ZKUCTCQ","3566S7OX5D5NH74JOVOPTTMK8IR17K","","null","<img src=""img/flower6.png"" style=""width:200px; border:14px solid green;"">","null","","","","","","","","",""
"","image-keyboard-response","120","60329","0.0-120.0","3A4NIXBJ77LLE1D4CDDZL9OC9USLM9","A3N0QZ9ZKUCTCQ","3566S7OX5D5NH74JOVOPTTMK8IR17K","","226.5","img/flower6.png","75","227.5","2","1","3","2","1,0,0,1,1,0,1,0,1","0,1,0,0,1,1,1,1,0","3",""
"","html-keyboard-response","121","60632","0.0-121.0","3A4NIXBJ77LLE1D4CDDZL9OC9USLM9","A3N0QZ9ZKUCTCQ","3566S7OX5D5NH74JOVOPTTMK8IR17K","","null","<img src=""img/flower6.png"" style=""width:200px; border:14px solid green;"">","null","","","","","","","","",""
"","image-keyboard-response","122","60819","0.0-122.0","3A4NIXBJ77LLE1D4CDDZL9OC9USLM9","A3N0QZ9ZKUCTCQ","3566S7OX5D5NH74JOVOPTTMK8IR17K","","184.60000000149012","img/flower6.png","75","186.20000000298023","2","1","3","2","1,0,0,1,1,0,1,0,1","0,1,0,0,1,1,1,1,0","3",""
"","html-keyboard-response","123","61121","0.0-123.0","3A4NIXBJ77LLE1D4CDDZL9OC9USLM9","A3N0QZ9ZKUCTCQ","3566S7OX5D5NH74JOVOPTTMK8IR17K","","null","<img src=""img/flower6.png"" style=""width:200px; border:14px solid green;"">","null","","","","","","","","",""
"","image-keyboard-response","124","61382","0.0-124.0","3A4NIXBJ77LLE1D4CDDZL9OC9USLM9","A3N0QZ9ZKUCTCQ","3566S7OX5D5NH74JOVOPTTMK8IR17K","","259.5","img/flower3.png","75","260.70000000298023","2","1","2","2","1,0,0,1,1,0,1,0,1","0,1,0,0,1,1,1,1,0","3",""
"","html-keyboard-response","125","61684","0.0-125.0","3A4NIXBJ77LLE1D4CDDZL9OC9USLM9","A3N0QZ9ZKUCTCQ","3566S7OX5D5NH74JOVOPTTMK8IR17K","","null","<img src=""img/flower3.png"" style=""width:200px; border:14px solid green;"">","null","","","","","","","","",""
"","image-keyboard-response","126","61902","0.0-126.0","3A4NIXBJ77LLE1D4CDDZL9OC9USLM9","A3N0QZ9ZKUCTCQ","3566S7OX5D5NH74JOVOPTTMK8IR17K","","216","img/flower4.png","75","217.39999999850988","2","1","1","2","1,0,0,1,1,0,1,0,1","0,1,0,0,1,1,1,1,0","3",""
"","html-keyboard-response","127","62205","0.0-127.0","3A4NIXBJ77LLE1D4CDDZL9OC9USLM9","A3N0QZ9ZKUCTCQ","3566S7OX5D5NH74JOVOPTTMK8IR17K","","null","<img src=""img/flower4.png"" style=""width:200px; border:14px solid green;"">","null","","","","","","","","",""
"","image-keyboard-response","128","62431","0.0-128.0","3A4NIXBJ77LLE1D4CDDZL9OC9USLM9","A3N0QZ9ZKUCTCQ","3566S7OX5D5NH74JOVOPTTMK8IR17K","","225.29999999701977","img/flower4.png","75","226.60000000149012","2","1","1","2","1,0,0,1,1,0,1,0,1","0,1,0,0,1,1,1,1,0","3",""
"","html-keyboard-response","129","62733","0.0-129.0","3A4NIXBJ77LLE1D4CDDZL9OC9USLM9","A3N0QZ9ZKUCTCQ","3566S7OX5D5NH74JOVOPTTMK8IR17K","","null","<img src=""img/flower4.png"" style=""width:200px; border:14px solid green;"">","null","","","","","","","","",""
"","image-keyboard-response","130","62856","0.0-130.0","3A4NIXBJ77LLE1D4CDDZL9OC9USLM9","A3N0QZ9ZKUCTCQ","3566S7OX5D5NH74JOVOPTTMK8IR17K","","121.20000000298023","img/flower4.png","75","122.60000000149012","2","1","1","2","1,0,0,1,1,0,1,0,1","0,1,0,0,1,1,1,1,0","3",""
"","html-keyboard-response","131","63159","0.0-131.0","3A4NIXBJ77LLE1D4CDDZL9OC9USLM9","A3N0QZ9ZKUCTCQ","3566S7OX5D5NH74JOVOPTTMK8IR17K","","null","<img src=""img/flower4.png"" style=""width:200px; border:14px solid green;"">","null","","","","","","","","",""
"","image-keyboard-response","132","63470","0.0-132.0","3A4NIXBJ77LLE1D4CDDZL9OC9USLM9","A3N0QZ9ZKUCTCQ","3566S7OX5D5NH74JOVOPTTMK8IR17K","","309.70000000298023","img/flower6.png","75","310.8999999985099","2","1","3","2","1,0,0,1,1,0,1,0,1","0,1,0,0,1,1,1,1,0","3",""
"","html-keyboard-response","133","63772","0.0-133.0","3A4NIXBJ77LLE1D4CDDZL9OC9USLM9","A3N0QZ9ZKUCTCQ","3566S7OX5D5NH74JOVOPTTMK8IR17K","","null","<img src=""img/flower6.png"" style=""width:200px; border:14px solid green;"">","null","","","","","","","","",""
"","image-keyboard-response","134","63959","0.0-134.0","3A4NIXBJ77LLE1D4CDDZL9OC9USLM9","A3N0QZ9ZKUCTCQ","3566S7OX5D5NH74JOVOPTTMK8IR17K","","185.90000000596046","img/flower4.png","75","187.30000000447035","2","1","1","2","1,0,0,1,1,0,1,0,1","0,1,0,0,1,1,1,1,0","3",""
"","html-keyboard-response","135","64263","0.0-135.0","3A4NIXBJ77LLE1D4CDDZL9OC9USLM9","A3N0QZ9ZKUCTCQ","3566S7OX5D5NH74JOVOPTTMK8IR17K","","null","<img src=""img/flower4.png"" style=""width:200px; border:14px solid green;"">","null","","","","","","","","",""
"","image-keyboard-response","136","64497","0.0-136.0","3A4NIXBJ77LLE1D4CDDZL9OC9USLM9","A3N0QZ9ZKUCTCQ","3566S7OX5D5NH74JOVOPTTMK8IR17K","","232.80000000447035","img/flower6.png","75","234","2","1","3","2","1,0,0,1,1,0,1,0,1","0,1,0,0,1,1,1,1,0","3",""
"","html-keyboard-response","137","64800","0.0-137.0","3A4NIXBJ77LLE1D4CDDZL9OC9USLM9","A3N0QZ9ZKUCTCQ","3566S7OX5D5NH74JOVOPTTMK8IR17K","","null","<img src=""img/flower6.png"" style=""width:200px; border:14px solid green;"">","null","","","","","","","","",""
"","image-keyboard-response","138","64997","0.0-138.0","3A4NIXBJ77LLE1D4CDDZL9OC9USLM9","A3N0QZ9ZKUCTCQ","3566S7OX5D5NH74JOVOPTTMK8IR17K","","196.29999999701977","img/flower4.png","75","197.69999999552965","2","1","1","2","1,0,0,1,1,0,1,0,1","0,1,0,0,1,1,1,1,0","3",""
"","html-keyboard-response","139","65300","0.0-139.0","3A4NIXBJ77LLE1D4CDDZL9OC9USLM9","A3N0QZ9ZKUCTCQ","3566S7OX5D5NH74JOVOPTTMK8IR17K","","null","<img src=""img/flower4.png"" style=""width:200px; border:14px solid green;"">","null","","","","","","","","",""
"","image-keyboard-response","140","65462","0.0-140.0","3A4NIXBJ77LLE1D4CDDZL9OC9USLM9","A3N0QZ9ZKUCTCQ","3566S7OX5D5NH74JOVOPTTMK8IR17K","","161","img/flower3.png","75","162.39999999850988","2","1","2","2","1,0,0,1,1,0,1,0,1","0,1,0,0,1,1,1,1,0","3",""
"","html-keyboard-response","141","65766","0.0-141.0","3A4NIXBJ77LLE1D4CDDZL9OC9USLM9","A3N0QZ9ZKUCTCQ","3566S7OX5D5NH74JOVOPTTMK8IR17K","","null","<img src=""img/flower3.png"" style=""width:200px; border:14px solid green;"">","null","","","","","","","","",""
"","image-keyboard-response","142","65947","0.0-142.0","3A4NIXBJ77LLE1D4CDDZL9OC9USLM9","A3N0QZ9ZKUCTCQ","3566S7OX5D5NH74JOVOPTTMK8IR17K","","179.70000000298023","img/flower6.png","75","181.29999999701977","2","1","3","2","1,0,0,1,1,0,1,0,1","0,1,0,0,1,1,1,1,0","3",""
"","html-keyboard-response","143","66250","0.0-143.0","3A4NIXBJ77LLE1D4CDDZL9OC9USLM9","A3N0QZ9ZKUCTCQ","3566S7OX5D5NH74JOVOPTTMK8IR17K","","null","<img src=""img/flower6.png"" style=""width:200px; border:14px solid green;"">","null","","","","","","","","",""
"","image-keyboard-response","144","66421","0.0-144.0","3A4NIXBJ77LLE1D4CDDZL9OC9USLM9","A3N0QZ9ZKUCTCQ","3566S7OX5D5NH74JOVOPTTMK8IR17K","","169.5","img/flower6.png","75","170.60000000149012","2","1","3","2","1,0,0,1,1,0,1,0,1","0,1,0,0,1,1,1,1,0","3",""
"","html-keyboard-response","145","66722","0.0-145.0","3A4NIXBJ77LLE1D4CDDZL9OC9USLM9","A3N0QZ9ZKUCTCQ","3566S7OX5D5NH74JOVOPTTMK8IR17K","","null","<img src=""img/flower6.png"" style=""width:200px; border:14px solid green;"">","null","","","","","","","","",""
"","image-keyboard-response","146","66885","0.0-146.0","3A4NIXBJ77LLE1D4CDDZL9OC9USLM9","A3N0QZ9ZKUCTCQ","3566S7OX5D5NH74JOVOPTTMK8IR17K","","161.30000000447035","img/flower6.png","75","162.80000000447035","2","1","3","2","1,0,0,1,1,0,1,0,1","0,1,0,0,1,1,1,1,0","3",""
"","html-keyboard-response","147","67188","0.0-147.0","3A4NIXBJ77LLE1D4CDDZL9OC9USLM9","A3N0QZ9ZKUCTCQ","3566S7OX5D5NH74JOVOPTTMK8IR17K","","null","<img src=""img/flower6.png"" style=""width:200px; border:14px solid green;"">","null","","","","","","","","",""
"","image-keyboard-response","148","67265","0.0-148.0","3A4NIXBJ77LLE1D4CDDZL9OC9USLM9","A3N0QZ9ZKUCTCQ","3566S7OX5D5NH74JOVOPTTMK8IR17K","","74.60000000149012","img/flower6.png","75","76.19999999552965","2","1","3","2","1,0,0,1,1,0,1,0,1","0,1,0,0,1,1,1,1,0","3",""
"","html-keyboard-response","149","67566","0.0-149.0","3A4NIXBJ77LLE1D4CDDZL9OC9USLM9","A3N0QZ9ZKUCTCQ","3566S7OX5D5NH74JOVOPTTMK8IR17K","","null","<img src=""img/flower6.png"" style=""width:200px; border:14px solid green;"">","null","","","","","","","","",""
"","image-keyboard-response","150","67663","0.0-150.0","3A4NIXBJ77LLE1D4CDDZL9OC9USLM9","A3N0QZ9ZKUCTCQ","3566S7OX5D5NH74JOVOPTTMK8IR17K","","95.89999999850988","img/flower3.png","75","96.79999999701977","2","1","2","2","1,0,0,1,1,0,1,0,1","0,1,0,0,1,1,1,1,0","3",""
"","html-keyboard-response","151","67965","0.0-151.0","3A4NIXBJ77LLE1D4CDDZL9OC9USLM9","A3N0QZ9ZKUCTCQ","3566S7OX5D5NH74JOVOPTTMK8IR17K","","null","<img src=""img/flower3.png"" style=""width:200px; border:14px solid green;"">","null","","","","","","","","",""
"","image-keyboard-response","152","68303","0.0-152.0","3A4NIXBJ77LLE1D4CDDZL9OC9USLM9","A3N0QZ9ZKUCTCQ","3566S7OX5D5NH74JOVOPTTMK8IR17K","","336.19999999552965","img/flower6.png","75","337.5","2","1","3","2","1,0,0,1,1,0,1,0,1","0,1,0,0,1,1,1,1,0","3",""
"","html-keyboard-response","153","68605","0.0-153.0","3A4NIXBJ77LLE1D4CDDZL9OC9USLM9","A3N0QZ9ZKUCTCQ","3566S7OX5D5NH74JOVOPTTMK8IR17K","","null","<img src=""img/flower6.png"" style=""width:200px; border:14px solid green;"">","null","","","","","","","","",""
"","image-keyboard-response","154","69018","0.0-154.0","3A4NIXBJ77LLE1D4CDDZL9OC9USLM9","A3N0QZ9ZKUCTCQ","3566S7OX5D5NH74JOVOPTTMK8IR17K","","410.8999999985099","img/flower6.png","75","412.40000000596046","2","1","3","2","1,0,0,1,1,0,1,0,1","0,1,0,0,1,1,1,1,0","3",""
"","html-keyboard-response","155","69325","0.0-155.0","3A4NIXBJ77LLE1D4CDDZL9OC9USLM9","A3N0QZ9ZKUCTCQ","3566S7OX5D5NH74JOVOPTTMK8IR17K","","null","<img src=""img/flower6.png"" style=""width:200px; border:14px solid green;"">","null","","","","","","","","",""
"","image-keyboard-response","156","69667","0.0-156.0","3A4NIXBJ77LLE1D4CDDZL9OC9USLM9","A3N0QZ9ZKUCTCQ","3566S7OX5D5NH74JOVOPTTMK8IR17K","","340","img/flower6.png","75","341","2","1","3","2","1,0,0,1,1,0,1,0,1","0,1,0,0,1,1,1,1,0","3",""
"","html-keyboard-response","157","69969","0.0-157.0","3A4NIXBJ77LLE1D4CDDZL9OC9USLM9","A3N0QZ9ZKUCTCQ","3566S7OX5D5NH74JOVOPTTMK8IR17K","","null","<img src=""img/flower6.png"" style=""width:200px; border:14px solid green;"">","null","","","","","","","","",""
"","image-keyboard-response","158","70321","0.0-158.0","3A4NIXBJ77LLE1D4CDDZL9OC9USLM9","A3N0QZ9ZKUCTCQ","3566S7OX5D5NH74JOVOPTTMK8IR17K","","350.5","img/flower3.png","75","351.5","2","1","2","2","1,0,0,1,1,0,1,0,1","0,1,0,0,1,1,1,1,0","3",""
"","html-keyboard-response","159","70625","0.0-159.0","3A4NIXBJ77LLE1D4CDDZL9OC9USLM9","A3N0QZ9ZKUCTCQ","3566S7OX5D5NH74JOVOPTTMK8IR17K","","null","<img src=""img/flower3.png"" style=""width:200px; border:14px solid green;"">","null","","","","","","","","",""
"","image-keyboard-response","160","70869","0.0-160.0","3A4NIXBJ77LLE1D4CDDZL9OC9USLM9","A3N0QZ9ZKUCTCQ","3566S7OX5D5NH74JOVOPTTMK8IR17K","","242.39999999850988","img/flower3.png","75","243.69999999552965","2","1","2","2","1,0,0,1,1,0,1,0,1","0,1,0,0,1,1,1,1,0","3",""
"","html-keyboard-response","161","71171","0.0-161.0","3A4NIXBJ77LLE1D4CDDZL9OC9USLM9","A3N0QZ9ZKUCTCQ","3566S7OX5D5NH74JOVOPTTMK8IR17K","","null","<img src=""img/flower3.png"" style=""width:200px; border:14px solid green;"">","null","","","","","","","","",""
"","image-keyboard-response","162","71364","0.0-162.0","3A4NIXBJ77LLE1D4CDDZL9OC9USLM9","A3N0QZ9ZKUCTCQ","3566S7OX5D5NH74JOVOPTTMK8IR17K","","191.60000000149012","img/flower4.png","75","192.70000000298023","2","1","1","2","1,0,0,1,1,0,1,0,1","0,1,0,0,1,1,1,1,0","3",""
"","html-keyboard-response","163","71665","0.0-163.0","3A4NIXBJ77LLE1D4CDDZL9OC9USLM9","A3N0QZ9ZKUCTCQ","3566S7OX5D5NH74JOVOPTTMK8IR17K","","null","<img src=""img/flower4.png"" style=""width:200px; border:14px solid green;"">","null","","","","","","","","",""
"","image-keyboard-response","164","71849","0.0-164.0","3A4NIXBJ77LLE1D4CDDZL9OC9USLM9","A3N0QZ9ZKUCTCQ","3566S7OX5D5NH74JOVOPTTMK8IR17K","","182.10000000149012","img/flower6.png","75","183.20000000298023","2","1","3","2","1,0,0,1,1,0,1,0,1","0,1,0,0,1,1,1,1,0","3",""
"","html-keyboard-response","165","72150","0.0-165.0","3A4NIXBJ77LLE1D4CDDZL9OC9USLM9","A3N0QZ9ZKUCTCQ","3566S7OX5D5NH74JOVOPTTMK8IR17K","","null","<img src=""img/flower6.png"" style=""width:200px; border:14px solid green;"">","null","","","","","","","","",""
"","image-keyboard-response","166","72423","0.0-166.0","3A4NIXBJ77LLE1D4CDDZL9OC9USLM9","A3N0QZ9ZKUCTCQ","3566S7OX5D5NH74JOVOPTTMK8IR17K","","271.29999999701977","img/flower4.png","75","272.79999999701977","2","1","1","2","1,0,0,1,1,0,1,0,1","0,1,0,0,1,1,1,1,0","3",""
"","html-keyboard-response","167","72726","0.0-167.0","3A4NIXBJ77LLE1D4CDDZL9OC9USLM9","A3N0QZ9ZKUCTCQ","3566S7OX5D5NH74JOVOPTTMK8IR17K","","null","<img src=""img/flower4.png"" style=""width:200px; border:14px solid green;"">","null","","","","","","","","",""
"","image-keyboard-response","168","72923","0.0-168.0","3A4NIXBJ77LLE1D4CDDZL9OC9USLM9","A3N0QZ9ZKUCTCQ","3566S7OX5D5NH74JOVOPTTMK8IR17K","","195.10000000149012","img/flower6.png","75","197","2","1","3","2","1,0,0,1,1,0,1,0,1","0,1,0,0,1,1,1,1,0","3",""
"","html-keyboard-response","169","73226","0.0-169.0","3A4NIXBJ77LLE1D4CDDZL9OC9USLM9","A3N0QZ9ZKUCTCQ","3566S7OX5D5NH74JOVOPTTMK8IR17K","","null","<img src=""img/flower6.png"" style=""width:200px; border:14px solid green;"">","null","","","","","","","","",""
"","image-keyboard-response","170","73497","0.0-170.0","3A4NIXBJ77LLE1D4CDDZL9OC9USLM9","A3N0QZ9ZKUCTCQ","3566S7OX5D5NH74JOVOPTTMK8IR17K","","269.1000000014901","img/flower3.png","75","270.3999999985099","2","1","2","2","1,0,0,1,1,0,1,0,1","0,1,0,0,1,1,1,1,0","3",""
"","html-keyboard-response","171","73799","0.0-171.0","3A4NIXBJ77LLE1D4CDDZL9OC9USLM9","A3N0QZ9ZKUCTCQ","3566S7OX5D5NH74JOVOPTTMK8IR17K","","null","<img src=""img/flower3.png"" style=""width:200px; border:14px solid green;"">","null","","","","","","","","",""
"","image-keyboard-response","172","73901","0.0-172.0","3A4NIXBJ77LLE1D4CDDZL9OC9USLM9","A3N0QZ9ZKUCTCQ","3566S7OX5D5NH74JOVOPTTMK8IR17K","","100.89999999850988","img/flower6.png","75","102.29999999701977","2","1","3","2","1,0,0,1,1,0,1,0,1","0,1,0,0,1,1,1,1,0","3",""
"","html-keyboard-response","173","74203","0.0-173.0","3A4NIXBJ77LLE1D4CDDZL9OC9USLM9","A3N0QZ9ZKUCTCQ","3566S7OX5D5NH74JOVOPTTMK8IR17K","","null","<img src=""img/flower6.png"" style=""width:200px; border:14px solid green;"">","null","","","","","","","","",""
"","image-keyboard-response","174","74456","0.0-174.0","3A4NIXBJ77LLE1D4CDDZL9OC9USLM9","A3N0QZ9ZKUCTCQ","3566S7OX5D5NH74JOVOPTTMK8IR17K","","251.60000000149012","img/flower6.png","75","252.70000000298023","2","1","3","2","1,0,0,1,1,0,1,0,1","0,1,0,0,1,1,1,1,0","3",""
"","html-keyboard-response","175","74759","0.0-175.0","3A4NIXBJ77LLE1D4CDDZL9OC9USLM9","A3N0QZ9ZKUCTCQ","3566S7OX5D5NH74JOVOPTTMK8IR17K","","null","<img src=""img/flower6.png"" style=""width:200px; border:14px solid green;"">","null","","","","","","","","",""
"","image-keyboard-response","176","75064","0.0-176.0","3A4NIXBJ77LLE1D4CDDZL9OC9USLM9","A3N0QZ9ZKUCTCQ","3566S7OX5D5NH74JOVOPTTMK8IR17K","","303.5","img/flower4.png","75","304.69999999552965","2","1","1","2","1,0,0,1,1,0,1,0,1","0,1,0,0,1,1,1,1,0","3",""
"","html-keyboard-response","177","75365","0.0-177.0","3A4NIXBJ77LLE1D4CDDZL9OC9USLM9","A3N0QZ9ZKUCTCQ","3566S7OX5D5NH74JOVOPTTMK8IR17K","","null","<img src=""img/flower4.png"" style=""width:200px; border:14px solid green;"">","null","","","","","","","","",""
"","image-keyboard-response","178","75609","0.0-178.0","3A4NIXBJ77LLE1D4CDDZL9OC9USLM9","A3N0QZ9ZKUCTCQ","3566S7OX5D5NH74JOVOPTTMK8IR17K","","242.10000000149012","img/flower4.png","75","243.5","2","1","1","2","1,0,0,1,1,0,1,0,1","0,1,0,0,1,1,1,1,0","3",""
"","html-keyboard-response","179","75911","0.0-179.0","3A4NIXBJ77LLE1D4CDDZL9OC9USLM9","A3N0QZ9ZKUCTCQ","3566S7OX5D5NH74JOVOPTTMK8IR17K","","null","<img src=""img/flower4.png"" style=""width:200px; border:14px solid green;"">","null","","","","","","","","",""
"","image-keyboard-response","180","76278","0.0-180.0","3A4NIXBJ77LLE1D4CDDZL9OC9USLM9","A3N0QZ9ZKUCTCQ","3566S7OX5D5NH74JOVOPTTMK8IR17K","","364.8999999985099","img/flower3.png","75","366.6000000014901","2","1","2","2","1,0,0,1,1,0,1,0,1","0,1,0,0,1,1,1,1,0","3",""
"","html-keyboard-response","181","76581","0.0-181.0","3A4NIXBJ77LLE1D4CDDZL9OC9USLM9","A3N0QZ9ZKUCTCQ","3566S7OX5D5NH74JOVOPTTMK8IR17K","","null","<img src=""img/flower3.png"" style=""width:200px; border:14px solid green;"">","null","","","","","","","","",""
"","image-keyboard-response","182","76727","0.0-182.0","3A4NIXBJ77LLE1D4CDDZL9OC9USLM9","A3N0QZ9ZKUCTCQ","3566S7OX5D5NH74JOVOPTTMK8IR17K","","144.89999999850988","img/flower2.png","75","146.20000000298023","2","0","1","1","1,0.333,0.333,0.333,1,0.333,0.333,0.333,1","1,0.333,0.333,0.333,1,0.333,0.333,0.333,1","1",""
"","html-keyboard-response","183","77030","0.0-183.0","3A4NIXBJ77LLE1D4CDDZL9OC9USLM9","A3N0QZ9ZKUCTCQ","3566S7OX5D5NH74JOVOPTTMK8IR17K","","null","<img src=""img/flower2.png"" style=""width:200px;border:14px solid red;"">","null","","","","","","","","",""
"","image-keyboard-response","184","78112","0.0-184.0","3A4NIXBJ77LLE1D4CDDZL9OC9USLM9","A3N0QZ9ZKUCTCQ","3566S7OX5D5NH74JOVOPTTMK8IR17K","","1079.7999999970198","img/flower5.png","74","1081.3999999985099","1","0","3","1","1,0.333,0.333,0.333,1,0.333,0.333,0.333,1","1,0.333,0.333,0.333,1,0.333,0.333,0.333,1","1",""
"","html-keyboard-response","185","78415","0.0-185.0","3A4NIXBJ77LLE1D4CDDZL9OC9USLM9","A3N0QZ9ZKUCTCQ","3566S7OX5D5NH74JOVOPTTMK8IR17K","","null","<img src=""img/flower5.png"" style=""width:200px;border:14px solid red;"">","null","","","","","","","","",""
"","image-keyboard-response","186","78854","0.0-186.0","3A4NIXBJ77LLE1D4CDDZL9OC9USLM9","A3N0QZ9ZKUCTCQ","3566S7OX5D5NH74JOVOPTTMK8IR17K","","438.19999999552965","img/flower1.png","76","439.19999999552965","3","1","2","1","1,0.333,0.333,0.333,1,0.333,0.333,0.333,1","1,0.333,0.333,0.333,1,0.333,0.333,0.333,1","1",""
"","html-keyboard-response","187","79156","0.0-187.0","3A4NIXBJ77LLE1D4CDDZL9OC9USLM9","A3N0QZ9ZKUCTCQ","3566S7OX5D5NH74JOVOPTTMK8IR17K","","null","<img src=""img/flower1.png"" style=""width:200px; border:14px solid green;"">","null","","","","","","","","",""
"","image-keyboard-response","188","79614","0.0-188.0","3A4NIXBJ77LLE1D4CDDZL9OC9USLM9","A3N0QZ9ZKUCTCQ","3566S7OX5D5NH74JOVOPTTMK8IR17K","","455.80000000447035","img/flower1.png","76","457.3999999985099","3","0","2","1","1,0.333,0.333,0.333,1,0.333,0.333,0.333,1","1,0.333,0.333,0.333,1,0.333,0.333,0.333,1","1",""
"","html-keyboard-response","189","79916","0.0-189.0","3A4NIXBJ77LLE1D4CDDZL9OC9USLM9","A3N0QZ9ZKUCTCQ","3566S7OX5D5NH74JOVOPTTMK8IR17K","","null","<img src=""img/flower1.png"" style=""width:200px;border:14px solid red;"">","null","","","","","","","","",""
"","image-keyboard-response","190","80526","0.0-190.0","3A4NIXBJ77LLE1D4CDDZL9OC9USLM9","A3N0QZ9ZKUCTCQ","3566S7OX5D5NH74JOVOPTTMK8IR17K","","608.2000000029802","img/flower2.png","75","609.6000000014901","2","1","1","1","1,0.333,0.333,0.333,1,0.333,0.333,0.333,1","1,0.333,0.333,0.333,1,0.333,0.333,0.333,1","1",""
"","html-keyboard-response","191","80828","0.0-191.0","3A4NIXBJ77LLE1D4CDDZL9OC9USLM9","A3N0QZ9ZKUCTCQ","3566S7OX5D5NH74JOVOPTTMK8IR17K","","null","<img src=""img/flower2.png"" style=""width:200px; border:14px solid green;"">","null","","","","","","","","",""
"","image-keyboard-response","192","81536","0.0-192.0","3A4NIXBJ77LLE1D4CDDZL9OC9USLM9","A3N0QZ9ZKUCTCQ","3566S7OX5D5NH74JOVOPTTMK8IR17K","","707.1999999955297","img/flower1.png","74","708.2999999970198","1","0","2","1","1,0.333,0.333,0.333,1,0.333,0.333,0.333,1","1,0.333,0.333,0.333,1,0.333,0.333,0.333,1","1",""
"","html-keyboard-response","193","81838","0.0-193.0","3A4NIXBJ77LLE1D4CDDZL9OC9USLM9","A3N0QZ9ZKUCTCQ","3566S7OX5D5NH74JOVOPTTMK8IR17K","","null","<img src=""img/flower1.png"" style=""width:200px;border:14px solid red;"">","null","","","","","","","","",""
"","image-keyboard-response","194","82385","0.0-194.0","3A4NIXBJ77LLE1D4CDDZL9OC9USLM9","A3N0QZ9ZKUCTCQ","3566S7OX5D5NH74JOVOPTTMK8IR17K","","544.6999999955297","img/flower2.png","75","546.1999999955297","2","0","1","1","1,0.333,0.333,0.333,1,0.333,0.333,0.333,1","1,0.333,0.333,0.333,1,0.333,0.333,0.333,1","1",""
"","html-keyboard-response","195","82687","0.0-195.0","3A4NIXBJ77LLE1D4CDDZL9OC9USLM9","A3N0QZ9ZKUCTCQ","3566S7OX5D5NH74JOVOPTTMK8IR17K","","null","<img src=""img/flower2.png"" style=""width:200px;border:14px solid red;"">","null","","","","","","","","",""
"","image-keyboard-response","196","83439","0.0-196.0","3A4NIXBJ77LLE1D4CDDZL9OC9USLM9","A3N0QZ9ZKUCTCQ","3566S7OX5D5NH74JOVOPTTMK8IR17K","","750","img/flower1.png","76","751.5","3","1","2","1","1,0.333,0.333,0.333,1,0.333,0.333,0.333,1","1,0.333,0.333,0.333,1,0.333,0.333,0.333,1","1",""
"","html-keyboard-response","197","83741","0.0-197.0","3A4NIXBJ77LLE1D4CDDZL9OC9USLM9","A3N0QZ9ZKUCTCQ","3566S7OX5D5NH74JOVOPTTMK8IR17K","","null","<img src=""img/flower1.png"" style=""width:200px; border:14px solid green;"">","null","","","","","","","","",""
"","image-keyboard-response","198","84138","0.0-198.0","3A4NIXBJ77LLE1D4CDDZL9OC9USLM9","A3N0QZ9ZKUCTCQ","3566S7OX5D5NH74JOVOPTTMK8IR17K","","395.5","img/flower1.png","76","396.59999999403954","3","0","2","1","1,0.333,0.333,0.333,1,0.333,0.333,0.333,1","1,0.333,0.333,0.333,1,0.333,0.333,0.333,1","1",""
"","html-keyboard-response","199","84440","0.0-199.0","3A4NIXBJ77LLE1D4CDDZL9OC9USLM9","A3N0QZ9ZKUCTCQ","3566S7OX5D5NH74JOVOPTTMK8IR17K","","null","<img src=""img/flower1.png"" style=""width:200px;border:14px solid red;"">","null","","","","","","","","",""
"","image-keyboard-response","200","85215","0.0-200.0","3A4NIXBJ77LLE1D4CDDZL9OC9USLM9","A3N0QZ9ZKUCTCQ","3566S7OX5D5NH74JOVOPTTMK8IR17K","","774","img/flower1.png","75","775.7000000029802","2","1","2","1","1,0.333,0.333,0.333,1,0.333,0.333,0.333,1","1,0.333,0.333,0.333,1,0.333,0.333,0.333,1","1",""
"","html-keyboard-response","201","85518","0.0-201.0","3A4NIXBJ77LLE1D4CDDZL9OC9USLM9","A3N0QZ9ZKUCTCQ","3566S7OX5D5NH74JOVOPTTMK8IR17K","","null","<img src=""img/flower1.png"" style=""width:200px; border:14px solid green;"">","null","","","","","","","","",""
"","image-keyboard-response","202","86504","0.0-202.0","3A4NIXBJ77LLE1D4CDDZL9OC9USLM9","A3N0QZ9ZKUCTCQ","3566S7OX5D5NH74JOVOPTTMK8IR17K","","984.1000000014901","img/flower5.png","74","985.3999999985099","1","0","3","1","1,0.333,0.333,0.333,1,0.333,0.333,0.333,1","1,0.333,0.333,0.333,1,0.333,0.333,0.333,1","1",""
"","html-keyboard-response","203","86806","0.0-203.0","3A4NIXBJ77LLE1D4CDDZL9OC9USLM9","A3N0QZ9ZKUCTCQ","3566S7OX5D5NH74JOVOPTTMK8IR17K","","null","<img src=""img/flower5.png"" style=""width:200px;border:14px solid red;"">","null","","","","","","","","",""
"","image-keyboard-response","204","87618","0.0-204.0","3A4NIXBJ77LLE1D4CDDZL9OC9USLM9","A3N0QZ9ZKUCTCQ","3566S7OX5D5NH74JOVOPTTMK8IR17K","","810.6000000014901","img/flower1.png","75","811.7999999970198","2","1","2","1","1,0.333,0.333,0.333,1,0.333,0.333,0.333,1","1,0.333,0.333,0.333,1,0.333,0.333,0.333,1","1",""
"","html-keyboard-response","205","87920","0.0-205.0","3A4NIXBJ77LLE1D4CDDZL9OC9USLM9","A3N0QZ9ZKUCTCQ","3566S7OX5D5NH74JOVOPTTMK8IR17K","","null","<img src=""img/flower1.png"" style=""width:200px; border:14px solid green;"">","null","","","","","","","","",""
"","image-keyboard-response","206","88311","0.0-206.0","3A4NIXBJ77LLE1D4CDDZL9OC9USLM9","A3N0QZ9ZKUCTCQ","3566S7OX5D5NH74JOVOPTTMK8IR17K","","389.3999999985099","img/flower1.png","75","390.8999999985099","2","1","2","1","1,0.333,0.333,0.333,1,0.333,0.333,0.333,1","1,0.333,0.333,0.333,1,0.333,0.333,0.333,1","1",""
"","html-keyboard-response","207","88614","0.0-207.0","3A4NIXBJ77LLE1D4CDDZL9OC9USLM9","A3N0QZ9ZKUCTCQ","3566S7OX5D5NH74JOVOPTTMK8IR17K","","null","<img src=""img/flower1.png"" style=""width:200px; border:14px solid green;"">","null","","","","","","","","",""
"","image-keyboard-response","208","88966","0.0-208.0","3A4NIXBJ77LLE1D4CDDZL9OC9USLM9","A3N0QZ9ZKUCTCQ","3566S7OX5D5NH74JOVOPTTMK8IR17K","","349.70000000298023","img/flower1.png","75","351.29999999701977","2","1","2","1","1,0.333,0.333,0.333,1,0.333,0.333,0.333,1","1,0.333,0.333,0.333,1,0.333,0.333,0.333,1","1",""
"","html-keyboard-response","209","89267","0.0-209.0","3A4NIXBJ77LLE1D4CDDZL9OC9USLM9","A3N0QZ9ZKUCTCQ","3566S7OX5D5NH74JOVOPTTMK8IR17K","","null","<img src=""img/flower1.png"" style=""width:200px; border:14px solid green;"">","null","","","","","","","","",""
"","image-keyboard-response","210","90038","0.0-210.0","3A4NIXBJ77LLE1D4CDDZL9OC9USLM9","A3N0QZ9ZKUCTCQ","3566S7OX5D5NH74JOVOPTTMK8IR17K","","769.1000000014901","img/flower5.png","76","770.1999999955297","3","1","3","1","1,0.333,0.333,0.333,1,0.333,0.333,0.333,1","1,0.333,0.333,0.333,1,0.333,0.333,0.333,1","1",""
"","html-keyboard-response","211","90339","0.0-211.0","3A4NIXBJ77LLE1D4CDDZL9OC9USLM9","A3N0QZ9ZKUCTCQ","3566S7OX5D5NH74JOVOPTTMK8IR17K","","null","<img src=""img/flower5.png"" style=""width:200px; border:14px solid green;"">","null","","","","","","","","",""
"","image-keyboard-response","212","90858","0.0-212.0","3A4NIXBJ77LLE1D4CDDZL9OC9USLM9","A3N0QZ9ZKUCTCQ","3566S7OX5D5NH74JOVOPTTMK8IR17K","","517.5","img/flower1.png","75","518.8000000044703","2","1","2","1","1,0.333,0.333,0.333,1,0.333,0.333,0.333,1","1,0.333,0.333,0.333,1,0.333,0.333,0.333,1","1",""
"","html-keyboard-response","213","91160","0.0-213.0","3A4NIXBJ77LLE1D4CDDZL9OC9USLM9","A3N0QZ9ZKUCTCQ","3566S7OX5D5NH74JOVOPTTMK8IR17K","","null","<img src=""img/flower1.png"" style=""width:200px; border:14px solid green;"">","null","","","","","","","","",""
"","image-keyboard-response","214","91727","0.0-214.0","3A4NIXBJ77LLE1D4CDDZL9OC9USLM9","A3N0QZ9ZKUCTCQ","3566S7OX5D5NH74JOVOPTTMK8IR17K","","564.7000000029802","img/flower5.png","76","566.2000000029802","3","1","3","1","1,0.333,0.333,0.333,1,0.333,0.333,0.333,1","1,0.333,0.333,0.333,1,0.333,0.333,0.333,1","1",""
"","html-keyboard-response","215","92029","0.0-215.0","3A4NIXBJ77LLE1D4CDDZL9OC9USLM9","A3N0QZ9ZKUCTCQ","3566S7OX5D5NH74JOVOPTTMK8IR17K","","null","<img src=""img/flower5.png"" style=""width:200px; border:14px solid green;"">","null","","","","","","","","",""
"","image-keyboard-response","216","93040","0.0-216.0","3A4NIXBJ77LLE1D4CDDZL9OC9USLM9","A3N0QZ9ZKUCTCQ","3566S7OX5D5NH74JOVOPTTMK8IR17K","","1009.3000000044703","img/flower2.png","74","1010.7000000029802","1","1","1","1","1,0.333,0.333,0.333,1,0.333,0.333,0.333,1","1,0.333,0.333,0.333,1,0.333,0.333,0.333,1","1",""
"","html-keyboard-response","217","93342","0.0-217.0","3A4NIXBJ77LLE1D4CDDZL9OC9USLM9","A3N0QZ9ZKUCTCQ","3566S7OX5D5NH74JOVOPTTMK8IR17K","","null","<img src=""img/flower2.png"" style=""width:200px; border:14px solid green;"">","null","","","","","","","","",""
"","image-keyboard-response","218","93845","0.0-218.0","3A4NIXBJ77LLE1D4CDDZL9OC9USLM9","A3N0QZ9ZKUCTCQ","3566S7OX5D5NH74JOVOPTTMK8IR17K","","501.59999999403954","img/flower2.png","74","502.59999999403954","1","1","1","1","1,0.333,0.333,0.333,1,0.333,0.333,0.333,1","1,0.333,0.333,0.333,1,0.333,0.333,0.333,1","1",""
"","html-keyboard-response","219","94148","0.0-219.0","3A4NIXBJ77LLE1D4CDDZL9OC9USLM9","A3N0QZ9ZKUCTCQ","3566S7OX5D5NH74JOVOPTTMK8IR17K","","null","<img src=""img/flower2.png"" style=""width:200px; border:14px solid green;"">","null","","","","","","","","",""
"","image-keyboard-response","220","95098","0.0-220.0","3A4NIXBJ77LLE1D4CDDZL9OC9USLM9","A3N0QZ9ZKUCTCQ","3566S7OX5D5NH74JOVOPTTMK8IR17K","","948.2999999970198","img/flower1.png","75","949.6999999955297","2","1","2","1","1,0.333,0.333,0.333,1,0.333,0.333,0.333,1","1,0.333,0.333,0.333,1,0.333,0.333,0.333,1","1",""
"","html-keyboard-response","221","95400","0.0-221.0","3A4NIXBJ77LLE1D4CDDZL9OC9USLM9","A3N0QZ9ZKUCTCQ","3566S7OX5D5NH74JOVOPTTMK8IR17K","","null","<img src=""img/flower1.png"" style=""width:200px; border:14px solid green;"">","null","","","","","","","","",""
"","image-keyboard-response","222","95810","0.0-222.0","3A4NIXBJ77LLE1D4CDDZL9OC9USLM9","A3N0QZ9ZKUCTCQ","3566S7OX5D5NH74JOVOPTTMK8IR17K","","409.19999999552965","img/flower1.png","75","410.6000000014901","2","1","2","1","1,0.333,0.333,0.333,1,0.333,0.333,0.333,1","1,0.333,0.333,0.333,1,0.333,0.333,0.333,1","1",""
"","html-keyboard-response","223","96112","0.0-223.0","3A4NIXBJ77LLE1D4CDDZL9OC9USLM9","A3N0QZ9ZKUCTCQ","3566S7OX5D5NH74JOVOPTTMK8IR17K","","null","<img src=""img/flower1.png"" style=""width:200px; border:14px solid green;"">","null","","","","","","","","",""
"","image-keyboard-response","224","96725","0.0-224.0","3A4NIXBJ77LLE1D4CDDZL9OC9USLM9","A3N0QZ9ZKUCTCQ","3566S7OX5D5NH74JOVOPTTMK8IR17K","","611","img/flower2.png","74","612.6000000014901","1","1","1","1","1,0.333,0.333,0.333,1,0.333,0.333,0.333,1","1,0.333,0.333,0.333,1,0.333,0.333,0.333,1","1",""
"","html-keyboard-response","225","97038","0.0-225.0","3A4NIXBJ77LLE1D4CDDZL9OC9USLM9","A3N0QZ9ZKUCTCQ","3566S7OX5D5NH74JOVOPTTMK8IR17K","","null","<img src=""img/flower2.png"" style=""width:200px; border:14px solid green;"">","null","","","","","","","","",""
"","image-keyboard-response","226","97779","0.0-226.0","3A4NIXBJ77LLE1D4CDDZL9OC9USLM9","A3N0QZ9ZKUCTCQ","3566S7OX5D5NH74JOVOPTTMK8IR17K","","738.8000000044703","img/flower5.png","76","740.3000000044703","3","1","3","1","1,0.333,0.333,0.333,1,0.333,0.333,0.333,1","1,0.333,0.333,0.333,1,0.333,0.333,0.333,1","1",""
"","html-keyboard-response","227","98082","0.0-227.0","3A4NIXBJ77LLE1D4CDDZL9OC9USLM9","A3N0QZ9ZKUCTCQ","3566S7OX5D5NH74JOVOPTTMK8IR17K","","null","<img src=""img/flower5.png"" style=""width:200px; border:14px solid green;"">","null","","","","","","","","",""
"","image-keyboard-response","228","98883","0.0-228.0","3A4NIXBJ77LLE1D4CDDZL9OC9USLM9","A3N0QZ9ZKUCTCQ","3566S7OX5D5NH74JOVOPTTMK8IR17K","","799.3999999985099","img/flower2.png","74","800.9000000059605","1","1","1","1","1,0.333,0.333,0.333,1,0.333,0.333,0.333,1","1,0.333,0.333,0.333,1,0.333,0.333,0.333,1","1",""
"","html-keyboard-response","229","99185","0.0-229.0","3A4NIXBJ77LLE1D4CDDZL9OC9USLM9","A3N0QZ9ZKUCTCQ","3566S7OX5D5NH74JOVOPTTMK8IR17K","","null","<img src=""img/flower2.png"" style=""width:200px; border:14px solid green;"">","null","","","","","","","","",""
"","image-keyboard-response","230","99775","0.0-230.0","3A4NIXBJ77LLE1D4CDDZL9OC9USLM9","A3N0QZ9ZKUCTCQ","3566S7OX5D5NH74JOVOPTTMK8IR17K","","588.3999999985099","img/flower1.png","75","589.6000000014901","2","1","2","1","1,0.333,0.333,0.333,1,0.333,0.333,0.333,1","1,0.333,0.333,0.333,1,0.333,0.333,0.333,1","1",""
"","html-keyboard-response","231","100076","0.0-231.0","3A4NIXBJ77LLE1D4CDDZL9OC9USLM9","A3N0QZ9ZKUCTCQ","3566S7OX5D5NH74JOVOPTTMK8IR17K","","null","<img src=""img/flower1.png"" style=""width:200px; border:14px solid green;"">","null","","","","","","","","",""
"","image-keyboard-response","232","100760","0.0-232.0","3A4NIXBJ77LLE1D4CDDZL9OC9USLM9","A3N0QZ9ZKUCTCQ","3566S7OX5D5NH74JOVOPTTMK8IR17K","","683","img/flower2.png","74","683.8999999985099","1","1","1","1","1,0.333,0.333,0.333,1,0.333,0.333,0.333,1","1,0.333,0.333,0.333,1,0.333,0.333,0.333,1","1",""
"","html-keyboard-response","233","101062","0.0-233.0","3A4NIXBJ77LLE1D4CDDZL9OC9USLM9","A3N0QZ9ZKUCTCQ","3566S7OX5D5NH74JOVOPTTMK8IR17K","","null","<img src=""img/flower2.png"" style=""width:200px; border:14px solid green;"">","null","","","","","","","","",""
"","image-keyboard-response","234","101504","0.0-234.0","3A4NIXBJ77LLE1D4CDDZL9OC9USLM9","A3N0QZ9ZKUCTCQ","3566S7OX5D5NH74JOVOPTTMK8IR17K","","440.80000000447035","img/flower2.png","74","442.40000000596046","1","1","1","1","1,0.333,0.333,0.333,1,0.333,0.333,0.333,1","1,0.333,0.333,0.333,1,0.333,0.333,0.333,1","1",""
"","html-keyboard-response","235","101807","0.0-235.0","3A4NIXBJ77LLE1D4CDDZL9OC9USLM9","A3N0QZ9ZKUCTCQ","3566S7OX5D5NH74JOVOPTTMK8IR17K","","null","<img src=""img/flower2.png"" style=""width:200px; border:14px solid green;"">","null","","","","","","","","",""
"","image-keyboard-response","236","102712","0.0-236.0","3A4NIXBJ77LLE1D4CDDZL9OC9USLM9","A3N0QZ9ZKUCTCQ","3566S7OX5D5NH74JOVOPTTMK8IR17K","","903","img/flower1.png","75","904.3999999985099","2","1","2","1","1,0.333,0.333,0.333,1,0.333,0.333,0.333,1","1,0.333,0.333,0.333,1,0.333,0.333,0.333,1","1",""
"","html-keyboard-response","237","103015","0.0-237.0","3A4NIXBJ77LLE1D4CDDZL9OC9USLM9","A3N0QZ9ZKUCTCQ","3566S7OX5D5NH74JOVOPTTMK8IR17K","","null","<img src=""img/flower1.png"" style=""width:200px; border:14px solid green;"">","null","","","","","","","","",""
"","image-keyboard-response","238","103696","0.0-238.0","3A4NIXBJ77LLE1D4CDDZL9OC9USLM9","A3N0QZ9ZKUCTCQ","3566S7OX5D5NH74JOVOPTTMK8IR17K","","680.1999999955297","img/flower5.png","76","681.5","3","1","3","1","1,0.333,0.333,0.333,1,0.333,0.333,0.333,1","1,0.333,0.333,0.333,1,0.333,0.333,0.333,1","1",""
"","html-keyboard-response","239","104003","0.0-239.0","3A4NIXBJ77LLE1D4CDDZL9OC9USLM9","A3N0QZ9ZKUCTCQ","3566S7OX5D5NH74JOVOPTTMK8IR17K","","null","<img src=""img/flower5.png"" style=""width:200px; border:14px solid green;"">","null","","","","","","","","",""
"","image-keyboard-response","240","104445","0.0-240.0","3A4NIXBJ77LLE1D4CDDZL9OC9USLM9","A3N0QZ9ZKUCTCQ","3566S7OX5D5NH74JOVOPTTMK8IR17K","","440.5","img/flower5.png","76","442","3","1","3","1","1,0.333,0.333,0.333,1,0.333,0.333,0.333,1","1,0.333,0.333,0.333,1,0.333,0.333,0.333,1","1",""
"","html-keyboard-response","241","104748","0.0-241.0","3A4NIXBJ77LLE1D4CDDZL9OC9USLM9","A3N0QZ9ZKUCTCQ","3566S7OX5D5NH74JOVOPTTMK8IR17K","","null","<img src=""img/flower5.png"" style=""width:200px; border:14px solid green;"">","null","","","","","","","","",""
"","image-keyboard-response","242","105503","0.0-242.0","3A4NIXBJ77LLE1D4CDDZL9OC9USLM9","A3N0QZ9ZKUCTCQ","3566S7OX5D5NH74JOVOPTTMK8IR17K","","754","img/flower2.png","74","755.5999999940395","1","1","1","1","1,0.333,0.333,0.333,1,0.333,0.333,0.333,1","1,0.333,0.333,0.333,1,0.333,0.333,0.333,1","1",""
"","html-keyboard-response","243","105806","0.0-243.0","3A4NIXBJ77LLE1D4CDDZL9OC9USLM9","A3N0QZ9ZKUCTCQ","3566S7OX5D5NH74JOVOPTTMK8IR17K","","null","<img src=""img/flower2.png"" style=""width:200px; border:14px solid green;"">","null","","","","","","","","",""
"","image-keyboard-response","244","106885","0.0-244.0","3A4NIXBJ77LLE1D4CDDZL9OC9USLM9","A3N0QZ9ZKUCTCQ","3566S7OX5D5NH74JOVOPTTMK8IR17K","","1077.3000000044703","img/flower5.png","76","1078.5","3","1","3","1","1,0.333,0.333,0.333,1,0.333,0.333,0.333,1","1,0.333,0.333,0.333,1,0.333,0.333,0.333,1","1",""
"","html-keyboard-response","245","107187","0.0-245.0","3A4NIXBJ77LLE1D4CDDZL9OC9USLM9","A3N0QZ9ZKUCTCQ","3566S7OX5D5NH74JOVOPTTMK8IR17K","","null","<img src=""img/flower5.png"" style=""width:200px; border:14px solid green;"">","null","","","","","","","","",""
"","image-keyboard-response","246","107958","0.0-246.0","3A4NIXBJ77LLE1D4CDDZL9OC9USLM9","A3N0QZ9ZKUCTCQ","3566S7OX5D5NH74JOVOPTTMK8IR17K","","769.2000000029802","img/flower1.png","75","770.3999999985099","2","1","2","1","1,0.333,0.333,0.333,1,0.333,0.333,0.333,1","1,0.333,0.333,0.333,1,0.333,0.333,0.333,1","1",""
"","html-keyboard-response","247","108260","0.0-247.0","3A4NIXBJ77LLE1D4CDDZL9OC9USLM9","A3N0QZ9ZKUCTCQ","3566S7OX5D5NH74JOVOPTTMK8IR17K","","null","<img src=""img/flower1.png"" style=""width:200px; border:14px solid green;"">","null","","","","","","","","",""
"","image-keyboard-response","248","108918","0.0-248.0","3A4NIXBJ77LLE1D4CDDZL9OC9USLM9","A3N0QZ9ZKUCTCQ","3566S7OX5D5NH74JOVOPTTMK8IR17K","","657.1999999955297","img/flower2.png","74","658","1","1","1","1","1,0.333,0.333,0.333,1,0.333,0.333,0.333,1","1,0.333,0.333,0.333,1,0.333,0.333,0.333,1","1",""
"","html-keyboard-response","249","109220","0.0-249.0","3A4NIXBJ77LLE1D4CDDZL9OC9USLM9","A3N0QZ9ZKUCTCQ","3566S7OX5D5NH74JOVOPTTMK8IR17K","","null","<img src=""img/flower2.png"" style=""width:200px; border:14px solid green;"">","null","","","","","","","","",""
"","image-keyboard-response","250","109667","0.0-250.0","3A4NIXBJ77LLE1D4CDDZL9OC9USLM9","A3N0QZ9ZKUCTCQ","3566S7OX5D5NH74JOVOPTTMK8IR17K","","445.79999999701977","img/flower2.png","74","446.79999999701977","1","1","1","1","1,0.333,0.333,0.333,1,0.333,0.333,0.333,1","1,0.333,0.333,0.333,1,0.333,0.333,0.333,1","1",""
"","html-keyboard-response","251","109970","0.0-251.0","3A4NIXBJ77LLE1D4CDDZL9OC9USLM9","A3N0QZ9ZKUCTCQ","3566S7OX5D5NH74JOVOPTTMK8IR17K","","null","<img src=""img/flower2.png"" style=""width:200px; border:14px solid green;"">","null","","","","","","","","",""
"","image-keyboard-response","252","110806","0.0-252.0","3A4NIXBJ77LLE1D4CDDZL9OC9USLM9","A3N0QZ9ZKUCTCQ","3566S7OX5D5NH74JOVOPTTMK8IR17K","","833.6000000014901","img/flower5.png","76","835.2999999970198","3","1","3","1","1,0.333,0.333,0.333,1,0.333,0.333,0.333,1","1,0.333,0.333,0.333,1,0.333,0.333,0.333,1","1",""
"","html-keyboard-response","253","111108","0.0-253.0","3A4NIXBJ77LLE1D4CDDZL9OC9USLM9","A3N0QZ9ZKUCTCQ","3566S7OX5D5NH74JOVOPTTMK8IR17K","","null","<img src=""img/flower5.png"" style=""width:200px; border:14px solid green;"">","null","","","","","","","","",""
"","image-keyboard-response","254","112049","0.0-254.0","3A4NIXBJ77LLE1D4CDDZL9OC9USLM9","A3N0QZ9ZKUCTCQ","3566S7OX5D5NH74JOVOPTTMK8IR17K","","939.3000000044703","img/flower1.png","75","940.7000000029802","2","1","2","1","1,0.333,0.333,0.333,1,0.333,0.333,0.333,1","1,0.333,0.333,0.333,1,0.333,0.333,0.333,1","1",""
"","html-keyboard-response","255","112352","0.0-255.0","3A4NIXBJ77LLE1D4CDDZL9OC9USLM9","A3N0QZ9ZKUCTCQ","3566S7OX5D5NH74JOVOPTTMK8IR17K","","null","<img src=""img/flower1.png"" style=""width:200px; border:14px solid green;"">","null","","","","","","","","",""
"","image-keyboard-response","256","113223","0.0-256.0","3A4NIXBJ77LLE1D4CDDZL9OC9USLM9","A3N0QZ9ZKUCTCQ","3566S7OX5D5NH74JOVOPTTMK8IR17K","","870.6000000014901","img/flower2.png","74","871.5","1","1","1","1","1,0.333,0.333,0.333,1,0.333,0.333,0.333,1","1,0.333,0.333,0.333,1,0.333,0.333,0.333,1","1",""
"","html-keyboard-response","257","113525","0.0-257.0","3A4NIXBJ77LLE1D4CDDZL9OC9USLM9","A3N0QZ9ZKUCTCQ","3566S7OX5D5NH74JOVOPTTMK8IR17K","","null","<img src=""img/flower2.png"" style=""width:200px; border:14px solid green;"">","null","","","","","","","","",""
"","image-keyboard-response","258","114221","0.0-258.0","3A4NIXBJ77LLE1D4CDDZL9OC9USLM9","A3N0QZ9ZKUCTCQ","3566S7OX5D5NH74JOVOPTTMK8IR17K","","693.5","img/flower1.png","75","695.1000000014901","2","1","2","1","1,0.333,0.333,0.333,1,0.333,0.333,0.333,1","1,0.333,0.333,0.333,1,0.333,0.333,0.333,1","1",""
"","html-keyboard-response","259","114524","0.0-259.0","3A4NIXBJ77LLE1D4CDDZL9OC9USLM9","A3N0QZ9ZKUCTCQ","3566S7OX5D5NH74JOVOPTTMK8IR17K","","null","<img src=""img/flower1.png"" style=""width:200px; border:14px solid green;"">","null","","","","","","","","",""
"","image-keyboard-response","260","115250","0.0-260.0","3A4NIXBJ77LLE1D4CDDZL9OC9USLM9","A3N0QZ9ZKUCTCQ","3566S7OX5D5NH74JOVOPTTMK8IR17K","","724.3000000044703","img/flower5.png","76","725.8000000044703","3","1","3","1","1,0.333,0.333,0.333,1,0.333,0.333,0.333,1","1,0.333,0.333,0.333,1,0.333,0.333,0.333,1","1",""
"","html-keyboard-response","261","115553","0.0-261.0","3A4NIXBJ77LLE1D4CDDZL9OC9USLM9","A3N0QZ9ZKUCTCQ","3566S7OX5D5NH74JOVOPTTMK8IR17K","","null","<img src=""img/flower5.png"" style=""width:200px; border:14px solid green;"">","null","","","","","","","","",""
"","image-keyboard-response","262","116402","0.0-262.0","3A4NIXBJ77LLE1D4CDDZL9OC9USLM9","A3N0QZ9ZKUCTCQ","3566S7OX5D5NH74JOVOPTTMK8IR17K","","848.0999999940395","img/flower1.png","75","849.6000000014901","2","1","2","1","1,0.333,0.333,0.333,1,0.333,0.333,0.333,1","1,0.333,0.333,0.333,1,0.333,0.333,0.333,1","1",""
"","html-keyboard-response","263","116705","0.0-263.0","3A4NIXBJ77LLE1D4CDDZL9OC9USLM9","A3N0QZ9ZKUCTCQ","3566S7OX5D5NH74JOVOPTTMK8IR17K","","null","<img src=""img/flower1.png"" style=""width:200px; border:14px solid green;"">","null","","","","","","","","",""
"","image-keyboard-response","264","117407","0.0-264.0","3A4NIXBJ77LLE1D4CDDZL9OC9USLM9","A3N0QZ9ZKUCTCQ","3566S7OX5D5NH74JOVOPTTMK8IR17K","","700","img/flower5.png","76","701.5","3","1","3","1","1,0.333,0.333,0.333,1,0.333,0.333,0.333,1","1,0.333,0.333,0.333,1,0.333,0.333,0.333,1","1",""
"","html-keyboard-response","265","117709","0.0-265.0","3A4NIXBJ77LLE1D4CDDZL9OC9USLM9","A3N0QZ9ZKUCTCQ","3566S7OX5D5NH74JOVOPTTMK8IR17K","","null","<img src=""img/flower5.png"" style=""width:200px; border:14px solid green;"">","null","","","","","","","","",""
"","image-keyboard-response","266","118425","0.0-266.0","3A4NIXBJ77LLE1D4CDDZL9OC9USLM9","A3N0QZ9ZKUCTCQ","3566S7OX5D5NH74JOVOPTTMK8IR17K","","714.8999999985099","img/flower2.png","74","716.3999999985099","1","1","1","1","1,0.333,0.333,0.333,1,0.333,0.333,0.333,1","1,0.333,0.333,0.333,1,0.333,0.333,0.333,1","1",""
"","html-keyboard-response","267","118728","0.0-267.0","3A4NIXBJ77LLE1D4CDDZL9OC9USLM9","A3N0QZ9ZKUCTCQ","3566S7OX5D5NH74JOVOPTTMK8IR17K","","null","<img src=""img/flower2.png"" style=""width:200px; border:14px solid green;"">","null","","","","","","","","",""
"","image-keyboard-response","268","119209","0.0-268.0","3A4NIXBJ77LLE1D4CDDZL9OC9USLM9","A3N0QZ9ZKUCTCQ","3566S7OX5D5NH74JOVOPTTMK8IR17K","","480.5","img/flower2.png","74","481.6000000014901","1","1","1","1","1,0.333,0.333,0.333,1,0.333,0.333,0.333,1","1,0.333,0.333,0.333,1,0.333,0.333,0.333,1","1",""
"","html-keyboard-response","269","119513","0.0-269.0","3A4NIXBJ77LLE1D4CDDZL9OC9USLM9","A3N0QZ9ZKUCTCQ","3566S7OX5D5NH74JOVOPTTMK8IR17K","","null","<img src=""img/flower2.png"" style=""width:200px; border:14px solid green;"">","null","","","","","","","","",""
"","image-keyboard-response","270","120143","0.0-270.0","3A4NIXBJ77LLE1D4CDDZL9OC9USLM9","A3N0QZ9ZKUCTCQ","3566S7OX5D5NH74JOVOPTTMK8IR17K","","629","img/flower1.png","75","630","2","1","2","1","1,0.333,0.333,0.333,1,0.333,0.333,0.333,1","1,0.333,0.333,0.333,1,0.333,0.333,0.333,1","1",""
"","html-keyboard-response","271","120445","0.0-271.0","3A4NIXBJ77LLE1D4CDDZL9OC9USLM9","A3N0QZ9ZKUCTCQ","3566S7OX5D5NH74JOVOPTTMK8IR17K","","null","<img src=""img/flower1.png"" style=""width:200px; border:14px solid green;"">","null","","","","","","","","",""
"","image-keyboard-response","272","121162","0.0-272.0","3A4NIXBJ77LLE1D4CDDZL9OC9USLM9","A3N0QZ9ZKUCTCQ","3566S7OX5D5NH74JOVOPTTMK8IR17K","","715.1000000014901","img/flower5.png","76","716.6999999955297","3","1","3","1","1,0.333,0.333,0.333,1,0.333,0.333,0.333,1","1,0.333,0.333,0.333,1,0.333,0.333,0.333,1","1",""
"","html-keyboard-response","273","121471","0.0-273.0","3A4NIXBJ77LLE1D4CDDZL9OC9USLM9","A3N0QZ9ZKUCTCQ","3566S7OX5D5NH74JOVOPTTMK8IR17K","","null","<img src=""img/flower5.png"" style=""width:200px; border:14px solid green;"">","null","","","","","","","","",""
"","image-keyboard-response","274","121914","0.0-274.0","3A4NIXBJ77LLE1D4CDDZL9OC9USLM9","A3N0QZ9ZKUCTCQ","3566S7OX5D5NH74JOVOPTTMK8IR17K","","441.30000000447035","img/flower5.png","76","442.70000000298023","3","1","3","1","1,0.333,0.333,0.333,1,0.333,0.333,0.333,1","1,0.333,0.333,0.333,1,0.333,0.333,0.333,1","1",""
"","html-keyboard-response","275","122217","0.0-275.0","3A4NIXBJ77LLE1D4CDDZL9OC9USLM9","A3N0QZ9ZKUCTCQ","3566S7OX5D5NH74JOVOPTTMK8IR17K","","null","<img src=""img/flower5.png"" style=""width:200px; border:14px solid green;"">","null","","","","","","","","",""
"","image-keyboard-response","276","122984","0.0-276.0","3A4NIXBJ77LLE1D4CDDZL9OC9USLM9","A3N0QZ9ZKUCTCQ","3566S7OX5D5NH74JOVOPTTMK8IR17K","","765.2000000029802","img/flower2.png","74","766.7999999970198","1","1","1","1","1,0.333,0.333,0.333,1,0.333,0.333,0.333,1","1,0.333,0.333,0.333,1,0.333,0.333,0.333,1","1",""
"","html-keyboard-response","277","123286","0.0-277.0","3A4NIXBJ77LLE1D4CDDZL9OC9USLM9","A3N0QZ9ZKUCTCQ","3566S7OX5D5NH74JOVOPTTMK8IR17K","","null","<img src=""img/flower2.png"" style=""width:200px; border:14px solid green;"">","null","","","","","","","","",""
"","image-keyboard-response","278","123644","0.0-278.0","3A4NIXBJ77LLE1D4CDDZL9OC9USLM9","A3N0QZ9ZKUCTCQ","3566S7OX5D5NH74JOVOPTTMK8IR17K","","356.29999999701977","img/flower2.png","74","357.6000000014901","1","1","1","1","1,0.333,0.333,0.333,1,0.333,0.333,0.333,1","1,0.333,0.333,0.333,1,0.333,0.333,0.333,1","1",""
"","html-keyboard-response","279","123946","0.0-279.0","3A4NIXBJ77LLE1D4CDDZL9OC9USLM9","A3N0QZ9ZKUCTCQ","3566S7OX5D5NH74JOVOPTTMK8IR17K","","null","<img src=""img/flower2.png"" style=""width:200px; border:14px solid green;"">","null","","","","","","","","",""
"","image-keyboard-response","280","124601","0.0-280.0","3A4NIXBJ77LLE1D4CDDZL9OC9USLM9","A3N0QZ9ZKUCTCQ","3566S7OX5D5NH74JOVOPTTMK8IR17K","","653.8000000044703","img/flower1.png","75","655.3999999985099","2","1","2","1","1,0.333,0.333,0.333,1,0.333,0.333,0.333,1","1,0.333,0.333,0.333,1,0.333,0.333,0.333,1","1",""
"","html-keyboard-response","281","124903","0.0-281.0","3A4NIXBJ77LLE1D4CDDZL9OC9USLM9","A3N0QZ9ZKUCTCQ","3566S7OX5D5NH74JOVOPTTMK8IR17K","","null","<img src=""img/flower1.png"" style=""width:200px; border:14px solid green;"">","null","","","","","","","","",""
"","image-keyboard-response","282","125671","0.0-282.0","3A4NIXBJ77LLE1D4CDDZL9OC9USLM9","A3N0QZ9ZKUCTCQ","3566S7OX5D5NH74JOVOPTTMK8IR17K","","766.2000000029802","img/flower5.png","76","767.1000000014901","3","1","3","1","1,0.333,0.333,0.333,1,0.333,0.333,0.333,1","1,0.333,0.333,0.333,1,0.333,0.333,0.333,1","1",""
"","html-keyboard-response","283","125973","0.0-283.0","3A4NIXBJ77LLE1D4CDDZL9OC9USLM9","A3N0QZ9ZKUCTCQ","3566S7OX5D5NH74JOVOPTTMK8IR17K","","null","<img src=""img/flower5.png"" style=""width:200px; border:14px solid green;"">","null","","","","","","","","",""
"","image-keyboard-response","284","126423","0.0-284.0","3A4NIXBJ77LLE1D4CDDZL9OC9USLM9","A3N0QZ9ZKUCTCQ","3566S7OX5D5NH74JOVOPTTMK8IR17K","","448.20000000298023","img/flower5.png","76","449.30000000447035","3","1","3","1","1,0.333,0.333,0.333,1,0.333,0.333,0.333,1","1,0.333,0.333,0.333,1,0.333,0.333,0.333,1","1",""
"","html-keyboard-response","285","126725","0.0-285.0","3A4NIXBJ77LLE1D4CDDZL9OC9USLM9","A3N0QZ9ZKUCTCQ","3566S7OX5D5NH74JOVOPTTMK8IR17K","","null","<img src=""img/flower5.png"" style=""width:200px; border:14px solid green;"">","null","","","","","","","","",""
"","image-keyboard-response","286","127424","0.0-286.0","3A4NIXBJ77LLE1D4CDDZL9OC9USLM9","A3N0QZ9ZKUCTCQ","3566S7OX5D5NH74JOVOPTTMK8IR17K","","697.9000000059605","img/flower2.png","74","698.8999999985099","1","1","1","1","1,0.333,0.333,0.333,1,0.333,0.333,0.333,1","1,0.333,0.333,0.333,1,0.333,0.333,0.333,1","1",""
"","html-keyboard-response","287","127726","0.0-287.0","3A4NIXBJ77LLE1D4CDDZL9OC9USLM9","A3N0QZ9ZKUCTCQ","3566S7OX5D5NH74JOVOPTTMK8IR17K","","null","<img src=""img/flower2.png"" style=""width:200px; border:14px solid green;"">","null","","","","","","","","",""
"","image-keyboard-response","288","128486","0.0-288.0","3A4NIXBJ77LLE1D4CDDZL9OC9USLM9","A3N0QZ9ZKUCTCQ","3566S7OX5D5NH74JOVOPTTMK8IR17K","","757.8999999985099","img/flower5.png","76","759.3999999985099","3","1","3","1","1,0.333,0.333,0.333,1,0.333,0.333,0.333,1","1,0.333,0.333,0.333,1,0.333,0.333,0.333,1","1",""
"","html-keyboard-response","289","128789","0.0-289.0","3A4NIXBJ77LLE1D4CDDZL9OC9USLM9","A3N0QZ9ZKUCTCQ","3566S7OX5D5NH74JOVOPTTMK8IR17K","","null","<img src=""img/flower5.png"" style=""width:200px; border:14px solid green;"">","null","","","","","","","","",""
"","image-keyboard-response","290","129349","0.0-290.0","3A4NIXBJ77LLE1D4CDDZL9OC9USLM9","A3N0QZ9ZKUCTCQ","3566S7OX5D5NH74JOVOPTTMK8IR17K","","559.2000000029802","img/flower5.png","76","560.6000000014901","3","1","3","1","1,0.333,0.333,0.333,1,0.333,0.333,0.333,1","1,0.333,0.333,0.333,1,0.333,0.333,0.333,1","1",""
"","html-keyboard-response","291","129652","0.0-291.0","3A4NIXBJ77LLE1D4CDDZL9OC9USLM9","A3N0QZ9ZKUCTCQ","3566S7OX5D5NH74JOVOPTTMK8IR17K","","null","<img src=""img/flower5.png"" style=""width:200px; border:14px solid green;"">","null","","","","","","","","",""
"","image-keyboard-response","292","130174","0.0-292.0","3A4NIXBJ77LLE1D4CDDZL9OC9USLM9","A3N0QZ9ZKUCTCQ","3566S7OX5D5NH74JOVOPTTMK8IR17K","","521.3000000044703","img/flower5.png","76","522.6000000014901","3","1","3","1","1,0.333,0.333,0.333,1,0.333,0.333,0.333,1","1,0.333,0.333,0.333,1,0.333,0.333,0.333,1","1",""
"","html-keyboard-response","293","130491","0.0-293.0","3A4NIXBJ77LLE1D4CDDZL9OC9USLM9","A3N0QZ9ZKUCTCQ","3566S7OX5D5NH74JOVOPTTMK8IR17K","","null","<img src=""img/flower5.png"" style=""width:200px; border:14px solid green;"">","null","","","","","","","","",""
"","image-keyboard-response","294","130943","0.0-294.0","3A4NIXBJ77LLE1D4CDDZL9OC9USLM9","A3N0QZ9ZKUCTCQ","3566S7OX5D5NH74JOVOPTTMK8IR17K","","450.1000000014901","img/flower5.png","76","451.3999999985099","3","1","3","1","1,0.333,0.333,0.333,1,0.333,0.333,0.333,1","1,0.333,0.333,0.333,1,0.333,0.333,0.333,1","1",""
"","html-keyboard-response","295","131245","0.0-295.0","3A4NIXBJ77LLE1D4CDDZL9OC9USLM9","A3N0QZ9ZKUCTCQ","3566S7OX5D5NH74JOVOPTTMK8IR17K","","null","<img src=""img/flower5.png"" style=""width:200px; border:14px solid green;"">","null","","","","","","","","",""
"","image-keyboard-response","296","131917","0.0-296.0","3A4NIXBJ77LLE1D4CDDZL9OC9USLM9","A3N0QZ9ZKUCTCQ","3566S7OX5D5NH74JOVOPTTMK8IR17K","","670.3999999985099","img/flower1.png","75","673.2000000029802","2","1","2","1","1,0.333,0.333,0.333,1,0.333,0.333,0.333,1","1,0.333,0.333,0.333,1,0.333,0.333,0.333,1","1",""
"","html-keyboard-response","297","132221","0.0-297.0","3A4NIXBJ77LLE1D4CDDZL9OC9USLM9","A3N0QZ9ZKUCTCQ","3566S7OX5D5NH74JOVOPTTMK8IR17K","","null","<img src=""img/flower1.png"" style=""width:200px; border:14px solid green;"">","null","","","","","","","","",""
"","image-keyboard-response","298","132566","0.0-298.0","3A4NIXBJ77LLE1D4CDDZL9OC9USLM9","A3N0QZ9ZKUCTCQ","3566S7OX5D5NH74JOVOPTTMK8IR17K","","344","img/flower1.png","75","345.1000000014901","2","1","2","1","1,0.333,0.333,0.333,1,0.333,0.333,0.333,1","1,0.333,0.333,0.333,1,0.333,0.333,0.333,1","1",""
"","html-keyboard-response","299","132868","0.0-299.0","3A4NIXBJ77LLE1D4CDDZL9OC9USLM9","A3N0QZ9ZKUCTCQ","3566S7OX5D5NH74JOVOPTTMK8IR17K","","null","<img src=""img/flower1.png"" style=""width:200px; border:14px solid green;"">","null","","","","","","","","",""
"","image-keyboard-response","300","133499","0.0-300.0","3A4NIXBJ77LLE1D4CDDZL9OC9USLM9","A3N0QZ9ZKUCTCQ","3566S7OX5D5NH74JOVOPTTMK8IR17K","","628.7000000029802","img/flower5.png","76","630.3000000044703","3","1","3","1","1,0.333,0.333,0.333,1,0.333,0.333,0.333,1","1,0.333,0.333,0.333,1,0.333,0.333,0.333,1","1",""
"","html-keyboard-response","301","133801","0.0-301.0","3A4NIXBJ77LLE1D4CDDZL9OC9USLM9","A3N0QZ9ZKUCTCQ","3566S7OX5D5NH74JOVOPTTMK8IR17K","","null","<img src=""img/flower5.png"" style=""width:200px; border:14px solid green;"">","null","","","","","","","","",""
"","image-keyboard-response","302","134178","0.0-302.0","3A4NIXBJ77LLE1D4CDDZL9OC9USLM9","A3N0QZ9ZKUCTCQ","3566S7OX5D5NH74JOVOPTTMK8IR17K","","374.6000000014901","img/flower5.png","76","376.3999999985099","3","1","3","1","1,0.333,0.333,0.333,1,0.333,0.333,0.333,1","1,0.333,0.333,0.333,1,0.333,0.333,0.333,1","1",""
"","html-keyboard-response","303","134481","0.0-303.0","3A4NIXBJ77LLE1D4CDDZL9OC9USLM9","A3N0QZ9ZKUCTCQ","3566S7OX5D5NH74JOVOPTTMK8IR17K","","null","<img src=""img/flower5.png"" style=""width:200px; border:14px solid green;"">","null","","","","","","","","",""
"","image-keyboard-response","304","135131","0.0-304.0","3A4NIXBJ77LLE1D4CDDZL9OC9USLM9","A3N0QZ9ZKUCTCQ","3566S7OX5D5NH74JOVOPTTMK8IR17K","","649.2999999970198","img/flower2.png","74","650.2000000029802","1","1","1","1","1,0.333,0.333,0.333,1,0.333,0.333,0.333,1","1,0.333,0.333,0.333,1,0.333,0.333,0.333,1","1",""
"","html-keyboard-response","305","135445","0.0-305.0","3A4NIXBJ77LLE1D4CDDZL9OC9USLM9","A3N0QZ9ZKUCTCQ","3566S7OX5D5NH74JOVOPTTMK8IR17K","","null","<img src=""img/flower2.png"" style=""width:200px; border:14px solid green;"">","null","","","","","","","","",""
"","image-keyboard-response","306","136215","0.0-306.0","3A4NIXBJ77LLE1D4CDDZL9OC9USLM9","A3N0QZ9ZKUCTCQ","3566S7OX5D5NH74JOVOPTTMK8IR17K","","769.5","img/flower5.png","76","770.3999999985099","3","1","3","1","1,0.333,0.333,0.333,1,0.333,0.333,0.333,1","1,0.333,0.333,0.333,1,0.333,0.333,0.333,1","1",""
"","html-keyboard-response","307","136518","0.0-307.0","3A4NIXBJ77LLE1D4CDDZL9OC9USLM9","A3N0QZ9ZKUCTCQ","3566S7OX5D5NH74JOVOPTTMK8IR17K","","null","<img src=""img/flower5.png"" style=""width:200px; border:14px solid green;"">","null","","","","","","","","",""
"","image-keyboard-response","308","136948","0.0-308.0","3A4NIXBJ77LLE1D4CDDZL9OC9USLM9","A3N0QZ9ZKUCTCQ","3566S7OX5D5NH74JOVOPTTMK8IR17K","","429.29999999701977","img/flower5.png","76","430.30000000447035","3","1","3","1","1,0.333,0.333,0.333,1,0.333,0.333,0.333,1","1,0.333,0.333,0.333,1,0.333,0.333,0.333,1","1",""
"","html-keyboard-response","309","137251","0.0-309.0","3A4NIXBJ77LLE1D4CDDZL9OC9USLM9","A3N0QZ9ZKUCTCQ","3566S7OX5D5NH74JOVOPTTMK8IR17K","","null","<img src=""img/flower5.png"" style=""width:200px; border:14px solid green;"">","null","","","","","","","","",""
"","image-keyboard-response","310","138008","0.0-310.0","3A4NIXBJ77LLE1D4CDDZL9OC9USLM9","A3N0QZ9ZKUCTCQ","3566S7OX5D5NH74JOVOPTTMK8IR17K","","755.3999999985099","img/flower2.png","74","756.8999999985099","1","1","1","1","1,0.333,0.333,0.333,1,0.333,0.333,0.333,1","1,0.333,0.333,0.333,1,0.333,0.333,0.333,1","1",""
"","html-keyboard-response","311","138311","0.0-311.0","3A4NIXBJ77LLE1D4CDDZL9OC9USLM9","A3N0QZ9ZKUCTCQ","3566S7OX5D5NH74JOVOPTTMK8IR17K","","null","<img src=""img/flower2.png"" style=""width:200px; border:14px solid green;"">","null","","","","","","","","",""
"","image-keyboard-response","312","139006","0.0-312.0","3A4NIXBJ77LLE1D4CDDZL9OC9USLM9","A3N0QZ9ZKUCTCQ","3566S7OX5D5NH74JOVOPTTMK8IR17K","","693.7000000029802","img/flower1.png","75","695.2000000029802","2","1","2","1","1,0.333,0.333,0.333,1,0.333,0.333,0.333,1","1,0.333,0.333,0.333,1,0.333,0.333,0.333,1","1",""
"","html-keyboard-response","313","139309","0.0-313.0","3A4NIXBJ77LLE1D4CDDZL9OC9USLM9","A3N0QZ9ZKUCTCQ","3566S7OX5D5NH74JOVOPTTMK8IR17K","","null","<img src=""img/flower1.png"" style=""width:200px; border:14px solid green;"">","null","","","","","","","","",""
"","image-keyboard-response","314","139720","0.0-314.0","3A4NIXBJ77LLE1D4CDDZL9OC9USLM9","A3N0QZ9ZKUCTCQ","3566S7OX5D5NH74JOVOPTTMK8IR17K","","409.79999999701977","img/flower1.png","75","410.80000000447035","2","1","2","1","1,0.333,0.333,0.333,1,0.333,0.333,0.333,1","1,0.333,0.333,0.333,1,0.333,0.333,0.333,1","1",""
"","html-keyboard-response","315","140022","0.0-315.0","3A4NIXBJ77LLE1D4CDDZL9OC9USLM9","A3N0QZ9ZKUCTCQ","3566S7OX5D5NH74JOVOPTTMK8IR17K","","null","<img src=""img/flower1.png"" style=""width:200px; border:14px solid green;"">","null","","","","","","","","",""
"","image-keyboard-response","316","140648","0.0-316.0","3A4NIXBJ77LLE1D4CDDZL9OC9USLM9","A3N0QZ9ZKUCTCQ","3566S7OX5D5NH74JOVOPTTMK8IR17K","","624.2000000029802","img/flower5.png","76","625.4000000059605","3","1","3","1","1,0.333,0.333,0.333,1,0.333,0.333,0.333,1","1,0.333,0.333,0.333,1,0.333,0.333,0.333,1","1",""
"","html-keyboard-response","317","140949","0.0-317.0","3A4NIXBJ77LLE1D4CDDZL9OC9USLM9","A3N0QZ9ZKUCTCQ","3566S7OX5D5NH74JOVOPTTMK8IR17K","","null","<img src=""img/flower5.png"" style=""width:200px; border:14px solid green;"">","null","","","","","","","","",""
"","image-keyboard-response","318","142043","0.0-318.0","3A4NIXBJ77LLE1D4CDDZL9OC9USLM9","A3N0QZ9ZKUCTCQ","3566S7OX5D5NH74JOVOPTTMK8IR17K","","1091.7000000029802","img/flower2.png","74","1093.2999999970198","1","1","1","1","1,0.333,0.333,0.333,1,0.333,0.333,0.333,1","1,0.333,0.333,0.333,1,0.333,0.333,0.333,1","1",""
"","html-keyboard-response","319","142346","0.0-319.0","3A4NIXBJ77LLE1D4CDDZL9OC9USLM9","A3N0QZ9ZKUCTCQ","3566S7OX5D5NH74JOVOPTTMK8IR17K","","null","<img src=""img/flower2.png"" style=""width:200px; border:14px solid green;"">","null","","","","","","","","",""
"","image-keyboard-response","320","142717","0.0-320.0","3A4NIXBJ77LLE1D4CDDZL9OC9USLM9","A3N0QZ9ZKUCTCQ","3566S7OX5D5NH74JOVOPTTMK8IR17K","","369.79999999701977","img/flower2.png","74","371","1","1","1","1","1,0.333,0.333,0.333,1,0.333,0.333,0.333,1","1,0.333,0.333,0.333,1,0.333,0.333,0.333,1","1",""
"","html-keyboard-response","321","143019","0.0-321.0","3A4NIXBJ77LLE1D4CDDZL9OC9USLM9","A3N0QZ9ZKUCTCQ","3566S7OX5D5NH74JOVOPTTMK8IR17K","","null","<img src=""img/flower2.png"" style=""width:200px; border:14px solid green;"">","null","","","","","","","","",""
"","image-keyboard-response","322","143461","0.0-322.0","3A4NIXBJ77LLE1D4CDDZL9OC9USLM9","A3N0QZ9ZKUCTCQ","3566S7OX5D5NH74JOVOPTTMK8IR17K","","439.8999999985099","img/flower2.png","74","441.5","1","1","1","1","1,0.333,0.333,0.333,1,0.333,0.333,0.333,1","1,0.333,0.333,0.333,1,0.333,0.333,0.333,1","1",""
"","html-keyboard-response","323","143764","0.0-323.0","3A4NIXBJ77LLE1D4CDDZL9OC9USLM9","A3N0QZ9ZKUCTCQ","3566S7OX5D5NH74JOVOPTTMK8IR17K","","null","<img src=""img/flower2.png"" style=""width:200px; border:14px solid green;"">","null","","","","","","","","",""
"","image-keyboard-response","324","144563","0.0-324.0","3A4NIXBJ77LLE1D4CDDZL9OC9USLM9","A3N0QZ9ZKUCTCQ","3566S7OX5D5NH74JOVOPTTMK8IR17K","","797.7999999970198","img/flower1.png","75","799","2","1","2","1","1,0.333,0.333,0.333,1,0.333,0.333,0.333,1","1,0.333,0.333,0.333,1,0.333,0.333,0.333,1","1",""
"","html-keyboard-response","325","144865","0.0-325.0","3A4NIXBJ77LLE1D4CDDZL9OC9USLM9","A3N0QZ9ZKUCTCQ","3566S7OX5D5NH74JOVOPTTMK8IR17K","","null","<img src=""img/flower1.png"" style=""width:200px; border:14px solid green;"">","null","","","","","","","","",""
"","image-keyboard-response","326","145567","0.0-326.0","3A4NIXBJ77LLE1D4CDDZL9OC9USLM9","A3N0QZ9ZKUCTCQ","3566S7OX5D5NH74JOVOPTTMK8IR17K","","699.8999999985099","img/flower5.png","76","701.3999999985099","3","1","3","1","1,0.333,0.333,0.333,1,0.333,0.333,0.333,1","1,0.333,0.333,0.333,1,0.333,0.333,0.333,1","1",""
"","html-keyboard-response","327","145869","0.0-327.0","3A4NIXBJ77LLE1D4CDDZL9OC9USLM9","A3N0QZ9ZKUCTCQ","3566S7OX5D5NH74JOVOPTTMK8IR17K","","null","<img src=""img/flower5.png"" style=""width:200px; border:14px solid green;"">","null","","","","","","","","",""
"","image-keyboard-response","328","146586","0.0-328.0","3A4NIXBJ77LLE1D4CDDZL9OC9USLM9","A3N0QZ9ZKUCTCQ","3566S7OX5D5NH74JOVOPTTMK8IR17K","","715.1000000014901","img/flower2.png","74","716.5","1","1","1","1","1,0.333,0.333,0.333,1,0.333,0.333,0.333,1","1,0.333,0.333,0.333,1,0.333,0.333,0.333,1","1",""
"","html-keyboard-response","329","146888","0.0-329.0","3A4NIXBJ77LLE1D4CDDZL9OC9USLM9","A3N0QZ9ZKUCTCQ","3566S7OX5D5NH74JOVOPTTMK8IR17K","","null","<img src=""img/flower2.png"" style=""width:200px; border:14px solid green;"">","null","","","","","","","","",""
"","image-keyboard-response","330","147295","0.0-330.0","3A4NIXBJ77LLE1D4CDDZL9OC9USLM9","A3N0QZ9ZKUCTCQ","3566S7OX5D5NH74JOVOPTTMK8IR17K","","404.79999999701977","img/flower2.png","74","406.30000000447035","1","1","1","1","1,0.333,0.333,0.333,1,0.333,0.333,0.333,1","1,0.333,0.333,0.333,1,0.333,0.333,0.333,1","1",""
"","html-keyboard-response","331","147597","0.0-331.0","3A4NIXBJ77LLE1D4CDDZL9OC9USLM9","A3N0QZ9ZKUCTCQ","3566S7OX5D5NH74JOVOPTTMK8IR17K","","null","<img src=""img/flower2.png"" style=""width:200px; border:14px solid green;"">","null","","","","","","","","",""
"","image-keyboard-response","332","148317","0.0-332.0","3A4NIXBJ77LLE1D4CDDZL9OC9USLM9","A3N0QZ9ZKUCTCQ","3566S7OX5D5NH74JOVOPTTMK8IR17K","","719.0999999940395","img/flower5.png","76","720.4000000059605","3","1","3","1","1,0.333,0.333,0.333,1,0.333,0.333,0.333,1","1,0.333,0.333,0.333,1,0.333,0.333,0.333,1","1",""
"","html-keyboard-response","333","148622","0.0-333.0","3A4NIXBJ77LLE1D4CDDZL9OC9USLM9","A3N0QZ9ZKUCTCQ","3566S7OX5D5NH74JOVOPTTMK8IR17K","","null","<img src=""img/flower5.png"" style=""width:200px; border:14px solid green;"">","null","","","","","","","","",""
"","image-keyboard-response","334","149102","0.0-334.0","3A4NIXBJ77LLE1D4CDDZL9OC9USLM9","A3N0QZ9ZKUCTCQ","3566S7OX5D5NH74JOVOPTTMK8IR17K","","478","img/flower5.png","76","479.6000000014901","3","1","3","1","1,0.333,0.333,0.333,1,0.333,0.333,0.333,1","1,0.333,0.333,0.333,1,0.333,0.333,0.333,1","1",""
"","html-keyboard-response","335","149405","0.0-335.0","3A4NIXBJ77LLE1D4CDDZL9OC9USLM9","A3N0QZ9ZKUCTCQ","3566S7OX5D5NH74JOVOPTTMK8IR17K","","null","<img src=""img/flower5.png"" style=""width:200px; border:14px solid green;"">","null","","","","","","","","",""
"","image-keyboard-response","336","149901","0.0-336.0","3A4NIXBJ77LLE1D4CDDZL9OC9USLM9","A3N0QZ9ZKUCTCQ","3566S7OX5D5NH74JOVOPTTMK8IR17K","","493.59999999403954","img/flower5.png","76","495.19999999552965","3","1","3","1","1,0.333,0.333,0.333,1,0.333,0.333,0.333,1","1,0.333,0.333,0.333,1,0.333,0.333,0.333,1","1",""
"","html-keyboard-response","337","150203","0.0-337.0","3A4NIXBJ77LLE1D4CDDZL9OC9USLM9","A3N0QZ9ZKUCTCQ","3566S7OX5D5NH74JOVOPTTMK8IR17K","","null","<img src=""img/flower5.png"" style=""width:200px; border:14px solid green;"">","null","","","","","","","","",""
"","image-keyboard-response","338","150978","0.0-338.0","3A4NIXBJ77LLE1D4CDDZL9OC9USLM9","A3N0QZ9ZKUCTCQ","3566S7OX5D5NH74JOVOPTTMK8IR17K","","774.5","img/flower1.png","74","775.2000000029802","1","0","2","1","1,0.333,0.333,0.333,1,0.333,0.333,0.333,1","1,0.333,0.333,0.333,1,0.333,0.333,0.333,1","1",""
"","html-keyboard-response","339","151281","0.0-339.0","3A4NIXBJ77LLE1D4CDDZL9OC9USLM9","A3N0QZ9ZKUCTCQ","3566S7OX5D5NH74JOVOPTTMK8IR17K","","null","<img src=""img/flower1.png"" style=""width:200px;border:14px solid red;"">","null","","","","","","","","",""
"","image-keyboard-response","340","152087","0.0-340.0","3A4NIXBJ77LLE1D4CDDZL9OC9USLM9","A3N0QZ9ZKUCTCQ","3566S7OX5D5NH74JOVOPTTMK8IR17K","","804.8999999985099","img/flower5.png","76","806.3000000044703","3","1","3","1","1,0.333,0.333,0.333,1,0.333,0.333,0.333,1","1,0.333,0.333,0.333,1,0.333,0.333,0.333,1","1",""
"","html-keyboard-response","341","152391","0.0-341.0","3A4NIXBJ77LLE1D4CDDZL9OC9USLM9","A3N0QZ9ZKUCTCQ","3566S7OX5D5NH74JOVOPTTMK8IR17K","","null","<img src=""img/flower5.png"" style=""width:200px; border:14px solid green;"">","null","","","","","","","","",""
"","image-keyboard-response","342","153021","0.0-342.0","3A4NIXBJ77LLE1D4CDDZL9OC9USLM9","A3N0QZ9ZKUCTCQ","3566S7OX5D5NH74JOVOPTTMK8IR17K","","628.3999999985099","img/flower1.png","75","629.6999999955297","2","1","2","1","1,0.333,0.333,0.333,1,0.333,0.333,0.333,1","1,0.333,0.333,0.333,1,0.333,0.333,0.333,1","1",""
"","html-keyboard-response","343","153323","0.0-343.0","3A4NIXBJ77LLE1D4CDDZL9OC9USLM9","A3N0QZ9ZKUCTCQ","3566S7OX5D5NH74JOVOPTTMK8IR17K","","null","<img src=""img/flower1.png"" style=""width:200px; border:14px solid green;"">","null","","","","","","","","",""
"","image-keyboard-response","344","153960","0.0-344.0","3A4NIXBJ77LLE1D4CDDZL9OC9USLM9","A3N0QZ9ZKUCTCQ","3566S7OX5D5NH74JOVOPTTMK8IR17K","","636.8000000044703","img/flower2.png","74","637.7000000029802","1","1","1","1","1,0.333,0.333,0.333,1,0.333,0.333,0.333,1","1,0.333,0.333,0.333,1,0.333,0.333,0.333,1","1",""
"","html-keyboard-response","345","154263","0.0-345.0","3A4NIXBJ77LLE1D4CDDZL9OC9USLM9","A3N0QZ9ZKUCTCQ","3566S7OX5D5NH74JOVOPTTMK8IR17K","","null","<img src=""img/flower2.png"" style=""width:200px; border:14px solid green;"">","null","","","","","","","","",""
"","image-keyboard-response","346","154903","0.0-346.0","3A4NIXBJ77LLE1D4CDDZL9OC9USLM9","A3N0QZ9ZKUCTCQ","3566S7OX5D5NH74JOVOPTTMK8IR17K","","637.6000000014901","img/flower1.png","75","639.1000000014901","2","1","2","1","1,0.333,0.333,0.333,1,0.333,0.333,0.333,1","1,0.333,0.333,0.333,1,0.333,0.333,0.333,1","1",""
"","html-keyboard-response","347","155205","0.0-347.0","3A4NIXBJ77LLE1D4CDDZL9OC9USLM9","A3N0QZ9ZKUCTCQ","3566S7OX5D5NH74JOVOPTTMK8IR17K","","null","<img src=""img/flower1.png"" style=""width:200px; border:14px solid green;"">","null","","","","","","","","",""
"","image-keyboard-response","348","155628","0.0-348.0","3A4NIXBJ77LLE1D4CDDZL9OC9USLM9","A3N0QZ9ZKUCTCQ","3566S7OX5D5NH74JOVOPTTMK8IR17K","","420.3999999985099","img/flower1.png","75","422","2","1","2","1","1,0.333,0.333,0.333,1,0.333,0.333,0.333,1","1,0.333,0.333,0.333,1,0.333,0.333,0.333,1","1",""
"","html-keyboard-response","349","155930","0.0-349.0","3A4NIXBJ77LLE1D4CDDZL9OC9USLM9","A3N0QZ9ZKUCTCQ","3566S7OX5D5NH74JOVOPTTMK8IR17K","","null","<img src=""img/flower1.png"" style=""width:200px; border:14px solid green;"">","null","","","","","","","","",""
"","image-keyboard-response","350","156745","0.0-350.0","3A4NIXBJ77LLE1D4CDDZL9OC9USLM9","A3N0QZ9ZKUCTCQ","3566S7OX5D5NH74JOVOPTTMK8IR17K","","812.7999999970198","img/flower5.png","76","814","3","1","3","1","1,0.333,0.333,0.333,1,0.333,0.333,0.333,1","1,0.333,0.333,0.333,1,0.333,0.333,0.333,1","1",""
"","html-keyboard-response","351","157047","0.0-351.0","3A4NIXBJ77LLE1D4CDDZL9OC9USLM9","A3N0QZ9ZKUCTCQ","3566S7OX5D5NH74JOVOPTTMK8IR17K","","null","<img src=""img/flower5.png"" style=""width:200px; border:14px solid green;"">","null","","","","","","","","",""
"","image-keyboard-response","352","157785","0.0-352.0","3A4NIXBJ77LLE1D4CDDZL9OC9USLM9","A3N0QZ9ZKUCTCQ","3566S7OX5D5NH74JOVOPTTMK8IR17K","","735.8000000044703","img/flower2.png","74","737.3000000044703","1","1","1","1","1,0.333,0.333,0.333,1,0.333,0.333,0.333,1","1,0.333,0.333,0.333,1,0.333,0.333,0.333,1","1",""
"","html-keyboard-response","353","158088","0.0-353.0","3A4NIXBJ77LLE1D4CDDZL9OC9USLM9","A3N0QZ9ZKUCTCQ","3566S7OX5D5NH74JOVOPTTMK8IR17K","","null","<img src=""img/flower2.png"" style=""width:200px; border:14px solid green;"">","null","","","","","","","","",""
"","image-keyboard-response","354","158584","0.0-354.0","3A4NIXBJ77LLE1D4CDDZL9OC9USLM9","A3N0QZ9ZKUCTCQ","3566S7OX5D5NH74JOVOPTTMK8IR17K","","494.3999999985099","img/flower2.png","74","495.8999999985099","1","1","1","1","1,0.333,0.333,0.333,1,0.333,0.333,0.333,1","1,0.333,0.333,0.333,1,0.333,0.333,0.333,1","1",""
"","html-keyboard-response","355","158886","0.0-355.0","3A4NIXBJ77LLE1D4CDDZL9OC9USLM9","A3N0QZ9ZKUCTCQ","3566S7OX5D5NH74JOVOPTTMK8IR17K","","null","<img src=""img/flower2.png"" style=""width:200px; border:14px solid green;"">","null","","","","","","","","",""
"","image-keyboard-response","356","159388","0.0-356.0","3A4NIXBJ77LLE1D4CDDZL9OC9USLM9","A3N0QZ9ZKUCTCQ","3566S7OX5D5NH74JOVOPTTMK8IR17K","","499.3999999985099","img/flower2.png","74","501","1","1","1","1","1,0.333,0.333,0.333,1,0.333,0.333,0.333,1","1,0.333,0.333,0.333,1,0.333,0.333,0.333,1","1",""
"","html-keyboard-response","357","159690","0.0-357.0","3A4NIXBJ77LLE1D4CDDZL9OC9USLM9","A3N0QZ9ZKUCTCQ","3566S7OX5D5NH74JOVOPTTMK8IR17K","","null","<img src=""img/flower2.png"" style=""width:200px; border:14px solid green;"">","null","","","","","","","","",""
"","image-keyboard-response","358","160336","0.0-358.0","3A4NIXBJ77LLE1D4CDDZL9OC9USLM9","A3N0QZ9ZKUCTCQ","3566S7OX5D5NH74JOVOPTTMK8IR17K","","643.9000000059605","img/flower1.png","75","645.0999999940395","2","1","2","1","1,0.333,0.333,0.333,1,0.333,0.333,0.333,1","1,0.333,0.333,0.333,1,0.333,0.333,0.333,1","1",""
"","html-keyboard-response","359","160639","0.0-359.0","3A4NIXBJ77LLE1D4CDDZL9OC9USLM9","A3N0QZ9ZKUCTCQ","3566S7OX5D5NH74JOVOPTTMK8IR17K","","null","<img src=""img/flower1.png"" style=""width:200px; border:14px solid green;"">","null","","","","","","","","",""
"","image-keyboard-response","360","161385","0.0-360.0","3A4NIXBJ77LLE1D4CDDZL9OC9USLM9","A3N0QZ9ZKUCTCQ","3566S7OX5D5NH74JOVOPTTMK8IR17K","","743.5","img/flower2.png","74","745.1000000014901","1","1","1","1","1,0.333,0.333,0.333,1,0.333,0.333,0.333,1","1,0.333,0.333,0.333,1,0.333,0.333,0.333,1","1",""
"","html-keyboard-response","361","161687","0.0-361.0","3A4NIXBJ77LLE1D4CDDZL9OC9USLM9","A3N0QZ9ZKUCTCQ","3566S7OX5D5NH74JOVOPTTMK8IR17K","","null","<img src=""img/flower2.png"" style=""width:200px; border:14px solid green;"">","null","","","","","","","","",""
"","html-keyboard-response","362","164889","0.0-362.0","3A4NIXBJ77LLE1D4CDDZL9OC9USLM9","A3N0QZ9ZKUCTCQ","3566S7OX5D5NH74JOVOPTTMK8IR17K","","","","","","","","","","","","",""
"","instructions","363","166169","0.0-363.0","3A4NIXBJ77LLE1D4CDDZL9OC9USLM9","A3N0QZ9ZKUCTCQ","3566S7OX5D5NH74JOVOPTTMK8IR17K","[{""page_index"":0,""viewing_time"":1279}]","1279.1999999955297","","","","","","","","","","",""
"","survey-text","364","169162","0.0-364.0","3A4NIXBJ77LLE1D4CDDZL9OC9USLM9","A3N0QZ9ZKUCTCQ","3566S7OX5D5NH74JOVOPTTMK8IR17K","","2988.10000000149","","","","","","","","","","","{""Q0"":""A3N0QZ9ZKUCTCQ""}"
