"success","trial_type","trial_index","time_elapsed","internal_node_id","assignmentID","mturkID","hitID","view_history","rt","stimulus","key_press","reactionTime","a","r","s","cond","reward_cond","reward_cond_actual","reward_matrix_idx","responses"
"true","fullscreen","0","2404","0.0-0.0","","","","","","","","","","","","","","","",""
"","instructions","1","14510","0.0-1.0","","","","[{""page_index"":0,""viewing_time"":956.2000000476837},{""page_index"":1,""viewing_time"":1034.2000000476837},{""page_index"":2,""viewing_time"":1825.7999999523163},{""page_index"":3,""viewing_time"":1150.2000000476837},{""page_index"":4,""viewing_time"":1399.8999999761581},{""page_index"":5,""viewing_time"":1694},{""page_index"":6,""viewing_time"":2183.899999976158},{""page_index"":7,""viewing_time"":1858.7999999523163}]","12103.700000047684","","","","","","","","","","",""
"","image-keyboard-response","2","15872","0.0-2.0","","","","","1360.5","img/flower3.png","74","1361.8999999761581","1","0","1","2","1,0,0,1,1,0,1,0,1","0,0,1,1,0,1,0,1,1","2",""
"","html-keyboard-response","3","16182","0.0-3.0","","","","","null","<img src=""img/flower3.png"" style=""width:200px;border:14px solid red;"">","null","","","","","","","","",""
"","image-keyboard-response","4","16212","0.0-4.0","","","","","28.600000023841858","img/flower3.png","74","29.700000047683716","1","0","1","2","1,0,0,1,1,0,1,0,1","0,0,1,1,0,1,0,1,1","2",""
"","html-keyboard-response","5","16514","0.0-5.0","","","","","null","<img src=""img/flower3.png"" style=""width:200px;border:14px solid red;"">","null","","","","","","","","",""
"","image-keyboard-response","6","16576","0.0-6.0","","","","","60.699999928474426","img/flower2.png","75","61.60000002384186","2","0","2","2","1,0,0,1,1,0,1,0,1","0,0,1,1,0,1,0,1,1","2",""
"","html-keyboard-response","7","16889","0.0-7.0","","","","","null","<img src=""img/flower2.png"" style=""width:200px;border:14px solid red;"">","null","","","","","","","","",""
"","image-keyboard-response","8","17161","0.0-8.0","","","","","270.7999999523163","img/flower3.png","76","271.89999997615814","3","1","1","2","1,0,0,1,1,0,1,0,1","0,0,1,1,0,1,0,1,1","2",""
"","html-keyboard-response","9","17464","0.0-9.0","","","","","null","<img src=""img/flower3.png"" style=""width:200px; border:14px solid green;"">","null","","","","","","","","",""
"","image-keyboard-response","10","17588","0.0-10.0","","","","","122.5","img/flower3.png","76","123.5","3","1","1","2","1,0,0,1,1,0,1,0,1","0,0,1,1,0,1,0,1,1","2",""
"","html-keyboard-response","11","17903","0.0-11.0","","","","","null","<img src=""img/flower3.png"" style=""width:200px; border:14px solid green;"">","null","","","","","","","","",""
"","image-keyboard-response","12","17912","0.0-12.0","","","","","8.100000023841858","img/flower3.png","76","8.700000047683716","3","1","1","2","1,0,0,1,1,0,1,0,1","0,0,1,1,0,1,0,1,1","2",""
"","html-keyboard-response","13","18214","0.0-13.0","","","","","null","<img src=""img/flower3.png"" style=""width:200px; border:14px solid green;"">","null","","","","","","","","",""
"","image-keyboard-response","14","18387","0.0-14.0","","","","","171.60000002384186","img/flower5.png","76","172.70000004768372","3","1","3","2","1,0,0,1,1,0,1,0,1","0,0,1,1,0,1,0,1,1","2",""
"","html-keyboard-response","15","18697","0.0-15.0","","","","","null","<img src=""img/flower5.png"" style=""width:200px; border:14px solid green;"">","null","","","","","","","","",""
"","image-keyboard-response","16","18861","0.0-16.0","","","","","162.59999990463257","img/flower3.png","76","163.70000004768372","3","1","1","2","1,0,0,1,1,0,1,0,1","0,0,1,1,0,1,0,1,1","2",""
"","html-keyboard-response","17","19176","0.0-17.0","","","","","null","<img src=""img/flower3.png"" style=""width:200px; border:14px solid green;"">","null","","","","","","","","",""
"","image-keyboard-response","18","19314","0.0-18.0","","","","","137","img/flower5.png","76","138.10000002384186","3","1","3","2","1,0,0,1,1,0,1,0,1","0,0,1,1,0,1,0,1,1","2",""
"","html-keyboard-response","19","19627","0.0-19.0","","","","","null","<img src=""img/flower5.png"" style=""width:200px; border:14px solid green;"">","null","","","","","","","","",""
"","image-keyboard-response","20","19792","0.0-20.0","","","","","163.89999997615814","img/flower2.png","76","164.39999997615814","3","1","2","2","1,0,0,1,1,0,1,0,1","0,0,1,1,0,1,0,1,1","2",""
"","html-keyboard-response","21","20096","0.0-21.0","","","","","null","<img src=""img/flower2.png"" style=""width:200px; border:14px solid green;"">","null","","","","","","","","",""
"","image-keyboard-response","22","20183","0.0-22.0","","","","","85.89999997615814","img/flower2.png","76","86.79999995231628","3","1","2","2","1,0,0,1,1,0,1,0,1","0,0,1,1,0,1,0,1,1","2",""
"","html-keyboard-response","23","20489","0.0-23.0","","","","","null","<img src=""img/flower2.png"" style=""width:200px; border:14px solid green;"">","null","","","","","","","","",""
"","image-keyboard-response","24","20586","0.0-24.0","","","","","95.89999997615814","img/flower5.png","76","96.89999997615814","3","1","3","2","1,0,0,1,1,0,1,0,1","0,0,1,1,0,1,0,1,1","2",""
"","html-keyboard-response","25","20895","0.0-25.0","","","","","null","<img src=""img/flower5.png"" style=""width:200px; border:14px solid green;"">","null","","","","","","","","",""
"","image-keyboard-response","26","20975","0.0-26.0","","","","","78.89999997615814","img/flower5.png","75","79.90000009536743","2","1","3","2","1,0,0,1,1,0,1,0,1","0,0,1,1,0,1,0,1,1","2",""
"","html-keyboard-response","27","21282","0.0-27.0","","","","","null","<img src=""img/flower5.png"" style=""width:200px; border:14px solid green;"">","null","","","","","","","","",""
"","image-keyboard-response","28","21344","0.0-28.0","","","","","60.89999997615814","img/flower3.png","76","61.800000071525574","3","1","1","2","1,0,0,1,1,0,1,0,1","0,0,1,1,0,1,0,1,1","2",""
"","html-keyboard-response","29","21655","0.0-29.0","","","","","null","<img src=""img/flower3.png"" style=""width:200px; border:14px solid green;"">","null","","","","","","","","",""
"","image-keyboard-response","30","21748","0.0-30.0","","","","","91.59999990463257","img/flower5.png","75","92.70000004768372","2","1","3","2","1,0,0,1,1,0,1,0,1","0,0,1,1,0,1,0,1,1","2",""
"","html-keyboard-response","31","22059","0.0-31.0","","","","","null","<img src=""img/flower5.png"" style=""width:200px; border:14px solid green;"">","null","","","","","","","","",""
"","image-keyboard-response","32","22127","0.0-32.0","","","","","66.5","img/flower5.png","76","67.29999995231628","3","1","3","2","1,0,0,1,1,0,1,0,1","0,0,1,1,0,1,0,1,1","2",""
"","html-keyboard-response","33","22435","0.0-33.0","","","","","null","<img src=""img/flower5.png"" style=""width:200px; border:14px solid green;"">","null","","","","","","","","",""
"","image-keyboard-response","34","22546","0.0-34.0","","","","","109.79999995231628","img/flower3.png","75","110.60000002384186","2","0","1","2","1,0,0,1,1,0,1,0,1","0,0,1,1,0,1,0,1,1","2",""
"","html-keyboard-response","35","22858","0.0-35.0","","","","","null","<img src=""img/flower3.png"" style=""width:200px;border:14px solid red;"">","null","","","","","","","","",""
"","image-keyboard-response","36","22900","0.0-36.0","","","","","40.300000071525574","img/flower5.png","76","41.299999952316284","3","1","3","2","1,0,0,1,1,0,1,0,1","0,0,1,1,0,1,0,1,1","2",""
"","html-keyboard-response","37","23215","0.0-37.0","","","","","null","<img src=""img/flower5.png"" style=""width:200px; border:14px solid green;"">","null","","","","","","","","",""
"","image-keyboard-response","38","23279","0.0-38.0","","","","","62.700000047683716","img/flower2.png","76","63.699999928474426","3","1","2","2","1,0,0,1,1,0,1,0,1","0,0,1,1,0,1,0,1,1","2",""
"","html-keyboard-response","39","23583","0.0-39.0","","","","","null","<img src=""img/flower2.png"" style=""width:200px; border:14px solid green;"">","null","","","","","","","","",""
"","image-keyboard-response","40","23832","0.0-40.0","","","","","247.5","img/flower2.png","76","248.30000007152557","3","1","2","2","1,0,0,1,1,0,1,0,1","0,0,1,1,0,1,0,1,1","2",""
"","html-keyboard-response","41","24134","0.0-41.0","","","","","null","<img src=""img/flower2.png"" style=""width:200px; border:14px solid green;"">","null","","","","","","","","",""
"","image-keyboard-response","42","24326","0.0-42.0","","","","","191.5","img/flower5.png","76","192.10000002384186","3","1","3","2","1,0,0,1,1,0,1,0,1","0,0,1,1,0,1,0,1,1","2",""
"","html-keyboard-response","43","24628","0.0-43.0","","","","","null","<img src=""img/flower5.png"" style=""width:200px; border:14px solid green;"">","null","","","","","","","","",""
"","image-keyboard-response","44","24805","0.0-44.0","","","","","175.5","img/flower2.png","76","176.60000002384186","3","1","2","2","1,0,0,1,1,0,1,0,1","0,0,1,1,0,1,0,1,1","2",""
"","html-keyboard-response","45","25107","0.0-45.0","","","","","null","<img src=""img/flower2.png"" style=""width:200px; border:14px solid green;"">","null","","","","","","","","",""
"","image-keyboard-response","46","25313","0.0-46.0","","","","","205.20000004768372","img/flower3.png","76","206.19999992847443","3","1","1","2","1,0,0,1,1,0,1,0,1","0,0,1,1,0,1,0,1,1","2",""
"","html-keyboard-response","47","25620","0.0-47.0","","","","","null","<img src=""img/flower3.png"" style=""width:200px; border:14px solid green;"">","null","","","","","","","","",""
"","image-keyboard-response","48","25852","0.0-48.0","","","","","231.30000007152557","img/flower3.png","76","231.89999997615814","3","1","1","2","1,0,0,1,1,0,1,0,1","0,0,1,1,0,1,0,1,1","2",""
"","html-keyboard-response","49","26153","0.0-49.0","","","","","null","<img src=""img/flower3.png"" style=""width:200px; border:14px solid green;"">","null","","","","","","","","",""
"","image-keyboard-response","50","26351","0.0-50.0","","","","","197.09999990463257","img/flower2.png","76","198.20000004768372","3","1","2","2","1,0,0,1,1,0,1,0,1","0,0,1,1,0,1,0,1,1","2",""
"","html-keyboard-response","51","26653","0.0-51.0","","","","","null","<img src=""img/flower2.png"" style=""width:200px; border:14px solid green;"">","null","","","","","","","","",""
"","image-keyboard-response","52","26855","0.0-52.0","","","","","200.70000004768372","img/flower2.png","76","201.60000002384186","3","1","2","2","1,0,0,1,1,0,1,0,1","0,0,1,1,0,1,0,1,1","2",""
"","html-keyboard-response","53","27156","0.0-53.0","","","","","null","<img src=""img/flower2.png"" style=""width:200px; border:14px solid green;"">","null","","","","","","","","",""
"","image-keyboard-response","54","27353","0.0-54.0","","","","","196","img/flower3.png","76","196.89999997615814","3","1","1","2","1,0,0,1,1,0,1,0,1","0,0,1,1,0,1,0,1,1","2",""
"","html-keyboard-response","55","27656","0.0-55.0","","","","","null","<img src=""img/flower3.png"" style=""width:200px; border:14px solid green;"">","null","","","","","","","","",""
"","image-keyboard-response","56","27801","0.0-56.0","","","","","144.79999995231628","img/flower2.png","76","145.60000002384186","3","1","2","2","1,0,0,1,1,0,1,0,1","0,0,1,1,0,1,0,1,1","2",""
"","html-keyboard-response","57","28103","0.0-57.0","","","","","null","<img src=""img/flower2.png"" style=""width:200px; border:14px solid green;"">","null","","","","","","","","",""
"","image-keyboard-response","58","28261","0.0-58.0","","","","","156.90000009536743","img/flower3.png","76","157.89999997615814","3","1","1","2","1,0,0,1,1,0,1,0,1","0,0,1,1,0,1,0,1,1","2",""
"","html-keyboard-response","59","28562","0.0-59.0","","","","","null","<img src=""img/flower3.png"" style=""width:200px; border:14px solid green;"">","null","","","","","","","","",""
"","image-keyboard-response","60","28605","0.0-60.0","","","","","41.5","img/flower5.png","74","42.699999928474426","1","0","3","2","1,0,0,1,1,0,1,0,1","0,0,1,1,0,1,0,1,1","2",""
"","html-keyboard-response","61","28907","0.0-61.0","","","","","null","<img src=""img/flower5.png"" style=""width:200px;border:14px solid red;"">","null","","","","","","","","",""
"","image-keyboard-response","62","29010","0.0-62.0","","","","","101.19999992847443","img/flower3.png","74","102.20000004768372","1","0","1","2","1,0,0,1,1,0,1,0,1","0,0,1,1,0,1,0,1,1","2",""
"","html-keyboard-response","63","29316","0.0-63.0","","","","","null","<img src=""img/flower3.png"" style=""width:200px;border:14px solid red;"">","null","","","","","","","","",""
"","image-keyboard-response","64","29358","0.0-64.0","","","","","40.10000002384186","img/flower5.png","74","41.200000047683716","1","0","3","2","1,0,0,1,1,0,1,0,1","0,0,1,1,0,1,0,1,1","2",""
"","html-keyboard-response","65","29659","0.0-65.0","","","","","null","<img src=""img/flower5.png"" style=""width:200px;border:14px solid red;"">","null","","","","","","","","",""
"","image-keyboard-response","66","29853","0.0-66.0","","","","","192.39999997615814","img/flower5.png","76","193.39999997615814","3","1","3","2","1,0,0,1,1,0,1,0,1","0,0,1,1,0,1,0,1,1","2",""
"","html-keyboard-response","67","30155","0.0-67.0","","","","","null","<img src=""img/flower5.png"" style=""width:200px; border:14px solid green;"">","null","","","","","","","","",""
"","image-keyboard-response","68","30421","0.0-68.0","","","","","265.10000002384186","img/flower5.png","76","265.89999997615814","3","1","3","2","1,0,0,1,1,0,1,0,1","0,0,1,1,0,1,0,1,1","2",""
"","html-keyboard-response","69","30722","0.0-69.0","","","","","null","<img src=""img/flower5.png"" style=""width:200px; border:14px solid green;"">","null","","","","","","","","",""
"","image-keyboard-response","70","31000","0.0-70.0","","","","","276.3000000715256","img/flower3.png","76","277.09999990463257","3","1","1","2","1,0,0,1,1,0,1,0,1","0,0,1,1,0,1,0,1,1","2",""
"","html-keyboard-response","71","31302","0.0-71.0","","","","","null","<img src=""img/flower3.png"" style=""width:200px; border:14px solid green;"">","null","","","","","","","","",""
"","image-keyboard-response","72","31547","0.0-72.0","","","","","244.09999990463257","img/flower5.png","76","245.20000004768372","3","1","3","2","1,0,0,1,1,0,1,0,1","0,0,1,1,0,1,0,1,1","2",""
"","html-keyboard-response","73","31849","0.0-73.0","","","","","null","<img src=""img/flower5.png"" style=""width:200px; border:14px solid green;"">","null","","","","","","","","",""
"","image-keyboard-response","74","32072","0.0-74.0","","","","","221.20000004768372","img/flower2.png","76","221.80000007152557","3","1","2","2","1,0,0,1,1,0,1,0,1","0,0,1,1,0,1,0,1,1","2",""
"","html-keyboard-response","75","32373","0.0-75.0","","","","","null","<img src=""img/flower2.png"" style=""width:200px; border:14px solid green;"">","null","","","","","","","","",""
"","image-keyboard-response","76","32495","0.0-76.0","","","","","120.89999997615814","img/flower3.png","74","121.30000007152557","1","0","1","2","1,0,0,1,1,0,1,0,1","0,0,1,1,0,1,0,1,1","2",""
"","html-keyboard-response","77","32796","0.0-77.0","","","","","null","<img src=""img/flower3.png"" style=""width:200px;border:14px solid red;"">","null","","","","","","","","",""
"","image-keyboard-response","78","32908","0.0-78.0","","","","","111.5","img/flower5.png","74","111.89999997615814","1","0","3","2","1,0,0,1,1,0,1,0,1","0,0,1,1,0,1,0,1,1","2",""
"","html-keyboard-response","79","33210","0.0-79.0","","","","","null","<img src=""img/flower5.png"" style=""width:200px;border:14px solid red;"">","null","","","","","","","","",""
"","image-keyboard-response","80","33452","0.0-80.0","","","","","241.10000002384186","img/flower5.png","76","241.79999995231628","3","1","3","2","1,0,0,1,1,0,1,0,1","0,0,1,1,0,1,0,1,1","2",""
"","html-keyboard-response","81","33753","0.0-81.0","","","","","null","<img src=""img/flower5.png"" style=""width:200px; border:14px solid green;"">","null","","","","","","","","",""
"","image-keyboard-response","82","33891","0.0-82.0","","","","","137.20000004768372","img/flower2.png","75","137.80000007152557","2","0","2","2","1,0,0,1,1,0,1,0,1","0,0,1,1,0,1,0,1,1","2",""
"","html-keyboard-response","83","34192","0.0-83.0","","","","","null","<img src=""img/flower2.png"" style=""width:200px;border:14px solid red;"">","null","","","","","","","","",""
"","image-keyboard-response","84","34321","0.0-84.0","","","","","128","img/flower2.png","74","128.69999992847443","1","1","2","2","1,0,0,1,1,0,1,0,1","0,0,1,1,0,1,0,1,1","2",""
"","html-keyboard-response","85","34623","0.0-85.0","","","","","null","<img src=""img/flower2.png"" style=""width:200px; border:14px solid green;"">","null","","","","","","","","",""
"","image-keyboard-response","86","34910","0.0-86.0","","","","","285.39999997615814","img/flower5.png","76","286.3000000715256","3","1","3","2","1,0,0,1,1,0,1,0,1","0,0,1,1,0,1,0,1,1","2",""
"","html-keyboard-response","87","35211","0.0-87.0","","","","","null","<img src=""img/flower5.png"" style=""width:200px; border:14px solid green;"">","null","","","","","","","","",""
"","image-keyboard-response","88","35273","0.0-88.0","","","","","60.39999997615814","img/flower2.png","76","61.39999997615814","3","1","2","2","1,0,0,1,1,0,1,0,1","0,0,1,1,0,1,0,1,1","2",""
"","html-keyboard-response","89","35582","0.0-89.0","","","","","null","<img src=""img/flower2.png"" style=""width:200px; border:14px solid green;"">","null","","","","","","","","",""
"","image-keyboard-response","90","35796","0.0-90.0","","","","","213.19999992847443","img/flower2.png","76","213.89999997615814","3","1","2","2","1,0,0,1,1,0,1,0,1","0,0,1,1,0,1,0,1,1","2",""
"","html-keyboard-response","91","36098","0.0-91.0","","","","","null","<img src=""img/flower2.png"" style=""width:200px; border:14px solid green;"">","null","","","","","","","","",""
"","image-keyboard-response","92","36306","0.0-92.0","","","","","206.79999995231628","img/flower3.png","76","207.90000009536743","3","1","1","2","1,0,0,1,1,0,1,0,1","0,0,1,1,0,1,0,1,1","2",""
"","html-keyboard-response","93","36607","0.0-93.0","","","","","null","<img src=""img/flower3.png"" style=""width:200px; border:14px solid green;"">","null","","","","","","","","",""
"","image-keyboard-response","94","36814","0.0-94.0","","","","","205.89999997615814","img/flower5.png","76","206.89999997615814","3","1","3","2","1,0,0,1,1,0,1,0,1","0,0,1,1,0,1,0,1,1","2",""
"","html-keyboard-response","95","37116","0.0-95.0","","","","","null","<img src=""img/flower5.png"" style=""width:200px; border:14px solid green;"">","null","","","","","","","","",""
"","image-keyboard-response","96","37298","0.0-96.0","","","","","180.60000002384186","img/flower2.png","76","181.60000002384186","3","1","2","2","1,0,0,1,1,0,1,0,1","0,0,1,1,0,1,0,1,1","2",""
"","html-keyboard-response","97","37600","0.0-97.0","","","","","null","<img src=""img/flower2.png"" style=""width:200px; border:14px solid green;"">","null","","","","","","","","",""
"","image-keyboard-response","98","37751","0.0-98.0","","","","","150.39999997615814","img/flower3.png","76","151.39999997615814","3","1","1","2","1,0,0,1,1,0,1,0,1","0,0,1,1,0,1,0,1,1","2",""
"","html-keyboard-response","99","38062","0.0-99.0","","","","","null","<img src=""img/flower3.png"" style=""width:200px; border:14px solid green;"">","null","","","","","","","","",""
"","image-keyboard-response","100","38180","0.0-100.0","","","","","117.29999995231628","img/flower5.png","76","118.20000004768372","3","1","3","2","1,0,0,1,1,0,1,0,1","0,0,1,1,0,1,0,1,1","2",""
"","html-keyboard-response","101","38482","0.0-101.0","","","","","null","<img src=""img/flower5.png"" style=""width:200px; border:14px solid green;"">","null","","","","","","","","",""
"","image-keyboard-response","102","38694","0.0-102.0","","","","","210.70000004768372","img/flower5.png","76","211.79999995231628","3","1","3","2","1,0,0,1,1,0,1,0,1","0,0,1,1,0,1,0,1,1","2",""
"","html-keyboard-response","103","38996","0.0-103.0","","","","","null","<img src=""img/flower5.png"" style=""width:200px; border:14px solid green;"">","null","","","","","","","","",""
"","image-keyboard-response","104","39173","0.0-104.0","","","","","175.80000007152557","img/flower3.png","76","176.89999997615814","3","1","1","2","1,0,0,1,1,0,1,0,1","0,0,1,1,0,1,0,1,1","2",""
"","html-keyboard-response","105","39474","0.0-105.0","","","","","null","<img src=""img/flower3.png"" style=""width:200px; border:14px solid green;"">","null","","","","","","","","",""
"","image-keyboard-response","106","39477","0.0-106.0","","","","","1.600000023841858","img/flower2.png","76","2.399999976158142","3","1","2","2","1,0,0,1,1,0,1,0,1","0,0,1,1,0,1,0,1,1","2",""
"","html-keyboard-response","107","39778","0.0-107.0","","","","","null","<img src=""img/flower2.png"" style=""width:200px; border:14px solid green;"">","null","","","","","","","","",""
"","image-keyboard-response","108","40011","0.0-108.0","","","","","231.79999995231628","img/flower3.png","76","232.40000009536743","3","1","1","2","1,0,0,1,1,0,1,0,1","0,0,1,1,0,1,0,1,1","2",""
"","html-keyboard-response","109","40313","0.0-109.0","","","","","null","<img src=""img/flower3.png"" style=""width:200px; border:14px solid green;"">","null","","","","","","","","",""
"","image-keyboard-response","110","40515","0.0-110.0","","","","","200.20000004768372","img/flower5.png","76","201.29999995231628","3","1","3","2","1,0,0,1,1,0,1,0,1","0,0,1,1,0,1,0,1,1","2",""
"","html-keyboard-response","111","40816","0.0-111.0","","","","","null","<img src=""img/flower5.png"" style=""width:200px; border:14px solid green;"">","null","","","","","","","","",""
"","image-keyboard-response","112","41028","0.0-112.0","","","","","211.10000002384186","img/flower5.png","76","212","3","1","3","2","1,0,0,1,1,0,1,0,1","0,0,1,1,0,1,0,1,1","2",""
"","html-keyboard-response","113","41330","0.0-113.0","","","","","null","<img src=""img/flower5.png"" style=""width:200px; border:14px solid green;"">","null","","","","","","","","",""
"","image-keyboard-response","114","41632","0.0-114.0","","","","","301","img/flower3.png","76","302","3","1","1","2","1,0,0,1,1,0,1,0,1","0,0,1,1,0,1,0,1,1","2",""
"","html-keyboard-response","115","41934","0.0-115.0","","","","","null","<img src=""img/flower3.png"" style=""width:200px; border:14px solid green;"">","null","","","","","","","","",""
"","image-keyboard-response","116","41995","0.0-116.0","","","","","60.200000047683716","img/flower2.png","74","60.800000071525574","1","1","2","2","1,0,0,1,1,0,1,0,1","0,0,1,1,0,1,0,1,1","2",""
"","html-keyboard-response","117","42297","0.0-117.0","","","","","null","<img src=""img/flower2.png"" style=""width:200px; border:14px solid green;"">","null","","","","","","","","",""
"","image-keyboard-response","118","42324","0.0-118.0","","","","","26.799999952316284","img/flower2.png","74","27.199999928474426","1","1","2","2","1,0,0,1,1,0,1,0,1","0,0,1,1,0,1,0,1,1","2",""
"","html-keyboard-response","119","42625","0.0-119.0","","","","","null","<img src=""img/flower2.png"" style=""width:200px; border:14px solid green;"">","null","","","","","","","","",""
"","image-keyboard-response","120","42699","0.0-120.0","","","","","72.5","img/flower5.png","76","73.39999997615814","3","1","3","2","1,0,0,1,1,0,1,0,1","0,0,1,1,0,1,0,1,1","2",""
"","html-keyboard-response","121","43000","0.0-121.0","","","","","null","<img src=""img/flower5.png"" style=""width:200px; border:14px solid green;"">","null","","","","","","","","",""
"","image-keyboard-response","122","43099","0.0-122.0","","","","","97.60000002384186","img/flower3.png","74","98.60000002384186","1","0","1","2","1,0,0,1,1,0,1,0,1","0,0,1,1,0,1,0,1,1","2",""
"","html-keyboard-response","123","43400","0.0-123.0","","","","","null","<img src=""img/flower3.png"" style=""width:200px;border:14px solid red;"">","null","","","","","","","","",""
"","image-keyboard-response","124","43861","0.0-124.0","","","","","459.2000000476837","img/flower5.png","75","460.09999990463257","2","1","3","2","1,0,0,1,1,0,1,0,1","0,0,1,1,0,1,0,1,1","2",""
"","html-keyboard-response","125","44162","0.0-125.0","","","","","null","<img src=""img/flower5.png"" style=""width:200px; border:14px solid green;"">","null","","","","","","","","",""
"","image-keyboard-response","126","44269","0.0-126.0","","","","","105.70000004768372","img/flower3.png","76","106.5","3","1","1","2","1,0,0,1,1,0,1,0,1","0,0,1,1,0,1,0,1,1","2",""
"","html-keyboard-response","127","44570","0.0-127.0","","","","","null","<img src=""img/flower3.png"" style=""width:200px; border:14px solid green;"">","null","","","","","","","","",""
"","image-keyboard-response","128","44754","0.0-128.0","","","","","182.70000004768372","img/flower5.png","75","183.59999990463257","2","1","3","2","1,0,0,1,1,0,1,0,1","0,0,1,1,0,1,0,1,1","2",""
"","html-keyboard-response","129","45056","0.0-129.0","","","","","null","<img src=""img/flower5.png"" style=""width:200px; border:14px solid green;"">","null","","","","","","","","",""
"","image-keyboard-response","130","45227","0.0-130.0","","","","","170.5","img/flower3.png","75","171","2","0","1","2","1,0,0,1,1,0,1,0,1","0,0,1,1,0,1,0,1,1","2",""
"","html-keyboard-response","131","45528","0.0-131.0","","","","","null","<img src=""img/flower3.png"" style=""width:200px;border:14px solid red;"">","null","","","","","","","","",""
"","image-keyboard-response","132","45671","0.0-132.0","","","","","141.79999995231628","img/flower5.png","75","142.80000007152557","2","1","3","2","1,0,0,1,1,0,1,0,1","0,0,1,1,0,1,0,1,1","2",""
"","html-keyboard-response","133","45973","0.0-133.0","","","","","null","<img src=""img/flower5.png"" style=""width:200px; border:14px solid green;"">","null","","","","","","","","",""
"","image-keyboard-response","134","46170","0.0-134.0","","","","","195.60000002384186","img/flower2.png","76","196.29999995231628","3","1","2","2","1,0,0,1,1,0,1,0,1","0,0,1,1,0,1,0,1,1","2",""
"","html-keyboard-response","135","46471","0.0-135.0","","","","","null","<img src=""img/flower2.png"" style=""width:200px; border:14px solid green;"">","null","","","","","","","","",""
"","image-keyboard-response","136","46485","0.0-136.0","","","","","12.699999928474426","img/flower3.png","76","13.600000023841858","3","1","1","2","1,0,0,1,1,0,1,0,1","0,0,1,1,0,1,0,1,1","2",""
"","html-keyboard-response","137","46786","0.0-137.0","","","","","null","<img src=""img/flower3.png"" style=""width:200px; border:14px solid green;"">","null","","","","","","","","",""
"","image-keyboard-response","138","47029","0.0-138.0","","","","","241.80000007152557","img/flower2.png","76","242.70000004768372","3","1","2","2","1,0,0,1,1,0,1,0,1","0,0,1,1,0,1,0,1,1","2",""
"","html-keyboard-response","139","47331","0.0-139.0","","","","","null","<img src=""img/flower2.png"" style=""width:200px; border:14px solid green;"">","null","","","","","","","","",""
"","image-keyboard-response","140","47517","0.0-140.0","","","","","185","img/flower5.png","76","185.89999997615814","3","1","3","2","1,0,0,1,1,0,1,0,1","0,0,1,1,0,1,0,1,1","2",""
"","html-keyboard-response","141","47819","0.0-141.0","","","","","null","<img src=""img/flower5.png"" style=""width:200px; border:14px solid green;"">","null","","","","","","","","",""
"","image-keyboard-response","142","47995","0.0-142.0","","","","","175.5","img/flower5.png","76","176.39999997615814","3","1","3","2","1,0,0,1,1,0,1,0,1","0,0,1,1,0,1,0,1,1","2",""
"","html-keyboard-response","143","48297","0.0-143.0","","","","","null","<img src=""img/flower5.png"" style=""width:200px; border:14px solid green;"">","null","","","","","","","","",""
"","image-keyboard-response","144","48500","0.0-144.0","","","","","201.80000007152557","img/flower2.png","76","202.79999995231628","3","1","2","2","1,0,0,1,1,0,1,0,1","0,0,1,1,0,1,0,1,1","2",""
"","html-keyboard-response","145","48814","0.0-145.0","","","","","null","<img src=""img/flower2.png"" style=""width:200px; border:14px solid green;"">","null","","","","","","","","",""
"","image-keyboard-response","146","48962","0.0-146.0","","","","","147.39999997615814","img/flower2.png","76","148","3","1","2","2","1,0,0,1,1,0,1,0,1","0,0,1,1,0,1,0,1,1","2",""
"","html-keyboard-response","147","49264","0.0-147.0","","","","","null","<img src=""img/flower2.png"" style=""width:200px; border:14px solid green;"">","null","","","","","","","","",""
"","image-keyboard-response","148","49371","0.0-148.0","","","","","106.19999992847443","img/flower5.png","76","106.70000004768372","3","1","3","2","1,0,0,1,1,0,1,0,1","0,0,1,1,0,1,0,1,1","2",""
"","html-keyboard-response","149","49673","0.0-149.0","","","","","null","<img src=""img/flower5.png"" style=""width:200px; border:14px solid green;"">","null","","","","","","","","",""
"","image-keyboard-response","150","50056","0.0-150.0","","","","","381.5","img/flower2.png","76","382.39999997615814","3","1","2","2","1,0,0,1,1,0,1,0,1","0,0,1,1,0,1,0,1,1","2",""
"","html-keyboard-response","151","50358","0.0-151.0","","","","","null","<img src=""img/flower2.png"" style=""width:200px; border:14px solid green;"">","null","","","","","","","","",""
"","image-keyboard-response","152","50459","0.0-152.0","","","","","99.79999995231628","img/flower3.png","76","100.79999995231628","3","1","1","2","1,0,0,1,1,0,1,0,1","0,0,1,1,0,1,0,1,1","2",""
"","html-keyboard-response","153","50760","0.0-153.0","","","","","null","<img src=""img/flower3.png"" style=""width:200px; border:14px solid green;"">","null","","","","","","","","",""
"","image-keyboard-response","154","50858","0.0-154.0","","","","","97","img/flower3.png","76","97.69999992847443","3","1","1","2","1,0,0,1,1,0,1,0,1","0,0,1,1,0,1,0,1,1","2",""
"","html-keyboard-response","155","51159","0.0-155.0","","","","","null","<img src=""img/flower3.png"" style=""width:200px; border:14px solid green;"">","null","","","","","","","","",""
"","image-keyboard-response","156","51282","0.0-156.0","","","","","122.5","img/flower2.png","76","123.5","3","1","2","2","1,0,0,1,1,0,1,0,1","0,0,1,1,0,1,0,1,1","2",""
"","html-keyboard-response","157","51584","0.0-157.0","","","","","null","<img src=""img/flower2.png"" style=""width:200px; border:14px solid green;"">","null","","","","","","","","",""
"","image-keyboard-response","158","51596","0.0-158.0","","","","","11.600000023841858","img/flower2.png","76","12.700000047683716","3","1","2","2","1,0,0,1,1,0,1,0,1","0,0,1,1,0,1,0,1,1","2",""
"","html-keyboard-response","159","51898","0.0-159.0","","","","","null","<img src=""img/flower2.png"" style=""width:200px; border:14px solid green;"">","null","","","","","","","","",""
"","image-keyboard-response","160","51965","0.0-160.0","","","","","65.5","img/flower2.png","76","66.29999995231628","3","1","2","2","1,0,0,1,1,0,1,0,1","0,0,1,1,0,1,0,1,1","2",""
"","html-keyboard-response","161","52275","0.0-161.0","","","","","null","<img src=""img/flower2.png"" style=""width:200px; border:14px solid green;"">","null","","","","","","","","",""
"","image-keyboard-response","162","52360","0.0-162.0","","","","","83","img/flower2.png","76","84","3","1","2","2","1,0,0,1,1,0,1,0,1","0,0,1,1,0,1,0,1,1","2",""
"","html-keyboard-response","163","52662","0.0-163.0","","","","","null","<img src=""img/flower2.png"" style=""width:200px; border:14px solid green;"">","null","","","","","","","","",""
"","image-keyboard-response","164","52791","0.0-164.0","","","","","127.90000009536743","img/flower2.png","76","129","3","1","2","2","1,0,0,1,1,0,1,0,1","0,0,1,1,0,1,0,1,1","2",""
"","html-keyboard-response","165","53092","0.0-165.0","","","","","null","<img src=""img/flower2.png"" style=""width:200px; border:14px solid green;"">","null","","","","","","","","",""
"","image-keyboard-response","166","53276","0.0-166.0","","","","","183.30000007152557","img/flower3.png","76","184","3","1","1","2","1,0,0,1,1,0,1,0,1","0,0,1,1,0,1,0,1,1","2",""
"","html-keyboard-response","167","53578","0.0-167.0","","","","","null","<img src=""img/flower3.png"" style=""width:200px; border:14px solid green;"">","null","","","","","","","","",""
"","image-keyboard-response","168","53586","0.0-168.0","","","","","7","img/flower3.png","76","8.199999928474426","3","1","1","2","1,0,0,1,1,0,1,0,1","0,0,1,1,0,1,0,1,1","2",""
"","html-keyboard-response","169","53889","0.0-169.0","","","","","null","<img src=""img/flower3.png"" style=""width:200px; border:14px solid green;"">","null","","","","","","","","",""
"","image-keyboard-response","170","54027","0.0-170.0","","","","","136.89999997615814","img/flower2.png","76","137.89999997615814","3","1","2","2","1,0,0,1,1,0,1,0,1","0,0,1,1,0,1,0,1,1","2",""
"","html-keyboard-response","171","54329","0.0-171.0","","","","","null","<img src=""img/flower2.png"" style=""width:200px; border:14px solid green;"">","null","","","","","","","","",""
"","image-keyboard-response","172","54455","0.0-172.0","","","","","124.70000004768372","img/flower5.png","76","125.69999992847443","3","1","3","2","1,0,0,1,1,0,1,0,1","0,0,1,1,0,1,0,1,1","2",""
"","html-keyboard-response","173","54758","0.0-173.0","","","","","null","<img src=""img/flower5.png"" style=""width:200px; border:14px solid green;"">","null","","","","","","","","",""
"","image-keyboard-response","174","54798","0.0-174.0","","","","","38.89999997615814","img/flower2.png","76","39.700000047683716","3","1","2","2","1,0,0,1,1,0,1,0,1","0,0,1,1,0,1,0,1,1","2",""
"","html-keyboard-response","175","55099","0.0-175.0","","","","","null","<img src=""img/flower2.png"" style=""width:200px; border:14px solid green;"">","null","","","","","","","","",""
"","image-keyboard-response","176","55103","0.0-176.0","","","","","2.399999976158142","img/flower3.png","76","3.100000023841858","3","1","1","2","1,0,0,1,1,0,1,0,1","0,0,1,1,0,1,0,1,1","2",""
"","html-keyboard-response","177","55404","0.0-177.0","","","","","null","<img src=""img/flower3.png"" style=""width:200px; border:14px solid green;"">","null","","","","","","","","",""
"","image-keyboard-response","178","55547","0.0-178.0","","","","","141.69999992847443","img/flower5.png","76","142.70000004768372","3","1","3","2","1,0,0,1,1,0,1,0,1","0,0,1,1,0,1,0,1,1","2",""
"","html-keyboard-response","179","55848","0.0-179.0","","","","","null","<img src=""img/flower5.png"" style=""width:200px; border:14px solid green;"">","null","","","","","","","","",""
"","image-keyboard-response","180","55900","0.0-180.0","","","","","50.39999997615814","img/flower3.png","76","51.40000009536743","3","1","1","2","1,0,0,1,1,0,1,0,1","0,0,1,1,0,1,0,1,1","2",""
"","html-keyboard-response","181","56202","0.0-181.0","","","","","null","<img src=""img/flower3.png"" style=""width:200px; border:14px solid green;"">","null","","","","","","","","",""
"","image-keyboard-response","182","56310","0.0-182.0","","","","","106.5","img/flower6.png","76","107.39999997615814","3","0","2","1","1,0.333,0.333,0.333,1,0.333,0.333,0.333,1","1,0.333,0.333,0.333,1,0.333,0.333,0.333,1","1",""
"","html-keyboard-response","183","56612","0.0-183.0","","","","","null","<img src=""img/flower6.png"" style=""width:200px;border:14px solid red;"">","null","","","","","","","","",""
"","image-keyboard-response","184","56792","0.0-184.0","","","","","178.89999997615814","img/flower1.png","76","180","3","0","1","1","1,0.333,0.333,0.333,1,0.333,0.333,0.333,1","1,0.333,0.333,0.333,1,0.333,0.333,0.333,1","1",""
"","html-keyboard-response","185","57094","0.0-185.0","","","","","null","<img src=""img/flower1.png"" style=""width:200px;border:14px solid red;"">","null","","","","","","","","",""
"","image-keyboard-response","186","57261","0.0-186.0","","","","","166","img/flower6.png","76","166.60000002384186","3","0","2","1","1,0.333,0.333,0.333,1,0.333,0.333,0.333,1","1,0.333,0.333,0.333,1,0.333,0.333,0.333,1","1",""
"","html-keyboard-response","187","57563","0.0-187.0","","","","","null","<img src=""img/flower6.png"" style=""width:200px;border:14px solid red;"">","null","","","","","","","","",""
"","image-keyboard-response","188","57596","0.0-188.0","","","","","31.399999976158142","img/flower6.png","76","32.39999997615814","3","0","2","1","1,0.333,0.333,0.333,1,0.333,0.333,0.333,1","1,0.333,0.333,0.333,1,0.333,0.333,0.333,1","1",""
"","html-keyboard-response","189","57898","0.0-189.0","","","","","null","<img src=""img/flower6.png"" style=""width:200px;border:14px solid red;"">","null","","","","","","","","",""
"","image-keyboard-response","190","57969","0.0-190.0","","","","","70.19999992847443","img/flower4.png","75","71.10000002384186","2","0","3","1","1,0.333,0.333,0.333,1,0.333,0.333,0.333,1","1,0.333,0.333,0.333,1,0.333,0.333,0.333,1","1",""
"","html-keyboard-response","191","58271","0.0-191.0","","","","","null","<img src=""img/flower4.png"" style=""width:200px;border:14px solid red;"">","null","","","","","","","","",""
"","image-keyboard-response","192","58409","0.0-192.0","","","","","137.29999995231628","img/flower1.png","75","138.20000004768372","2","0","1","1","1,0.333,0.333,0.333,1,0.333,0.333,0.333,1","1,0.333,0.333,0.333,1,0.333,0.333,0.333,1","1",""
"","html-keyboard-response","193","58711","0.0-193.0","","","","","null","<img src=""img/flower1.png"" style=""width:200px;border:14px solid red;"">","null","","","","","","","","",""
"","image-keyboard-response","194","58837","0.0-194.0","","","","","125.59999990463257","img/flower6.png","75","126.39999997615814","2","1","2","1","1,0.333,0.333,0.333,1,0.333,0.333,0.333,1","1,0.333,0.333,0.333,1,0.333,0.333,0.333,1","1",""
"","html-keyboard-response","195","59139","0.0-195.0","","","","","null","<img src=""img/flower6.png"" style=""width:200px; border:14px solid green;"">","null","","","","","","","","",""
"","image-keyboard-response","196","59456","0.0-196.0","","","","","316.59999990463257","img/flower4.png","75","317.3000000715256","2","0","3","1","1,0.333,0.333,0.333,1,0.333,0.333,0.333,1","1,0.333,0.333,0.333,1,0.333,0.333,0.333,1","1",""
"","html-keyboard-response","197","59758","0.0-197.0","","","","","null","<img src=""img/flower4.png"" style=""width:200px;border:14px solid red;"">","null","","","","","","","","",""
"","image-keyboard-response","198","59905","0.0-198.0","","","","","145.70000004768372","img/flower1.png","74","146.5","1","1","1","1","1,0.333,0.333,0.333,1,0.333,0.333,0.333,1","1,0.333,0.333,0.333,1,0.333,0.333,0.333,1","1",""
"","html-keyboard-response","199","60206","0.0-199.0","","","","","null","<img src=""img/flower1.png"" style=""width:200px; border:14px solid green;"">","null","","","","","","","","",""
"","image-keyboard-response","200","60314","0.0-200.0","","","","","106.29999995231628","img/flower1.png","74","107.29999995231628","1","1","1","1","1,0.333,0.333,0.333,1,0.333,0.333,0.333,1","1,0.333,0.333,0.333,1,0.333,0.333,0.333,1","1",""
"","html-keyboard-response","201","60616","0.0-201.0","","","","","null","<img src=""img/flower1.png"" style=""width:200px; border:14px solid green;"">","null","","","","","","","","",""
"","image-keyboard-response","202","60677","0.0-202.0","","","","","60.60000002384186","img/flower1.png","74","61.199999928474426","1","1","1","1","1,0.333,0.333,0.333,1,0.333,0.333,0.333,1","1,0.333,0.333,0.333,1,0.333,0.333,0.333,1","1",""
"","html-keyboard-response","203","60993","0.0-203.0","","","","","null","<img src=""img/flower1.png"" style=""width:200px; border:14px solid green;"">","null","","","","","","","","",""
"","image-keyboard-response","204","61023","0.0-204.0","","","","","28.100000023841858","img/flower6.png","74","29.199999928474426","1","1","2","1","1,0.333,0.333,0.333,1,0.333,0.333,0.333,1","1,0.333,0.333,0.333,1,0.333,0.333,0.333,1","1",""
"","html-keyboard-response","205","61324","0.0-205.0","","","","","null","<img src=""img/flower6.png"" style=""width:200px; border:14px solid green;"">","null","","","","","","","","",""
"","image-keyboard-response","206","61596","0.0-206.0","","","","","270.60000002384186","img/flower6.png","75","271.3000000715256","2","1","2","1","1,0.333,0.333,0.333,1,0.333,0.333,0.333,1","1,0.333,0.333,0.333,1,0.333,0.333,0.333,1","1",""
"","html-keyboard-response","207","61897","0.0-207.0","","","","","null","<img src=""img/flower6.png"" style=""width:200px; border:14px solid green;"">","null","","","","","","","","",""
"","image-keyboard-response","208","62070","0.0-208.0","","","","","171.89999997615814","img/flower1.png","74","172.79999995231628","1","1","1","1","1,0.333,0.333,0.333,1,0.333,0.333,0.333,1","1,0.333,0.333,0.333,1,0.333,0.333,0.333,1","1",""
"","html-keyboard-response","209","62373","0.0-209.0","","","","","null","<img src=""img/flower1.png"" style=""width:200px; border:14px solid green;"">","null","","","","","","","","",""
"","image-keyboard-response","210","63062","0.0-210.0","","","","","688","img/flower4.png","74","688.9000000953674","1","0","3","1","1,0.333,0.333,0.333,1,0.333,0.333,0.333,1","1,0.333,0.333,0.333,1,0.333,0.333,0.333,1","1",""
"","html-keyboard-response","211","63364","0.0-211.0","","","","","null","<img src=""img/flower4.png"" style=""width:200px;border:14px solid red;"">","null","","","","","","","","",""
"","image-keyboard-response","212","63366","0.0-212.0","","","","","0.6999999284744263","img/flower1.png","75","1.600000023841858","2","0","1","1","1,0.333,0.333,0.333,1,0.333,0.333,0.333,1","1,0.333,0.333,0.333,1,0.333,0.333,0.333,1","1",""
"","html-keyboard-response","213","63668","0.0-213.0","","","","","null","<img src=""img/flower1.png"" style=""width:200px;border:14px solid red;"">","null","","","","","","","","",""
"","image-keyboard-response","214","63805","0.0-214.0","","","","","136.09999990463257","img/flower6.png","75","137","2","1","2","1","1,0.333,0.333,0.333,1,0.333,0.333,0.333,1","1,0.333,0.333,0.333,1,0.333,0.333,0.333,1","1",""
"","html-keyboard-response","215","64107","0.0-215.0","","","","","null","<img src=""img/flower6.png"" style=""width:200px; border:14px solid green;"">","null","","","","","","","","",""
"","image-keyboard-response","216","64204","0.0-216.0","","","","","96.20000004768372","img/flower6.png","76","97.19999992847443","3","1","2","1","1,0.333,0.333,0.333,1,0.333,0.333,0.333,1","1,0.333,0.333,0.333,1,0.333,0.333,0.333,1","1",""
"","html-keyboard-response","217","64506","0.0-217.0","","","","","null","<img src=""img/flower6.png"" style=""width:200px; border:14px solid green;"">","null","","","","","","","","",""
"","image-keyboard-response","218","64697","0.0-218.0","","","","","190.39999997615814","img/flower1.png","76","191.10000002384186","3","0","1","1","1,0.333,0.333,0.333,1,0.333,0.333,0.333,1","1,0.333,0.333,0.333,1,0.333,0.333,0.333,1","1",""
"","html-keyboard-response","219","64998","0.0-219.0","","","","","null","<img src=""img/flower1.png"" style=""width:200px;border:14px solid red;"">","null","","","","","","","","",""
"","image-keyboard-response","220","65009","0.0-220.0","","","","","9.399999976158142","img/flower6.png","76","10.399999976158142","3","0","2","1","1,0.333,0.333,0.333,1,0.333,0.333,0.333,1","1,0.333,0.333,0.333,1,0.333,0.333,0.333,1","1",""
"","html-keyboard-response","221","65310","0.0-221.0","","","","","null","<img src=""img/flower6.png"" style=""width:200px;border:14px solid red;"">","null","","","","","","","","",""
"","image-keyboard-response","222","65491","0.0-222.0","","","","","179.30000007152557","img/flower1.png","75","180.39999997615814","2","0","1","1","1,0.333,0.333,0.333,1,0.333,0.333,0.333,1","1,0.333,0.333,0.333,1,0.333,0.333,0.333,1","1",""
"","html-keyboard-response","223","65792","0.0-223.0","","","","","null","<img src=""img/flower1.png"" style=""width:200px;border:14px solid red;"">","null","","","","","","","","",""
"","image-keyboard-response","224","65920","0.0-224.0","","","","","126.59999990463257","img/flower6.png","74","127.60000002384186","1","0","2","1","1,0.333,0.333,0.333,1,0.333,0.333,0.333,1","1,0.333,0.333,0.333,1,0.333,0.333,0.333,1","1",""
"","html-keyboard-response","225","66222","0.0-225.0","","","","","null","<img src=""img/flower6.png"" style=""width:200px;border:14px solid red;"">","null","","","","","","","","",""
"","image-keyboard-response","226","66263","0.0-226.0","","","","","40","img/flower4.png","74","40.89999997615814","1","0","3","1","1,0.333,0.333,0.333,1,0.333,0.333,0.333,1","1,0.333,0.333,0.333,1,0.333,0.333,0.333,1","1",""
"","html-keyboard-response","227","66565","0.0-227.0","","","","","null","<img src=""img/flower4.png"" style=""width:200px;border:14px solid red;"">","null","","","","","","","","",""
"","image-keyboard-response","228","66792","0.0-228.0","","","","","225.80000007152557","img/flower1.png","74","226.89999997615814","1","1","1","1","1,0.333,0.333,0.333,1,0.333,0.333,0.333,1","1,0.333,0.333,0.333,1,0.333,0.333,0.333,1","1",""
"","html-keyboard-response","229","67094","0.0-229.0","","","","","null","<img src=""img/flower1.png"" style=""width:200px; border:14px solid green;"">","null","","","","","","","","",""
"","image-keyboard-response","230","67250","0.0-230.0","","","","","155.39999997615814","img/flower6.png","75","156.39999997615814","2","1","2","1","1,0.333,0.333,0.333,1,0.333,0.333,0.333,1","1,0.333,0.333,0.333,1,0.333,0.333,0.333,1","1",""
"","html-keyboard-response","231","67552","0.0-231.0","","","","","null","<img src=""img/flower6.png"" style=""width:200px; border:14px solid green;"">","null","","","","","","","","",""
"","image-keyboard-response","232","67625","0.0-232.0","","","","","71.29999995231628","img/flower6.png","74","72.10000002384186","1","0","2","1","1,0.333,0.333,0.333,1,0.333,0.333,0.333,1","1,0.333,0.333,0.333,1,0.333,0.333,0.333,1","1",""
"","html-keyboard-response","233","67926","0.0-233.0","","","","","null","<img src=""img/flower6.png"" style=""width:200px;border:14px solid red;"">","null","","","","","","","","",""
"","image-keyboard-response","234","68139","0.0-234.0","","","","","211.39999997615814","img/flower4.png","74","212.30000007152557","1","0","3","1","1,0.333,0.333,0.333,1,0.333,0.333,0.333,1","1,0.333,0.333,0.333,1,0.333,0.333,0.333,1","1",""
"","html-keyboard-response","235","68441","0.0-235.0","","","","","null","<img src=""img/flower4.png"" style=""width:200px;border:14px solid red;"">","null","","","","","","","","",""
"","image-keyboard-response","236","68597","0.0-236.0","","","","","155.10000002384186","img/flower4.png","75","156","2","0","3","1","1,0.333,0.333,0.333,1,0.333,0.333,0.333,1","1,0.333,0.333,0.333,1,0.333,0.333,0.333,1","1",""
"","html-keyboard-response","237","68898","0.0-237.0","","","","","null","<img src=""img/flower4.png"" style=""width:200px;border:14px solid red;"">","null","","","","","","","","",""
"","image-keyboard-response","238","69052","0.0-238.0","","","","","152.89999997615814","img/flower4.png","75","154","2","1","3","1","1,0.333,0.333,0.333,1,0.333,0.333,0.333,1","1,0.333,0.333,0.333,1,0.333,0.333,0.333,1","1",""
"","html-keyboard-response","239","69354","0.0-239.0","","","","","null","<img src=""img/flower4.png"" style=""width:200px; border:14px solid green;"">","null","","","","","","","","",""
"","image-keyboard-response","240","69531","0.0-240.0","","","","","174.89999997615814","img/flower1.png","76","176","3","1","1","1","1,0.333,0.333,0.333,1,0.333,0.333,0.333,1","1,0.333,0.333,0.333,1,0.333,0.333,0.333,1","1",""
"","html-keyboard-response","241","69832","0.0-241.0","","","","","null","<img src=""img/flower1.png"" style=""width:200px; border:14px solid green;"">","null","","","","","","","","",""
"","image-keyboard-response","242","69944","0.0-242.0","","","","","110.80000007152557","img/flower4.png","75","111.59999990463257","2","1","3","1","1,0.333,0.333,0.333,1,0.333,0.333,0.333,1","1,0.333,0.333,0.333,1,0.333,0.333,0.333,1","1",""
"","html-keyboard-response","243","70245","0.0-243.0","","","","","null","<img src=""img/flower4.png"" style=""width:200px; border:14px solid green;"">","null","","","","","","","","",""
"","image-keyboard-response","244","70448","0.0-244.0","","","","","202.10000002384186","img/flower6.png","75","203.10000002384186","2","1","2","1","1,0.333,0.333,0.333,1,0.333,0.333,0.333,1","1,0.333,0.333,0.333,1,0.333,0.333,0.333,1","1",""
"","html-keyboard-response","245","70750","0.0-245.0","","","","","null","<img src=""img/flower6.png"" style=""width:200px; border:14px solid green;"">","null","","","","","","","","",""
"","image-keyboard-response","246","70981","0.0-246.0","","","","","230.10000002384186","img/flower1.png","76","231","3","0","1","1","1,0.333,0.333,0.333,1,0.333,0.333,0.333,1","1,0.333,0.333,0.333,1,0.333,0.333,0.333,1","1",""
"","html-keyboard-response","247","71284","0.0-247.0","","","","","null","<img src=""img/flower1.png"" style=""width:200px;border:14px solid red;"">","null","","","","","","","","",""
"","image-keyboard-response","248","71391","0.0-248.0","","","","","106.20000004768372","img/flower6.png","76","107.10000002384186","3","0","2","1","1,0.333,0.333,0.333,1,0.333,0.333,0.333,1","1,0.333,0.333,0.333,1,0.333,0.333,0.333,1","1",""
"","html-keyboard-response","249","71693","0.0-249.0","","","","","null","<img src=""img/flower6.png"" style=""width:200px;border:14px solid red;"">","null","","","","","","","","",""
"","image-keyboard-response","250","71729","0.0-250.0","","","","","35.300000071525574","img/flower4.png","76","36.299999952316284","3","1","3","1","1,0.333,0.333,0.333,1,0.333,0.333,0.333,1","1,0.333,0.333,0.333,1,0.333,0.333,0.333,1","1",""
"","html-keyboard-response","251","72031","0.0-251.0","","","","","null","<img src=""img/flower4.png"" style=""width:200px; border:14px solid green;"">","null","","","","","","","","",""
"","image-keyboard-response","252","72219","0.0-252.0","","","","","186.89999997615814","img/flower4.png","75","187.79999995231628","2","1","3","1","1,0.333,0.333,0.333,1,0.333,0.333,0.333,1","1,0.333,0.333,0.333,1,0.333,0.333,0.333,1","1",""
"","html-keyboard-response","253","72521","0.0-253.0","","","","","null","<img src=""img/flower4.png"" style=""width:200px; border:14px solid green;"">","null","","","","","","","","",""
"","image-keyboard-response","254","72637","0.0-254.0","","","","","114.79999995231628","img/flower1.png","75","115.79999995231628","2","0","1","1","1,0.333,0.333,0.333,1,0.333,0.333,0.333,1","1,0.333,0.333,0.333,1,0.333,0.333,0.333,1","1",""
"","html-keyboard-response","255","72939","0.0-255.0","","","","","null","<img src=""img/flower1.png"" style=""width:200px;border:14px solid red;"">","null","","","","","","","","",""
"","image-keyboard-response","256","73046","0.0-256.0","","","","","106.39999997615814","img/flower4.png","75","107.10000002384186","2","1","3","1","1,0.333,0.333,0.333,1,0.333,0.333,0.333,1","1,0.333,0.333,0.333,1,0.333,0.333,0.333,1","1",""
"","html-keyboard-response","257","73347","0.0-257.0","","","","","null","<img src=""img/flower4.png"" style=""width:200px; border:14px solid green;"">","null","","","","","","","","",""
"","image-keyboard-response","258","73615","0.0-258.0","","","","","266.60000002384186","img/flower6.png","75","267.60000002384186","2","1","2","1","1,0.333,0.333,0.333,1,0.333,0.333,0.333,1","1,0.333,0.333,0.333,1,0.333,0.333,0.333,1","1",""
"","html-keyboard-response","259","73916","0.0-259.0","","","","","null","<img src=""img/flower6.png"" style=""width:200px; border:14px solid green;"">","null","","","","","","","","",""
"","image-keyboard-response","260","74083","0.0-260.0","","","","","166.10000002384186","img/flower1.png","75","167.10000002384186","2","0","1","1","1,0.333,0.333,0.333,1,0.333,0.333,0.333,1","1,0.333,0.333,0.333,1,0.333,0.333,0.333,1","1",""
"","html-keyboard-response","261","74385","0.0-261.0","","","","","null","<img src=""img/flower1.png"" style=""width:200px;border:14px solid red;"">","null","","","","","","","","",""
"","image-keyboard-response","262","74487","0.0-262.0","","","","","101.20000004768372","img/flower4.png","75","102.09999990463257","2","1","3","1","1,0.333,0.333,0.333,1,0.333,0.333,0.333,1","1,0.333,0.333,0.333,1,0.333,0.333,0.333,1","1",""
"","html-keyboard-response","263","74789","0.0-263.0","","","","","null","<img src=""img/flower4.png"" style=""width:200px; border:14px solid green;"">","null","","","","","","","","",""
"","image-keyboard-response","264","75037","0.0-264.0","","","","","246.19999992847443","img/flower4.png","75","247.30000007152557","2","1","3","1","1,0.333,0.333,0.333,1,0.333,0.333,0.333,1","1,0.333,0.333,0.333,1,0.333,0.333,0.333,1","1",""
"","html-keyboard-response","265","75338","0.0-265.0","","","","","null","<img src=""img/flower4.png"" style=""width:200px; border:14px solid green;"">","null","","","","","","","","",""
"","image-keyboard-response","266","75365","0.0-266.0","","","","","25.200000047683716","img/flower4.png","75","26.199999928474426","2","0","3","1","1,0.333,0.333,0.333,1,0.333,0.333,0.333,1","1,0.333,0.333,0.333,1,0.333,0.333,0.333,1","1",""
"","html-keyboard-response","267","75666","0.0-267.0","","","","","null","<img src=""img/flower4.png"" style=""width:200px;border:14px solid red;"">","null","","","","","","","","",""
"","image-keyboard-response","268","75873","0.0-268.0","","","","","206.10000002384186","img/flower4.png","76","206.79999995231628","3","1","3","1","1,0.333,0.333,0.333,1,0.333,0.333,0.333,1","1,0.333,0.333,0.333,1,0.333,0.333,0.333,1","1",""
"","html-keyboard-response","269","76175","0.0-269.0","","","","","null","<img src=""img/flower4.png"" style=""width:200px; border:14px solid green;"">","null","","","","","","","","",""
"","image-keyboard-response","270","76265","0.0-270.0","","","","","88.90000009536743","img/flower1.png","76","89.79999995231628","3","0","1","1","1,0.333,0.333,0.333,1,0.333,0.333,0.333,1","1,0.333,0.333,0.333,1,0.333,0.333,0.333,1","1",""
"","html-keyboard-response","271","76567","0.0-271.0","","","","","null","<img src=""img/flower1.png"" style=""width:200px;border:14px solid red;"">","null","","","","","","","","",""
"","image-keyboard-response","272","76752","0.0-272.0","","","","","184.29999995231628","img/flower6.png","76","185","3","0","2","1","1,0.333,0.333,0.333,1,0.333,0.333,0.333,1","1,0.333,0.333,0.333,1,0.333,0.333,0.333,1","1",""
"","html-keyboard-response","273","77054","0.0-273.0","","","","","null","<img src=""img/flower6.png"" style=""width:200px;border:14px solid red;"">","null","","","","","","","","",""
"","image-keyboard-response","274","77145","0.0-274.0","","","","","90.60000002384186","img/flower6.png","76","91.60000002384186","3","1","2","1","1,0.333,0.333,0.333,1,0.333,0.333,0.333,1","1,0.333,0.333,0.333,1,0.333,0.333,0.333,1","1",""
"","html-keyboard-response","275","77447","0.0-275.0","","","","","null","<img src=""img/flower6.png"" style=""width:200px; border:14px solid green;"">","null","","","","","","","","",""
"","image-keyboard-response","276","77455","0.0-276.0","","","","","5.799999952316284","img/flower1.png","74","6.900000095367432","1","1","1","1","1,0.333,0.333,0.333,1,0.333,0.333,0.333,1","1,0.333,0.333,0.333,1,0.333,0.333,0.333,1","1",""
"","html-keyboard-response","277","77756","0.0-277.0","","","","","null","<img src=""img/flower1.png"" style=""width:200px; border:14px solid green;"">","null","","","","","","","","",""
"","image-keyboard-response","278","77933","0.0-278.0","","","","","175.10000002384186","img/flower1.png","75","176.19999992847443","2","1","1","1","1,0.333,0.333,0.333,1,0.333,0.333,0.333,1","1,0.333,0.333,0.333,1,0.333,0.333,0.333,1","1",""
"","html-keyboard-response","279","78234","0.0-279.0","","","","","null","<img src=""img/flower1.png"" style=""width:200px; border:14px solid green;"">","null","","","","","","","","",""
"","image-keyboard-response","280","78292","0.0-280.0","","","","","56.5","img/flower1.png","74","57.199999928474426","1","1","1","1","1,0.333,0.333,0.333,1,0.333,0.333,0.333,1","1,0.333,0.333,0.333,1,0.333,0.333,0.333,1","1",""
"","html-keyboard-response","281","78594","0.0-281.0","","","","","null","<img src=""img/flower1.png"" style=""width:200px; border:14px solid green;"">","null","","","","","","","","",""
"","image-keyboard-response","282","78652","0.0-282.0","","","","","57.299999952316284","img/flower1.png","75","58.40000009536743","2","1","1","1","1,0.333,0.333,0.333,1,0.333,0.333,0.333,1","1,0.333,0.333,0.333,1,0.333,0.333,0.333,1","1",""
"","html-keyboard-response","283","78954","0.0-283.0","","","","","null","<img src=""img/flower1.png"" style=""width:200px; border:14px solid green;"">","null","","","","","","","","",""
"","image-keyboard-response","284","79141","0.0-284.0","","","","","185.39999997615814","img/flower6.png","75","186.30000007152557","2","1","2","1","1,0.333,0.333,0.333,1,0.333,0.333,0.333,1","1,0.333,0.333,0.333,1,0.333,0.333,0.333,1","1",""
"","html-keyboard-response","285","79443","0.0-285.0","","","","","null","<img src=""img/flower6.png"" style=""width:200px; border:14px solid green;"">","null","","","","","","","","",""
"","image-keyboard-response","286","79600","0.0-286.0","","","","","155.79999995231628","img/flower1.png","75","156.89999997615814","2","0","1","1","1,0.333,0.333,0.333,1,0.333,0.333,0.333,1","1,0.333,0.333,0.333,1,0.333,0.333,0.333,1","1",""
"","html-keyboard-response","287","79903","0.0-287.0","","","","","null","<img src=""img/flower1.png"" style=""width:200px;border:14px solid red;"">","null","","","","","","","","",""
"","image-keyboard-response","288","80087","0.0-288.0","","","","","182.79999995231628","img/flower1.png","75","183.39999997615814","2","0","1","1","1,0.333,0.333,0.333,1,0.333,0.333,0.333,1","1,0.333,0.333,0.333,1,0.333,0.333,0.333,1","1",""
"","html-keyboard-response","289","80388","0.0-289.0","","","","","null","<img src=""img/flower1.png"" style=""width:200px;border:14px solid red;"">","null","","","","","","","","",""
"","image-keyboard-response","290","80486","0.0-290.0","","","","","97.20000004768372","img/flower1.png","75","98.29999995231628","2","1","1","1","1,0.333,0.333,0.333,1,0.333,0.333,0.333,1","1,0.333,0.333,0.333,1,0.333,0.333,0.333,1","1",""
"","html-keyboard-response","291","80788","0.0-291.0","","","","","null","<img src=""img/flower1.png"" style=""width:200px; border:14px solid green;"">","null","","","","","","","","",""
"","image-keyboard-response","292","81185","0.0-292.0","","","","","395.6999999284744","img/flower4.png","74","396.6999999284744","1","1","3","1","1,0.333,0.333,0.333,1,0.333,0.333,0.333,1","1,0.333,0.333,0.333,1,0.333,0.333,0.333,1","1",""
"","html-keyboard-response","293","81486","0.0-293.0","","","","","null","<img src=""img/flower4.png"" style=""width:200px; border:14px solid green;"">","null","","","","","","","","",""
"","image-keyboard-response","294","81599","0.0-294.0","","","","","111.10000002384186","img/flower4.png","74","112.19999992847443","1","0","3","1","1,0.333,0.333,0.333,1,0.333,0.333,0.333,1","1,0.333,0.333,0.333,1,0.333,0.333,0.333,1","1",""
"","html-keyboard-response","295","81901","0.0-295.0","","","","","null","<img src=""img/flower4.png"" style=""width:200px;border:14px solid red;"">","null","","","","","","","","",""
"","image-keyboard-response","296","81998","0.0-296.0","","","","","95.70000004768372","img/flower4.png","74","96.19999992847443","1","0","3","1","1,0.333,0.333,0.333,1,0.333,0.333,0.333,1","1,0.333,0.333,0.333,1,0.333,0.333,0.333,1","1",""
"","html-keyboard-response","297","82300","0.0-297.0","","","","","null","<img src=""img/flower4.png"" style=""width:200px;border:14px solid red;"">","null","","","","","","","","",""
"","image-keyboard-response","298","82351","0.0-298.0","","","","","50.10000002384186","img/flower4.png","75","50.699999928474426","2","0","3","1","1,0.333,0.333,0.333,1,0.333,0.333,0.333,1","1,0.333,0.333,0.333,1,0.333,0.333,0.333,1","1",""
"","html-keyboard-response","299","82653","0.0-299.0","","","","","null","<img src=""img/flower4.png"" style=""width:200px;border:14px solid red;"">","null","","","","","","","","",""
"","image-keyboard-response","300","82706","0.0-300.0","","","","","52.200000047683716","img/flower1.png","74","53.200000047683716","1","1","1","1","1,0.333,0.333,0.333,1,0.333,0.333,0.333,1","1,0.333,0.333,0.333,1,0.333,0.333,0.333,1","1",""
"","html-keyboard-response","301","83008","0.0-301.0","","","","","null","<img src=""img/flower1.png"" style=""width:200px; border:14px solid green;"">","null","","","","","","","","",""
"","image-keyboard-response","302","83075","0.0-302.0","","","","","65.70000004768372","img/flower6.png","75","66.60000002384186","2","1","2","1","1,0.333,0.333,0.333,1,0.333,0.333,0.333,1","1,0.333,0.333,0.333,1,0.333,0.333,0.333,1","1",""
"","html-keyboard-response","303","83377","0.0-303.0","","","","","null","<img src=""img/flower6.png"" style=""width:200px; border:14px solid green;"">","null","","","","","","","","",""
"","image-keyboard-response","304","83413","0.0-304.0","","","","","35.39999997615814","img/flower6.png","75","36.39999997615814","2","1","2","1","1,0.333,0.333,0.333,1,0.333,0.333,0.333,1","1,0.333,0.333,0.333,1,0.333,0.333,0.333,1","1",""
"","html-keyboard-response","305","83715","0.0-305.0","","","","","null","<img src=""img/flower6.png"" style=""width:200px; border:14px solid green;"">","null","","","","","","","","",""
"","image-keyboard-response","306","83738","0.0-306.0","","","","","22.100000023841858","img/flower4.png","75","23","2","0","3","1","1,0.333,0.333,0.333,1,0.333,0.333,0.333,1","1,0.333,0.333,0.333,1,0.333,0.333,0.333,1","1",""
"","html-keyboard-response","307","84040","0.0-307.0","","","","","null","<img src=""img/flower4.png"" style=""width:200px;border:14px solid red;"">","null","","","","","","","","",""
"","image-keyboard-response","308","84161","0.0-308.0","","","","","120.69999992847443","img/flower6.png","75","121.19999992847443","2","1","2","1","1,0.333,0.333,0.333,1,0.333,0.333,0.333,1","1,0.333,0.333,0.333,1,0.333,0.333,0.333,1","1",""
"","html-keyboard-response","309","84463","0.0-309.0","","","","","null","<img src=""img/flower6.png"" style=""width:200px; border:14px solid green;"">","null","","","","","","","","",""
"","image-keyboard-response","310","84481","0.0-310.0","","","","","17.300000071525574","img/flower6.png","75","18.09999990463257","2","1","2","1","1,0.333,0.333,0.333,1,0.333,0.333,0.333,1","1,0.333,0.333,0.333,1,0.333,0.333,0.333,1","1",""
"","html-keyboard-response","311","84784","0.0-311.0","","","","","null","<img src=""img/flower6.png"" style=""width:200px; border:14px solid green;"">","null","","","","","","","","",""
"","image-keyboard-response","312","84895","0.0-312.0","","","","","110.10000002384186","img/flower6.png","76","111.10000002384186","3","0","2","1","1,0.333,0.333,0.333,1,0.333,0.333,0.333,1","1,0.333,0.333,0.333,1,0.333,0.333,0.333,1","1",""
"","html-keyboard-response","313","85197","0.0-313.0","","","","","null","<img src=""img/flower6.png"" style=""width:200px;border:14px solid red;"">","null","","","","","","","","",""
"","image-keyboard-response","314","85199","0.0-314.0","","","","","1.5","img/flower6.png","76","2.5","3","1","2","1","1,0.333,0.333,0.333,1,0.333,0.333,0.333,1","1,0.333,0.333,0.333,1,0.333,0.333,0.333,1","1",""
"","html-keyboard-response","315","85501","0.0-315.0","","","","","null","<img src=""img/flower6.png"" style=""width:200px; border:14px solid green;"">","null","","","","","","","","",""
"","image-keyboard-response","316","85609","0.0-316.0","","","","","106.89999997615814","img/flower4.png","74","107.89999997615814","1","1","3","1","1,0.333,0.333,0.333,1,0.333,0.333,0.333,1","1,0.333,0.333,0.333,1,0.333,0.333,0.333,1","1",""
"","html-keyboard-response","317","85911","0.0-317.0","","","","","null","<img src=""img/flower4.png"" style=""width:200px; border:14px solid green;"">","null","","","","","","","","",""
"","image-keyboard-response","318","85967","0.0-318.0","","","","","55.5","img/flower4.png","75","56","2","0","3","1","1,0.333,0.333,0.333,1,0.333,0.333,0.333,1","1,0.333,0.333,0.333,1,0.333,0.333,0.333,1","1",""
"","html-keyboard-response","319","86269","0.0-319.0","","","","","null","<img src=""img/flower4.png"" style=""width:200px;border:14px solid red;"">","null","","","","","","","","",""
"","image-keyboard-response","320","86391","0.0-320.0","","","","","121.10000002384186","img/flower6.png","76","122","3","1","2","1","1,0.333,0.333,0.333,1,0.333,0.333,0.333,1","1,0.333,0.333,0.333,1,0.333,0.333,0.333,1","1",""
"","html-keyboard-response","321","86693","0.0-321.0","","","","","null","<img src=""img/flower6.png"" style=""width:200px; border:14px solid green;"">","null","","","","","","","","",""
"","image-keyboard-response","322","87234","0.0-322.0","","","","","539.7999999523163","img/flower4.png","76","540.7000000476837","3","1","3","1","1,0.333,0.333,0.333,1,0.333,0.333,0.333,1","1,0.333,0.333,0.333,1,0.333,0.333,0.333,1","1",""
"","html-keyboard-response","323","87536","0.0-323.0","","","","","null","<img src=""img/flower4.png"" style=""width:200px; border:14px solid green;"">","null","","","","","","","","",""
"","image-keyboard-response","324","87683","0.0-324.0","","","","","145.5","img/flower4.png","76","146.30000007152557","3","1","3","1","1,0.333,0.333,0.333,1,0.333,0.333,0.333,1","1,0.333,0.333,0.333,1,0.333,0.333,0.333,1","1",""
"","html-keyboard-response","325","87985","0.0-325.0","","","","","null","<img src=""img/flower4.png"" style=""width:200px; border:14px solid green;"">","null","","","","","","","","",""
"","image-keyboard-response","326","88151","0.0-326.0","","","","","165.20000004768372","img/flower4.png","76","165.79999995231628","3","1","3","1","1,0.333,0.333,0.333,1,0.333,0.333,0.333,1","1,0.333,0.333,0.333,1,0.333,0.333,0.333,1","1",""
"","html-keyboard-response","327","88453","0.0-327.0","","","","","null","<img src=""img/flower4.png"" style=""width:200px; border:14px solid green;"">","null","","","","","","","","",""
"","image-keyboard-response","328","89458","0.0-328.0","","","","","1003.5","img/flower1.png","76","1004.2999999523163","3","0","1","1","1,0.333,0.333,0.333,1,0.333,0.333,0.333,1","1,0.333,0.333,0.333,1,0.333,0.333,0.333,1","1",""
"","html-keyboard-response","329","89759","0.0-329.0","","","","","null","<img src=""img/flower1.png"" style=""width:200px;border:14px solid red;"">","null","","","","","","","","",""
"","image-keyboard-response","330","89886","0.0-330.0","","","","","126.29999995231628","img/flower1.png","76","126.89999997615814","3","0","1","1","1,0.333,0.333,0.333,1,0.333,0.333,0.333,1","1,0.333,0.333,0.333,1,0.333,0.333,0.333,1","1",""
"","html-keyboard-response","331","90187","0.0-331.0","","","","","null","<img src=""img/flower1.png"" style=""width:200px;border:14px solid red;"">","null","","","","","","","","",""
"","image-keyboard-response","332","90266","0.0-332.0","","","","","77.29999995231628","img/flower6.png","76","78.30000007152557","3","1","2","1","1,0.333,0.333,0.333,1,0.333,0.333,0.333,1","1,0.333,0.333,0.333,1,0.333,0.333,0.333,1","1",""
"","html-keyboard-response","333","90568","0.0-333.0","","","","","null","<img src=""img/flower6.png"" style=""width:200px; border:14px solid green;"">","null","","","","","","","","",""
"","image-keyboard-response","334","90605","0.0-334.0","","","","","36.59999990463257","img/flower1.png","76","37.5","3","0","1","1","1,0.333,0.333,0.333,1,0.333,0.333,0.333,1","1,0.333,0.333,0.333,1,0.333,0.333,0.333,1","1",""
"","html-keyboard-response","335","90907","0.0-335.0","","","","","null","<img src=""img/flower1.png"" style=""width:200px;border:14px solid red;"">","null","","","","","","","","",""
"","image-keyboard-response","336","91055","0.0-336.0","","","","","146.29999995231628","img/flower6.png","74","147.29999995231628","1","0","2","1","1,0.333,0.333,0.333,1,0.333,0.333,0.333,1","1,0.333,0.333,0.333,1,0.333,0.333,0.333,1","1",""
"","html-keyboard-response","337","91358","0.0-337.0","","","","","null","<img src=""img/flower6.png"" style=""width:200px;border:14px solid red;"">","null","","","","","","","","",""
"","image-keyboard-response","338","91494","0.0-338.0","","","","","135.19999992847443","img/flower6.png","75","136.20000004768372","2","1","2","1","1,0.333,0.333,0.333,1,0.333,0.333,0.333,1","1,0.333,0.333,0.333,1,0.333,0.333,0.333,1","1",""
"","html-keyboard-response","339","91795","0.0-339.0","","","","","null","<img src=""img/flower6.png"" style=""width:200px; border:14px solid green;"">","null","","","","","","","","",""
"","image-keyboard-response","340","91896","0.0-340.0","","","","","100.10000002384186","img/flower6.png","74","100.89999997615814","1","0","2","1","1,0.333,0.333,0.333,1,0.333,0.333,0.333,1","1,0.333,0.333,0.333,1,0.333,0.333,0.333,1","1",""
"","html-keyboard-response","341","92198","0.0-341.0","","","","","null","<img src=""img/flower6.png"" style=""width:200px;border:14px solid red;"">","null","","","","","","","","",""
"","image-keyboard-response","342","92321","0.0-342.0","","","","","121.79999995231628","img/flower1.png","75","122.79999995231628","2","0","1","1","1,0.333,0.333,0.333,1,0.333,0.333,0.333,1","1,0.333,0.333,0.333,1,0.333,0.333,0.333,1","1",""
"","html-keyboard-response","343","92623","0.0-343.0","","","","","null","<img src=""img/flower1.png"" style=""width:200px;border:14px solid red;"">","null","","","","","","","","",""
"","image-keyboard-response","344","92640","0.0-344.0","","","","","16.399999976158142","img/flower4.png","74","17.399999976158142","1","1","3","1","1,0.333,0.333,0.333,1,0.333,0.333,0.333,1","1,0.333,0.333,0.333,1,0.333,0.333,0.333,1","1",""
"","html-keyboard-response","345","92942","0.0-345.0","","","","","null","<img src=""img/flower4.png"" style=""width:200px; border:14px solid green;"">","null","","","","","","","","",""
"","image-keyboard-response","346","93084","0.0-346.0","","","","","141","img/flower4.png","75","142","2","1","3","1","1,0.333,0.333,0.333,1,0.333,0.333,0.333,1","1,0.333,0.333,0.333,1,0.333,0.333,0.333,1","1",""
"","html-keyboard-response","347","93386","0.0-347.0","","","","","null","<img src=""img/flower4.png"" style=""width:200px; border:14px solid green;"">","null","","","","","","","","",""
"","image-keyboard-response","348","93543","0.0-348.0","","","","","156.19999992847443","img/flower4.png","74","157","1","0","3","1","1,0.333,0.333,0.333,1,0.333,0.333,0.333,1","1,0.333,0.333,0.333,1,0.333,0.333,0.333,1","1",""
"","html-keyboard-response","349","93845","0.0-349.0","","","","","null","<img src=""img/flower4.png"" style=""width:200px;border:14px solid red;"">","null","","","","","","","","",""
"","image-keyboard-response","350","93851","0.0-350.0","","","","","5.700000047683716","img/flower4.png","74","6.400000095367432","1","0","3","1","1,0.333,0.333,0.333,1,0.333,0.333,0.333,1","1,0.333,0.333,0.333,1,0.333,0.333,0.333,1","1",""
"","html-keyboard-response","351","94153","0.0-351.0","","","","","null","<img src=""img/flower4.png"" style=""width:200px;border:14px solid red;"">","null","","","","","","","","",""
"","image-keyboard-response","352","94346","0.0-352.0","","","","","192.30000007152557","img/flower6.png","76","192.89999997615814","3","0","2","1","1,0.333,0.333,0.333,1,0.333,0.333,0.333,1","1,0.333,0.333,0.333,1,0.333,0.333,0.333,1","1",""
"","html-keyboard-response","353","94648","0.0-353.0","","","","","null","<img src=""img/flower6.png"" style=""width:200px;border:14px solid red;"">","null","","","","","","","","",""
"","image-keyboard-response","354","94711","0.0-354.0","","","","","61.699999928474426","img/flower1.png","75","62.700000047683716","2","0","1","1","1,0.333,0.333,0.333,1,0.333,0.333,0.333,1","1,0.333,0.333,0.333,1,0.333,0.333,0.333,1","1",""
"","html-keyboard-response","355","95013","0.0-355.0","","","","","null","<img src=""img/flower1.png"" style=""width:200px;border:14px solid red;"">","null","","","","","","","","",""
"","image-keyboard-response","356","95069","0.0-356.0","","","","","54.59999990463257","img/flower1.png","75","55.700000047683716","2","0","1","1","1,0.333,0.333,0.333,1,0.333,0.333,0.333,1","1,0.333,0.333,0.333,1,0.333,0.333,0.333,1","1",""
"","html-keyboard-response","357","95371","0.0-357.0","","","","","null","<img src=""img/flower1.png"" style=""width:200px;border:14px solid red;"">","null","","","","","","","","",""
"","image-keyboard-response","358","95473","0.0-358.0","","","","","100.90000009536743","img/flower1.png","76","102","3","0","1","1","1,0.333,0.333,0.333,1,0.333,0.333,0.333,1","1,0.333,0.333,0.333,1,0.333,0.333,0.333,1","1",""
"","html-keyboard-response","359","95775","0.0-359.0","","","","","null","<img src=""img/flower1.png"" style=""width:200px;border:14px solid red;"">","null","","","","","","","","",""
"","image-keyboard-response","360","95937","0.0-360.0","","","","","161.19999992847443","img/flower4.png","76","161.90000009536743","3","1","3","1","1,0.333,0.333,0.333,1,0.333,0.333,0.333,1","1,0.333,0.333,0.333,1,0.333,0.333,0.333,1","1",""
"","html-keyboard-response","361","96238","0.0-361.0","","","","","null","<img src=""img/flower4.png"" style=""width:200px; border:14px solid green;"">","null","","","","","","","","",""
"","html-keyboard-response","362","100593","0.0-362.0","","","","","","","","","","","","","","","",""
"","instructions","363","102092","0.0-363.0","","","","[{""page_index"":0,""viewing_time"":1497}]","1497.2999999523163","","","","","","","","","","",""
"","survey-text","364","105133","0.0-364.0","","","","","3035.3000000715256","","","","","","","","","","","{""Q0"":""A3Q1EZDNIUK41P""}"
