"success","trial_type","trial_index","time_elapsed","internal_node_id","assignmentID","mturkID","hitID","view_history","rt","stimulus","key_press","reactionTime","a","r","s","cond","reward_cond","reward_cond_actual","reward_matrix_idx","responses"
"true","fullscreen","0","2719","0.0-0.0","3ZAK8W07I50RUDTRWMI2EZDIJB7U0A","A3R5OJR60C6004","3HUR21WDDUBEMSLDIXZW1FAIHVWXYO","","","","","","","","","","","","",""
"","instructions","1","19086","0.0-1.0","3ZAK8W07I50RUDTRWMI2EZDIJB7U0A","A3R5OJR60C6004","3HUR21WDDUBEMSLDIXZW1FAIHVWXYO","[{""page_index"":0,""viewing_time"":2140},{""page_index"":1,""viewing_time"":1390},{""page_index"":2,""viewing_time"":480},{""page_index"":3,""viewing_time"":292},{""page_index"":4,""viewing_time"":950},{""page_index"":5,""viewing_time"":764},{""page_index"":6,""viewing_time"":6464},{""page_index"":7,""viewing_time"":3884}]","16364","","","","","","","","","","",""
"","image-keyboard-response","2","20635","0.0-2.0","3ZAK8W07I50RUDTRWMI2EZDIJB7U0A","A3R5OJR60C6004","3HUR21WDDUBEMSLDIXZW1FAIHVWXYO","","1548","img/flower2.png","74","1549","1","1","1","2","1,0,0,1,1,0,1,0,1","1,0,0,1,1,0,1,0,1","1",""
"","html-keyboard-response","3","20938","0.0-3.0","3ZAK8W07I50RUDTRWMI2EZDIJB7U0A","A3R5OJR60C6004","3HUR21WDDUBEMSLDIXZW1FAIHVWXYO","","null","<img src=""img/flower2.png"" style=""width:200px; border:14px solid green;"">","null","","","","","","","","",""
"","image-keyboard-response","4","21334","0.0-4.0","3ZAK8W07I50RUDTRWMI2EZDIJB7U0A","A3R5OJR60C6004","3HUR21WDDUBEMSLDIXZW1FAIHVWXYO","","392","img/flower2.png","74","393","1","1","1","2","1,0,0,1,1,0,1,0,1","1,0,0,1,1,0,1,0,1","1",""
"","html-keyboard-response","5","21649","0.0-5.0","3ZAK8W07I50RUDTRWMI2EZDIJB7U0A","A3R5OJR60C6004","3HUR21WDDUBEMSLDIXZW1FAIHVWXYO","","null","<img src=""img/flower2.png"" style=""width:200px; border:14px solid green;"">","null","","","","","","","","",""
"","image-keyboard-response","6","22261","0.0-6.0","3ZAK8W07I50RUDTRWMI2EZDIJB7U0A","A3R5OJR60C6004","3HUR21WDDUBEMSLDIXZW1FAIHVWXYO","","610","img/flower4.png","75","612","2","0","3","2","1,0,0,1,1,0,1,0,1","1,0,0,1,1,0,1,0,1","1",""
"","html-keyboard-response","7","22576","0.0-7.0","3ZAK8W07I50RUDTRWMI2EZDIJB7U0A","A3R5OJR60C6004","3HUR21WDDUBEMSLDIXZW1FAIHVWXYO","","null","<img src=""img/flower4.png"" style=""width:200px;border:14px solid red;"">","null","","","","","","","","",""
"","image-keyboard-response","8","23589","0.0-8.0","3ZAK8W07I50RUDTRWMI2EZDIJB7U0A","A3R5OJR60C6004","3HUR21WDDUBEMSLDIXZW1FAIHVWXYO","","1013","img/flower5.png","75","1015","2","1","2","2","1,0,0,1,1,0,1,0,1","1,0,0,1,1,0,1,0,1","1",""
"","html-keyboard-response","9","23897","0.0-9.0","3ZAK8W07I50RUDTRWMI2EZDIJB7U0A","A3R5OJR60C6004","3HUR21WDDUBEMSLDIXZW1FAIHVWXYO","","null","<img src=""img/flower5.png"" style=""width:200px; border:14px solid green;"">","null","","","","","","","","",""
"","image-keyboard-response","10","24604","0.0-10.0","3ZAK8W07I50RUDTRWMI2EZDIJB7U0A","A3R5OJR60C6004","3HUR21WDDUBEMSLDIXZW1FAIHVWXYO","","705","img/flower2.png","74","705","1","1","1","2","1,0,0,1,1,0,1,0,1","1,0,0,1,1,0,1,0,1","1",""
"","html-keyboard-response","11","24913","0.0-11.0","3ZAK8W07I50RUDTRWMI2EZDIJB7U0A","A3R5OJR60C6004","3HUR21WDDUBEMSLDIXZW1FAIHVWXYO","","null","<img src=""img/flower2.png"" style=""width:200px; border:14px solid green;"">","null","","","","","","","","",""
"","image-keyboard-response","12","25238","0.0-12.0","3ZAK8W07I50RUDTRWMI2EZDIJB7U0A","A3R5OJR60C6004","3HUR21WDDUBEMSLDIXZW1FAIHVWXYO","","323","img/flower2.png","74","324","1","1","1","2","1,0,0,1,1,0,1,0,1","1,0,0,1,1,0,1,0,1","1",""
"","html-keyboard-response","13","25547","0.0-13.0","3ZAK8W07I50RUDTRWMI2EZDIJB7U0A","A3R5OJR60C6004","3HUR21WDDUBEMSLDIXZW1FAIHVWXYO","","null","<img src=""img/flower2.png"" style=""width:200px; border:14px solid green;"">","null","","","","","","","","",""
"","image-keyboard-response","14","26148","0.0-14.0","3ZAK8W07I50RUDTRWMI2EZDIJB7U0A","A3R5OJR60C6004","3HUR21WDDUBEMSLDIXZW1FAIHVWXYO","","598","img/flower4.png","75","600","2","0","3","2","1,0,0,1,1,0,1,0,1","1,0,0,1,1,0,1,0,1","1",""
"","html-keyboard-response","15","26461","0.0-15.0","3ZAK8W07I50RUDTRWMI2EZDIJB7U0A","A3R5OJR60C6004","3HUR21WDDUBEMSLDIXZW1FAIHVWXYO","","null","<img src=""img/flower4.png"" style=""width:200px;border:14px solid red;"">","null","","","","","","","","",""
"","image-keyboard-response","16","27101","0.0-16.0","3ZAK8W07I50RUDTRWMI2EZDIJB7U0A","A3R5OJR60C6004","3HUR21WDDUBEMSLDIXZW1FAIHVWXYO","","639","img/flower4.png","76","641","3","1","3","2","1,0,0,1,1,0,1,0,1","1,0,0,1,1,0,1,0,1","1",""
"","html-keyboard-response","17","27407","0.0-17.0","3ZAK8W07I50RUDTRWMI2EZDIJB7U0A","A3R5OJR60C6004","3HUR21WDDUBEMSLDIXZW1FAIHVWXYO","","null","<img src=""img/flower4.png"" style=""width:200px; border:14px solid green;"">","null","","","","","","","","",""
"","image-keyboard-response","18","27788","0.0-18.0","3ZAK8W07I50RUDTRWMI2EZDIJB7U0A","A3R5OJR60C6004","3HUR21WDDUBEMSLDIXZW1FAIHVWXYO","","381","img/flower4.png","76","381","3","1","3","2","1,0,0,1,1,0,1,0,1","1,0,0,1,1,0,1,0,1","1",""
"","html-keyboard-response","19","28102","0.0-19.0","3ZAK8W07I50RUDTRWMI2EZDIJB7U0A","A3R5OJR60C6004","3HUR21WDDUBEMSLDIXZW1FAIHVWXYO","","null","<img src=""img/flower4.png"" style=""width:200px; border:14px solid green;"">","null","","","","","","","","",""
"","image-keyboard-response","20","28933","0.0-20.0","3ZAK8W07I50RUDTRWMI2EZDIJB7U0A","A3R5OJR60C6004","3HUR21WDDUBEMSLDIXZW1FAIHVWXYO","","830","img/flower5.png","75","831","2","1","2","2","1,0,0,1,1,0,1,0,1","1,0,0,1,1,0,1,0,1","1",""
"","html-keyboard-response","21","29242","0.0-21.0","3ZAK8W07I50RUDTRWMI2EZDIJB7U0A","A3R5OJR60C6004","3HUR21WDDUBEMSLDIXZW1FAIHVWXYO","","null","<img src=""img/flower5.png"" style=""width:200px; border:14px solid green;"">","null","","","","","","","","",""
"","image-keyboard-response","22","29830","0.0-22.0","3ZAK8W07I50RUDTRWMI2EZDIJB7U0A","A3R5OJR60C6004","3HUR21WDDUBEMSLDIXZW1FAIHVWXYO","","585","img/flower4.png","76","586","3","1","3","2","1,0,0,1,1,0,1,0,1","1,0,0,1,1,0,1,0,1","1",""
"","html-keyboard-response","23","30141","0.0-23.0","3ZAK8W07I50RUDTRWMI2EZDIJB7U0A","A3R5OJR60C6004","3HUR21WDDUBEMSLDIXZW1FAIHVWXYO","","null","<img src=""img/flower4.png"" style=""width:200px; border:14px solid green;"">","null","","","","","","","","",""
"","image-keyboard-response","24","30747","0.0-24.0","3ZAK8W07I50RUDTRWMI2EZDIJB7U0A","A3R5OJR60C6004","3HUR21WDDUBEMSLDIXZW1FAIHVWXYO","","605","img/flower5.png","75","605","2","1","2","2","1,0,0,1,1,0,1,0,1","1,0,0,1,1,0,1,0,1","1",""
"","html-keyboard-response","25","31060","0.0-25.0","3ZAK8W07I50RUDTRWMI2EZDIJB7U0A","A3R5OJR60C6004","3HUR21WDDUBEMSLDIXZW1FAIHVWXYO","","null","<img src=""img/flower5.png"" style=""width:200px; border:14px solid green;"">","null","","","","","","","","",""
"","image-keyboard-response","26","31525","0.0-26.0","3ZAK8W07I50RUDTRWMI2EZDIJB7U0A","A3R5OJR60C6004","3HUR21WDDUBEMSLDIXZW1FAIHVWXYO","","463","img/flower2.png","74","464","1","1","1","2","1,0,0,1,1,0,1,0,1","1,0,0,1,1,0,1,0,1","1",""
"","html-keyboard-response","27","31827","0.0-27.0","3ZAK8W07I50RUDTRWMI2EZDIJB7U0A","A3R5OJR60C6004","3HUR21WDDUBEMSLDIXZW1FAIHVWXYO","","null","<img src=""img/flower2.png"" style=""width:200px; border:14px solid green;"">","null","","","","","","","","",""
"","image-keyboard-response","28","32189","0.0-28.0","3ZAK8W07I50RUDTRWMI2EZDIJB7U0A","A3R5OJR60C6004","3HUR21WDDUBEMSLDIXZW1FAIHVWXYO","","361","img/flower2.png","74","362","1","1","1","2","1,0,0,1,1,0,1,0,1","1,0,0,1,1,0,1,0,1","1",""
"","html-keyboard-response","29","32498","0.0-29.0","3ZAK8W07I50RUDTRWMI2EZDIJB7U0A","A3R5OJR60C6004","3HUR21WDDUBEMSLDIXZW1FAIHVWXYO","","null","<img src=""img/flower2.png"" style=""width:200px; border:14px solid green;"">","null","","","","","","","","",""
"","image-keyboard-response","30","33053","0.0-30.0","3ZAK8W07I50RUDTRWMI2EZDIJB7U0A","A3R5OJR60C6004","3HUR21WDDUBEMSLDIXZW1FAIHVWXYO","","554","img/flower4.png","75","555","2","0","3","2","1,0,0,1,1,0,1,0,1","1,0,0,1,1,0,1,0,1","1",""
"","html-keyboard-response","31","33364","0.0-31.0","3ZAK8W07I50RUDTRWMI2EZDIJB7U0A","A3R5OJR60C6004","3HUR21WDDUBEMSLDIXZW1FAIHVWXYO","","null","<img src=""img/flower4.png"" style=""width:200px;border:14px solid red;"">","null","","","","","","","","",""
"","image-keyboard-response","32","34117","0.0-32.0","3ZAK8W07I50RUDTRWMI2EZDIJB7U0A","A3R5OJR60C6004","3HUR21WDDUBEMSLDIXZW1FAIHVWXYO","","752","img/flower5.png","75","753","2","1","2","2","1,0,0,1,1,0,1,0,1","1,0,0,1,1,0,1,0,1","1",""
"","html-keyboard-response","33","34419","0.0-33.0","3ZAK8W07I50RUDTRWMI2EZDIJB7U0A","A3R5OJR60C6004","3HUR21WDDUBEMSLDIXZW1FAIHVWXYO","","null","<img src=""img/flower5.png"" style=""width:200px; border:14px solid green;"">","null","","","","","","","","",""
"","image-keyboard-response","34","34756","0.0-34.0","3ZAK8W07I50RUDTRWMI2EZDIJB7U0A","A3R5OJR60C6004","3HUR21WDDUBEMSLDIXZW1FAIHVWXYO","","335","img/flower5.png","75","337","2","1","2","2","1,0,0,1,1,0,1,0,1","1,0,0,1,1,0,1,0,1","1",""
"","html-keyboard-response","35","35057","0.0-35.0","3ZAK8W07I50RUDTRWMI2EZDIJB7U0A","A3R5OJR60C6004","3HUR21WDDUBEMSLDIXZW1FAIHVWXYO","","null","<img src=""img/flower5.png"" style=""width:200px; border:14px solid green;"">","null","","","","","","","","",""
"","image-keyboard-response","36","35501","0.0-36.0","3ZAK8W07I50RUDTRWMI2EZDIJB7U0A","A3R5OJR60C6004","3HUR21WDDUBEMSLDIXZW1FAIHVWXYO","","443","img/flower4.png","76","443","3","1","3","2","1,0,0,1,1,0,1,0,1","1,0,0,1,1,0,1,0,1","1",""
"","html-keyboard-response","37","35806","0.0-37.0","3ZAK8W07I50RUDTRWMI2EZDIJB7U0A","A3R5OJR60C6004","3HUR21WDDUBEMSLDIXZW1FAIHVWXYO","","null","<img src=""img/flower4.png"" style=""width:200px; border:14px solid green;"">","null","","","","","","","","",""
"","image-keyboard-response","38","36101","0.0-38.0","3ZAK8W07I50RUDTRWMI2EZDIJB7U0A","A3R5OJR60C6004","3HUR21WDDUBEMSLDIXZW1FAIHVWXYO","","292","img/flower4.png","76","294","3","1","3","2","1,0,0,1,1,0,1,0,1","1,0,0,1,1,0,1,0,1","1",""
"","html-keyboard-response","39","36410","0.0-39.0","3ZAK8W07I50RUDTRWMI2EZDIJB7U0A","A3R5OJR60C6004","3HUR21WDDUBEMSLDIXZW1FAIHVWXYO","","null","<img src=""img/flower4.png"" style=""width:200px; border:14px solid green;"">","null","","","","","","","","",""
"","image-keyboard-response","40","36979","0.0-40.0","3ZAK8W07I50RUDTRWMI2EZDIJB7U0A","A3R5OJR60C6004","3HUR21WDDUBEMSLDIXZW1FAIHVWXYO","","568","img/flower2.png","74","569","1","1","1","2","1,0,0,1,1,0,1,0,1","1,0,0,1,1,0,1,0,1","1",""
"","html-keyboard-response","41","37281","0.0-41.0","3ZAK8W07I50RUDTRWMI2EZDIJB7U0A","A3R5OJR60C6004","3HUR21WDDUBEMSLDIXZW1FAIHVWXYO","","null","<img src=""img/flower2.png"" style=""width:200px; border:14px solid green;"">","null","","","","","","","","",""
"","image-keyboard-response","42","38213","0.0-42.0","3ZAK8W07I50RUDTRWMI2EZDIJB7U0A","A3R5OJR60C6004","3HUR21WDDUBEMSLDIXZW1FAIHVWXYO","","932","img/flower5.png","75","933","2","1","2","2","1,0,0,1,1,0,1,0,1","1,0,0,1,1,0,1,0,1","1",""
"","html-keyboard-response","43","38520","0.0-43.0","3ZAK8W07I50RUDTRWMI2EZDIJB7U0A","A3R5OJR60C6004","3HUR21WDDUBEMSLDIXZW1FAIHVWXYO","","null","<img src=""img/flower5.png"" style=""width:200px; border:14px solid green;"">","null","","","","","","","","",""
"","image-keyboard-response","44","39117","0.0-44.0","3ZAK8W07I50RUDTRWMI2EZDIJB7U0A","A3R5OJR60C6004","3HUR21WDDUBEMSLDIXZW1FAIHVWXYO","","597","img/flower4.png","76","597","3","1","3","2","1,0,0,1,1,0,1,0,1","1,0,0,1,1,0,1,0,1","1",""
"","html-keyboard-response","45","39419","0.0-45.0","3ZAK8W07I50RUDTRWMI2EZDIJB7U0A","A3R5OJR60C6004","3HUR21WDDUBEMSLDIXZW1FAIHVWXYO","","null","<img src=""img/flower4.png"" style=""width:200px; border:14px solid green;"">","null","","","","","","","","",""
"","image-keyboard-response","46","39805","0.0-46.0","3ZAK8W07I50RUDTRWMI2EZDIJB7U0A","A3R5OJR60C6004","3HUR21WDDUBEMSLDIXZW1FAIHVWXYO","","385","img/flower4.png","76","386","3","1","3","2","1,0,0,1,1,0,1,0,1","1,0,0,1,1,0,1,0,1","1",""
"","html-keyboard-response","47","40110","0.0-47.0","3ZAK8W07I50RUDTRWMI2EZDIJB7U0A","A3R5OJR60C6004","3HUR21WDDUBEMSLDIXZW1FAIHVWXYO","","null","<img src=""img/flower4.png"" style=""width:200px; border:14px solid green;"">","null","","","","","","","","",""
"","image-keyboard-response","48","40453","0.0-48.0","3ZAK8W07I50RUDTRWMI2EZDIJB7U0A","A3R5OJR60C6004","3HUR21WDDUBEMSLDIXZW1FAIHVWXYO","","342","img/flower4.png","76","343","3","1","3","2","1,0,0,1,1,0,1,0,1","1,0,0,1,1,0,1,0,1","1",""
"","html-keyboard-response","49","40762","0.0-49.0","3ZAK8W07I50RUDTRWMI2EZDIJB7U0A","A3R5OJR60C6004","3HUR21WDDUBEMSLDIXZW1FAIHVWXYO","","null","<img src=""img/flower4.png"" style=""width:200px; border:14px solid green;"">","null","","","","","","","","",""
"","image-keyboard-response","50","41397","0.0-50.0","3ZAK8W07I50RUDTRWMI2EZDIJB7U0A","A3R5OJR60C6004","3HUR21WDDUBEMSLDIXZW1FAIHVWXYO","","635","img/flower2.png","74","636","1","1","1","2","1,0,0,1,1,0,1,0,1","1,0,0,1,1,0,1,0,1","1",""
"","html-keyboard-response","51","41698","0.0-51.0","3ZAK8W07I50RUDTRWMI2EZDIJB7U0A","A3R5OJR60C6004","3HUR21WDDUBEMSLDIXZW1FAIHVWXYO","","null","<img src=""img/flower2.png"" style=""width:200px; border:14px solid green;"">","null","","","","","","","","",""
"","image-keyboard-response","52","42405","0.0-52.0","3ZAK8W07I50RUDTRWMI2EZDIJB7U0A","A3R5OJR60C6004","3HUR21WDDUBEMSLDIXZW1FAIHVWXYO","","705","img/flower5.png","75","707","2","1","2","2","1,0,0,1,1,0,1,0,1","1,0,0,1,1,0,1,0,1","1",""
"","html-keyboard-response","53","42720","0.0-53.0","3ZAK8W07I50RUDTRWMI2EZDIJB7U0A","A3R5OJR60C6004","3HUR21WDDUBEMSLDIXZW1FAIHVWXYO","","null","<img src=""img/flower5.png"" style=""width:200px; border:14px solid green;"">","null","","","","","","","","",""
"","image-keyboard-response","54","43045","0.0-54.0","3ZAK8W07I50RUDTRWMI2EZDIJB7U0A","A3R5OJR60C6004","3HUR21WDDUBEMSLDIXZW1FAIHVWXYO","","325","img/flower5.png","75","325","2","1","2","2","1,0,0,1,1,0,1,0,1","1,0,0,1,1,0,1,0,1","1",""
"","html-keyboard-response","55","43351","0.0-55.0","3ZAK8W07I50RUDTRWMI2EZDIJB7U0A","A3R5OJR60C6004","3HUR21WDDUBEMSLDIXZW1FAIHVWXYO","","null","<img src=""img/flower5.png"" style=""width:200px; border:14px solid green;"">","null","","","","","","","","",""
"","image-keyboard-response","56","43838","0.0-56.0","3ZAK8W07I50RUDTRWMI2EZDIJB7U0A","A3R5OJR60C6004","3HUR21WDDUBEMSLDIXZW1FAIHVWXYO","","486","img/flower2.png","74","486","1","1","1","2","1,0,0,1,1,0,1,0,1","1,0,0,1,1,0,1,0,1","1",""
"","html-keyboard-response","57","44141","0.0-57.0","3ZAK8W07I50RUDTRWMI2EZDIJB7U0A","A3R5OJR60C6004","3HUR21WDDUBEMSLDIXZW1FAIHVWXYO","","null","<img src=""img/flower2.png"" style=""width:200px; border:14px solid green;"">","null","","","","","","","","",""
"","image-keyboard-response","58","45347","0.0-58.0","3ZAK8W07I50RUDTRWMI2EZDIJB7U0A","A3R5OJR60C6004","3HUR21WDDUBEMSLDIXZW1FAIHVWXYO","","1205","img/flower4.png","76","1206","3","1","3","2","1,0,0,1,1,0,1,0,1","1,0,0,1,1,0,1,0,1","1",""
"","html-keyboard-response","59","45658","0.0-59.0","3ZAK8W07I50RUDTRWMI2EZDIJB7U0A","A3R5OJR60C6004","3HUR21WDDUBEMSLDIXZW1FAIHVWXYO","","null","<img src=""img/flower4.png"" style=""width:200px; border:14px solid green;"">","null","","","","","","","","",""
"","image-keyboard-response","60","46284","0.0-60.0","3ZAK8W07I50RUDTRWMI2EZDIJB7U0A","A3R5OJR60C6004","3HUR21WDDUBEMSLDIXZW1FAIHVWXYO","","626","img/flower2.png","74","626","1","1","1","2","1,0,0,1,1,0,1,0,1","1,0,0,1,1,0,1,0,1","1",""
"","html-keyboard-response","61","46601","0.0-61.0","3ZAK8W07I50RUDTRWMI2EZDIJB7U0A","A3R5OJR60C6004","3HUR21WDDUBEMSLDIXZW1FAIHVWXYO","","null","<img src=""img/flower2.png"" style=""width:200px; border:14px solid green;"">","null","","","","","","","","",""
"","image-keyboard-response","62","46933","0.0-62.0","3ZAK8W07I50RUDTRWMI2EZDIJB7U0A","A3R5OJR60C6004","3HUR21WDDUBEMSLDIXZW1FAIHVWXYO","","332","img/flower2.png","74","332","1","1","1","2","1,0,0,1,1,0,1,0,1","1,0,0,1,1,0,1,0,1","1",""
"","html-keyboard-response","63","47249","0.0-63.0","3ZAK8W07I50RUDTRWMI2EZDIJB7U0A","A3R5OJR60C6004","3HUR21WDDUBEMSLDIXZW1FAIHVWXYO","","null","<img src=""img/flower2.png"" style=""width:200px; border:14px solid green;"">","null","","","","","","","","",""
"","image-keyboard-response","64","47900","0.0-64.0","3ZAK8W07I50RUDTRWMI2EZDIJB7U0A","A3R5OJR60C6004","3HUR21WDDUBEMSLDIXZW1FAIHVWXYO","","650","img/flower5.png","75","651","2","1","2","2","1,0,0,1,1,0,1,0,1","1,0,0,1,1,0,1,0,1","1",""
"","html-keyboard-response","65","48217","0.0-65.0","3ZAK8W07I50RUDTRWMI2EZDIJB7U0A","A3R5OJR60C6004","3HUR21WDDUBEMSLDIXZW1FAIHVWXYO","","null","<img src=""img/flower5.png"" style=""width:200px; border:14px solid green;"">","null","","","","","","","","",""
"","image-keyboard-response","66","48541","0.0-66.0","3ZAK8W07I50RUDTRWMI2EZDIJB7U0A","A3R5OJR60C6004","3HUR21WDDUBEMSLDIXZW1FAIHVWXYO","","322","img/flower5.png","75","323","2","1","2","2","1,0,0,1,1,0,1,0,1","1,0,0,1,1,0,1,0,1","1",""
"","html-keyboard-response","67","48848","0.0-67.0","3ZAK8W07I50RUDTRWMI2EZDIJB7U0A","A3R5OJR60C6004","3HUR21WDDUBEMSLDIXZW1FAIHVWXYO","","null","<img src=""img/flower5.png"" style=""width:200px; border:14px solid green;"">","null","","","","","","","","",""
"","image-keyboard-response","68","49443","0.0-68.0","3ZAK8W07I50RUDTRWMI2EZDIJB7U0A","A3R5OJR60C6004","3HUR21WDDUBEMSLDIXZW1FAIHVWXYO","","594","img/flower2.png","74","594","1","1","1","2","1,0,0,1,1,0,1,0,1","1,0,0,1,1,0,1,0,1","1",""
"","html-keyboard-response","69","49753","0.0-69.0","3ZAK8W07I50RUDTRWMI2EZDIJB7U0A","A3R5OJR60C6004","3HUR21WDDUBEMSLDIXZW1FAIHVWXYO","","null","<img src=""img/flower2.png"" style=""width:200px; border:14px solid green;"">","null","","","","","","","","",""
"","image-keyboard-response","70","50373","0.0-70.0","3ZAK8W07I50RUDTRWMI2EZDIJB7U0A","A3R5OJR60C6004","3HUR21WDDUBEMSLDIXZW1FAIHVWXYO","","620","img/flower5.png","75","620","2","1","2","2","1,0,0,1,1,0,1,0,1","1,0,0,1,1,0,1,0,1","1",""
"","html-keyboard-response","71","50685","0.0-71.0","3ZAK8W07I50RUDTRWMI2EZDIJB7U0A","A3R5OJR60C6004","3HUR21WDDUBEMSLDIXZW1FAIHVWXYO","","null","<img src=""img/flower5.png"" style=""width:200px; border:14px solid green;"">","null","","","","","","","","",""
"","image-keyboard-response","72","50941","0.0-72.0","3ZAK8W07I50RUDTRWMI2EZDIJB7U0A","A3R5OJR60C6004","3HUR21WDDUBEMSLDIXZW1FAIHVWXYO","","255","img/flower4.png","75","255","2","0","3","2","1,0,0,1,1,0,1,0,1","1,0,0,1,1,0,1,0,1","1",""
"","html-keyboard-response","73","51248","0.0-73.0","3ZAK8W07I50RUDTRWMI2EZDIJB7U0A","A3R5OJR60C6004","3HUR21WDDUBEMSLDIXZW1FAIHVWXYO","","null","<img src=""img/flower4.png"" style=""width:200px;border:14px solid red;"">","null","","","","","","","","",""
"","image-keyboard-response","74","51613","0.0-74.0","3ZAK8W07I50RUDTRWMI2EZDIJB7U0A","A3R5OJR60C6004","3HUR21WDDUBEMSLDIXZW1FAIHVWXYO","","364","img/flower4.png","76","365","3","1","3","2","1,0,0,1,1,0,1,0,1","1,0,0,1,1,0,1,0,1","1",""
"","html-keyboard-response","75","51930","0.0-75.0","3ZAK8W07I50RUDTRWMI2EZDIJB7U0A","A3R5OJR60C6004","3HUR21WDDUBEMSLDIXZW1FAIHVWXYO","","null","<img src=""img/flower4.png"" style=""width:200px; border:14px solid green;"">","null","","","","","","","","",""
"","image-keyboard-response","76","52588","0.0-76.0","3ZAK8W07I50RUDTRWMI2EZDIJB7U0A","A3R5OJR60C6004","3HUR21WDDUBEMSLDIXZW1FAIHVWXYO","","657","img/flower5.png","75","658","2","1","2","2","1,0,0,1,1,0,1,0,1","1,0,0,1,1,0,1,0,1","1",""
"","html-keyboard-response","77","52899","0.0-77.0","3ZAK8W07I50RUDTRWMI2EZDIJB7U0A","A3R5OJR60C6004","3HUR21WDDUBEMSLDIXZW1FAIHVWXYO","","null","<img src=""img/flower5.png"" style=""width:200px; border:14px solid green;"">","null","","","","","","","","",""
"","image-keyboard-response","78","53205","0.0-78.0","3ZAK8W07I50RUDTRWMI2EZDIJB7U0A","A3R5OJR60C6004","3HUR21WDDUBEMSLDIXZW1FAIHVWXYO","","305","img/flower5.png","75","306","2","1","2","2","1,0,0,1,1,0,1,0,1","1,0,0,1,1,0,1,0,1","1",""
"","html-keyboard-response","79","53519","0.0-79.0","3ZAK8W07I50RUDTRWMI2EZDIJB7U0A","A3R5OJR60C6004","3HUR21WDDUBEMSLDIXZW1FAIHVWXYO","","null","<img src=""img/flower5.png"" style=""width:200px; border:14px solid green;"">","null","","","","","","","","",""
"","image-keyboard-response","80","54117","0.0-80.0","3ZAK8W07I50RUDTRWMI2EZDIJB7U0A","A3R5OJR60C6004","3HUR21WDDUBEMSLDIXZW1FAIHVWXYO","","597","img/flower2.png","74","598","1","1","1","2","1,0,0,1,1,0,1,0,1","1,0,0,1,1,0,1,0,1","1",""
"","html-keyboard-response","81","54422","0.0-81.0","3ZAK8W07I50RUDTRWMI2EZDIJB7U0A","A3R5OJR60C6004","3HUR21WDDUBEMSLDIXZW1FAIHVWXYO","","null","<img src=""img/flower2.png"" style=""width:200px; border:14px solid green;"">","null","","","","","","","","",""
"","image-keyboard-response","82","55149","0.0-82.0","3ZAK8W07I50RUDTRWMI2EZDIJB7U0A","A3R5OJR60C6004","3HUR21WDDUBEMSLDIXZW1FAIHVWXYO","","725","img/flower4.png","76","726","3","1","3","2","1,0,0,1,1,0,1,0,1","1,0,0,1,1,0,1,0,1","1",""
"","html-keyboard-response","83","55459","0.0-83.0","3ZAK8W07I50RUDTRWMI2EZDIJB7U0A","A3R5OJR60C6004","3HUR21WDDUBEMSLDIXZW1FAIHVWXYO","","null","<img src=""img/flower4.png"" style=""width:200px; border:14px solid green;"">","null","","","","","","","","",""
"","image-keyboard-response","84","56013","0.0-84.0","3ZAK8W07I50RUDTRWMI2EZDIJB7U0A","A3R5OJR60C6004","3HUR21WDDUBEMSLDIXZW1FAIHVWXYO","","553","img/flower5.png","75","555","2","1","2","2","1,0,0,1,1,0,1,0,1","1,0,0,1,1,0,1,0,1","1",""
"","html-keyboard-response","85","56317","0.0-85.0","3ZAK8W07I50RUDTRWMI2EZDIJB7U0A","A3R5OJR60C6004","3HUR21WDDUBEMSLDIXZW1FAIHVWXYO","","null","<img src=""img/flower5.png"" style=""width:200px; border:14px solid green;"">","null","","","","","","","","",""
"","image-keyboard-response","86","56749","0.0-86.0","3ZAK8W07I50RUDTRWMI2EZDIJB7U0A","A3R5OJR60C6004","3HUR21WDDUBEMSLDIXZW1FAIHVWXYO","","430","img/flower2.png","74","430","1","1","1","2","1,0,0,1,1,0,1,0,1","1,0,0,1,1,0,1,0,1","1",""
"","html-keyboard-response","87","57051","0.0-87.0","3ZAK8W07I50RUDTRWMI2EZDIJB7U0A","A3R5OJR60C6004","3HUR21WDDUBEMSLDIXZW1FAIHVWXYO","","null","<img src=""img/flower2.png"" style=""width:200px; border:14px solid green;"">","null","","","","","","","","",""
"","image-keyboard-response","88","57724","0.0-88.0","3ZAK8W07I50RUDTRWMI2EZDIJB7U0A","A3R5OJR60C6004","3HUR21WDDUBEMSLDIXZW1FAIHVWXYO","","672","img/flower4.png","76","674","3","1","3","2","1,0,0,1,1,0,1,0,1","1,0,0,1,1,0,1,0,1","1",""
"","html-keyboard-response","89","58029","0.0-89.0","3ZAK8W07I50RUDTRWMI2EZDIJB7U0A","A3R5OJR60C6004","3HUR21WDDUBEMSLDIXZW1FAIHVWXYO","","null","<img src=""img/flower4.png"" style=""width:200px; border:14px solid green;"">","null","","","","","","","","",""
"","image-keyboard-response","90","58389","0.0-90.0","3ZAK8W07I50RUDTRWMI2EZDIJB7U0A","A3R5OJR60C6004","3HUR21WDDUBEMSLDIXZW1FAIHVWXYO","","359","img/flower4.png","76","359","3","1","3","2","1,0,0,1,1,0,1,0,1","1,0,0,1,1,0,1,0,1","1",""
"","html-keyboard-response","91","58705","0.0-91.0","3ZAK8W07I50RUDTRWMI2EZDIJB7U0A","A3R5OJR60C6004","3HUR21WDDUBEMSLDIXZW1FAIHVWXYO","","null","<img src=""img/flower4.png"" style=""width:200px; border:14px solid green;"">","null","","","","","","","","",""
"","image-keyboard-response","92","59589","0.0-92.0","3ZAK8W07I50RUDTRWMI2EZDIJB7U0A","A3R5OJR60C6004","3HUR21WDDUBEMSLDIXZW1FAIHVWXYO","","883","img/flower2.png","74","883","1","1","1","2","1,0,0,1,1,0,1,0,1","1,0,0,1,1,0,1,0,1","1",""
"","html-keyboard-response","93","59899","0.0-93.0","3ZAK8W07I50RUDTRWMI2EZDIJB7U0A","A3R5OJR60C6004","3HUR21WDDUBEMSLDIXZW1FAIHVWXYO","","null","<img src=""img/flower2.png"" style=""width:200px; border:14px solid green;"">","null","","","","","","","","",""
"","image-keyboard-response","94","60453","0.0-94.0","3ZAK8W07I50RUDTRWMI2EZDIJB7U0A","A3R5OJR60C6004","3HUR21WDDUBEMSLDIXZW1FAIHVWXYO","","552","img/flower5.png","75","553","2","1","2","2","1,0,0,1,1,0,1,0,1","1,0,0,1,1,0,1,0,1","1",""
"","html-keyboard-response","95","60769","0.0-95.0","3ZAK8W07I50RUDTRWMI2EZDIJB7U0A","A3R5OJR60C6004","3HUR21WDDUBEMSLDIXZW1FAIHVWXYO","","null","<img src=""img/flower5.png"" style=""width:200px; border:14px solid green;"">","null","","","","","","","","",""
"","image-keyboard-response","96","61021","0.0-96.0","3ZAK8W07I50RUDTRWMI2EZDIJB7U0A","A3R5OJR60C6004","3HUR21WDDUBEMSLDIXZW1FAIHVWXYO","","251","img/flower4.png","75","251","2","0","3","2","1,0,0,1,1,0,1,0,1","1,0,0,1,1,0,1,0,1","1",""
"","html-keyboard-response","97","61335","0.0-97.0","3ZAK8W07I50RUDTRWMI2EZDIJB7U0A","A3R5OJR60C6004","3HUR21WDDUBEMSLDIXZW1FAIHVWXYO","","null","<img src=""img/flower4.png"" style=""width:200px;border:14px solid red;"">","null","","","","","","","","",""
"","image-keyboard-response","98","61733","0.0-98.0","3ZAK8W07I50RUDTRWMI2EZDIJB7U0A","A3R5OJR60C6004","3HUR21WDDUBEMSLDIXZW1FAIHVWXYO","","398","img/flower4.png","76","398","3","1","3","2","1,0,0,1,1,0,1,0,1","1,0,0,1,1,0,1,0,1","1",""
"","html-keyboard-response","99","62040","0.0-99.0","3ZAK8W07I50RUDTRWMI2EZDIJB7U0A","A3R5OJR60C6004","3HUR21WDDUBEMSLDIXZW1FAIHVWXYO","","null","<img src=""img/flower4.png"" style=""width:200px; border:14px solid green;"">","null","","","","","","","","",""
"","image-keyboard-response","100","62331","0.0-100.0","3ZAK8W07I50RUDTRWMI2EZDIJB7U0A","A3R5OJR60C6004","3HUR21WDDUBEMSLDIXZW1FAIHVWXYO","","289","img/flower4.png","76","290","3","1","3","2","1,0,0,1,1,0,1,0,1","1,0,0,1,1,0,1,0,1","1",""
"","html-keyboard-response","101","62647","0.0-101.0","3ZAK8W07I50RUDTRWMI2EZDIJB7U0A","A3R5OJR60C6004","3HUR21WDDUBEMSLDIXZW1FAIHVWXYO","","null","<img src=""img/flower4.png"" style=""width:200px; border:14px solid green;"">","null","","","","","","","","",""
"","image-keyboard-response","102","63397","0.0-102.0","3ZAK8W07I50RUDTRWMI2EZDIJB7U0A","A3R5OJR60C6004","3HUR21WDDUBEMSLDIXZW1FAIHVWXYO","","748","img/flower5.png","74","749","1","1","2","2","1,0,0,1,1,0,1,0,1","1,0,0,1,1,0,1,0,1","1",""
"","html-keyboard-response","103","63713","0.0-103.0","3ZAK8W07I50RUDTRWMI2EZDIJB7U0A","A3R5OJR60C6004","3HUR21WDDUBEMSLDIXZW1FAIHVWXYO","","null","<img src=""img/flower5.png"" style=""width:200px; border:14px solid green;"">","null","","","","","","","","",""
"","image-keyboard-response","104","64100","0.0-104.0","3ZAK8W07I50RUDTRWMI2EZDIJB7U0A","A3R5OJR60C6004","3HUR21WDDUBEMSLDIXZW1FAIHVWXYO","","386","img/flower4.png","74","386","1","1","3","2","1,0,0,1,1,0,1,0,1","1,0,0,1,1,0,1,0,1","1",""
"","html-keyboard-response","105","64412","0.0-105.0","3ZAK8W07I50RUDTRWMI2EZDIJB7U0A","A3R5OJR60C6004","3HUR21WDDUBEMSLDIXZW1FAIHVWXYO","","null","<img src=""img/flower4.png"" style=""width:200px; border:14px solid green;"">","null","","","","","","","","",""
"","image-keyboard-response","106","65221","0.0-106.0","3ZAK8W07I50RUDTRWMI2EZDIJB7U0A","A3R5OJR60C6004","3HUR21WDDUBEMSLDIXZW1FAIHVWXYO","","807","img/flower5.png","75","808","2","1","2","2","1,0,0,1,1,0,1,0,1","1,0,0,1,1,0,1,0,1","1",""
"","html-keyboard-response","107","65536","0.0-107.0","3ZAK8W07I50RUDTRWMI2EZDIJB7U0A","A3R5OJR60C6004","3HUR21WDDUBEMSLDIXZW1FAIHVWXYO","","null","<img src=""img/flower5.png"" style=""width:200px; border:14px solid green;"">","null","","","","","","","","",""
"","image-keyboard-response","108","65813","0.0-108.0","3ZAK8W07I50RUDTRWMI2EZDIJB7U0A","A3R5OJR60C6004","3HUR21WDDUBEMSLDIXZW1FAIHVWXYO","","278","img/flower4.png","75","278","2","0","3","2","1,0,0,1,1,0,1,0,1","1,0,0,1,1,0,1,0,1","1",""
"","html-keyboard-response","109","66116","0.0-109.0","3ZAK8W07I50RUDTRWMI2EZDIJB7U0A","A3R5OJR60C6004","3HUR21WDDUBEMSLDIXZW1FAIHVWXYO","","null","<img src=""img/flower4.png"" style=""width:200px;border:14px solid red;"">","null","","","","","","","","",""
"","image-keyboard-response","110","66373","0.0-110.0","3ZAK8W07I50RUDTRWMI2EZDIJB7U0A","A3R5OJR60C6004","3HUR21WDDUBEMSLDIXZW1FAIHVWXYO","","255","img/flower4.png","76","256","3","1","3","2","1,0,0,1,1,0,1,0,1","1,0,0,1,1,0,1,0,1","1",""
"","html-keyboard-response","111","66685","0.0-111.0","3ZAK8W07I50RUDTRWMI2EZDIJB7U0A","A3R5OJR60C6004","3HUR21WDDUBEMSLDIXZW1FAIHVWXYO","","null","<img src=""img/flower4.png"" style=""width:200px; border:14px solid green;"">","null","","","","","","","","",""
"","image-keyboard-response","112","67461","0.0-112.0","3ZAK8W07I50RUDTRWMI2EZDIJB7U0A","A3R5OJR60C6004","3HUR21WDDUBEMSLDIXZW1FAIHVWXYO","","776","img/flower5.png","74","776","1","1","2","2","1,0,0,1,1,0,1,0,1","1,0,0,1,1,0,1,0,1","1",""
"","html-keyboard-response","113","67767","0.0-113.0","3ZAK8W07I50RUDTRWMI2EZDIJB7U0A","A3R5OJR60C6004","3HUR21WDDUBEMSLDIXZW1FAIHVWXYO","","null","<img src=""img/flower5.png"" style=""width:200px; border:14px solid green;"">","null","","","","","","","","",""
"","image-keyboard-response","114","68573","0.0-114.0","3ZAK8W07I50RUDTRWMI2EZDIJB7U0A","A3R5OJR60C6004","3HUR21WDDUBEMSLDIXZW1FAIHVWXYO","","804","img/flower2.png","74","804","1","1","1","2","1,0,0,1,1,0,1,0,1","1,0,0,1,1,0,1,0,1","1",""
"","html-keyboard-response","115","68885","0.0-115.0","3ZAK8W07I50RUDTRWMI2EZDIJB7U0A","A3R5OJR60C6004","3HUR21WDDUBEMSLDIXZW1FAIHVWXYO","","null","<img src=""img/flower2.png"" style=""width:200px; border:14px solid green;"">","null","","","","","","","","",""
"","image-keyboard-response","116","69708","0.0-116.0","3ZAK8W07I50RUDTRWMI2EZDIJB7U0A","A3R5OJR60C6004","3HUR21WDDUBEMSLDIXZW1FAIHVWXYO","","822","img/flower5.png","75","822","2","1","2","2","1,0,0,1,1,0,1,0,1","1,0,0,1,1,0,1,0,1","1",""
"","html-keyboard-response","117","70012","0.0-117.0","3ZAK8W07I50RUDTRWMI2EZDIJB7U0A","A3R5OJR60C6004","3HUR21WDDUBEMSLDIXZW1FAIHVWXYO","","null","<img src=""img/flower5.png"" style=""width:200px; border:14px solid green;"">","null","","","","","","","","",""
"","image-keyboard-response","118","70394","0.0-118.0","3ZAK8W07I50RUDTRWMI2EZDIJB7U0A","A3R5OJR60C6004","3HUR21WDDUBEMSLDIXZW1FAIHVWXYO","","382","img/flower5.png","75","382","2","1","2","2","1,0,0,1,1,0,1,0,1","1,0,0,1,1,0,1,0,1","1",""
"","html-keyboard-response","119","70697","0.0-119.0","3ZAK8W07I50RUDTRWMI2EZDIJB7U0A","A3R5OJR60C6004","3HUR21WDDUBEMSLDIXZW1FAIHVWXYO","","null","<img src=""img/flower5.png"" style=""width:200px; border:14px solid green;"">","null","","","","","","","","",""
"","image-keyboard-response","120","71013","0.0-120.0","3ZAK8W07I50RUDTRWMI2EZDIJB7U0A","A3R5OJR60C6004","3HUR21WDDUBEMSLDIXZW1FAIHVWXYO","","314","img/flower5.png","75","316","2","1","2","2","1,0,0,1,1,0,1,0,1","1,0,0,1,1,0,1,0,1","1",""
"","html-keyboard-response","121","71327","0.0-121.0","3ZAK8W07I50RUDTRWMI2EZDIJB7U0A","A3R5OJR60C6004","3HUR21WDDUBEMSLDIXZW1FAIHVWXYO","","null","<img src=""img/flower5.png"" style=""width:200px; border:14px solid green;"">","null","","","","","","","","",""
"","image-keyboard-response","122","72006","0.0-122.0","3ZAK8W07I50RUDTRWMI2EZDIJB7U0A","A3R5OJR60C6004","3HUR21WDDUBEMSLDIXZW1FAIHVWXYO","","677","img/flower2.png","74","679","1","1","1","2","1,0,0,1,1,0,1,0,1","1,0,0,1,1,0,1,0,1","1",""
"","html-keyboard-response","123","72313","0.0-123.0","3ZAK8W07I50RUDTRWMI2EZDIJB7U0A","A3R5OJR60C6004","3HUR21WDDUBEMSLDIXZW1FAIHVWXYO","","null","<img src=""img/flower2.png"" style=""width:200px; border:14px solid green;"">","null","","","","","","","","",""
"","image-keyboard-response","124","72614","0.0-124.0","3ZAK8W07I50RUDTRWMI2EZDIJB7U0A","A3R5OJR60C6004","3HUR21WDDUBEMSLDIXZW1FAIHVWXYO","","299","img/flower2.png","74","300","1","1","1","2","1,0,0,1,1,0,1,0,1","1,0,0,1,1,0,1,0,1","1",""
"","html-keyboard-response","125","72919","0.0-125.0","3ZAK8W07I50RUDTRWMI2EZDIJB7U0A","A3R5OJR60C6004","3HUR21WDDUBEMSLDIXZW1FAIHVWXYO","","null","<img src=""img/flower2.png"" style=""width:200px; border:14px solid green;"">","null","","","","","","","","",""
"","image-keyboard-response","126","73782","0.0-126.0","3ZAK8W07I50RUDTRWMI2EZDIJB7U0A","A3R5OJR60C6004","3HUR21WDDUBEMSLDIXZW1FAIHVWXYO","","861","img/flower5.png","75","862","2","1","2","2","1,0,0,1,1,0,1,0,1","1,0,0,1,1,0,1,0,1","1",""
"","html-keyboard-response","127","74083","0.0-127.0","3ZAK8W07I50RUDTRWMI2EZDIJB7U0A","A3R5OJR60C6004","3HUR21WDDUBEMSLDIXZW1FAIHVWXYO","","null","<img src=""img/flower5.png"" style=""width:200px; border:14px solid green;"">","null","","","","","","","","",""
"","image-keyboard-response","128","74861","0.0-128.0","3ZAK8W07I50RUDTRWMI2EZDIJB7U0A","A3R5OJR60C6004","3HUR21WDDUBEMSLDIXZW1FAIHVWXYO","","776","img/flower2.png","74","778","1","1","1","2","1,0,0,1,1,0,1,0,1","1,0,0,1,1,0,1,0,1","1",""
"","html-keyboard-response","129","75167","0.0-129.0","3ZAK8W07I50RUDTRWMI2EZDIJB7U0A","A3R5OJR60C6004","3HUR21WDDUBEMSLDIXZW1FAIHVWXYO","","null","<img src=""img/flower2.png"" style=""width:200px; border:14px solid green;"">","null","","","","","","","","",""
"","image-keyboard-response","130","75469","0.0-130.0","3ZAK8W07I50RUDTRWMI2EZDIJB7U0A","A3R5OJR60C6004","3HUR21WDDUBEMSLDIXZW1FAIHVWXYO","","301","img/flower2.png","74","302","1","1","1","2","1,0,0,1,1,0,1,0,1","1,0,0,1,1,0,1,0,1","1",""
"","html-keyboard-response","131","75785","0.0-131.0","3ZAK8W07I50RUDTRWMI2EZDIJB7U0A","A3R5OJR60C6004","3HUR21WDDUBEMSLDIXZW1FAIHVWXYO","","null","<img src=""img/flower2.png"" style=""width:200px; border:14px solid green;"">","null","","","","","","","","",""
"","image-keyboard-response","132","76388","0.0-132.0","3ZAK8W07I50RUDTRWMI2EZDIJB7U0A","A3R5OJR60C6004","3HUR21WDDUBEMSLDIXZW1FAIHVWXYO","","603","img/flower4.png","76","604","3","1","3","2","1,0,0,1,1,0,1,0,1","1,0,0,1,1,0,1,0,1","1",""
"","html-keyboard-response","133","76702","0.0-133.0","3ZAK8W07I50RUDTRWMI2EZDIJB7U0A","A3R5OJR60C6004","3HUR21WDDUBEMSLDIXZW1FAIHVWXYO","","null","<img src=""img/flower4.png"" style=""width:200px; border:14px solid green;"">","null","","","","","","","","",""
"","image-keyboard-response","134","76965","0.0-134.0","3ZAK8W07I50RUDTRWMI2EZDIJB7U0A","A3R5OJR60C6004","3HUR21WDDUBEMSLDIXZW1FAIHVWXYO","","262","img/flower2.png","76","262","3","0","1","2","1,0,0,1,1,0,1,0,1","1,0,0,1,1,0,1,0,1","1",""
"","html-keyboard-response","135","77281","0.0-135.0","3ZAK8W07I50RUDTRWMI2EZDIJB7U0A","A3R5OJR60C6004","3HUR21WDDUBEMSLDIXZW1FAIHVWXYO","","null","<img src=""img/flower2.png"" style=""width:200px;border:14px solid red;"">","null","","","","","","","","",""
"","image-keyboard-response","136","77516","0.0-136.0","3ZAK8W07I50RUDTRWMI2EZDIJB7U0A","A3R5OJR60C6004","3HUR21WDDUBEMSLDIXZW1FAIHVWXYO","","233","img/flower4.png","74","234","1","1","3","2","1,0,0,1,1,0,1,0,1","1,0,0,1,1,0,1,0,1","1",""
"","html-keyboard-response","137","77831","0.0-137.0","3ZAK8W07I50RUDTRWMI2EZDIJB7U0A","A3R5OJR60C6004","3HUR21WDDUBEMSLDIXZW1FAIHVWXYO","","null","<img src=""img/flower4.png"" style=""width:200px; border:14px solid green;"">","null","","","","","","","","",""
"","image-keyboard-response","138","78931","0.0-138.0","3ZAK8W07I50RUDTRWMI2EZDIJB7U0A","A3R5OJR60C6004","3HUR21WDDUBEMSLDIXZW1FAIHVWXYO","","1100","img/flower5.png","75","1100","2","1","2","2","1,0,0,1,1,0,1,0,1","1,0,0,1,1,0,1,0,1","1",""
"","html-keyboard-response","139","79240","0.0-139.0","3ZAK8W07I50RUDTRWMI2EZDIJB7U0A","A3R5OJR60C6004","3HUR21WDDUBEMSLDIXZW1FAIHVWXYO","","null","<img src=""img/flower5.png"" style=""width:200px; border:14px solid green;"">","null","","","","","","","","",""
"","image-keyboard-response","140","79748","0.0-140.0","3ZAK8W07I50RUDTRWMI2EZDIJB7U0A","A3R5OJR60C6004","3HUR21WDDUBEMSLDIXZW1FAIHVWXYO","","507","img/flower2.png","74","507","1","1","1","2","1,0,0,1,1,0,1,0,1","1,0,0,1,1,0,1,0,1","1",""
"","html-keyboard-response","141","80060","0.0-141.0","3ZAK8W07I50RUDTRWMI2EZDIJB7U0A","A3R5OJR60C6004","3HUR21WDDUBEMSLDIXZW1FAIHVWXYO","","null","<img src=""img/flower2.png"" style=""width:200px; border:14px solid green;"">","null","","","","","","","","",""
"","image-keyboard-response","142","80645","0.0-142.0","3ZAK8W07I50RUDTRWMI2EZDIJB7U0A","A3R5OJR60C6004","3HUR21WDDUBEMSLDIXZW1FAIHVWXYO","","585","img/flower4.png","76","585","3","1","3","2","1,0,0,1,1,0,1,0,1","1,0,0,1,1,0,1,0,1","1",""
"","html-keyboard-response","143","80947","0.0-143.0","3ZAK8W07I50RUDTRWMI2EZDIJB7U0A","A3R5OJR60C6004","3HUR21WDDUBEMSLDIXZW1FAIHVWXYO","","null","<img src=""img/flower4.png"" style=""width:200px; border:14px solid green;"">","null","","","","","","","","",""
"","image-keyboard-response","144","81828","0.0-144.0","3ZAK8W07I50RUDTRWMI2EZDIJB7U0A","A3R5OJR60C6004","3HUR21WDDUBEMSLDIXZW1FAIHVWXYO","","880","img/flower5.png","75","882","2","1","2","2","1,0,0,1,1,0,1,0,1","1,0,0,1,1,0,1,0,1","1",""
"","html-keyboard-response","145","82132","0.0-145.0","3ZAK8W07I50RUDTRWMI2EZDIJB7U0A","A3R5OJR60C6004","3HUR21WDDUBEMSLDIXZW1FAIHVWXYO","","null","<img src=""img/flower5.png"" style=""width:200px; border:14px solid green;"">","null","","","","","","","","",""
"","image-keyboard-response","146","82668","0.0-146.0","3ZAK8W07I50RUDTRWMI2EZDIJB7U0A","A3R5OJR60C6004","3HUR21WDDUBEMSLDIXZW1FAIHVWXYO","","535","img/flower4.png","76","535","3","1","3","2","1,0,0,1,1,0,1,0,1","1,0,0,1,1,0,1,0,1","1",""
"","html-keyboard-response","147","82982","0.0-147.0","3ZAK8W07I50RUDTRWMI2EZDIJB7U0A","A3R5OJR60C6004","3HUR21WDDUBEMSLDIXZW1FAIHVWXYO","","null","<img src=""img/flower4.png"" style=""width:200px; border:14px solid green;"">","null","","","","","","","","",""
"","image-keyboard-response","148","83581","0.0-148.0","3ZAK8W07I50RUDTRWMI2EZDIJB7U0A","A3R5OJR60C6004","3HUR21WDDUBEMSLDIXZW1FAIHVWXYO","","599","img/flower5.png","75","599","2","1","2","2","1,0,0,1,1,0,1,0,1","1,0,0,1,1,0,1,0,1","1",""
"","html-keyboard-response","149","83882","0.0-149.0","3ZAK8W07I50RUDTRWMI2EZDIJB7U0A","A3R5OJR60C6004","3HUR21WDDUBEMSLDIXZW1FAIHVWXYO","","null","<img src=""img/flower5.png"" style=""width:200px; border:14px solid green;"">","null","","","","","","","","",""
"","image-keyboard-response","150","84411","0.0-150.0","3ZAK8W07I50RUDTRWMI2EZDIJB7U0A","A3R5OJR60C6004","3HUR21WDDUBEMSLDIXZW1FAIHVWXYO","","527","img/flower5.png","75","529","2","1","2","2","1,0,0,1,1,0,1,0,1","1,0,0,1,1,0,1,0,1","1",""
"","html-keyboard-response","151","84716","0.0-151.0","3ZAK8W07I50RUDTRWMI2EZDIJB7U0A","A3R5OJR60C6004","3HUR21WDDUBEMSLDIXZW1FAIHVWXYO","","null","<img src=""img/flower5.png"" style=""width:200px; border:14px solid green;"">","null","","","","","","","","",""
"","image-keyboard-response","152","85170","0.0-152.0","3ZAK8W07I50RUDTRWMI2EZDIJB7U0A","A3R5OJR60C6004","3HUR21WDDUBEMSLDIXZW1FAIHVWXYO","","453","img/flower2.png","74","454","1","1","1","2","1,0,0,1,1,0,1,0,1","1,0,0,1,1,0,1,0,1","1",""
"","html-keyboard-response","153","85485","0.0-153.0","3ZAK8W07I50RUDTRWMI2EZDIJB7U0A","A3R5OJR60C6004","3HUR21WDDUBEMSLDIXZW1FAIHVWXYO","","null","<img src=""img/flower2.png"" style=""width:200px; border:14px solid green;"">","null","","","","","","","","",""
"","image-keyboard-response","154","86101","0.0-154.0","3ZAK8W07I50RUDTRWMI2EZDIJB7U0A","A3R5OJR60C6004","3HUR21WDDUBEMSLDIXZW1FAIHVWXYO","","615","img/flower5.png","75","615","2","1","2","2","1,0,0,1,1,0,1,0,1","1,0,0,1,1,0,1,0,1","1",""
"","html-keyboard-response","155","86416","0.0-155.0","3ZAK8W07I50RUDTRWMI2EZDIJB7U0A","A3R5OJR60C6004","3HUR21WDDUBEMSLDIXZW1FAIHVWXYO","","null","<img src=""img/flower5.png"" style=""width:200px; border:14px solid green;"">","null","","","","","","","","",""
"","image-keyboard-response","156","86893","0.0-156.0","3ZAK8W07I50RUDTRWMI2EZDIJB7U0A","A3R5OJR60C6004","3HUR21WDDUBEMSLDIXZW1FAIHVWXYO","","476","img/flower2.png","74","477","1","1","1","2","1,0,0,1,1,0,1,0,1","1,0,0,1,1,0,1,0,1","1",""
"","html-keyboard-response","157","87200","0.0-157.0","3ZAK8W07I50RUDTRWMI2EZDIJB7U0A","A3R5OJR60C6004","3HUR21WDDUBEMSLDIXZW1FAIHVWXYO","","null","<img src=""img/flower2.png"" style=""width:200px; border:14px solid green;"">","null","","","","","","","","",""
"","image-keyboard-response","158","87629","0.0-158.0","3ZAK8W07I50RUDTRWMI2EZDIJB7U0A","A3R5OJR60C6004","3HUR21WDDUBEMSLDIXZW1FAIHVWXYO","","428","img/flower2.png","74","430","1","1","1","2","1,0,0,1,1,0,1,0,1","1,0,0,1,1,0,1,0,1","1",""
"","html-keyboard-response","159","87932","0.0-159.0","3ZAK8W07I50RUDTRWMI2EZDIJB7U0A","A3R5OJR60C6004","3HUR21WDDUBEMSLDIXZW1FAIHVWXYO","","null","<img src=""img/flower2.png"" style=""width:200px; border:14px solid green;"">","null","","","","","","","","",""
"","image-keyboard-response","160","88277","0.0-160.0","3ZAK8W07I50RUDTRWMI2EZDIJB7U0A","A3R5OJR60C6004","3HUR21WDDUBEMSLDIXZW1FAIHVWXYO","","344","img/flower2.png","74","344","1","1","1","2","1,0,0,1,1,0,1,0,1","1,0,0,1,1,0,1,0,1","1",""
"","html-keyboard-response","161","88589","0.0-161.0","3ZAK8W07I50RUDTRWMI2EZDIJB7U0A","A3R5OJR60C6004","3HUR21WDDUBEMSLDIXZW1FAIHVWXYO","","null","<img src=""img/flower2.png"" style=""width:200px; border:14px solid green;"">","null","","","","","","","","",""
"","image-keyboard-response","162","88917","0.0-162.0","3ZAK8W07I50RUDTRWMI2EZDIJB7U0A","A3R5OJR60C6004","3HUR21WDDUBEMSLDIXZW1FAIHVWXYO","","326","img/flower2.png","74","327","1","1","1","2","1,0,0,1,1,0,1,0,1","1,0,0,1,1,0,1,0,1","1",""
"","html-keyboard-response","163","89233","0.0-163.0","3ZAK8W07I50RUDTRWMI2EZDIJB7U0A","A3R5OJR60C6004","3HUR21WDDUBEMSLDIXZW1FAIHVWXYO","","null","<img src=""img/flower2.png"" style=""width:200px; border:14px solid green;"">","null","","","","","","","","",""
"","image-keyboard-response","164","89580","0.0-164.0","3ZAK8W07I50RUDTRWMI2EZDIJB7U0A","A3R5OJR60C6004","3HUR21WDDUBEMSLDIXZW1FAIHVWXYO","","347","img/flower2.png","74","348","1","1","1","2","1,0,0,1,1,0,1,0,1","1,0,0,1,1,0,1,0,1","1",""
"","html-keyboard-response","165","89882","0.0-165.0","3ZAK8W07I50RUDTRWMI2EZDIJB7U0A","A3R5OJR60C6004","3HUR21WDDUBEMSLDIXZW1FAIHVWXYO","","null","<img src=""img/flower2.png"" style=""width:200px; border:14px solid green;"">","null","","","","","","","","",""
"","image-keyboard-response","166","90466","0.0-166.0","3ZAK8W07I50RUDTRWMI2EZDIJB7U0A","A3R5OJR60C6004","3HUR21WDDUBEMSLDIXZW1FAIHVWXYO","","584","img/flower4.png","76","585","3","1","3","2","1,0,0,1,1,0,1,0,1","1,0,0,1,1,0,1,0,1","1",""
"","html-keyboard-response","167","90767","0.0-167.0","3ZAK8W07I50RUDTRWMI2EZDIJB7U0A","A3R5OJR60C6004","3HUR21WDDUBEMSLDIXZW1FAIHVWXYO","","null","<img src=""img/flower4.png"" style=""width:200px; border:14px solid green;"">","null","","","","","","","","",""
"","image-keyboard-response","168","91293","0.0-168.0","3ZAK8W07I50RUDTRWMI2EZDIJB7U0A","A3R5OJR60C6004","3HUR21WDDUBEMSLDIXZW1FAIHVWXYO","","524","img/flower5.png","75","526","2","1","2","2","1,0,0,1,1,0,1,0,1","1,0,0,1,1,0,1,0,1","1",""
"","html-keyboard-response","169","91605","0.0-169.0","3ZAK8W07I50RUDTRWMI2EZDIJB7U0A","A3R5OJR60C6004","3HUR21WDDUBEMSLDIXZW1FAIHVWXYO","","null","<img src=""img/flower5.png"" style=""width:200px; border:14px solid green;"">","null","","","","","","","","",""
"","image-keyboard-response","170","92085","0.0-170.0","3ZAK8W07I50RUDTRWMI2EZDIJB7U0A","A3R5OJR60C6004","3HUR21WDDUBEMSLDIXZW1FAIHVWXYO","","479","img/flower5.png","75","479","2","1","2","2","1,0,0,1,1,0,1,0,1","1,0,0,1,1,0,1,0,1","1",""
"","html-keyboard-response","171","92400","0.0-171.0","3ZAK8W07I50RUDTRWMI2EZDIJB7U0A","A3R5OJR60C6004","3HUR21WDDUBEMSLDIXZW1FAIHVWXYO","","null","<img src=""img/flower5.png"" style=""width:200px; border:14px solid green;"">","null","","","","","","","","",""
"","image-keyboard-response","172","92861","0.0-172.0","3ZAK8W07I50RUDTRWMI2EZDIJB7U0A","A3R5OJR60C6004","3HUR21WDDUBEMSLDIXZW1FAIHVWXYO","","461","img/flower4.png","76","462","3","1","3","2","1,0,0,1,1,0,1,0,1","1,0,0,1,1,0,1,0,1","1",""
"","html-keyboard-response","173","93166","0.0-173.0","3ZAK8W07I50RUDTRWMI2EZDIJB7U0A","A3R5OJR60C6004","3HUR21WDDUBEMSLDIXZW1FAIHVWXYO","","null","<img src=""img/flower4.png"" style=""width:200px; border:14px solid green;"">","null","","","","","","","","",""
"","image-keyboard-response","174","93724","0.0-174.0","3ZAK8W07I50RUDTRWMI2EZDIJB7U0A","A3R5OJR60C6004","3HUR21WDDUBEMSLDIXZW1FAIHVWXYO","","557","img/flower5.png","75","557","2","1","2","2","1,0,0,1,1,0,1,0,1","1,0,0,1,1,0,1,0,1","1",""
"","html-keyboard-response","175","94027","0.0-175.0","3ZAK8W07I50RUDTRWMI2EZDIJB7U0A","A3R5OJR60C6004","3HUR21WDDUBEMSLDIXZW1FAIHVWXYO","","null","<img src=""img/flower5.png"" style=""width:200px; border:14px solid green;"">","null","","","","","","","","",""
"","image-keyboard-response","176","94602","0.0-176.0","3ZAK8W07I50RUDTRWMI2EZDIJB7U0A","A3R5OJR60C6004","3HUR21WDDUBEMSLDIXZW1FAIHVWXYO","","574","img/flower4.png","76","575","3","1","3","2","1,0,0,1,1,0,1,0,1","1,0,0,1,1,0,1,0,1","1",""
"","html-keyboard-response","177","94914","0.0-177.0","3ZAK8W07I50RUDTRWMI2EZDIJB7U0A","A3R5OJR60C6004","3HUR21WDDUBEMSLDIXZW1FAIHVWXYO","","null","<img src=""img/flower4.png"" style=""width:200px; border:14px solid green;"">","null","","","","","","","","",""
"","image-keyboard-response","178","95509","0.0-178.0","3ZAK8W07I50RUDTRWMI2EZDIJB7U0A","A3R5OJR60C6004","3HUR21WDDUBEMSLDIXZW1FAIHVWXYO","","594","img/flower2.png","74","595","1","1","1","2","1,0,0,1,1,0,1,0,1","1,0,0,1,1,0,1,0,1","1",""
"","html-keyboard-response","179","95819","0.0-179.0","3ZAK8W07I50RUDTRWMI2EZDIJB7U0A","A3R5OJR60C6004","3HUR21WDDUBEMSLDIXZW1FAIHVWXYO","","null","<img src=""img/flower2.png"" style=""width:200px; border:14px solid green;"">","null","","","","","","","","",""
"","image-keyboard-response","180","96147","0.0-180.0","3ZAK8W07I50RUDTRWMI2EZDIJB7U0A","A3R5OJR60C6004","3HUR21WDDUBEMSLDIXZW1FAIHVWXYO","","327","img/flower2.png","74","327","1","1","1","2","1,0,0,1,1,0,1,0,1","1,0,0,1,1,0,1,0,1","1",""
"","html-keyboard-response","181","96451","0.0-181.0","3ZAK8W07I50RUDTRWMI2EZDIJB7U0A","A3R5OJR60C6004","3HUR21WDDUBEMSLDIXZW1FAIHVWXYO","","null","<img src=""img/flower2.png"" style=""width:200px; border:14px solid green;"">","null","","","","","","","","",""
"","image-keyboard-response","182","97218","0.0-182.0","3ZAK8W07I50RUDTRWMI2EZDIJB7U0A","A3R5OJR60C6004","3HUR21WDDUBEMSLDIXZW1FAIHVWXYO","","766","img/flower3.png","76","767","3","1","1","1","1,0.333,0.333,0.333,1,0.333,0.333,0.333,1","1,0.333,0.333,0.333,1,0.333,0.333,0.333,1","1",""
"","html-keyboard-response","183","97520","0.0-183.0","3ZAK8W07I50RUDTRWMI2EZDIJB7U0A","A3R5OJR60C6004","3HUR21WDDUBEMSLDIXZW1FAIHVWXYO","","null","<img src=""img/flower3.png"" style=""width:200px; border:14px solid green;"">","null","","","","","","","","",""
"","image-keyboard-response","184","97925","0.0-184.0","3ZAK8W07I50RUDTRWMI2EZDIJB7U0A","A3R5OJR60C6004","3HUR21WDDUBEMSLDIXZW1FAIHVWXYO","","404","img/flower3.png","76","404","3","0","1","1","1,0.333,0.333,0.333,1,0.333,0.333,0.333,1","1,0.333,0.333,0.333,1,0.333,0.333,0.333,1","1",""
"","html-keyboard-response","185","98241","0.0-185.0","3ZAK8W07I50RUDTRWMI2EZDIJB7U0A","A3R5OJR60C6004","3HUR21WDDUBEMSLDIXZW1FAIHVWXYO","","null","<img src=""img/flower3.png"" style=""width:200px;border:14px solid red;"">","null","","","","","","","","",""
"","image-keyboard-response","186","99203","0.0-186.0","3ZAK8W07I50RUDTRWMI2EZDIJB7U0A","A3R5OJR60C6004","3HUR21WDDUBEMSLDIXZW1FAIHVWXYO","","962","img/flower6.png","75","963","2","0","3","1","1,0.333,0.333,0.333,1,0.333,0.333,0.333,1","1,0.333,0.333,0.333,1,0.333,0.333,0.333,1","1",""
"","html-keyboard-response","187","99507","0.0-187.0","3ZAK8W07I50RUDTRWMI2EZDIJB7U0A","A3R5OJR60C6004","3HUR21WDDUBEMSLDIXZW1FAIHVWXYO","","null","<img src=""img/flower6.png"" style=""width:200px;border:14px solid red;"">","null","","","","","","","","",""
"","image-keyboard-response","188","99949","0.0-188.0","3ZAK8W07I50RUDTRWMI2EZDIJB7U0A","A3R5OJR60C6004","3HUR21WDDUBEMSLDIXZW1FAIHVWXYO","","440","img/flower6.png","74","442","1","0","3","1","1,0.333,0.333,0.333,1,0.333,0.333,0.333,1","1,0.333,0.333,0.333,1,0.333,0.333,0.333,1","1",""
"","html-keyboard-response","189","100255","0.0-189.0","3ZAK8W07I50RUDTRWMI2EZDIJB7U0A","A3R5OJR60C6004","3HUR21WDDUBEMSLDIXZW1FAIHVWXYO","","null","<img src=""img/flower6.png"" style=""width:200px;border:14px solid red;"">","null","","","","","","","","",""
"","image-keyboard-response","190","101131","0.0-190.0","3ZAK8W07I50RUDTRWMI2EZDIJB7U0A","A3R5OJR60C6004","3HUR21WDDUBEMSLDIXZW1FAIHVWXYO","","876","img/flower1.png","76","876","3","0","2","1","1,0.333,0.333,0.333,1,0.333,0.333,0.333,1","1,0.333,0.333,0.333,1,0.333,0.333,0.333,1","1",""
"","html-keyboard-response","191","101437","0.0-191.0","3ZAK8W07I50RUDTRWMI2EZDIJB7U0A","A3R5OJR60C6004","3HUR21WDDUBEMSLDIXZW1FAIHVWXYO","","null","<img src=""img/flower1.png"" style=""width:200px;border:14px solid red;"">","null","","","","","","","","",""
"","image-keyboard-response","192","102125","0.0-192.0","3ZAK8W07I50RUDTRWMI2EZDIJB7U0A","A3R5OJR60C6004","3HUR21WDDUBEMSLDIXZW1FAIHVWXYO","","687","img/flower6.png","76","688","3","1","3","1","1,0.333,0.333,0.333,1,0.333,0.333,0.333,1","1,0.333,0.333,0.333,1,0.333,0.333,0.333,1","1",""
"","html-keyboard-response","193","102432","0.0-193.0","3ZAK8W07I50RUDTRWMI2EZDIJB7U0A","A3R5OJR60C6004","3HUR21WDDUBEMSLDIXZW1FAIHVWXYO","","null","<img src=""img/flower6.png"" style=""width:200px; border:14px solid green;"">","null","","","","","","","","",""
"","image-keyboard-response","194","102939","0.0-194.0","3ZAK8W07I50RUDTRWMI2EZDIJB7U0A","A3R5OJR60C6004","3HUR21WDDUBEMSLDIXZW1FAIHVWXYO","","505","img/flower1.png","76","506","3","0","2","1","1,0.333,0.333,0.333,1,0.333,0.333,0.333,1","1,0.333,0.333,0.333,1,0.333,0.333,0.333,1","1",""
"","html-keyboard-response","195","103238","0.0-195.0","3ZAK8W07I50RUDTRWMI2EZDIJB7U0A","A3R5OJR60C6004","3HUR21WDDUBEMSLDIXZW1FAIHVWXYO","","null","<img src=""img/flower1.png"" style=""width:200px;border:14px solid red;"">","null","","","","","","","","",""
"","image-keyboard-response","196","103829","0.0-196.0","3ZAK8W07I50RUDTRWMI2EZDIJB7U0A","A3R5OJR60C6004","3HUR21WDDUBEMSLDIXZW1FAIHVWXYO","","589","img/flower1.png","75","589","2","1","2","1","1,0.333,0.333,0.333,1,0.333,0.333,0.333,1","1,0.333,0.333,0.333,1,0.333,0.333,0.333,1","1",""
"","html-keyboard-response","197","104134","0.0-197.0","3ZAK8W07I50RUDTRWMI2EZDIJB7U0A","A3R5OJR60C6004","3HUR21WDDUBEMSLDIXZW1FAIHVWXYO","","null","<img src=""img/flower1.png"" style=""width:200px; border:14px solid green;"">","null","","","","","","","","",""
"","image-keyboard-response","198","104900","0.0-198.0","3ZAK8W07I50RUDTRWMI2EZDIJB7U0A","A3R5OJR60C6004","3HUR21WDDUBEMSLDIXZW1FAIHVWXYO","","765","img/flower6.png","74","767","1","1","3","1","1,0.333,0.333,0.333,1,0.333,0.333,0.333,1","1,0.333,0.333,0.333,1,0.333,0.333,0.333,1","1",""
"","html-keyboard-response","199","105202","0.0-199.0","3ZAK8W07I50RUDTRWMI2EZDIJB7U0A","A3R5OJR60C6004","3HUR21WDDUBEMSLDIXZW1FAIHVWXYO","","null","<img src=""img/flower6.png"" style=""width:200px; border:14px solid green;"">","null","","","","","","","","",""
"","image-keyboard-response","200","106244","0.0-200.0","3ZAK8W07I50RUDTRWMI2EZDIJB7U0A","A3R5OJR60C6004","3HUR21WDDUBEMSLDIXZW1FAIHVWXYO","","1041","img/flower1.png","75","1042","2","1","2","1","1,0.333,0.333,0.333,1,0.333,0.333,0.333,1","1,0.333,0.333,0.333,1,0.333,0.333,0.333,1","1",""
"","html-keyboard-response","201","106545","0.0-201.0","3ZAK8W07I50RUDTRWMI2EZDIJB7U0A","A3R5OJR60C6004","3HUR21WDDUBEMSLDIXZW1FAIHVWXYO","","null","<img src=""img/flower1.png"" style=""width:200px; border:14px solid green;"">","null","","","","","","","","",""
"","image-keyboard-response","202","107045","0.0-202.0","3ZAK8W07I50RUDTRWMI2EZDIJB7U0A","A3R5OJR60C6004","3HUR21WDDUBEMSLDIXZW1FAIHVWXYO","","499","img/flower1.png","75","499","2","1","2","1","1,0.333,0.333,0.333,1,0.333,0.333,0.333,1","1,0.333,0.333,0.333,1,0.333,0.333,0.333,1","1",""
"","html-keyboard-response","203","107359","0.0-203.0","3ZAK8W07I50RUDTRWMI2EZDIJB7U0A","A3R5OJR60C6004","3HUR21WDDUBEMSLDIXZW1FAIHVWXYO","","null","<img src=""img/flower1.png"" style=""width:200px; border:14px solid green;"">","null","","","","","","","","",""
"","image-keyboard-response","204","108182","0.0-204.0","3ZAK8W07I50RUDTRWMI2EZDIJB7U0A","A3R5OJR60C6004","3HUR21WDDUBEMSLDIXZW1FAIHVWXYO","","821","img/flower6.png","74","822","1","1","3","1","1,0.333,0.333,0.333,1,0.333,0.333,0.333,1","1,0.333,0.333,0.333,1,0.333,0.333,0.333,1","1",""
"","html-keyboard-response","205","108497","0.0-205.0","3ZAK8W07I50RUDTRWMI2EZDIJB7U0A","A3R5OJR60C6004","3HUR21WDDUBEMSLDIXZW1FAIHVWXYO","","null","<img src=""img/flower6.png"" style=""width:200px; border:14px solid green;"">","null","","","","","","","","",""
"","image-keyboard-response","206","109205","0.0-206.0","3ZAK8W07I50RUDTRWMI2EZDIJB7U0A","A3R5OJR60C6004","3HUR21WDDUBEMSLDIXZW1FAIHVWXYO","","709","img/flower3.png","76","709","3","0","1","1","1,0.333,0.333,0.333,1,0.333,0.333,0.333,1","1,0.333,0.333,0.333,1,0.333,0.333,0.333,1","1",""
"","html-keyboard-response","207","109509","0.0-207.0","3ZAK8W07I50RUDTRWMI2EZDIJB7U0A","A3R5OJR60C6004","3HUR21WDDUBEMSLDIXZW1FAIHVWXYO","","null","<img src=""img/flower3.png"" style=""width:200px;border:14px solid red;"">","null","","","","","","","","",""
"","image-keyboard-response","208","111011","0.0-208.0","3ZAK8W07I50RUDTRWMI2EZDIJB7U0A","A3R5OJR60C6004","3HUR21WDDUBEMSLDIXZW1FAIHVWXYO","","1501","img/flower3.png","76","1502","3","1","1","1","1,0.333,0.333,0.333,1,0.333,0.333,0.333,1","1,0.333,0.333,0.333,1,0.333,0.333,0.333,1","1",""
"","html-keyboard-response","209","111316","0.0-209.0","3ZAK8W07I50RUDTRWMI2EZDIJB7U0A","A3R5OJR60C6004","3HUR21WDDUBEMSLDIXZW1FAIHVWXYO","","null","<img src=""img/flower3.png"" style=""width:200px; border:14px solid green;"">","null","","","","","","","","",""
"","image-keyboard-response","210","112427","0.0-210.0","3ZAK8W07I50RUDTRWMI2EZDIJB7U0A","A3R5OJR60C6004","3HUR21WDDUBEMSLDIXZW1FAIHVWXYO","","1110","img/flower6.png","74","1110","1","1","3","1","1,0.333,0.333,0.333,1,0.333,0.333,0.333,1","1,0.333,0.333,0.333,1,0.333,0.333,0.333,1","1",""
"","html-keyboard-response","211","112730","0.0-211.0","3ZAK8W07I50RUDTRWMI2EZDIJB7U0A","A3R5OJR60C6004","3HUR21WDDUBEMSLDIXZW1FAIHVWXYO","","null","<img src=""img/flower6.png"" style=""width:200px; border:14px solid green;"">","null","","","","","","","","",""
"","image-keyboard-response","212","113325","0.0-212.0","3ZAK8W07I50RUDTRWMI2EZDIJB7U0A","A3R5OJR60C6004","3HUR21WDDUBEMSLDIXZW1FAIHVWXYO","","593","img/flower1.png","75","594","2","1","2","1","1,0.333,0.333,0.333,1,0.333,0.333,0.333,1","1,0.333,0.333,0.333,1,0.333,0.333,0.333,1","1",""
"","html-keyboard-response","213","113631","0.0-213.0","3ZAK8W07I50RUDTRWMI2EZDIJB7U0A","A3R5OJR60C6004","3HUR21WDDUBEMSLDIXZW1FAIHVWXYO","","null","<img src=""img/flower1.png"" style=""width:200px; border:14px solid green;"">","null","","","","","","","","",""
"","image-keyboard-response","214","114157","0.0-214.0","3ZAK8W07I50RUDTRWMI2EZDIJB7U0A","A3R5OJR60C6004","3HUR21WDDUBEMSLDIXZW1FAIHVWXYO","","525","img/flower1.png","75","525","2","1","2","1","1,0.333,0.333,0.333,1,0.333,0.333,0.333,1","1,0.333,0.333,0.333,1,0.333,0.333,0.333,1","1",""
"","html-keyboard-response","215","114463","0.0-215.0","3ZAK8W07I50RUDTRWMI2EZDIJB7U0A","A3R5OJR60C6004","3HUR21WDDUBEMSLDIXZW1FAIHVWXYO","","null","<img src=""img/flower1.png"" style=""width:200px; border:14px solid green;"">","null","","","","","","","","",""
"","image-keyboard-response","216","115196","0.0-216.0","3ZAK8W07I50RUDTRWMI2EZDIJB7U0A","A3R5OJR60C6004","3HUR21WDDUBEMSLDIXZW1FAIHVWXYO","","733","img/flower3.png","76","734","3","1","1","1","1,0.333,0.333,0.333,1,0.333,0.333,0.333,1","1,0.333,0.333,0.333,1,0.333,0.333,0.333,1","1",""
"","html-keyboard-response","217","115514","0.0-217.0","3ZAK8W07I50RUDTRWMI2EZDIJB7U0A","A3R5OJR60C6004","3HUR21WDDUBEMSLDIXZW1FAIHVWXYO","","null","<img src=""img/flower3.png"" style=""width:200px; border:14px solid green;"">","null","","","","","","","","",""
"","image-keyboard-response","218","116260","0.0-218.0","3ZAK8W07I50RUDTRWMI2EZDIJB7U0A","A3R5OJR60C6004","3HUR21WDDUBEMSLDIXZW1FAIHVWXYO","","745","img/flower1.png","75","745","2","1","2","1","1,0.333,0.333,0.333,1,0.333,0.333,0.333,1","1,0.333,0.333,0.333,1,0.333,0.333,0.333,1","1",""
"","html-keyboard-response","219","116560","0.0-219.0","3ZAK8W07I50RUDTRWMI2EZDIJB7U0A","A3R5OJR60C6004","3HUR21WDDUBEMSLDIXZW1FAIHVWXYO","","null","<img src=""img/flower1.png"" style=""width:200px; border:14px solid green;"">","null","","","","","","","","",""
"","image-keyboard-response","220","117060","0.0-220.0","3ZAK8W07I50RUDTRWMI2EZDIJB7U0A","A3R5OJR60C6004","3HUR21WDDUBEMSLDIXZW1FAIHVWXYO","","499","img/flower6.png","74","500","1","0","3","1","1,0.333,0.333,0.333,1,0.333,0.333,0.333,1","1,0.333,0.333,0.333,1,0.333,0.333,0.333,1","1",""
"","html-keyboard-response","221","117364","0.0-221.0","3ZAK8W07I50RUDTRWMI2EZDIJB7U0A","A3R5OJR60C6004","3HUR21WDDUBEMSLDIXZW1FAIHVWXYO","","null","<img src=""img/flower6.png"" style=""width:200px;border:14px solid red;"">","null","","","","","","","","",""
"","image-keyboard-response","222","117844","0.0-222.0","3ZAK8W07I50RUDTRWMI2EZDIJB7U0A","A3R5OJR60C6004","3HUR21WDDUBEMSLDIXZW1FAIHVWXYO","","480","img/flower6.png","76","481","3","1","3","1","1,0.333,0.333,0.333,1,0.333,0.333,0.333,1","1,0.333,0.333,0.333,1,0.333,0.333,0.333,1","1",""
"","html-keyboard-response","223","118151","0.0-223.0","3ZAK8W07I50RUDTRWMI2EZDIJB7U0A","A3R5OJR60C6004","3HUR21WDDUBEMSLDIXZW1FAIHVWXYO","","null","<img src=""img/flower6.png"" style=""width:200px; border:14px solid green;"">","null","","","","","","","","",""
"","image-keyboard-response","224","119061","0.0-224.0","3ZAK8W07I50RUDTRWMI2EZDIJB7U0A","A3R5OJR60C6004","3HUR21WDDUBEMSLDIXZW1FAIHVWXYO","","909","img/flower1.png","74","910","1","1","2","1","1,0.333,0.333,0.333,1,0.333,0.333,0.333,1","1,0.333,0.333,0.333,1,0.333,0.333,0.333,1","1",""
"","html-keyboard-response","225","119365","0.0-225.0","3ZAK8W07I50RUDTRWMI2EZDIJB7U0A","A3R5OJR60C6004","3HUR21WDDUBEMSLDIXZW1FAIHVWXYO","","null","<img src=""img/flower1.png"" style=""width:200px; border:14px solid green;"">","null","","","","","","","","",""
"","image-keyboard-response","226","120341","0.0-226.0","3ZAK8W07I50RUDTRWMI2EZDIJB7U0A","A3R5OJR60C6004","3HUR21WDDUBEMSLDIXZW1FAIHVWXYO","","977","img/flower6.png","75","977","2","0","3","1","1,0.333,0.333,0.333,1,0.333,0.333,0.333,1","1,0.333,0.333,0.333,1,0.333,0.333,0.333,1","1",""
"","html-keyboard-response","227","120655","0.0-227.0","3ZAK8W07I50RUDTRWMI2EZDIJB7U0A","A3R5OJR60C6004","3HUR21WDDUBEMSLDIXZW1FAIHVWXYO","","null","<img src=""img/flower6.png"" style=""width:200px;border:14px solid red;"">","null","","","","","","","","",""
"","image-keyboard-response","228","120982","0.0-228.0","3ZAK8W07I50RUDTRWMI2EZDIJB7U0A","A3R5OJR60C6004","3HUR21WDDUBEMSLDIXZW1FAIHVWXYO","","326","img/flower6.png","76","326","3","1","3","1","1,0.333,0.333,0.333,1,0.333,0.333,0.333,1","1,0.333,0.333,0.333,1,0.333,0.333,0.333,1","1",""
"","html-keyboard-response","229","121284","0.0-229.0","3ZAK8W07I50RUDTRWMI2EZDIJB7U0A","A3R5OJR60C6004","3HUR21WDDUBEMSLDIXZW1FAIHVWXYO","","null","<img src=""img/flower6.png"" style=""width:200px; border:14px solid green;"">","null","","","","","","","","",""
"","image-keyboard-response","230","122229","0.0-230.0","3ZAK8W07I50RUDTRWMI2EZDIJB7U0A","A3R5OJR60C6004","3HUR21WDDUBEMSLDIXZW1FAIHVWXYO","","944","img/flower1.png","75","945","2","1","2","1","1,0.333,0.333,0.333,1,0.333,0.333,0.333,1","1,0.333,0.333,0.333,1,0.333,0.333,0.333,1","1",""
"","html-keyboard-response","231","122540","0.0-231.0","3ZAK8W07I50RUDTRWMI2EZDIJB7U0A","A3R5OJR60C6004","3HUR21WDDUBEMSLDIXZW1FAIHVWXYO","","null","<img src=""img/flower1.png"" style=""width:200px; border:14px solid green;"">","null","","","","","","","","",""
"","image-keyboard-response","232","123549","0.0-232.0","3ZAK8W07I50RUDTRWMI2EZDIJB7U0A","A3R5OJR60C6004","3HUR21WDDUBEMSLDIXZW1FAIHVWXYO","","1010","img/flower6.png","75","1010","2","1","3","1","1,0.333,0.333,0.333,1,0.333,0.333,0.333,1","1,0.333,0.333,0.333,1,0.333,0.333,0.333,1","1",""
"","html-keyboard-response","233","123860","0.0-233.0","3ZAK8W07I50RUDTRWMI2EZDIJB7U0A","A3R5OJR60C6004","3HUR21WDDUBEMSLDIXZW1FAIHVWXYO","","null","<img src=""img/flower6.png"" style=""width:200px; border:14px solid green;"">","null","","","","","","","","",""
"","image-keyboard-response","234","124636","0.0-234.0","3ZAK8W07I50RUDTRWMI2EZDIJB7U0A","A3R5OJR60C6004","3HUR21WDDUBEMSLDIXZW1FAIHVWXYO","","774","img/flower3.png","76","774","3","1","1","1","1,0.333,0.333,0.333,1,0.333,0.333,0.333,1","1,0.333,0.333,0.333,1,0.333,0.333,0.333,1","1",""
"","html-keyboard-response","235","124948","0.0-235.0","3ZAK8W07I50RUDTRWMI2EZDIJB7U0A","A3R5OJR60C6004","3HUR21WDDUBEMSLDIXZW1FAIHVWXYO","","null","<img src=""img/flower3.png"" style=""width:200px; border:14px solid green;"">","null","","","","","","","","",""
"","image-keyboard-response","236","125323","0.0-236.0","3ZAK8W07I50RUDTRWMI2EZDIJB7U0A","A3R5OJR60C6004","3HUR21WDDUBEMSLDIXZW1FAIHVWXYO","","374","img/flower3.png","76","375","3","1","1","1","1,0.333,0.333,0.333,1,0.333,0.333,0.333,1","1,0.333,0.333,0.333,1,0.333,0.333,0.333,1","1",""
"","html-keyboard-response","237","125632","0.0-237.0","3ZAK8W07I50RUDTRWMI2EZDIJB7U0A","A3R5OJR60C6004","3HUR21WDDUBEMSLDIXZW1FAIHVWXYO","","null","<img src=""img/flower3.png"" style=""width:200px; border:14px solid green;"">","null","","","","","","","","",""
"","image-keyboard-response","238","126509","0.0-238.0","3ZAK8W07I50RUDTRWMI2EZDIJB7U0A","A3R5OJR60C6004","3HUR21WDDUBEMSLDIXZW1FAIHVWXYO","","875","img/flower1.png","75","877","2","1","2","1","1,0.333,0.333,0.333,1,0.333,0.333,0.333,1","1,0.333,0.333,0.333,1,0.333,0.333,0.333,1","1",""
"","html-keyboard-response","239","126820","0.0-239.0","3ZAK8W07I50RUDTRWMI2EZDIJB7U0A","A3R5OJR60C6004","3HUR21WDDUBEMSLDIXZW1FAIHVWXYO","","null","<img src=""img/flower1.png"" style=""width:200px; border:14px solid green;"">","null","","","","","","","","",""
"","image-keyboard-response","240","127195","0.0-240.0","3ZAK8W07I50RUDTRWMI2EZDIJB7U0A","A3R5OJR60C6004","3HUR21WDDUBEMSLDIXZW1FAIHVWXYO","","374","img/flower1.png","75","374","2","1","2","1","1,0.333,0.333,0.333,1,0.333,0.333,0.333,1","1,0.333,0.333,0.333,1,0.333,0.333,0.333,1","1",""
"","html-keyboard-response","241","127504","0.0-241.0","3ZAK8W07I50RUDTRWMI2EZDIJB7U0A","A3R5OJR60C6004","3HUR21WDDUBEMSLDIXZW1FAIHVWXYO","","null","<img src=""img/flower1.png"" style=""width:200px; border:14px solid green;"">","null","","","","","","","","",""
"","image-keyboard-response","242","128237","0.0-242.0","3ZAK8W07I50RUDTRWMI2EZDIJB7U0A","A3R5OJR60C6004","3HUR21WDDUBEMSLDIXZW1FAIHVWXYO","","731","img/flower6.png","74","732","1","0","3","1","1,0.333,0.333,0.333,1,0.333,0.333,0.333,1","1,0.333,0.333,0.333,1,0.333,0.333,0.333,1","1",""
"","html-keyboard-response","243","128542","0.0-243.0","3ZAK8W07I50RUDTRWMI2EZDIJB7U0A","A3R5OJR60C6004","3HUR21WDDUBEMSLDIXZW1FAIHVWXYO","","null","<img src=""img/flower6.png"" style=""width:200px;border:14px solid red;"">","null","","","","","","","","",""
"","image-keyboard-response","244","129108","0.0-244.0","3ZAK8W07I50RUDTRWMI2EZDIJB7U0A","A3R5OJR60C6004","3HUR21WDDUBEMSLDIXZW1FAIHVWXYO","","565","img/flower6.png","74","565","1","0","3","1","1,0.333,0.333,0.333,1,0.333,0.333,0.333,1","1,0.333,0.333,0.333,1,0.333,0.333,0.333,1","1",""
"","html-keyboard-response","245","129411","0.0-245.0","3ZAK8W07I50RUDTRWMI2EZDIJB7U0A","A3R5OJR60C6004","3HUR21WDDUBEMSLDIXZW1FAIHVWXYO","","null","<img src=""img/flower6.png"" style=""width:200px;border:14px solid red;"">","null","","","","","","","","",""
"","image-keyboard-response","246","130077","0.0-246.0","3ZAK8W07I50RUDTRWMI2EZDIJB7U0A","A3R5OJR60C6004","3HUR21WDDUBEMSLDIXZW1FAIHVWXYO","","666","img/flower3.png","76","667","3","0","1","1","1,0.333,0.333,0.333,1,0.333,0.333,0.333,1","1,0.333,0.333,0.333,1,0.333,0.333,0.333,1","1",""
"","html-keyboard-response","247","130385","0.0-247.0","3ZAK8W07I50RUDTRWMI2EZDIJB7U0A","A3R5OJR60C6004","3HUR21WDDUBEMSLDIXZW1FAIHVWXYO","","null","<img src=""img/flower3.png"" style=""width:200px;border:14px solid red;"">","null","","","","","","","","",""
"","image-keyboard-response","248","131069","0.0-248.0","3ZAK8W07I50RUDTRWMI2EZDIJB7U0A","A3R5OJR60C6004","3HUR21WDDUBEMSLDIXZW1FAIHVWXYO","","683","img/flower3.png","76","684","3","1","1","1","1,0.333,0.333,0.333,1,0.333,0.333,0.333,1","1,0.333,0.333,0.333,1,0.333,0.333,0.333,1","1",""
"","html-keyboard-response","249","131377","0.0-249.0","3ZAK8W07I50RUDTRWMI2EZDIJB7U0A","A3R5OJR60C6004","3HUR21WDDUBEMSLDIXZW1FAIHVWXYO","","null","<img src=""img/flower3.png"" style=""width:200px; border:14px solid green;"">","null","","","","","","","","",""
"","image-keyboard-response","250","132374","0.0-250.0","3ZAK8W07I50RUDTRWMI2EZDIJB7U0A","A3R5OJR60C6004","3HUR21WDDUBEMSLDIXZW1FAIHVWXYO","","995","img/flower6.png","75","996","2","1","3","1","1,0.333,0.333,0.333,1,0.333,0.333,0.333,1","1,0.333,0.333,0.333,1,0.333,0.333,0.333,1","1",""
"","html-keyboard-response","251","132682","0.0-251.0","3ZAK8W07I50RUDTRWMI2EZDIJB7U0A","A3R5OJR60C6004","3HUR21WDDUBEMSLDIXZW1FAIHVWXYO","","null","<img src=""img/flower6.png"" style=""width:200px; border:14px solid green;"">","null","","","","","","","","",""
"","image-keyboard-response","252","133309","0.0-252.0","3ZAK8W07I50RUDTRWMI2EZDIJB7U0A","A3R5OJR60C6004","3HUR21WDDUBEMSLDIXZW1FAIHVWXYO","","625","img/flower1.png","75","627","2","1","2","1","1,0.333,0.333,0.333,1,0.333,0.333,0.333,1","1,0.333,0.333,0.333,1,0.333,0.333,0.333,1","1",""
"","html-keyboard-response","253","133617","0.0-253.0","3ZAK8W07I50RUDTRWMI2EZDIJB7U0A","A3R5OJR60C6004","3HUR21WDDUBEMSLDIXZW1FAIHVWXYO","","null","<img src=""img/flower1.png"" style=""width:200px; border:14px solid green;"">","null","","","","","","","","",""
"","image-keyboard-response","254","133949","0.0-254.0","3ZAK8W07I50RUDTRWMI2EZDIJB7U0A","A3R5OJR60C6004","3HUR21WDDUBEMSLDIXZW1FAIHVWXYO","","330","img/flower1.png","75","332","2","1","2","1","1,0.333,0.333,0.333,1,0.333,0.333,0.333,1","1,0.333,0.333,0.333,1,0.333,0.333,0.333,1","1",""
"","html-keyboard-response","255","134261","0.0-255.0","3ZAK8W07I50RUDTRWMI2EZDIJB7U0A","A3R5OJR60C6004","3HUR21WDDUBEMSLDIXZW1FAIHVWXYO","","null","<img src=""img/flower1.png"" style=""width:200px; border:14px solid green;"">","null","","","","","","","","",""
"","image-keyboard-response","256","135117","0.0-256.0","3ZAK8W07I50RUDTRWMI2EZDIJB7U0A","A3R5OJR60C6004","3HUR21WDDUBEMSLDIXZW1FAIHVWXYO","","855","img/flower3.png","75","856","2","0","1","1","1,0.333,0.333,0.333,1,0.333,0.333,0.333,1","1,0.333,0.333,0.333,1,0.333,0.333,0.333,1","1",""
"","html-keyboard-response","257","135426","0.0-257.0","3ZAK8W07I50RUDTRWMI2EZDIJB7U0A","A3R5OJR60C6004","3HUR21WDDUBEMSLDIXZW1FAIHVWXYO","","null","<img src=""img/flower3.png"" style=""width:200px;border:14px solid red;"">","null","","","","","","","","",""
"","image-keyboard-response","258","136374","0.0-258.0","3ZAK8W07I50RUDTRWMI2EZDIJB7U0A","A3R5OJR60C6004","3HUR21WDDUBEMSLDIXZW1FAIHVWXYO","","946","img/flower6.png","75","947","2","0","3","1","1,0.333,0.333,0.333,1,0.333,0.333,0.333,1","1,0.333,0.333,0.333,1,0.333,0.333,0.333,1","1",""
"","html-keyboard-response","259","136680","0.0-259.0","3ZAK8W07I50RUDTRWMI2EZDIJB7U0A","A3R5OJR60C6004","3HUR21WDDUBEMSLDIXZW1FAIHVWXYO","","null","<img src=""img/flower6.png"" style=""width:200px;border:14px solid red;"">","null","","","","","","","","",""
"","image-keyboard-response","260","137573","0.0-260.0","3ZAK8W07I50RUDTRWMI2EZDIJB7U0A","A3R5OJR60C6004","3HUR21WDDUBEMSLDIXZW1FAIHVWXYO","","892","img/flower1.png","75","893","2","1","2","1","1,0.333,0.333,0.333,1,0.333,0.333,0.333,1","1,0.333,0.333,0.333,1,0.333,0.333,0.333,1","1",""
"","html-keyboard-response","261","137878","0.0-261.0","3ZAK8W07I50RUDTRWMI2EZDIJB7U0A","A3R5OJR60C6004","3HUR21WDDUBEMSLDIXZW1FAIHVWXYO","","null","<img src=""img/flower1.png"" style=""width:200px; border:14px solid green;"">","null","","","","","","","","",""
"","image-keyboard-response","262","138517","0.0-262.0","3ZAK8W07I50RUDTRWMI2EZDIJB7U0A","A3R5OJR60C6004","3HUR21WDDUBEMSLDIXZW1FAIHVWXYO","","639","img/flower3.png","76","639","3","0","1","1","1,0.333,0.333,0.333,1,0.333,0.333,0.333,1","1,0.333,0.333,0.333,1,0.333,0.333,0.333,1","1",""
"","html-keyboard-response","263","138825","0.0-263.0","3ZAK8W07I50RUDTRWMI2EZDIJB7U0A","A3R5OJR60C6004","3HUR21WDDUBEMSLDIXZW1FAIHVWXYO","","null","<img src=""img/flower3.png"" style=""width:200px;border:14px solid red;"">","null","","","","","","","","",""
"","image-keyboard-response","264","139133","0.0-264.0","3ZAK8W07I50RUDTRWMI2EZDIJB7U0A","A3R5OJR60C6004","3HUR21WDDUBEMSLDIXZW1FAIHVWXYO","","307","img/flower3.png","76","308","3","0","1","1","1,0.333,0.333,0.333,1,0.333,0.333,0.333,1","1,0.333,0.333,0.333,1,0.333,0.333,0.333,1","1",""
"","html-keyboard-response","265","139451","0.0-265.0","3ZAK8W07I50RUDTRWMI2EZDIJB7U0A","A3R5OJR60C6004","3HUR21WDDUBEMSLDIXZW1FAIHVWXYO","","null","<img src=""img/flower3.png"" style=""width:200px;border:14px solid red;"">","null","","","","","","","","",""
"","image-keyboard-response","266","139907","0.0-266.0","3ZAK8W07I50RUDTRWMI2EZDIJB7U0A","A3R5OJR60C6004","3HUR21WDDUBEMSLDIXZW1FAIHVWXYO","","456","img/flower3.png","74","458","1","1","1","1","1,0.333,0.333,0.333,1,0.333,0.333,0.333,1","1,0.333,0.333,0.333,1,0.333,0.333,0.333,1","1",""
"","html-keyboard-response","267","140221","0.0-267.0","3ZAK8W07I50RUDTRWMI2EZDIJB7U0A","A3R5OJR60C6004","3HUR21WDDUBEMSLDIXZW1FAIHVWXYO","","null","<img src=""img/flower3.png"" style=""width:200px; border:14px solid green;"">","null","","","","","","","","",""
"","image-keyboard-response","268","140638","0.0-268.0","3ZAK8W07I50RUDTRWMI2EZDIJB7U0A","A3R5OJR60C6004","3HUR21WDDUBEMSLDIXZW1FAIHVWXYO","","416","img/flower3.png","74","417","1","1","1","1","1,0.333,0.333,0.333,1,0.333,0.333,0.333,1","1,0.333,0.333,0.333,1,0.333,0.333,0.333,1","1",""
"","html-keyboard-response","269","140947","0.0-269.0","3ZAK8W07I50RUDTRWMI2EZDIJB7U0A","A3R5OJR60C6004","3HUR21WDDUBEMSLDIXZW1FAIHVWXYO","","null","<img src=""img/flower3.png"" style=""width:200px; border:14px solid green;"">","null","","","","","","","","",""
"","image-keyboard-response","270","141676","0.0-270.0","3ZAK8W07I50RUDTRWMI2EZDIJB7U0A","A3R5OJR60C6004","3HUR21WDDUBEMSLDIXZW1FAIHVWXYO","","728","img/flower1.png","75","728","2","1","2","1","1,0.333,0.333,0.333,1,0.333,0.333,0.333,1","1,0.333,0.333,0.333,1,0.333,0.333,0.333,1","1",""
"","html-keyboard-response","271","141982","0.0-271.0","3ZAK8W07I50RUDTRWMI2EZDIJB7U0A","A3R5OJR60C6004","3HUR21WDDUBEMSLDIXZW1FAIHVWXYO","","null","<img src=""img/flower1.png"" style=""width:200px; border:14px solid green;"">","null","","","","","","","","",""
"","image-keyboard-response","272","142701","0.0-272.0","3ZAK8W07I50RUDTRWMI2EZDIJB7U0A","A3R5OJR60C6004","3HUR21WDDUBEMSLDIXZW1FAIHVWXYO","","719","img/flower3.png","74","719","1","1","1","1","1,0.333,0.333,0.333,1,0.333,0.333,0.333,1","1,0.333,0.333,0.333,1,0.333,0.333,0.333,1","1",""
"","html-keyboard-response","273","143013","0.0-273.0","3ZAK8W07I50RUDTRWMI2EZDIJB7U0A","A3R5OJR60C6004","3HUR21WDDUBEMSLDIXZW1FAIHVWXYO","","null","<img src=""img/flower3.png"" style=""width:200px; border:14px solid green;"">","null","","","","","","","","",""
"","image-keyboard-response","274","143726","0.0-274.0","3ZAK8W07I50RUDTRWMI2EZDIJB7U0A","A3R5OJR60C6004","3HUR21WDDUBEMSLDIXZW1FAIHVWXYO","","712","img/flower1.png","75","712","2","1","2","1","1,0.333,0.333,0.333,1,0.333,0.333,0.333,1","1,0.333,0.333,0.333,1,0.333,0.333,0.333,1","1",""
"","html-keyboard-response","275","144029","0.0-275.0","3ZAK8W07I50RUDTRWMI2EZDIJB7U0A","A3R5OJR60C6004","3HUR21WDDUBEMSLDIXZW1FAIHVWXYO","","null","<img src=""img/flower1.png"" style=""width:200px; border:14px solid green;"">","null","","","","","","","","",""
"","image-keyboard-response","276","145132","0.0-276.0","3ZAK8W07I50RUDTRWMI2EZDIJB7U0A","A3R5OJR60C6004","3HUR21WDDUBEMSLDIXZW1FAIHVWXYO","","1101","img/flower3.png","76","1101","3","1","1","1","1,0.333,0.333,0.333,1,0.333,0.333,0.333,1","1,0.333,0.333,0.333,1,0.333,0.333,0.333,1","1",""
"","html-keyboard-response","277","145438","0.0-277.0","3ZAK8W07I50RUDTRWMI2EZDIJB7U0A","A3R5OJR60C6004","3HUR21WDDUBEMSLDIXZW1FAIHVWXYO","","null","<img src=""img/flower3.png"" style=""width:200px; border:14px solid green;"">","null","","","","","","","","",""
"","image-keyboard-response","278","146211","0.0-278.0","3ZAK8W07I50RUDTRWMI2EZDIJB7U0A","A3R5OJR60C6004","3HUR21WDDUBEMSLDIXZW1FAIHVWXYO","","772","img/flower6.png","75","773","2","0","3","1","1,0.333,0.333,0.333,1,0.333,0.333,0.333,1","1,0.333,0.333,0.333,1,0.333,0.333,0.333,1","1",""
"","html-keyboard-response","279","146514","0.0-279.0","3ZAK8W07I50RUDTRWMI2EZDIJB7U0A","A3R5OJR60C6004","3HUR21WDDUBEMSLDIXZW1FAIHVWXYO","","null","<img src=""img/flower6.png"" style=""width:200px;border:14px solid red;"">","null","","","","","","","","",""
"","image-keyboard-response","280","146876","0.0-280.0","3ZAK8W07I50RUDTRWMI2EZDIJB7U0A","A3R5OJR60C6004","3HUR21WDDUBEMSLDIXZW1FAIHVWXYO","","361","img/flower6.png","76","361","3","1","3","1","1,0.333,0.333,0.333,1,0.333,0.333,0.333,1","1,0.333,0.333,0.333,1,0.333,0.333,0.333,1","1",""
"","html-keyboard-response","281","147193","0.0-281.0","3ZAK8W07I50RUDTRWMI2EZDIJB7U0A","A3R5OJR60C6004","3HUR21WDDUBEMSLDIXZW1FAIHVWXYO","","null","<img src=""img/flower6.png"" style=""width:200px; border:14px solid green;"">","null","","","","","","","","",""
"","image-keyboard-response","282","147579","0.0-282.0","3ZAK8W07I50RUDTRWMI2EZDIJB7U0A","A3R5OJR60C6004","3HUR21WDDUBEMSLDIXZW1FAIHVWXYO","","386","img/flower6.png","76","387","3","1","3","1","1,0.333,0.333,0.333,1,0.333,0.333,0.333,1","1,0.333,0.333,0.333,1,0.333,0.333,0.333,1","1",""
"","html-keyboard-response","283","147881","0.0-283.0","3ZAK8W07I50RUDTRWMI2EZDIJB7U0A","A3R5OJR60C6004","3HUR21WDDUBEMSLDIXZW1FAIHVWXYO","","null","<img src=""img/flower6.png"" style=""width:200px; border:14px solid green;"">","null","","","","","","","","",""
"","image-keyboard-response","284","148709","0.0-284.0","3ZAK8W07I50RUDTRWMI2EZDIJB7U0A","A3R5OJR60C6004","3HUR21WDDUBEMSLDIXZW1FAIHVWXYO","","827","img/flower3.png","76","828","3","0","1","1","1,0.333,0.333,0.333,1,0.333,0.333,0.333,1","1,0.333,0.333,0.333,1,0.333,0.333,0.333,1","1",""
"","html-keyboard-response","285","149017","0.0-285.0","3ZAK8W07I50RUDTRWMI2EZDIJB7U0A","A3R5OJR60C6004","3HUR21WDDUBEMSLDIXZW1FAIHVWXYO","","null","<img src=""img/flower3.png"" style=""width:200px;border:14px solid red;"">","null","","","","","","","","",""
"","image-keyboard-response","286","149517","0.0-286.0","3ZAK8W07I50RUDTRWMI2EZDIJB7U0A","A3R5OJR60C6004","3HUR21WDDUBEMSLDIXZW1FAIHVWXYO","","500","img/flower3.png","75","500","2","0","1","1","1,0.333,0.333,0.333,1,0.333,0.333,0.333,1","1,0.333,0.333,0.333,1,0.333,0.333,0.333,1","1",""
"","html-keyboard-response","287","149826","0.0-287.0","3ZAK8W07I50RUDTRWMI2EZDIJB7U0A","A3R5OJR60C6004","3HUR21WDDUBEMSLDIXZW1FAIHVWXYO","","null","<img src=""img/flower3.png"" style=""width:200px;border:14px solid red;"">","null","","","","","","","","",""
"","image-keyboard-response","288","150715","0.0-288.0","3ZAK8W07I50RUDTRWMI2EZDIJB7U0A","A3R5OJR60C6004","3HUR21WDDUBEMSLDIXZW1FAIHVWXYO","","889","img/flower1.png","75","889","2","1","2","1","1,0.333,0.333,0.333,1,0.333,0.333,0.333,1","1,0.333,0.333,0.333,1,0.333,0.333,0.333,1","1",""
"","html-keyboard-response","289","151019","0.0-289.0","3ZAK8W07I50RUDTRWMI2EZDIJB7U0A","A3R5OJR60C6004","3HUR21WDDUBEMSLDIXZW1FAIHVWXYO","","null","<img src=""img/flower1.png"" style=""width:200px; border:14px solid green;"">","null","","","","","","","","",""
"","image-keyboard-response","290","151958","0.0-290.0","3ZAK8W07I50RUDTRWMI2EZDIJB7U0A","A3R5OJR60C6004","3HUR21WDDUBEMSLDIXZW1FAIHVWXYO","","937","img/flower6.png","75","937","2","1","3","1","1,0.333,0.333,0.333,1,0.333,0.333,0.333,1","1,0.333,0.333,0.333,1,0.333,0.333,0.333,1","1",""
"","html-keyboard-response","291","152262","0.0-291.0","3ZAK8W07I50RUDTRWMI2EZDIJB7U0A","A3R5OJR60C6004","3HUR21WDDUBEMSLDIXZW1FAIHVWXYO","","null","<img src=""img/flower6.png"" style=""width:200px; border:14px solid green;"">","null","","","","","","","","",""
"","image-keyboard-response","292","153037","0.0-292.0","3ZAK8W07I50RUDTRWMI2EZDIJB7U0A","A3R5OJR60C6004","3HUR21WDDUBEMSLDIXZW1FAIHVWXYO","","774","img/flower1.png","75","775","2","1","2","1","1,0.333,0.333,0.333,1,0.333,0.333,0.333,1","1,0.333,0.333,0.333,1,0.333,0.333,0.333,1","1",""
"","html-keyboard-response","293","153348","0.0-293.0","3ZAK8W07I50RUDTRWMI2EZDIJB7U0A","A3R5OJR60C6004","3HUR21WDDUBEMSLDIXZW1FAIHVWXYO","","null","<img src=""img/flower1.png"" style=""width:200px; border:14px solid green;"">","null","","","","","","","","",""
"","image-keyboard-response","294","154061","0.0-294.0","3ZAK8W07I50RUDTRWMI2EZDIJB7U0A","A3R5OJR60C6004","3HUR21WDDUBEMSLDIXZW1FAIHVWXYO","","712","img/flower6.png","75","713","2","0","3","1","1,0.333,0.333,0.333,1,0.333,0.333,0.333,1","1,0.333,0.333,0.333,1,0.333,0.333,0.333,1","1",""
"","html-keyboard-response","295","154378","0.0-295.0","3ZAK8W07I50RUDTRWMI2EZDIJB7U0A","A3R5OJR60C6004","3HUR21WDDUBEMSLDIXZW1FAIHVWXYO","","null","<img src=""img/flower6.png"" style=""width:200px;border:14px solid red;"">","null","","","","","","","","",""
"","image-keyboard-response","296","155180","0.0-296.0","3ZAK8W07I50RUDTRWMI2EZDIJB7U0A","A3R5OJR60C6004","3HUR21WDDUBEMSLDIXZW1FAIHVWXYO","","801","img/flower1.png","75","802","2","1","2","1","1,0.333,0.333,0.333,1,0.333,0.333,0.333,1","1,0.333,0.333,0.333,1,0.333,0.333,0.333,1","1",""
"","html-keyboard-response","297","155482","0.0-297.0","3ZAK8W07I50RUDTRWMI2EZDIJB7U0A","A3R5OJR60C6004","3HUR21WDDUBEMSLDIXZW1FAIHVWXYO","","null","<img src=""img/flower1.png"" style=""width:200px; border:14px solid green;"">","null","","","","","","","","",""
"","image-keyboard-response","298","156102","0.0-298.0","3ZAK8W07I50RUDTRWMI2EZDIJB7U0A","A3R5OJR60C6004","3HUR21WDDUBEMSLDIXZW1FAIHVWXYO","","619","img/flower6.png","75","619","2","0","3","1","1,0.333,0.333,0.333,1,0.333,0.333,0.333,1","1,0.333,0.333,0.333,1,0.333,0.333,0.333,1","1",""
"","html-keyboard-response","299","156413","0.0-299.0","3ZAK8W07I50RUDTRWMI2EZDIJB7U0A","A3R5OJR60C6004","3HUR21WDDUBEMSLDIXZW1FAIHVWXYO","","null","<img src=""img/flower6.png"" style=""width:200px;border:14px solid red;"">","null","","","","","","","","",""
"","image-keyboard-response","300","156941","0.0-300.0","3ZAK8W07I50RUDTRWMI2EZDIJB7U0A","A3R5OJR60C6004","3HUR21WDDUBEMSLDIXZW1FAIHVWXYO","","528","img/flower6.png","74","529","1","0","3","1","1,0.333,0.333,0.333,1,0.333,0.333,0.333,1","1,0.333,0.333,0.333,1,0.333,0.333,0.333,1","1",""
"","html-keyboard-response","301","157242","0.0-301.0","3ZAK8W07I50RUDTRWMI2EZDIJB7U0A","A3R5OJR60C6004","3HUR21WDDUBEMSLDIXZW1FAIHVWXYO","","null","<img src=""img/flower6.png"" style=""width:200px;border:14px solid red;"">","null","","","","","","","","",""
"","image-keyboard-response","302","157620","0.0-302.0","3ZAK8W07I50RUDTRWMI2EZDIJB7U0A","A3R5OJR60C6004","3HUR21WDDUBEMSLDIXZW1FAIHVWXYO","","377","img/flower6.png","76","378","3","1","3","1","1,0.333,0.333,0.333,1,0.333,0.333,0.333,1","1,0.333,0.333,0.333,1,0.333,0.333,0.333,1","1",""
"","html-keyboard-response","303","157925","0.0-303.0","3ZAK8W07I50RUDTRWMI2EZDIJB7U0A","A3R5OJR60C6004","3HUR21WDDUBEMSLDIXZW1FAIHVWXYO","","null","<img src=""img/flower6.png"" style=""width:200px; border:14px solid green;"">","null","","","","","","","","",""
"","image-keyboard-response","304","158605","0.0-304.0","3ZAK8W07I50RUDTRWMI2EZDIJB7U0A","A3R5OJR60C6004","3HUR21WDDUBEMSLDIXZW1FAIHVWXYO","","680","img/flower3.png","76","680","3","0","1","1","1,0.333,0.333,0.333,1,0.333,0.333,0.333,1","1,0.333,0.333,0.333,1,0.333,0.333,0.333,1","1",""
"","html-keyboard-response","305","158917","0.0-305.0","3ZAK8W07I50RUDTRWMI2EZDIJB7U0A","A3R5OJR60C6004","3HUR21WDDUBEMSLDIXZW1FAIHVWXYO","","null","<img src=""img/flower3.png"" style=""width:200px;border:14px solid red;"">","null","","","","","","","","",""
"","image-keyboard-response","306","159212","0.0-306.0","3ZAK8W07I50RUDTRWMI2EZDIJB7U0A","A3R5OJR60C6004","3HUR21WDDUBEMSLDIXZW1FAIHVWXYO","","295","img/flower3.png","75","295","2","0","1","1","1,0.333,0.333,0.333,1,0.333,0.333,0.333,1","1,0.333,0.333,0.333,1,0.333,0.333,0.333,1","1",""
"","html-keyboard-response","307","159524","0.0-307.0","3ZAK8W07I50RUDTRWMI2EZDIJB7U0A","A3R5OJR60C6004","3HUR21WDDUBEMSLDIXZW1FAIHVWXYO","","null","<img src=""img/flower3.png"" style=""width:200px;border:14px solid red;"">","null","","","","","","","","",""
"","image-keyboard-response","308","159677","0.0-308.0","3ZAK8W07I50RUDTRWMI2EZDIJB7U0A","A3R5OJR60C6004","3HUR21WDDUBEMSLDIXZW1FAIHVWXYO","","151","img/flower3.png","74","153","1","1","1","1","1,0.333,0.333,0.333,1,0.333,0.333,0.333,1","1,0.333,0.333,0.333,1,0.333,0.333,0.333,1","1",""
"","html-keyboard-response","309","159988","0.0-309.0","3ZAK8W07I50RUDTRWMI2EZDIJB7U0A","A3R5OJR60C6004","3HUR21WDDUBEMSLDIXZW1FAIHVWXYO","","null","<img src=""img/flower3.png"" style=""width:200px; border:14px solid green;"">","null","","","","","","","","",""
"","image-keyboard-response","310","160411","0.0-310.0","3ZAK8W07I50RUDTRWMI2EZDIJB7U0A","A3R5OJR60C6004","3HUR21WDDUBEMSLDIXZW1FAIHVWXYO","","422","img/flower3.png","74","423","1","1","1","1","1,0.333,0.333,0.333,1,0.333,0.333,0.333,1","1,0.333,0.333,0.333,1,0.333,0.333,0.333,1","1",""
"","html-keyboard-response","311","160717","0.0-311.0","3ZAK8W07I50RUDTRWMI2EZDIJB7U0A","A3R5OJR60C6004","3HUR21WDDUBEMSLDIXZW1FAIHVWXYO","","null","<img src=""img/flower3.png"" style=""width:200px; border:14px solid green;"">","null","","","","","","","","",""
"","image-keyboard-response","312","161508","0.0-312.0","3ZAK8W07I50RUDTRWMI2EZDIJB7U0A","A3R5OJR60C6004","3HUR21WDDUBEMSLDIXZW1FAIHVWXYO","","790","img/flower6.png","75","790","2","0","3","1","1,0.333,0.333,0.333,1,0.333,0.333,0.333,1","1,0.333,0.333,0.333,1,0.333,0.333,0.333,1","1",""
"","html-keyboard-response","313","161818","0.0-313.0","3ZAK8W07I50RUDTRWMI2EZDIJB7U0A","A3R5OJR60C6004","3HUR21WDDUBEMSLDIXZW1FAIHVWXYO","","null","<img src=""img/flower6.png"" style=""width:200px;border:14px solid red;"">","null","","","","","","","","",""
"","image-keyboard-response","314","161989","0.0-314.0","3ZAK8W07I50RUDTRWMI2EZDIJB7U0A","A3R5OJR60C6004","3HUR21WDDUBEMSLDIXZW1FAIHVWXYO","","170","img/flower1.png","76","170","3","0","2","1","1,0.333,0.333,0.333,1,0.333,0.333,0.333,1","1,0.333,0.333,0.333,1,0.333,0.333,0.333,1","1",""
"","html-keyboard-response","315","162304","0.0-315.0","3ZAK8W07I50RUDTRWMI2EZDIJB7U0A","A3R5OJR60C6004","3HUR21WDDUBEMSLDIXZW1FAIHVWXYO","","null","<img src=""img/flower1.png"" style=""width:200px;border:14px solid red;"">","null","","","","","","","","",""
"","image-keyboard-response","316","163110","0.0-316.0","3ZAK8W07I50RUDTRWMI2EZDIJB7U0A","A3R5OJR60C6004","3HUR21WDDUBEMSLDIXZW1FAIHVWXYO","","805","img/flower3.png","76","805","3","1","1","1","1,0.333,0.333,0.333,1,0.333,0.333,0.333,1","1,0.333,0.333,0.333,1,0.333,0.333,0.333,1","1",""
"","html-keyboard-response","317","163419","0.0-317.0","3ZAK8W07I50RUDTRWMI2EZDIJB7U0A","A3R5OJR60C6004","3HUR21WDDUBEMSLDIXZW1FAIHVWXYO","","null","<img src=""img/flower3.png"" style=""width:200px; border:14px solid green;"">","null","","","","","","","","",""
"","image-keyboard-response","318","164389","0.0-318.0","3ZAK8W07I50RUDTRWMI2EZDIJB7U0A","A3R5OJR60C6004","3HUR21WDDUBEMSLDIXZW1FAIHVWXYO","","969","img/flower6.png","75","970","2","0","3","1","1,0.333,0.333,0.333,1,0.333,0.333,0.333,1","1,0.333,0.333,0.333,1,0.333,0.333,0.333,1","1",""
"","html-keyboard-response","319","164699","0.0-319.0","3ZAK8W07I50RUDTRWMI2EZDIJB7U0A","A3R5OJR60C6004","3HUR21WDDUBEMSLDIXZW1FAIHVWXYO","","null","<img src=""img/flower6.png"" style=""width:200px;border:14px solid red;"">","null","","","","","","","","",""
"","image-keyboard-response","320","165667","0.0-320.0","3ZAK8W07I50RUDTRWMI2EZDIJB7U0A","A3R5OJR60C6004","3HUR21WDDUBEMSLDIXZW1FAIHVWXYO","","966","img/flower1.png","75","968","2","1","2","1","1,0.333,0.333,0.333,1,0.333,0.333,0.333,1","1,0.333,0.333,0.333,1,0.333,0.333,0.333,1","1",""
"","html-keyboard-response","321","165978","0.0-321.0","3ZAK8W07I50RUDTRWMI2EZDIJB7U0A","A3R5OJR60C6004","3HUR21WDDUBEMSLDIXZW1FAIHVWXYO","","null","<img src=""img/flower1.png"" style=""width:200px; border:14px solid green;"">","null","","","","","","","","",""
"","image-keyboard-response","322","166901","0.0-322.0","3ZAK8W07I50RUDTRWMI2EZDIJB7U0A","A3R5OJR60C6004","3HUR21WDDUBEMSLDIXZW1FAIHVWXYO","","922","img/flower3.png","76","924","3","0","1","1","1,0.333,0.333,0.333,1,0.333,0.333,0.333,1","1,0.333,0.333,0.333,1,0.333,0.333,0.333,1","1",""
"","html-keyboard-response","323","167211","0.0-323.0","3ZAK8W07I50RUDTRWMI2EZDIJB7U0A","A3R5OJR60C6004","3HUR21WDDUBEMSLDIXZW1FAIHVWXYO","","null","<img src=""img/flower3.png"" style=""width:200px;border:14px solid red;"">","null","","","","","","","","",""
"","image-keyboard-response","324","167923","0.0-324.0","3ZAK8W07I50RUDTRWMI2EZDIJB7U0A","A3R5OJR60C6004","3HUR21WDDUBEMSLDIXZW1FAIHVWXYO","","712","img/flower1.png","75","712","2","1","2","1","1,0.333,0.333,0.333,1,0.333,0.333,0.333,1","1,0.333,0.333,0.333,1,0.333,0.333,0.333,1","1",""
"","html-keyboard-response","325","168236","0.0-325.0","3ZAK8W07I50RUDTRWMI2EZDIJB7U0A","A3R5OJR60C6004","3HUR21WDDUBEMSLDIXZW1FAIHVWXYO","","null","<img src=""img/flower1.png"" style=""width:200px; border:14px solid green;"">","null","","","","","","","","",""
"","image-keyboard-response","326","169021","0.0-326.0","3ZAK8W07I50RUDTRWMI2EZDIJB7U0A","A3R5OJR60C6004","3HUR21WDDUBEMSLDIXZW1FAIHVWXYO","","784","img/flower3.png","75","784","2","0","1","1","1,0.333,0.333,0.333,1,0.333,0.333,0.333,1","1,0.333,0.333,0.333,1,0.333,0.333,0.333,1","1",""
"","html-keyboard-response","327","169325","0.0-327.0","3ZAK8W07I50RUDTRWMI2EZDIJB7U0A","A3R5OJR60C6004","3HUR21WDDUBEMSLDIXZW1FAIHVWXYO","","null","<img src=""img/flower3.png"" style=""width:200px;border:14px solid red;"">","null","","","","","","","","",""
"","image-keyboard-response","328","169605","0.0-328.0","3ZAK8W07I50RUDTRWMI2EZDIJB7U0A","A3R5OJR60C6004","3HUR21WDDUBEMSLDIXZW1FAIHVWXYO","","278","img/flower3.png","76","279","3","1","1","1","1,0.333,0.333,0.333,1,0.333,0.333,0.333,1","1,0.333,0.333,0.333,1,0.333,0.333,0.333,1","1",""
"","html-keyboard-response","329","169916","0.0-329.0","3ZAK8W07I50RUDTRWMI2EZDIJB7U0A","A3R5OJR60C6004","3HUR21WDDUBEMSLDIXZW1FAIHVWXYO","","null","<img src=""img/flower3.png"" style=""width:200px; border:14px solid green;"">","null","","","","","","","","",""
"","image-keyboard-response","330","170643","0.0-330.0","3ZAK8W07I50RUDTRWMI2EZDIJB7U0A","A3R5OJR60C6004","3HUR21WDDUBEMSLDIXZW1FAIHVWXYO","","726","img/flower1.png","75","727","2","1","2","1","1,0.333,0.333,0.333,1,0.333,0.333,0.333,1","1,0.333,0.333,0.333,1,0.333,0.333,0.333,1","1",""
"","html-keyboard-response","331","170950","0.0-331.0","3ZAK8W07I50RUDTRWMI2EZDIJB7U0A","A3R5OJR60C6004","3HUR21WDDUBEMSLDIXZW1FAIHVWXYO","","null","<img src=""img/flower1.png"" style=""width:200px; border:14px solid green;"">","null","","","","","","","","",""
"","image-keyboard-response","332","172029","0.0-332.0","3ZAK8W07I50RUDTRWMI2EZDIJB7U0A","A3R5OJR60C6004","3HUR21WDDUBEMSLDIXZW1FAIHVWXYO","","1076","img/flower6.png","76","1078","3","1","3","1","1,0.333,0.333,0.333,1,0.333,0.333,0.333,1","1,0.333,0.333,0.333,1,0.333,0.333,0.333,1","1",""
"","html-keyboard-response","333","172341","0.0-333.0","3ZAK8W07I50RUDTRWMI2EZDIJB7U0A","A3R5OJR60C6004","3HUR21WDDUBEMSLDIXZW1FAIHVWXYO","","null","<img src=""img/flower6.png"" style=""width:200px; border:14px solid green;"">","null","","","","","","","","",""
"","image-keyboard-response","334","173148","0.0-334.0","3ZAK8W07I50RUDTRWMI2EZDIJB7U0A","A3R5OJR60C6004","3HUR21WDDUBEMSLDIXZW1FAIHVWXYO","","805","img/flower1.png","75","806","2","1","2","1","1,0.333,0.333,0.333,1,0.333,0.333,0.333,1","1,0.333,0.333,0.333,1,0.333,0.333,0.333,1","1",""
"","html-keyboard-response","335","173456","0.0-335.0","3ZAK8W07I50RUDTRWMI2EZDIJB7U0A","A3R5OJR60C6004","3HUR21WDDUBEMSLDIXZW1FAIHVWXYO","","null","<img src=""img/flower1.png"" style=""width:200px; border:14px solid green;"">","null","","","","","","","","",""
"","image-keyboard-response","336","174051","0.0-336.0","3ZAK8W07I50RUDTRWMI2EZDIJB7U0A","A3R5OJR60C6004","3HUR21WDDUBEMSLDIXZW1FAIHVWXYO","","594","img/flower3.png","76","595","3","0","1","1","1,0.333,0.333,0.333,1,0.333,0.333,0.333,1","1,0.333,0.333,0.333,1,0.333,0.333,0.333,1","1",""
"","html-keyboard-response","337","174355","0.0-337.0","3ZAK8W07I50RUDTRWMI2EZDIJB7U0A","A3R5OJR60C6004","3HUR21WDDUBEMSLDIXZW1FAIHVWXYO","","null","<img src=""img/flower3.png"" style=""width:200px;border:14px solid red;"">","null","","","","","","","","",""
"","image-keyboard-response","338","174597","0.0-338.0","3ZAK8W07I50RUDTRWMI2EZDIJB7U0A","A3R5OJR60C6004","3HUR21WDDUBEMSLDIXZW1FAIHVWXYO","","241","img/flower1.png","75","242","2","1","2","1","1,0.333,0.333,0.333,1,0.333,0.333,0.333,1","1,0.333,0.333,0.333,1,0.333,0.333,0.333,1","1",""
"","html-keyboard-response","339","174913","0.0-339.0","3ZAK8W07I50RUDTRWMI2EZDIJB7U0A","A3R5OJR60C6004","3HUR21WDDUBEMSLDIXZW1FAIHVWXYO","","null","<img src=""img/flower1.png"" style=""width:200px; border:14px solid green;"">","null","","","","","","","","",""
"","image-keyboard-response","340","175685","0.0-340.0","3ZAK8W07I50RUDTRWMI2EZDIJB7U0A","A3R5OJR60C6004","3HUR21WDDUBEMSLDIXZW1FAIHVWXYO","","771","img/flower6.png","75","772","2","0","3","1","1,0.333,0.333,0.333,1,0.333,0.333,0.333,1","1,0.333,0.333,0.333,1,0.333,0.333,0.333,1","1",""
"","html-keyboard-response","341","176002","0.0-341.0","3ZAK8W07I50RUDTRWMI2EZDIJB7U0A","A3R5OJR60C6004","3HUR21WDDUBEMSLDIXZW1FAIHVWXYO","","null","<img src=""img/flower6.png"" style=""width:200px;border:14px solid red;"">","null","","","","","","","","",""
"","image-keyboard-response","342","176317","0.0-342.0","3ZAK8W07I50RUDTRWMI2EZDIJB7U0A","A3R5OJR60C6004","3HUR21WDDUBEMSLDIXZW1FAIHVWXYO","","313","img/flower3.png","76","315","3","0","1","1","1,0.333,0.333,0.333,1,0.333,0.333,0.333,1","1,0.333,0.333,0.333,1,0.333,0.333,0.333,1","1",""
"","html-keyboard-response","343","176624","0.0-343.0","3ZAK8W07I50RUDTRWMI2EZDIJB7U0A","A3R5OJR60C6004","3HUR21WDDUBEMSLDIXZW1FAIHVWXYO","","null","<img src=""img/flower3.png"" style=""width:200px;border:14px solid red;"">","null","","","","","","","","",""
"","image-keyboard-response","344","177411","0.0-344.0","3ZAK8W07I50RUDTRWMI2EZDIJB7U0A","A3R5OJR60C6004","3HUR21WDDUBEMSLDIXZW1FAIHVWXYO","","785","img/flower6.png","76","786","3","1","3","1","1,0.333,0.333,0.333,1,0.333,0.333,0.333,1","1,0.333,0.333,0.333,1,0.333,0.333,0.333,1","1",""
"","html-keyboard-response","345","177712","0.0-345.0","3ZAK8W07I50RUDTRWMI2EZDIJB7U0A","A3R5OJR60C6004","3HUR21WDDUBEMSLDIXZW1FAIHVWXYO","","null","<img src=""img/flower6.png"" style=""width:200px; border:14px solid green;"">","null","","","","","","","","",""
"","image-keyboard-response","346","178525","0.0-346.0","3ZAK8W07I50RUDTRWMI2EZDIJB7U0A","A3R5OJR60C6004","3HUR21WDDUBEMSLDIXZW1FAIHVWXYO","","813","img/flower3.png","76","814","3","0","1","1","1,0.333,0.333,0.333,1,0.333,0.333,0.333,1","1,0.333,0.333,0.333,1,0.333,0.333,0.333,1","1",""
"","html-keyboard-response","347","178832","0.0-347.0","3ZAK8W07I50RUDTRWMI2EZDIJB7U0A","A3R5OJR60C6004","3HUR21WDDUBEMSLDIXZW1FAIHVWXYO","","null","<img src=""img/flower3.png"" style=""width:200px;border:14px solid red;"">","null","","","","","","","","",""
"","image-keyboard-response","348","179555","0.0-348.0","3ZAK8W07I50RUDTRWMI2EZDIJB7U0A","A3R5OJR60C6004","3HUR21WDDUBEMSLDIXZW1FAIHVWXYO","","722","img/flower6.png","76","722","3","1","3","1","1,0.333,0.333,0.333,1,0.333,0.333,0.333,1","1,0.333,0.333,0.333,1,0.333,0.333,0.333,1","1",""
"","html-keyboard-response","349","179868","0.0-349.0","3ZAK8W07I50RUDTRWMI2EZDIJB7U0A","A3R5OJR60C6004","3HUR21WDDUBEMSLDIXZW1FAIHVWXYO","","null","<img src=""img/flower6.png"" style=""width:200px; border:14px solid green;"">","null","","","","","","","","",""
"","image-keyboard-response","350","180557","0.0-350.0","3ZAK8W07I50RUDTRWMI2EZDIJB7U0A","A3R5OJR60C6004","3HUR21WDDUBEMSLDIXZW1FAIHVWXYO","","688","img/flower3.png","75","688","2","1","1","1","1,0.333,0.333,0.333,1,0.333,0.333,0.333,1","1,0.333,0.333,0.333,1,0.333,0.333,0.333,1","1",""
"","html-keyboard-response","351","180861","0.0-351.0","3ZAK8W07I50RUDTRWMI2EZDIJB7U0A","A3R5OJR60C6004","3HUR21WDDUBEMSLDIXZW1FAIHVWXYO","","null","<img src=""img/flower3.png"" style=""width:200px; border:14px solid green;"">","null","","","","","","","","",""
"","image-keyboard-response","352","181629","0.0-352.0","3ZAK8W07I50RUDTRWMI2EZDIJB7U0A","A3R5OJR60C6004","3HUR21WDDUBEMSLDIXZW1FAIHVWXYO","","767","img/flower1.png","74","768","1","1","2","1","1,0.333,0.333,0.333,1,0.333,0.333,0.333,1","1,0.333,0.333,0.333,1,0.333,0.333,0.333,1","1",""
"","html-keyboard-response","353","181933","0.0-353.0","3ZAK8W07I50RUDTRWMI2EZDIJB7U0A","A3R5OJR60C6004","3HUR21WDDUBEMSLDIXZW1FAIHVWXYO","","null","<img src=""img/flower1.png"" style=""width:200px; border:14px solid green;"">","null","","","","","","","","",""
"","image-keyboard-response","354","182420","0.0-354.0","3ZAK8W07I50RUDTRWMI2EZDIJB7U0A","A3R5OJR60C6004","3HUR21WDDUBEMSLDIXZW1FAIHVWXYO","","486","img/flower1.png","74","486","1","0","2","1","1,0.333,0.333,0.333,1,0.333,0.333,0.333,1","1,0.333,0.333,0.333,1,0.333,0.333,0.333,1","1",""
"","html-keyboard-response","355","182734","0.0-355.0","3ZAK8W07I50RUDTRWMI2EZDIJB7U0A","A3R5OJR60C6004","3HUR21WDDUBEMSLDIXZW1FAIHVWXYO","","null","<img src=""img/flower1.png"" style=""width:200px;border:14px solid red;"">","null","","","","","","","","",""
"","image-keyboard-response","356","183821","0.0-356.0","3ZAK8W07I50RUDTRWMI2EZDIJB7U0A","A3R5OJR60C6004","3HUR21WDDUBEMSLDIXZW1FAIHVWXYO","","1086","img/flower1.png","74","1086","1","0","2","1","1,0.333,0.333,0.333,1,0.333,0.333,0.333,1","1,0.333,0.333,0.333,1,0.333,0.333,0.333,1","1",""
"","html-keyboard-response","357","184133","0.0-357.0","3ZAK8W07I50RUDTRWMI2EZDIJB7U0A","A3R5OJR60C6004","3HUR21WDDUBEMSLDIXZW1FAIHVWXYO","","null","<img src=""img/flower1.png"" style=""width:200px;border:14px solid red;"">","null","","","","","","","","",""
"","image-keyboard-response","358","184389","0.0-358.0","3ZAK8W07I50RUDTRWMI2EZDIJB7U0A","A3R5OJR60C6004","3HUR21WDDUBEMSLDIXZW1FAIHVWXYO","","256","img/flower1.png","75","256","2","1","2","1","1,0.333,0.333,0.333,1,0.333,0.333,0.333,1","1,0.333,0.333,0.333,1,0.333,0.333,0.333,1","1",""
"","html-keyboard-response","359","184695","0.0-359.0","3ZAK8W07I50RUDTRWMI2EZDIJB7U0A","A3R5OJR60C6004","3HUR21WDDUBEMSLDIXZW1FAIHVWXYO","","null","<img src=""img/flower1.png"" style=""width:200px; border:14px solid green;"">","null","","","","","","","","",""
"","image-keyboard-response","360","185515","0.0-360.0","3ZAK8W07I50RUDTRWMI2EZDIJB7U0A","A3R5OJR60C6004","3HUR21WDDUBEMSLDIXZW1FAIHVWXYO","","820","img/flower6.png","76","820","3","1","3","1","1,0.333,0.333,0.333,1,0.333,0.333,0.333,1","1,0.333,0.333,0.333,1,0.333,0.333,0.333,1","1",""
"","html-keyboard-response","361","185820","0.0-361.0","3ZAK8W07I50RUDTRWMI2EZDIJB7U0A","A3R5OJR60C6004","3HUR21WDDUBEMSLDIXZW1FAIHVWXYO","","null","<img src=""img/flower6.png"" style=""width:200px; border:14px solid green;"">","null","","","","","","","","",""
"","html-keyboard-response","362","191918","0.0-362.0","3ZAK8W07I50RUDTRWMI2EZDIJB7U0A","A3R5OJR60C6004","3HUR21WDDUBEMSLDIXZW1FAIHVWXYO","","","","","","","","","","","","",""
"","instructions","363","193522","0.0-363.0","3ZAK8W07I50RUDTRWMI2EZDIJB7U0A","A3R5OJR60C6004","3HUR21WDDUBEMSLDIXZW1FAIHVWXYO","[{""page_index"":0,""viewing_time"":1603}]","1603","","","","","","","","","","",""
"","survey-text","364","196610","0.0-364.0","3ZAK8W07I50RUDTRWMI2EZDIJB7U0A","A3R5OJR60C6004","3HUR21WDDUBEMSLDIXZW1FAIHVWXYO","","3086","","","","","","","","","","","{""Q0"":""A3R5OJR60C6004""}"
