"success","trial_type","trial_index","time_elapsed","internal_node_id","assignmentID","mturkID","hitID","view_history","rt","stimulus","key_press","reactionTime","a","r","s","cond","reward_cond","reward_cond_actual","reward_matrix_idx","responses"
"true","fullscreen","0","3350","0.0-0.0","30H4UDGLT34B5MS245662QXWE6JMP2","A3R97T5D3RR9JX","3RBI0I35XEP26UEZY8S8UZLEA1IY3E","","","","","","","","","","","","",""
"","instructions","1","22937","0.0-1.0","30H4UDGLT34B5MS245662QXWE6JMP2","A3R97T5D3RR9JX","3RBI0I35XEP26UEZY8S8UZLEA1IY3E","[{""page_index"":0,""viewing_time"":3133.800000000745},{""page_index"":1,""viewing_time"":3209.5},{""page_index"":2,""viewing_time"":3277.2999999998137},{""page_index"":3,""viewing_time"":2560.5},{""page_index"":4,""viewing_time"":2275.399999999441},{""page_index"":5,""viewing_time"":1642},{""page_index"":6,""viewing_time"":1601.300000000745},{""page_index"":7,""viewing_time"":1882.5999999996275}]","19583.200000000186","","","","","","","","","","",""
"","image-keyboard-response","2","24412","0.0-2.0","30H4UDGLT34B5MS245662QXWE6JMP2","A3R97T5D3RR9JX","3RBI0I35XEP26UEZY8S8UZLEA1IY3E","","1472.9000000003725","img/flower1.png","74","1475.2000000001863","1","0","3","2","1,0,0,1,1,0,1,0,1","0,0,1,1,0,1,0,1,1","2",""
"","html-keyboard-response","3","24717","0.0-3.0","30H4UDGLT34B5MS245662QXWE6JMP2","A3R97T5D3RR9JX","3RBI0I35XEP26UEZY8S8UZLEA1IY3E","","null","<img src=""img/flower1.png"" style=""width:200px;border:14px solid red;"">","null","","","","","","","","",""
"","image-keyboard-response","4","24809","0.0-4.0","30H4UDGLT34B5MS245662QXWE6JMP2","A3R97T5D3RR9JX","3RBI0I35XEP26UEZY8S8UZLEA1IY3E","","89.79999999981374","img/flower1.png","76","91.90000000037253","3","1","3","2","1,0,0,1,1,0,1,0,1","0,0,1,1,0,1,0,1,1","2",""
"","html-keyboard-response","5","25112","0.0-5.0","30H4UDGLT34B5MS245662QXWE6JMP2","A3R97T5D3RR9JX","3RBI0I35XEP26UEZY8S8UZLEA1IY3E","","null","<img src=""img/flower1.png"" style=""width:200px; border:14px solid green;"">","null","","","","","","","","",""
"","image-keyboard-response","6","25478","0.0-6.0","30H4UDGLT34B5MS245662QXWE6JMP2","A3R97T5D3RR9JX","3RBI0I35XEP26UEZY8S8UZLEA1IY3E","","363.59999999962747","img/flower5.png","75","365.90000000037253","2","0","2","2","1,0,0,1,1,0,1,0,1","0,0,1,1,0,1,0,1,1","2",""
"","html-keyboard-response","7","25782","0.0-7.0","30H4UDGLT34B5MS245662QXWE6JMP2","A3R97T5D3RR9JX","3RBI0I35XEP26UEZY8S8UZLEA1IY3E","","null","<img src=""img/flower5.png"" style=""width:200px;border:14px solid red;"">","null","","","","","","","","",""
"","image-keyboard-response","8","25911","0.0-8.0","30H4UDGLT34B5MS245662QXWE6JMP2","A3R97T5D3RR9JX","3RBI0I35XEP26UEZY8S8UZLEA1IY3E","","126.59999999962747","img/flower1.png","76","128.59999999962747","3","1","3","2","1,0,0,1,1,0,1,0,1","0,0,1,1,0,1,0,1,1","2",""
"","html-keyboard-response","9","26214","0.0-9.0","30H4UDGLT34B5MS245662QXWE6JMP2","A3R97T5D3RR9JX","3RBI0I35XEP26UEZY8S8UZLEA1IY3E","","null","<img src=""img/flower1.png"" style=""width:200px; border:14px solid green;"">","null","","","","","","","","",""
"","image-keyboard-response","10","26283","0.0-10.0","30H4UDGLT34B5MS245662QXWE6JMP2","A3R97T5D3RR9JX","3RBI0I35XEP26UEZY8S8UZLEA1IY3E","","65.80000000074506","img/flower5.png","75","68","2","0","2","2","1,0,0,1,1,0,1,0,1","0,0,1,1,0,1,0,1,1","2",""
"","html-keyboard-response","11","26586","0.0-11.0","30H4UDGLT34B5MS245662QXWE6JMP2","A3R97T5D3RR9JX","3RBI0I35XEP26UEZY8S8UZLEA1IY3E","","null","<img src=""img/flower5.png"" style=""width:200px;border:14px solid red;"">","null","","","","","","","","",""
"","image-keyboard-response","12","26632","0.0-12.0","30H4UDGLT34B5MS245662QXWE6JMP2","A3R97T5D3RR9JX","3RBI0I35XEP26UEZY8S8UZLEA1IY3E","","44.60000000055879","img/flower1.png","76","46.09999999962747","3","1","3","2","1,0,0,1,1,0,1,0,1","0,0,1,1,0,1,0,1,1","2",""
"","html-keyboard-response","13","26934","0.0-13.0","30H4UDGLT34B5MS245662QXWE6JMP2","A3R97T5D3RR9JX","3RBI0I35XEP26UEZY8S8UZLEA1IY3E","","null","<img src=""img/flower1.png"" style=""width:200px; border:14px solid green;"">","null","","","","","","","","",""
"","image-keyboard-response","14","27051","0.0-14.0","30H4UDGLT34B5MS245662QXWE6JMP2","A3R97T5D3RR9JX","3RBI0I35XEP26UEZY8S8UZLEA1IY3E","","114.59999999962747","img/flower1.png","75","116.70000000018626","2","1","3","2","1,0,0,1,1,0,1,0,1","0,0,1,1,0,1,0,1,1","2",""
"","html-keyboard-response","15","27354","0.0-15.0","30H4UDGLT34B5MS245662QXWE6JMP2","A3R97T5D3RR9JX","3RBI0I35XEP26UEZY8S8UZLEA1IY3E","","null","<img src=""img/flower1.png"" style=""width:200px; border:14px solid green;"">","null","","","","","","","","",""
"","image-keyboard-response","16","27469","0.0-16.0","30H4UDGLT34B5MS245662QXWE6JMP2","A3R97T5D3RR9JX","3RBI0I35XEP26UEZY8S8UZLEA1IY3E","","112.80000000074506","img/flower1.png","76","114.70000000018626","3","1","3","2","1,0,0,1,1,0,1,0,1","0,0,1,1,0,1,0,1,1","2",""
"","html-keyboard-response","17","27773","0.0-17.0","30H4UDGLT34B5MS245662QXWE6JMP2","A3R97T5D3RR9JX","3RBI0I35XEP26UEZY8S8UZLEA1IY3E","","null","<img src=""img/flower1.png"" style=""width:200px; border:14px solid green;"">","null","","","","","","","","",""
"","image-keyboard-response","18","27828","0.0-18.0","30H4UDGLT34B5MS245662QXWE6JMP2","A3R97T5D3RR9JX","3RBI0I35XEP26UEZY8S8UZLEA1IY3E","","52.700000000186265","img/flower5.png","75","54.5","2","0","2","2","1,0,0,1,1,0,1,0,1","0,0,1,1,0,1,0,1,1","2",""
"","html-keyboard-response","19","28130","0.0-19.0","30H4UDGLT34B5MS245662QXWE6JMP2","A3R97T5D3RR9JX","3RBI0I35XEP26UEZY8S8UZLEA1IY3E","","null","<img src=""img/flower5.png"" style=""width:200px;border:14px solid red;"">","null","","","","","","","","",""
"","image-keyboard-response","20","28134","0.0-20.0","30H4UDGLT34B5MS245662QXWE6JMP2","A3R97T5D3RR9JX","3RBI0I35XEP26UEZY8S8UZLEA1IY3E","","0.2999999998137355","img/flower4.png","75","2.7000000001862645","2","0","1","2","1,0,0,1,1,0,1,0,1","0,0,1,1,0,1,0,1,1","2",""
"","html-keyboard-response","21","28437","0.0-21.0","30H4UDGLT34B5MS245662QXWE6JMP2","A3R97T5D3RR9JX","3RBI0I35XEP26UEZY8S8UZLEA1IY3E","","null","<img src=""img/flower4.png"" style=""width:200px;border:14px solid red;"">","null","","","","","","","","",""
"","image-keyboard-response","22","28521","0.0-22.0","30H4UDGLT34B5MS245662QXWE6JMP2","A3R97T5D3RR9JX","3RBI0I35XEP26UEZY8S8UZLEA1IY3E","","82.5","img/flower5.png","74","84.29999999981374","1","1","2","2","1,0,0,1,1,0,1,0,1","0,0,1,1,0,1,0,1,1","2",""
"","html-keyboard-response","23","28825","0.0-23.0","30H4UDGLT34B5MS245662QXWE6JMP2","A3R97T5D3RR9JX","3RBI0I35XEP26UEZY8S8UZLEA1IY3E","","null","<img src=""img/flower5.png"" style=""width:200px; border:14px solid green;"">","null","","","","","","","","",""
"","image-keyboard-response","24","28932","0.0-24.0","30H4UDGLT34B5MS245662QXWE6JMP2","A3R97T5D3RR9JX","3RBI0I35XEP26UEZY8S8UZLEA1IY3E","","105.5","img/flower5.png","76","107.30000000074506","3","1","2","2","1,0,0,1,1,0,1,0,1","0,0,1,1,0,1,0,1,1","2",""
"","html-keyboard-response","25","29235","0.0-25.0","30H4UDGLT34B5MS245662QXWE6JMP2","A3R97T5D3RR9JX","3RBI0I35XEP26UEZY8S8UZLEA1IY3E","","null","<img src=""img/flower5.png"" style=""width:200px; border:14px solid green;"">","null","","","","","","","","",""
"","image-keyboard-response","26","29328","0.0-26.0","30H4UDGLT34B5MS245662QXWE6JMP2","A3R97T5D3RR9JX","3RBI0I35XEP26UEZY8S8UZLEA1IY3E","","91","img/flower5.png","74","92.90000000037253","1","1","2","2","1,0,0,1,1,0,1,0,1","0,0,1,1,0,1,0,1,1","2",""
"","html-keyboard-response","27","29631","0.0-27.0","30H4UDGLT34B5MS245662QXWE6JMP2","A3R97T5D3RR9JX","3RBI0I35XEP26UEZY8S8UZLEA1IY3E","","null","<img src=""img/flower5.png"" style=""width:200px; border:14px solid green;"">","null","","","","","","","","",""
"","image-keyboard-response","28","29778","0.0-28.0","30H4UDGLT34B5MS245662QXWE6JMP2","A3R97T5D3RR9JX","3RBI0I35XEP26UEZY8S8UZLEA1IY3E","","144.29999999981374","img/flower1.png","76","146.40000000037253","3","1","3","2","1,0,0,1,1,0,1,0,1","0,0,1,1,0,1,0,1,1","2",""
"","html-keyboard-response","29","30080","0.0-29.0","30H4UDGLT34B5MS245662QXWE6JMP2","A3R97T5D3RR9JX","3RBI0I35XEP26UEZY8S8UZLEA1IY3E","","null","<img src=""img/flower1.png"" style=""width:200px; border:14px solid green;"">","null","","","","","","","","",""
"","image-keyboard-response","30","30170","0.0-30.0","30H4UDGLT34B5MS245662QXWE6JMP2","A3R97T5D3RR9JX","3RBI0I35XEP26UEZY8S8UZLEA1IY3E","","88.40000000037253","img/flower5.png","76","89.70000000018626","3","1","2","2","1,0,0,1,1,0,1,0,1","0,0,1,1,0,1,0,1,1","2",""
"","html-keyboard-response","31","30473","0.0-31.0","30H4UDGLT34B5MS245662QXWE6JMP2","A3R97T5D3RR9JX","3RBI0I35XEP26UEZY8S8UZLEA1IY3E","","null","<img src=""img/flower5.png"" style=""width:200px; border:14px solid green;"">","null","","","","","","","","",""
"","image-keyboard-response","32","30489","0.0-32.0","30H4UDGLT34B5MS245662QXWE6JMP2","A3R97T5D3RR9JX","3RBI0I35XEP26UEZY8S8UZLEA1IY3E","","13.799999999813735","img/flower1.png","75","15.399999999441206","2","1","3","2","1,0,0,1,1,0,1,0,1","0,0,1,1,0,1,0,1,1","2",""
"","html-keyboard-response","33","30792","0.0-33.0","30H4UDGLT34B5MS245662QXWE6JMP2","A3R97T5D3RR9JX","3RBI0I35XEP26UEZY8S8UZLEA1IY3E","","null","<img src=""img/flower1.png"" style=""width:200px; border:14px solid green;"">","null","","","","","","","","",""
"","image-keyboard-response","34","30846","0.0-34.0","30H4UDGLT34B5MS245662QXWE6JMP2","A3R97T5D3RR9JX","3RBI0I35XEP26UEZY8S8UZLEA1IY3E","","51","img/flower4.png","75","52.90000000037253","2","0","1","2","1,0,0,1,1,0,1,0,1","0,0,1,1,0,1,0,1,1","2",""
"","html-keyboard-response","35","31147","0.0-35.0","30H4UDGLT34B5MS245662QXWE6JMP2","A3R97T5D3RR9JX","3RBI0I35XEP26UEZY8S8UZLEA1IY3E","","null","<img src=""img/flower4.png"" style=""width:200px;border:14px solid red;"">","null","","","","","","","","",""
"","image-keyboard-response","36","31330","0.0-36.0","30H4UDGLT34B5MS245662QXWE6JMP2","A3R97T5D3RR9JX","3RBI0I35XEP26UEZY8S8UZLEA1IY3E","","181.1000000005588","img/flower1.png","75","182.30000000074506","2","1","3","2","1,0,0,1,1,0,1,0,1","0,0,1,1,0,1,0,1,1","2",""
"","html-keyboard-response","37","31632","0.0-37.0","30H4UDGLT34B5MS245662QXWE6JMP2","A3R97T5D3RR9JX","3RBI0I35XEP26UEZY8S8UZLEA1IY3E","","null","<img src=""img/flower1.png"" style=""width:200px; border:14px solid green;"">","null","","","","","","","","",""
"","image-keyboard-response","38","31730","0.0-38.0","30H4UDGLT34B5MS245662QXWE6JMP2","A3R97T5D3RR9JX","3RBI0I35XEP26UEZY8S8UZLEA1IY3E","","95.6000000005588","img/flower1.png","75","97.5","2","1","3","2","1,0,0,1,1,0,1,0,1","0,0,1,1,0,1,0,1,1","2",""
"","html-keyboard-response","39","32033","0.0-39.0","30H4UDGLT34B5MS245662QXWE6JMP2","A3R97T5D3RR9JX","3RBI0I35XEP26UEZY8S8UZLEA1IY3E","","null","<img src=""img/flower1.png"" style=""width:200px; border:14px solid green;"">","null","","","","","","","","",""
"","image-keyboard-response","40","32126","0.0-40.0","30H4UDGLT34B5MS245662QXWE6JMP2","A3R97T5D3RR9JX","3RBI0I35XEP26UEZY8S8UZLEA1IY3E","","89.90000000037253","img/flower4.png","75","91.79999999981374","2","0","1","2","1,0,0,1,1,0,1,0,1","0,0,1,1,0,1,0,1,1","2",""
"","html-keyboard-response","41","32429","0.0-41.0","30H4UDGLT34B5MS245662QXWE6JMP2","A3R97T5D3RR9JX","3RBI0I35XEP26UEZY8S8UZLEA1IY3E","","null","<img src=""img/flower4.png"" style=""width:200px;border:14px solid red;"">","null","","","","","","","","",""
"","image-keyboard-response","42","32505","0.0-42.0","30H4UDGLT34B5MS245662QXWE6JMP2","A3R97T5D3RR9JX","3RBI0I35XEP26UEZY8S8UZLEA1IY3E","","74","img/flower5.png","75","75.80000000074506","2","0","2","2","1,0,0,1,1,0,1,0,1","0,0,1,1,0,1,0,1,1","2",""
"","html-keyboard-response","43","32808","0.0-43.0","30H4UDGLT34B5MS245662QXWE6JMP2","A3R97T5D3RR9JX","3RBI0I35XEP26UEZY8S8UZLEA1IY3E","","null","<img src=""img/flower5.png"" style=""width:200px;border:14px solid red;"">","null","","","","","","","","",""
"","image-keyboard-response","44","32896","0.0-44.0","30H4UDGLT34B5MS245662QXWE6JMP2","A3R97T5D3RR9JX","3RBI0I35XEP26UEZY8S8UZLEA1IY3E","","85.5","img/flower4.png","75","87.29999999981374","2","0","1","2","1,0,0,1,1,0,1,0,1","0,0,1,1,0,1,0,1,1","2",""
"","html-keyboard-response","45","33198","0.0-45.0","30H4UDGLT34B5MS245662QXWE6JMP2","A3R97T5D3RR9JX","3RBI0I35XEP26UEZY8S8UZLEA1IY3E","","null","<img src=""img/flower4.png"" style=""width:200px;border:14px solid red;"">","null","","","","","","","","",""
"","image-keyboard-response","46","33433","0.0-46.0","30H4UDGLT34B5MS245662QXWE6JMP2","A3R97T5D3RR9JX","3RBI0I35XEP26UEZY8S8UZLEA1IY3E","","232.80000000074506","img/flower1.png","76","234.59999999962747","3","1","3","2","1,0,0,1,1,0,1,0,1","0,0,1,1,0,1,0,1,1","2",""
"","html-keyboard-response","47","33735","0.0-47.0","30H4UDGLT34B5MS245662QXWE6JMP2","A3R97T5D3RR9JX","3RBI0I35XEP26UEZY8S8UZLEA1IY3E","","null","<img src=""img/flower1.png"" style=""width:200px; border:14px solid green;"">","null","","","","","","","","",""
"","image-keyboard-response","48","33830","0.0-48.0","30H4UDGLT34B5MS245662QXWE6JMP2","A3R97T5D3RR9JX","3RBI0I35XEP26UEZY8S8UZLEA1IY3E","","92.79999999981374","img/flower4.png","76","94.59999999962747","3","1","1","2","1,0,0,1,1,0,1,0,1","0,0,1,1,0,1,0,1,1","2",""
"","html-keyboard-response","49","34133","0.0-49.0","30H4UDGLT34B5MS245662QXWE6JMP2","A3R97T5D3RR9JX","3RBI0I35XEP26UEZY8S8UZLEA1IY3E","","null","<img src=""img/flower4.png"" style=""width:200px; border:14px solid green;"">","null","","","","","","","","",""
"","image-keyboard-response","50","34160","0.0-50.0","30H4UDGLT34B5MS245662QXWE6JMP2","A3R97T5D3RR9JX","3RBI0I35XEP26UEZY8S8UZLEA1IY3E","","24.700000000186265","img/flower4.png","76","26.40000000037253","3","1","1","2","1,0,0,1,1,0,1,0,1","0,0,1,1,0,1,0,1,1","2",""
"","html-keyboard-response","51","34463","0.0-51.0","30H4UDGLT34B5MS245662QXWE6JMP2","A3R97T5D3RR9JX","3RBI0I35XEP26UEZY8S8UZLEA1IY3E","","null","<img src=""img/flower4.png"" style=""width:200px; border:14px solid green;"">","null","","","","","","","","",""
"","image-keyboard-response","52","34691","0.0-52.0","30H4UDGLT34B5MS245662QXWE6JMP2","A3R97T5D3RR9JX","3RBI0I35XEP26UEZY8S8UZLEA1IY3E","","226.29999999981374","img/flower5.png","75","228","2","0","2","2","1,0,0,1,1,0,1,0,1","0,0,1,1,0,1,0,1,1","2",""
"","html-keyboard-response","53","34995","0.0-53.0","30H4UDGLT34B5MS245662QXWE6JMP2","A3R97T5D3RR9JX","3RBI0I35XEP26UEZY8S8UZLEA1IY3E","","null","<img src=""img/flower5.png"" style=""width:200px;border:14px solid red;"">","null","","","","","","","","",""
"","image-keyboard-response","54","35030","0.0-54.0","30H4UDGLT34B5MS245662QXWE6JMP2","A3R97T5D3RR9JX","3RBI0I35XEP26UEZY8S8UZLEA1IY3E","","33.90000000037253","img/flower4.png","74","35.40000000037253","1","0","1","2","1,0,0,1,1,0,1,0,1","0,0,1,1,0,1,0,1,1","2",""
"","html-keyboard-response","55","35333","0.0-55.0","30H4UDGLT34B5MS245662QXWE6JMP2","A3R97T5D3RR9JX","3RBI0I35XEP26UEZY8S8UZLEA1IY3E","","null","<img src=""img/flower4.png"" style=""width:200px;border:14px solid red;"">","null","","","","","","","","",""
"","image-keyboard-response","56","35389","0.0-56.0","30H4UDGLT34B5MS245662QXWE6JMP2","A3R97T5D3RR9JX","3RBI0I35XEP26UEZY8S8UZLEA1IY3E","","54.200000000186265","img/flower1.png","74","55.90000000037253","1","0","3","2","1,0,0,1,1,0,1,0,1","0,0,1,1,0,1,0,1,1","2",""
"","html-keyboard-response","57","35691","0.0-57.0","30H4UDGLT34B5MS245662QXWE6JMP2","A3R97T5D3RR9JX","3RBI0I35XEP26UEZY8S8UZLEA1IY3E","","null","<img src=""img/flower1.png"" style=""width:200px;border:14px solid red;"">","null","","","","","","","","",""
"","image-keyboard-response","58","35707","0.0-58.0","30H4UDGLT34B5MS245662QXWE6JMP2","A3R97T5D3RR9JX","3RBI0I35XEP26UEZY8S8UZLEA1IY3E","","14.399999999441206","img/flower1.png","76","15.800000000745058","3","1","3","2","1,0,0,1,1,0,1,0,1","0,0,1,1,0,1,0,1,1","2",""
"","html-keyboard-response","59","36010","0.0-59.0","30H4UDGLT34B5MS245662QXWE6JMP2","A3R97T5D3RR9JX","3RBI0I35XEP26UEZY8S8UZLEA1IY3E","","null","<img src=""img/flower1.png"" style=""width:200px; border:14px solid green;"">","null","","","","","","","","",""
"","image-keyboard-response","60","36163","0.0-60.0","30H4UDGLT34B5MS245662QXWE6JMP2","A3R97T5D3RR9JX","3RBI0I35XEP26UEZY8S8UZLEA1IY3E","","150.79999999981374","img/flower4.png","75","152.6000000005588","2","0","1","2","1,0,0,1,1,0,1,0,1","0,0,1,1,0,1,0,1,1","2",""
"","html-keyboard-response","61","36466","0.0-61.0","30H4UDGLT34B5MS245662QXWE6JMP2","A3R97T5D3RR9JX","3RBI0I35XEP26UEZY8S8UZLEA1IY3E","","null","<img src=""img/flower4.png"" style=""width:200px;border:14px solid red;"">","null","","","","","","","","",""
"","image-keyboard-response","62","36596","0.0-62.0","30H4UDGLT34B5MS245662QXWE6JMP2","A3R97T5D3RR9JX","3RBI0I35XEP26UEZY8S8UZLEA1IY3E","","127.5","img/flower4.png","74","129.40000000037253","1","0","1","2","1,0,0,1,1,0,1,0,1","0,0,1,1,0,1,0,1,1","2",""
"","html-keyboard-response","63","36898","0.0-63.0","30H4UDGLT34B5MS245662QXWE6JMP2","A3R97T5D3RR9JX","3RBI0I35XEP26UEZY8S8UZLEA1IY3E","","null","<img src=""img/flower4.png"" style=""width:200px;border:14px solid red;"">","null","","","","","","","","",""
"","image-keyboard-response","64","37081","0.0-64.0","30H4UDGLT34B5MS245662QXWE6JMP2","A3R97T5D3RR9JX","3RBI0I35XEP26UEZY8S8UZLEA1IY3E","","179.70000000018626","img/flower5.png","74","181.79999999981374","1","1","2","2","1,0,0,1,1,0,1,0,1","0,0,1,1,0,1,0,1,1","2",""
"","html-keyboard-response","65","37383","0.0-65.0","30H4UDGLT34B5MS245662QXWE6JMP2","A3R97T5D3RR9JX","3RBI0I35XEP26UEZY8S8UZLEA1IY3E","","null","<img src=""img/flower5.png"" style=""width:200px; border:14px solid green;"">","null","","","","","","","","",""
"","image-keyboard-response","66","37412","0.0-66.0","30H4UDGLT34B5MS245662QXWE6JMP2","A3R97T5D3RR9JX","3RBI0I35XEP26UEZY8S8UZLEA1IY3E","","26.59999999962747","img/flower4.png","74","28.299999999813735","1","0","1","2","1,0,0,1,1,0,1,0,1","0,0,1,1,0,1,0,1,1","2",""
"","html-keyboard-response","67","37715","0.0-67.0","30H4UDGLT34B5MS245662QXWE6JMP2","A3R97T5D3RR9JX","3RBI0I35XEP26UEZY8S8UZLEA1IY3E","","null","<img src=""img/flower4.png"" style=""width:200px;border:14px solid red;"">","null","","","","","","","","",""
"","image-keyboard-response","68","37983","0.0-68.0","30H4UDGLT34B5MS245662QXWE6JMP2","A3R97T5D3RR9JX","3RBI0I35XEP26UEZY8S8UZLEA1IY3E","","266.09999999962747","img/flower4.png","76","267.80000000074506","3","1","1","2","1,0,0,1,1,0,1,0,1","0,0,1,1,0,1,0,1,1","2",""
"","html-keyboard-response","69","38286","0.0-69.0","30H4UDGLT34B5MS245662QXWE6JMP2","A3R97T5D3RR9JX","3RBI0I35XEP26UEZY8S8UZLEA1IY3E","","null","<img src=""img/flower4.png"" style=""width:200px; border:14px solid green;"">","null","","","","","","","","",""
"","image-keyboard-response","70","38491","0.0-70.0","30H4UDGLT34B5MS245662QXWE6JMP2","A3R97T5D3RR9JX","3RBI0I35XEP26UEZY8S8UZLEA1IY3E","","203.59999999962747","img/flower4.png","76","205.20000000018626","3","1","1","2","1,0,0,1,1,0,1,0,1","0,0,1,1,0,1,0,1,1","2",""
"","html-keyboard-response","71","38793","0.0-71.0","30H4UDGLT34B5MS245662QXWE6JMP2","A3R97T5D3RR9JX","3RBI0I35XEP26UEZY8S8UZLEA1IY3E","","null","<img src=""img/flower4.png"" style=""width:200px; border:14px solid green;"">","null","","","","","","","","",""
"","image-keyboard-response","72","38920","0.0-72.0","30H4UDGLT34B5MS245662QXWE6JMP2","A3R97T5D3RR9JX","3RBI0I35XEP26UEZY8S8UZLEA1IY3E","","124","img/flower4.png","75","125.8999999994412","2","0","1","2","1,0,0,1,1,0,1,0,1","0,0,1,1,0,1,0,1,1","2",""
"","html-keyboard-response","73","39222","0.0-73.0","30H4UDGLT34B5MS245662QXWE6JMP2","A3R97T5D3RR9JX","3RBI0I35XEP26UEZY8S8UZLEA1IY3E","","null","<img src=""img/flower4.png"" style=""width:200px;border:14px solid red;"">","null","","","","","","","","",""
"","image-keyboard-response","74","39303","0.0-74.0","30H4UDGLT34B5MS245662QXWE6JMP2","A3R97T5D3RR9JX","3RBI0I35XEP26UEZY8S8UZLEA1IY3E","","79.79999999981374","img/flower1.png","75","81.20000000018626","2","1","3","2","1,0,0,1,1,0,1,0,1","0,0,1,1,0,1,0,1,1","2",""
"","html-keyboard-response","75","39606","0.0-75.0","30H4UDGLT34B5MS245662QXWE6JMP2","A3R97T5D3RR9JX","3RBI0I35XEP26UEZY8S8UZLEA1IY3E","","null","<img src=""img/flower1.png"" style=""width:200px; border:14px solid green;"">","null","","","","","","","","",""
"","image-keyboard-response","76","39995","0.0-76.0","30H4UDGLT34B5MS245662QXWE6JMP2","A3R97T5D3RR9JX","3RBI0I35XEP26UEZY8S8UZLEA1IY3E","","386","img/flower5.png","75","388","2","0","2","2","1,0,0,1,1,0,1,0,1","0,0,1,1,0,1,0,1,1","2",""
"","html-keyboard-response","77","40298","0.0-77.0","30H4UDGLT34B5MS245662QXWE6JMP2","A3R97T5D3RR9JX","3RBI0I35XEP26UEZY8S8UZLEA1IY3E","","null","<img src=""img/flower5.png"" style=""width:200px;border:14px solid red;"">","null","","","","","","","","",""
"","image-keyboard-response","78","40328","0.0-78.0","30H4UDGLT34B5MS245662QXWE6JMP2","A3R97T5D3RR9JX","3RBI0I35XEP26UEZY8S8UZLEA1IY3E","","28","img/flower5.png","76","29.59999999962747","3","1","2","2","1,0,0,1,1,0,1,0,1","0,0,1,1,0,1,0,1,1","2",""
"","html-keyboard-response","79","40630","0.0-79.0","30H4UDGLT34B5MS245662QXWE6JMP2","A3R97T5D3RR9JX","3RBI0I35XEP26UEZY8S8UZLEA1IY3E","","null","<img src=""img/flower5.png"" style=""width:200px; border:14px solid green;"">","null","","","","","","","","",""
"","image-keyboard-response","80","40696","0.0-80.0","30H4UDGLT34B5MS245662QXWE6JMP2","A3R97T5D3RR9JX","3RBI0I35XEP26UEZY8S8UZLEA1IY3E","","63.5","img/flower1.png","76","65","3","1","3","2","1,0,0,1,1,0,1,0,1","0,0,1,1,0,1,0,1,1","2",""
"","html-keyboard-response","81","40997","0.0-81.0","30H4UDGLT34B5MS245662QXWE6JMP2","A3R97T5D3RR9JX","3RBI0I35XEP26UEZY8S8UZLEA1IY3E","","null","<img src=""img/flower1.png"" style=""width:200px; border:14px solid green;"">","null","","","","","","","","",""
"","image-keyboard-response","82","41034","0.0-82.0","30H4UDGLT34B5MS245662QXWE6JMP2","A3R97T5D3RR9JX","3RBI0I35XEP26UEZY8S8UZLEA1IY3E","","34.59999999962747","img/flower1.png","75","36.5","2","1","3","2","1,0,0,1,1,0,1,0,1","0,0,1,1,0,1,0,1,1","2",""
"","html-keyboard-response","83","41337","0.0-83.0","30H4UDGLT34B5MS245662QXWE6JMP2","A3R97T5D3RR9JX","3RBI0I35XEP26UEZY8S8UZLEA1IY3E","","null","<img src=""img/flower1.png"" style=""width:200px; border:14px solid green;"">","null","","","","","","","","",""
"","image-keyboard-response","84","41430","0.0-84.0","30H4UDGLT34B5MS245662QXWE6JMP2","A3R97T5D3RR9JX","3RBI0I35XEP26UEZY8S8UZLEA1IY3E","","91.20000000018626","img/flower4.png","76","93.09999999962747","3","1","1","2","1,0,0,1,1,0,1,0,1","0,0,1,1,0,1,0,1,1","2",""
"","html-keyboard-response","85","41733","0.0-85.0","30H4UDGLT34B5MS245662QXWE6JMP2","A3R97T5D3RR9JX","3RBI0I35XEP26UEZY8S8UZLEA1IY3E","","null","<img src=""img/flower4.png"" style=""width:200px; border:14px solid green;"">","null","","","","","","","","",""
"","image-keyboard-response","86","41839","0.0-86.0","30H4UDGLT34B5MS245662QXWE6JMP2","A3R97T5D3RR9JX","3RBI0I35XEP26UEZY8S8UZLEA1IY3E","","103.90000000037253","img/flower4.png","76","105.79999999981374","3","1","1","2","1,0,0,1,1,0,1,0,1","0,0,1,1,0,1,0,1,1","2",""
"","html-keyboard-response","87","42142","0.0-87.0","30H4UDGLT34B5MS245662QXWE6JMP2","A3R97T5D3RR9JX","3RBI0I35XEP26UEZY8S8UZLEA1IY3E","","null","<img src=""img/flower4.png"" style=""width:200px; border:14px solid green;"">","null","","","","","","","","",""
"","image-keyboard-response","88","42159","0.0-88.0","30H4UDGLT34B5MS245662QXWE6JMP2","A3R97T5D3RR9JX","3RBI0I35XEP26UEZY8S8UZLEA1IY3E","","14.700000000186265","img/flower5.png","76","16.299999999813735","3","1","2","2","1,0,0,1,1,0,1,0,1","0,0,1,1,0,1,0,1,1","2",""
"","html-keyboard-response","89","42461","0.0-89.0","30H4UDGLT34B5MS245662QXWE6JMP2","A3R97T5D3RR9JX","3RBI0I35XEP26UEZY8S8UZLEA1IY3E","","null","<img src=""img/flower5.png"" style=""width:200px; border:14px solid green;"">","null","","","","","","","","",""
"","image-keyboard-response","90","42517","0.0-90.0","30H4UDGLT34B5MS245662QXWE6JMP2","A3R97T5D3RR9JX","3RBI0I35XEP26UEZY8S8UZLEA1IY3E","","53.799999999813735","img/flower4.png","76","55.19999999925494","3","1","1","2","1,0,0,1,1,0,1,0,1","0,0,1,1,0,1,0,1,1","2",""
"","html-keyboard-response","91","42819","0.0-91.0","30H4UDGLT34B5MS245662QXWE6JMP2","A3R97T5D3RR9JX","3RBI0I35XEP26UEZY8S8UZLEA1IY3E","","null","<img src=""img/flower4.png"" style=""width:200px; border:14px solid green;"">","null","","","","","","","","",""
"","image-keyboard-response","92","42890","0.0-92.0","30H4UDGLT34B5MS245662QXWE6JMP2","A3R97T5D3RR9JX","3RBI0I35XEP26UEZY8S8UZLEA1IY3E","","68.3999999994412","img/flower1.png","75","70.3999999994412","2","1","3","2","1,0,0,1,1,0,1,0,1","0,0,1,1,0,1,0,1,1","2",""
"","html-keyboard-response","93","43193","0.0-93.0","30H4UDGLT34B5MS245662QXWE6JMP2","A3R97T5D3RR9JX","3RBI0I35XEP26UEZY8S8UZLEA1IY3E","","null","<img src=""img/flower1.png"" style=""width:200px; border:14px solid green;"">","null","","","","","","","","",""
"","image-keyboard-response","94","43285","0.0-94.0","30H4UDGLT34B5MS245662QXWE6JMP2","A3R97T5D3RR9JX","3RBI0I35XEP26UEZY8S8UZLEA1IY3E","","89.29999999981374","img/flower5.png","75","91.59999999962747","2","0","2","2","1,0,0,1,1,0,1,0,1","0,0,1,1,0,1,0,1,1","2",""
"","html-keyboard-response","95","43587","0.0-95.0","30H4UDGLT34B5MS245662QXWE6JMP2","A3R97T5D3RR9JX","3RBI0I35XEP26UEZY8S8UZLEA1IY3E","","null","<img src=""img/flower5.png"" style=""width:200px;border:14px solid red;"">","null","","","","","","","","",""
"","image-keyboard-response","96","43605","0.0-96.0","30H4UDGLT34B5MS245662QXWE6JMP2","A3R97T5D3RR9JX","3RBI0I35XEP26UEZY8S8UZLEA1IY3E","","16","img/flower5.png","76","17.40000000037253","3","1","2","2","1,0,0,1,1,0,1,0,1","0,0,1,1,0,1,0,1,1","2",""
"","html-keyboard-response","97","43908","0.0-97.0","30H4UDGLT34B5MS245662QXWE6JMP2","A3R97T5D3RR9JX","3RBI0I35XEP26UEZY8S8UZLEA1IY3E","","null","<img src=""img/flower5.png"" style=""width:200px; border:14px solid green;"">","null","","","","","","","","",""
"","image-keyboard-response","98","43965","0.0-98.0","30H4UDGLT34B5MS245662QXWE6JMP2","A3R97T5D3RR9JX","3RBI0I35XEP26UEZY8S8UZLEA1IY3E","","54.60000000055879","img/flower1.png","75","56.700000000186265","2","1","3","2","1,0,0,1,1,0,1,0,1","0,0,1,1,0,1,0,1,1","2",""
"","html-keyboard-response","99","44268","0.0-99.0","30H4UDGLT34B5MS245662QXWE6JMP2","A3R97T5D3RR9JX","3RBI0I35XEP26UEZY8S8UZLEA1IY3E","","null","<img src=""img/flower1.png"" style=""width:200px; border:14px solid green;"">","null","","","","","","","","",""
"","image-keyboard-response","100","44335","0.0-100.0","30H4UDGLT34B5MS245662QXWE6JMP2","A3R97T5D3RR9JX","3RBI0I35XEP26UEZY8S8UZLEA1IY3E","","65.20000000018626","img/flower5.png","76","67","3","1","2","2","1,0,0,1,1,0,1,0,1","0,0,1,1,0,1,0,1,1","2",""
"","html-keyboard-response","101","44638","0.0-101.0","30H4UDGLT34B5MS245662QXWE6JMP2","A3R97T5D3RR9JX","3RBI0I35XEP26UEZY8S8UZLEA1IY3E","","null","<img src=""img/flower5.png"" style=""width:200px; border:14px solid green;"">","null","","","","","","","","",""
"","image-keyboard-response","102","44697","0.0-102.0","30H4UDGLT34B5MS245662QXWE6JMP2","A3R97T5D3RR9JX","3RBI0I35XEP26UEZY8S8UZLEA1IY3E","","57.299999999813735","img/flower5.png","75","59.09999999962747","2","0","2","2","1,0,0,1,1,0,1,0,1","0,0,1,1,0,1,0,1,1","2",""
"","html-keyboard-response","103","45001","0.0-103.0","30H4UDGLT34B5MS245662QXWE6JMP2","A3R97T5D3RR9JX","3RBI0I35XEP26UEZY8S8UZLEA1IY3E","","null","<img src=""img/flower5.png"" style=""width:200px;border:14px solid red;"">","null","","","","","","","","",""
"","image-keyboard-response","104","45022","0.0-104.0","30H4UDGLT34B5MS245662QXWE6JMP2","A3R97T5D3RR9JX","3RBI0I35XEP26UEZY8S8UZLEA1IY3E","","18.5","img/flower1.png","75","20.90000000037253","2","1","3","2","1,0,0,1,1,0,1,0,1","0,0,1,1,0,1,0,1,1","2",""
"","html-keyboard-response","105","45326","0.0-105.0","30H4UDGLT34B5MS245662QXWE6JMP2","A3R97T5D3RR9JX","3RBI0I35XEP26UEZY8S8UZLEA1IY3E","","null","<img src=""img/flower1.png"" style=""width:200px; border:14px solid green;"">","null","","","","","","","","",""
"","image-keyboard-response","106","45378","0.0-106.0","30H4UDGLT34B5MS245662QXWE6JMP2","A3R97T5D3RR9JX","3RBI0I35XEP26UEZY8S8UZLEA1IY3E","","49.700000000186265","img/flower5.png","76","51.5","3","1","2","2","1,0,0,1,1,0,1,0,1","0,0,1,1,0,1,0,1,1","2",""
"","html-keyboard-response","107","45680","0.0-107.0","30H4UDGLT34B5MS245662QXWE6JMP2","A3R97T5D3RR9JX","3RBI0I35XEP26UEZY8S8UZLEA1IY3E","","null","<img src=""img/flower5.png"" style=""width:200px; border:14px solid green;"">","null","","","","","","","","",""
"","image-keyboard-response","108","45728","0.0-108.0","30H4UDGLT34B5MS245662QXWE6JMP2","A3R97T5D3RR9JX","3RBI0I35XEP26UEZY8S8UZLEA1IY3E","","45.59999999962747","img/flower1.png","75","47.39999999944121","2","1","3","2","1,0,0,1,1,0,1,0,1","0,0,1,1,0,1,0,1,1","2",""
"","html-keyboard-response","109","46030","0.0-109.0","30H4UDGLT34B5MS245662QXWE6JMP2","A3R97T5D3RR9JX","3RBI0I35XEP26UEZY8S8UZLEA1IY3E","","null","<img src=""img/flower1.png"" style=""width:200px; border:14px solid green;"">","null","","","","","","","","",""
"","image-keyboard-response","110","46205","0.0-110.0","30H4UDGLT34B5MS245662QXWE6JMP2","A3R97T5D3RR9JX","3RBI0I35XEP26UEZY8S8UZLEA1IY3E","","171.59999999962747","img/flower5.png","74","173.59999999962747","1","1","2","2","1,0,0,1,1,0,1,0,1","0,0,1,1,0,1,0,1,1","2",""
"","html-keyboard-response","111","46507","0.0-111.0","30H4UDGLT34B5MS245662QXWE6JMP2","A3R97T5D3RR9JX","3RBI0I35XEP26UEZY8S8UZLEA1IY3E","","null","<img src=""img/flower5.png"" style=""width:200px; border:14px solid green;"">","null","","","","","","","","",""
"","image-keyboard-response","112","46633","0.0-112.0","30H4UDGLT34B5MS245662QXWE6JMP2","A3R97T5D3RR9JX","3RBI0I35XEP26UEZY8S8UZLEA1IY3E","","123.1000000005588","img/flower1.png","74","124.90000000037253","1","0","3","2","1,0,0,1,1,0,1,0,1","0,0,1,1,0,1,0,1,1","2",""
"","html-keyboard-response","113","46935","0.0-113.0","30H4UDGLT34B5MS245662QXWE6JMP2","A3R97T5D3RR9JX","3RBI0I35XEP26UEZY8S8UZLEA1IY3E","","null","<img src=""img/flower1.png"" style=""width:200px;border:14px solid red;"">","null","","","","","","","","",""
"","image-keyboard-response","114","47059","0.0-114.0","30H4UDGLT34B5MS245662QXWE6JMP2","A3R97T5D3RR9JX","3RBI0I35XEP26UEZY8S8UZLEA1IY3E","","121.40000000037253","img/flower5.png","76","123.20000000018626","3","1","2","2","1,0,0,1,1,0,1,0,1","0,0,1,1,0,1,0,1,1","2",""
"","html-keyboard-response","115","47361","0.0-115.0","30H4UDGLT34B5MS245662QXWE6JMP2","A3R97T5D3RR9JX","3RBI0I35XEP26UEZY8S8UZLEA1IY3E","","null","<img src=""img/flower5.png"" style=""width:200px; border:14px solid green;"">","null","","","","","","","","",""
"","image-keyboard-response","116","47398","0.0-116.0","30H4UDGLT34B5MS245662QXWE6JMP2","A3R97T5D3RR9JX","3RBI0I35XEP26UEZY8S8UZLEA1IY3E","","34.59999999962747","img/flower1.png","75","36.5","2","1","3","2","1,0,0,1,1,0,1,0,1","0,0,1,1,0,1,0,1,1","2",""
"","html-keyboard-response","117","47701","0.0-117.0","30H4UDGLT34B5MS245662QXWE6JMP2","A3R97T5D3RR9JX","3RBI0I35XEP26UEZY8S8UZLEA1IY3E","","null","<img src=""img/flower1.png"" style=""width:200px; border:14px solid green;"">","null","","","","","","","","",""
"","image-keyboard-response","118","48134","0.0-118.0","30H4UDGLT34B5MS245662QXWE6JMP2","A3R97T5D3RR9JX","3RBI0I35XEP26UEZY8S8UZLEA1IY3E","","430.59999999962747","img/flower4.png","76","432.20000000018626","3","1","1","2","1,0,0,1,1,0,1,0,1","0,0,1,1,0,1,0,1,1","2",""
"","html-keyboard-response","119","48436","0.0-119.0","30H4UDGLT34B5MS245662QXWE6JMP2","A3R97T5D3RR9JX","3RBI0I35XEP26UEZY8S8UZLEA1IY3E","","null","<img src=""img/flower4.png"" style=""width:200px; border:14px solid green;"">","null","","","","","","","","",""
"","image-keyboard-response","120","48478","0.0-120.0","30H4UDGLT34B5MS245662QXWE6JMP2","A3R97T5D3RR9JX","3RBI0I35XEP26UEZY8S8UZLEA1IY3E","","40.60000000055879","img/flower1.png","74","42.299999999813735","1","0","3","2","1,0,0,1,1,0,1,0,1","0,0,1,1,0,1,0,1,1","2",""
"","html-keyboard-response","121","48782","0.0-121.0","30H4UDGLT34B5MS245662QXWE6JMP2","A3R97T5D3RR9JX","3RBI0I35XEP26UEZY8S8UZLEA1IY3E","","null","<img src=""img/flower1.png"" style=""width:200px;border:14px solid red;"">","null","","","","","","","","",""
"","image-keyboard-response","122","48948","0.0-122.0","30H4UDGLT34B5MS245662QXWE6JMP2","A3R97T5D3RR9JX","3RBI0I35XEP26UEZY8S8UZLEA1IY3E","","163.29999999981374","img/flower1.png","76","165.59999999962747","3","1","3","2","1,0,0,1,1,0,1,0,1","0,0,1,1,0,1,0,1,1","2",""
"","html-keyboard-response","123","49251","0.0-123.0","30H4UDGLT34B5MS245662QXWE6JMP2","A3R97T5D3RR9JX","3RBI0I35XEP26UEZY8S8UZLEA1IY3E","","null","<img src=""img/flower1.png"" style=""width:200px; border:14px solid green;"">","null","","","","","","","","",""
"","image-keyboard-response","124","49264","0.0-124.0","30H4UDGLT34B5MS245662QXWE6JMP2","A3R97T5D3RR9JX","3RBI0I35XEP26UEZY8S8UZLEA1IY3E","","11.199999999254942","img/flower5.png","74","12.799999999813735","1","1","2","2","1,0,0,1,1,0,1,0,1","0,0,1,1,0,1,0,1,1","2",""
"","html-keyboard-response","125","49566","0.0-125.0","30H4UDGLT34B5MS245662QXWE6JMP2","A3R97T5D3RR9JX","3RBI0I35XEP26UEZY8S8UZLEA1IY3E","","null","<img src=""img/flower5.png"" style=""width:200px; border:14px solid green;"">","null","","","","","","","","",""
"","image-keyboard-response","126","49624","0.0-126.0","30H4UDGLT34B5MS245662QXWE6JMP2","A3R97T5D3RR9JX","3RBI0I35XEP26UEZY8S8UZLEA1IY3E","","54.89999999944121","img/flower1.png","74","56.69999999925494","1","0","3","2","1,0,0,1,1,0,1,0,1","0,0,1,1,0,1,0,1,1","2",""
"","html-keyboard-response","127","49927","0.0-127.0","30H4UDGLT34B5MS245662QXWE6JMP2","A3R97T5D3RR9JX","3RBI0I35XEP26UEZY8S8UZLEA1IY3E","","null","<img src=""img/flower1.png"" style=""width:200px;border:14px solid red;"">","null","","","","","","","","",""
"","image-keyboard-response","128","49982","0.0-128.0","30H4UDGLT34B5MS245662QXWE6JMP2","A3R97T5D3RR9JX","3RBI0I35XEP26UEZY8S8UZLEA1IY3E","","52.59999999962747","img/flower4.png","74","54.200000000186265","1","0","1","2","1,0,0,1,1,0,1,0,1","0,0,1,1,0,1,0,1,1","2",""
"","html-keyboard-response","129","50284","0.0-129.0","30H4UDGLT34B5MS245662QXWE6JMP2","A3R97T5D3RR9JX","3RBI0I35XEP26UEZY8S8UZLEA1IY3E","","null","<img src=""img/flower4.png"" style=""width:200px;border:14px solid red;"">","null","","","","","","","","",""
"","image-keyboard-response","130","50319","0.0-130.0","30H4UDGLT34B5MS245662QXWE6JMP2","A3R97T5D3RR9JX","3RBI0I35XEP26UEZY8S8UZLEA1IY3E","","33.59999999962747","img/flower1.png","74","34.90000000037253","1","0","3","2","1,0,0,1,1,0,1,0,1","0,0,1,1,0,1,0,1,1","2",""
"","html-keyboard-response","131","50621","0.0-131.0","30H4UDGLT34B5MS245662QXWE6JMP2","A3R97T5D3RR9JX","3RBI0I35XEP26UEZY8S8UZLEA1IY3E","","null","<img src=""img/flower1.png"" style=""width:200px;border:14px solid red;"">","null","","","","","","","","",""
"","image-keyboard-response","132","50834","0.0-132.0","30H4UDGLT34B5MS245662QXWE6JMP2","A3R97T5D3RR9JX","3RBI0I35XEP26UEZY8S8UZLEA1IY3E","","210.69999999925494","img/flower1.png","76","212.3999999994412","3","1","3","2","1,0,0,1,1,0,1,0,1","0,0,1,1,0,1,0,1,1","2",""
"","html-keyboard-response","133","51137","0.0-133.0","30H4UDGLT34B5MS245662QXWE6JMP2","A3R97T5D3RR9JX","3RBI0I35XEP26UEZY8S8UZLEA1IY3E","","null","<img src=""img/flower1.png"" style=""width:200px; border:14px solid green;"">","null","","","","","","","","",""
"","image-keyboard-response","134","51407","0.0-134.0","30H4UDGLT34B5MS245662QXWE6JMP2","A3R97T5D3RR9JX","3RBI0I35XEP26UEZY8S8UZLEA1IY3E","","267.79999999981374","img/flower1.png","74","269.79999999981374","1","0","3","2","1,0,0,1,1,0,1,0,1","0,0,1,1,0,1,0,1,1","2",""
"","html-keyboard-response","135","51710","0.0-135.0","30H4UDGLT34B5MS245662QXWE6JMP2","A3R97T5D3RR9JX","3RBI0I35XEP26UEZY8S8UZLEA1IY3E","","null","<img src=""img/flower1.png"" style=""width:200px;border:14px solid red;"">","null","","","","","","","","",""
"","image-keyboard-response","136","51758","0.0-136.0","30H4UDGLT34B5MS245662QXWE6JMP2","A3R97T5D3RR9JX","3RBI0I35XEP26UEZY8S8UZLEA1IY3E","","46","img/flower5.png","74","47.69999999925494","1","1","2","2","1,0,0,1,1,0,1,0,1","0,0,1,1,0,1,0,1,1","2",""
"","html-keyboard-response","137","52060","0.0-137.0","30H4UDGLT34B5MS245662QXWE6JMP2","A3R97T5D3RR9JX","3RBI0I35XEP26UEZY8S8UZLEA1IY3E","","null","<img src=""img/flower5.png"" style=""width:200px; border:14px solid green;"">","null","","","","","","","","",""
"","image-keyboard-response","138","52100","0.0-138.0","30H4UDGLT34B5MS245662QXWE6JMP2","A3R97T5D3RR9JX","3RBI0I35XEP26UEZY8S8UZLEA1IY3E","","38","img/flower4.png","74","39.5","1","0","1","2","1,0,0,1,1,0,1,0,1","0,0,1,1,0,1,0,1,1","2",""
"","html-keyboard-response","139","52401","0.0-139.0","30H4UDGLT34B5MS245662QXWE6JMP2","A3R97T5D3RR9JX","3RBI0I35XEP26UEZY8S8UZLEA1IY3E","","null","<img src=""img/flower4.png"" style=""width:200px;border:14px solid red;"">","null","","","","","","","","",""
"","image-keyboard-response","140","52439","0.0-140.0","30H4UDGLT34B5MS245662QXWE6JMP2","A3R97T5D3RR9JX","3RBI0I35XEP26UEZY8S8UZLEA1IY3E","","35.5","img/flower4.png","74","37.39999999944121","1","0","1","2","1,0,0,1,1,0,1,0,1","0,0,1,1,0,1,0,1,1","2",""
"","html-keyboard-response","141","52742","0.0-141.0","30H4UDGLT34B5MS245662QXWE6JMP2","A3R97T5D3RR9JX","3RBI0I35XEP26UEZY8S8UZLEA1IY3E","","null","<img src=""img/flower4.png"" style=""width:200px;border:14px solid red;"">","null","","","","","","","","",""
"","image-keyboard-response","142","52761","0.0-142.0","30H4UDGLT34B5MS245662QXWE6JMP2","A3R97T5D3RR9JX","3RBI0I35XEP26UEZY8S8UZLEA1IY3E","","16.800000000745058","img/flower4.png","74","18.5","1","0","1","2","1,0,0,1,1,0,1,0,1","0,0,1,1,0,1,0,1,1","2",""
"","html-keyboard-response","143","53064","0.0-143.0","30H4UDGLT34B5MS245662QXWE6JMP2","A3R97T5D3RR9JX","3RBI0I35XEP26UEZY8S8UZLEA1IY3E","","null","<img src=""img/flower4.png"" style=""width:200px;border:14px solid red;"">","null","","","","","","","","",""
"","image-keyboard-response","144","53082","0.0-144.0","30H4UDGLT34B5MS245662QXWE6JMP2","A3R97T5D3RR9JX","3RBI0I35XEP26UEZY8S8UZLEA1IY3E","","16","img/flower5.png","74","17.700000000186265","1","1","2","2","1,0,0,1,1,0,1,0,1","0,0,1,1,0,1,0,1,1","2",""
"","html-keyboard-response","145","53384","0.0-145.0","30H4UDGLT34B5MS245662QXWE6JMP2","A3R97T5D3RR9JX","3RBI0I35XEP26UEZY8S8UZLEA1IY3E","","null","<img src=""img/flower5.png"" style=""width:200px; border:14px solid green;"">","null","","","","","","","","",""
"","image-keyboard-response","146","53395","0.0-146.0","30H4UDGLT34B5MS245662QXWE6JMP2","A3R97T5D3RR9JX","3RBI0I35XEP26UEZY8S8UZLEA1IY3E","","9.200000000186265","img/flower5.png","74","10.799999999813735","1","1","2","2","1,0,0,1,1,0,1,0,1","0,0,1,1,0,1,0,1,1","2",""
"","html-keyboard-response","147","53698","0.0-147.0","30H4UDGLT34B5MS245662QXWE6JMP2","A3R97T5D3RR9JX","3RBI0I35XEP26UEZY8S8UZLEA1IY3E","","null","<img src=""img/flower5.png"" style=""width:200px; border:14px solid green;"">","null","","","","","","","","",""
"","image-keyboard-response","148","53887","0.0-148.0","30H4UDGLT34B5MS245662QXWE6JMP2","A3R97T5D3RR9JX","3RBI0I35XEP26UEZY8S8UZLEA1IY3E","","186.69999999925494","img/flower5.png","74","188.19999999925494","1","1","2","2","1,0,0,1,1,0,1,0,1","0,0,1,1,0,1,0,1,1","2",""
"","html-keyboard-response","149","54191","0.0-149.0","30H4UDGLT34B5MS245662QXWE6JMP2","A3R97T5D3RR9JX","3RBI0I35XEP26UEZY8S8UZLEA1IY3E","","null","<img src=""img/flower5.png"" style=""width:200px; border:14px solid green;"">","null","","","","","","","","",""
"","image-keyboard-response","150","54282","0.0-150.0","30H4UDGLT34B5MS245662QXWE6JMP2","A3R97T5D3RR9JX","3RBI0I35XEP26UEZY8S8UZLEA1IY3E","","89.40000000037253","img/flower4.png","75","91.29999999981374","2","0","1","2","1,0,0,1,1,0,1,0,1","0,0,1,1,0,1,0,1,1","2",""
"","html-keyboard-response","151","54585","0.0-151.0","30H4UDGLT34B5MS245662QXWE6JMP2","A3R97T5D3RR9JX","3RBI0I35XEP26UEZY8S8UZLEA1IY3E","","null","<img src=""img/flower4.png"" style=""width:200px;border:14px solid red;"">","null","","","","","","","","",""
"","image-keyboard-response","152","54749","0.0-152.0","30H4UDGLT34B5MS245662QXWE6JMP2","A3R97T5D3RR9JX","3RBI0I35XEP26UEZY8S8UZLEA1IY3E","","161.90000000037253","img/flower5.png","74","163.70000000018626","1","1","2","2","1,0,0,1,1,0,1,0,1","0,0,1,1,0,1,0,1,1","2",""
"","html-keyboard-response","153","55051","0.0-153.0","30H4UDGLT34B5MS245662QXWE6JMP2","A3R97T5D3RR9JX","3RBI0I35XEP26UEZY8S8UZLEA1IY3E","","null","<img src=""img/flower5.png"" style=""width:200px; border:14px solid green;"">","null","","","","","","","","",""
"","image-keyboard-response","154","55110","0.0-154.0","30H4UDGLT34B5MS245662QXWE6JMP2","A3R97T5D3RR9JX","3RBI0I35XEP26UEZY8S8UZLEA1IY3E","","57.60000000055879","img/flower4.png","74","59.10000000055879","1","0","1","2","1,0,0,1,1,0,1,0,1","0,0,1,1,0,1,0,1,1","2",""
"","html-keyboard-response","155","55413","0.0-155.0","30H4UDGLT34B5MS245662QXWE6JMP2","A3R97T5D3RR9JX","3RBI0I35XEP26UEZY8S8UZLEA1IY3E","","null","<img src=""img/flower4.png"" style=""width:200px;border:14px solid red;"">","null","","","","","","","","",""
"","image-keyboard-response","156","55429","0.0-156.0","30H4UDGLT34B5MS245662QXWE6JMP2","A3R97T5D3RR9JX","3RBI0I35XEP26UEZY8S8UZLEA1IY3E","","13.5","img/flower4.png","74","15","1","0","1","2","1,0,0,1,1,0,1,0,1","0,0,1,1,0,1,0,1,1","2",""
"","html-keyboard-response","157","55733","0.0-157.0","30H4UDGLT34B5MS245662QXWE6JMP2","A3R97T5D3RR9JX","3RBI0I35XEP26UEZY8S8UZLEA1IY3E","","null","<img src=""img/flower4.png"" style=""width:200px;border:14px solid red;"">","null","","","","","","","","",""
"","image-keyboard-response","158","55962","0.0-158.0","30H4UDGLT34B5MS245662QXWE6JMP2","A3R97T5D3RR9JX","3RBI0I35XEP26UEZY8S8UZLEA1IY3E","","226.70000000018626","img/flower4.png","76","228.6000000005588","3","1","1","2","1,0,0,1,1,0,1,0,1","0,0,1,1,0,1,0,1,1","2",""
"","html-keyboard-response","159","56264","0.0-159.0","30H4UDGLT34B5MS245662QXWE6JMP2","A3R97T5D3RR9JX","3RBI0I35XEP26UEZY8S8UZLEA1IY3E","","null","<img src=""img/flower4.png"" style=""width:200px; border:14px solid green;"">","null","","","","","","","","",""
"","image-keyboard-response","160","56361","0.0-160.0","30H4UDGLT34B5MS245662QXWE6JMP2","A3R97T5D3RR9JX","3RBI0I35XEP26UEZY8S8UZLEA1IY3E","","94.59999999962747","img/flower4.png","75","96.80000000074506","2","0","1","2","1,0,0,1,1,0,1,0,1","0,0,1,1,0,1,0,1,1","2",""
"","html-keyboard-response","161","56664","0.0-161.0","30H4UDGLT34B5MS245662QXWE6JMP2","A3R97T5D3RR9JX","3RBI0I35XEP26UEZY8S8UZLEA1IY3E","","null","<img src=""img/flower4.png"" style=""width:200px;border:14px solid red;"">","null","","","","","","","","",""
"","image-keyboard-response","162","56693","0.0-162.0","30H4UDGLT34B5MS245662QXWE6JMP2","A3R97T5D3RR9JX","3RBI0I35XEP26UEZY8S8UZLEA1IY3E","","27","img/flower4.png","76","28.799999999813735","3","1","1","2","1,0,0,1,1,0,1,0,1","0,0,1,1,0,1,0,1,1","2",""
"","html-keyboard-response","163","56999","0.0-163.0","30H4UDGLT34B5MS245662QXWE6JMP2","A3R97T5D3RR9JX","3RBI0I35XEP26UEZY8S8UZLEA1IY3E","","null","<img src=""img/flower4.png"" style=""width:200px; border:14px solid green;"">","null","","","","","","","","",""
"","image-keyboard-response","164","57018","0.0-164.0","30H4UDGLT34B5MS245662QXWE6JMP2","A3R97T5D3RR9JX","3RBI0I35XEP26UEZY8S8UZLEA1IY3E","","17.59999999962747","img/flower4.png","75","19.300000000745058","2","0","1","2","1,0,0,1,1,0,1,0,1","0,0,1,1,0,1,0,1,1","2",""
"","html-keyboard-response","165","57321","0.0-165.0","30H4UDGLT34B5MS245662QXWE6JMP2","A3R97T5D3RR9JX","3RBI0I35XEP26UEZY8S8UZLEA1IY3E","","null","<img src=""img/flower4.png"" style=""width:200px;border:14px solid red;"">","null","","","","","","","","",""
"","image-keyboard-response","166","57402","0.0-166.0","30H4UDGLT34B5MS245662QXWE6JMP2","A3R97T5D3RR9JX","3RBI0I35XEP26UEZY8S8UZLEA1IY3E","","78.29999999981374","img/flower4.png","75","80.5","2","0","1","2","1,0,0,1,1,0,1,0,1","0,0,1,1,0,1,0,1,1","2",""
"","html-keyboard-response","167","57711","0.0-167.0","30H4UDGLT34B5MS245662QXWE6JMP2","A3R97T5D3RR9JX","3RBI0I35XEP26UEZY8S8UZLEA1IY3E","","null","<img src=""img/flower4.png"" style=""width:200px;border:14px solid red;"">","null","","","","","","","","",""
"","image-keyboard-response","168","57773","0.0-168.0","30H4UDGLT34B5MS245662QXWE6JMP2","A3R97T5D3RR9JX","3RBI0I35XEP26UEZY8S8UZLEA1IY3E","","59.60000000055879","img/flower1.png","76","61.59999999962747","3","1","3","2","1,0,0,1,1,0,1,0,1","0,0,1,1,0,1,0,1,1","2",""
"","html-keyboard-response","169","58076","0.0-169.0","30H4UDGLT34B5MS245662QXWE6JMP2","A3R97T5D3RR9JX","3RBI0I35XEP26UEZY8S8UZLEA1IY3E","","null","<img src=""img/flower1.png"" style=""width:200px; border:14px solid green;"">","null","","","","","","","","",""
"","image-keyboard-response","170","58376","0.0-170.0","30H4UDGLT34B5MS245662QXWE6JMP2","A3R97T5D3RR9JX","3RBI0I35XEP26UEZY8S8UZLEA1IY3E","","297.8999999994412","img/flower4.png","74","299.80000000074506","1","0","1","2","1,0,0,1,1,0,1,0,1","0,0,1,1,0,1,0,1,1","2",""
"","html-keyboard-response","171","58679","0.0-171.0","30H4UDGLT34B5MS245662QXWE6JMP2","A3R97T5D3RR9JX","3RBI0I35XEP26UEZY8S8UZLEA1IY3E","","null","<img src=""img/flower4.png"" style=""width:200px;border:14px solid red;"">","null","","","","","","","","",""
"","image-keyboard-response","172","58784","0.0-172.0","30H4UDGLT34B5MS245662QXWE6JMP2","A3R97T5D3RR9JX","3RBI0I35XEP26UEZY8S8UZLEA1IY3E","","103","img/flower5.png","75","104.79999999981374","2","0","2","2","1,0,0,1,1,0,1,0,1","0,0,1,1,0,1,0,1,1","2",""
"","html-keyboard-response","173","59087","0.0-173.0","30H4UDGLT34B5MS245662QXWE6JMP2","A3R97T5D3RR9JX","3RBI0I35XEP26UEZY8S8UZLEA1IY3E","","null","<img src=""img/flower5.png"" style=""width:200px;border:14px solid red;"">","null","","","","","","","","",""
"","image-keyboard-response","174","59134","0.0-174.0","30H4UDGLT34B5MS245662QXWE6JMP2","A3R97T5D3RR9JX","3RBI0I35XEP26UEZY8S8UZLEA1IY3E","","45.40000000037253","img/flower1.png","75","46.700000000186265","2","1","3","2","1,0,0,1,1,0,1,0,1","0,0,1,1,0,1,0,1,1","2",""
"","html-keyboard-response","175","59436","0.0-175.0","30H4UDGLT34B5MS245662QXWE6JMP2","A3R97T5D3RR9JX","3RBI0I35XEP26UEZY8S8UZLEA1IY3E","","null","<img src=""img/flower1.png"" style=""width:200px; border:14px solid green;"">","null","","","","","","","","",""
"","image-keyboard-response","176","59724","0.0-176.0","30H4UDGLT34B5MS245662QXWE6JMP2","A3R97T5D3RR9JX","3RBI0I35XEP26UEZY8S8UZLEA1IY3E","","286","img/flower5.png","74","287.79999999981374","1","1","2","2","1,0,0,1,1,0,1,0,1","0,0,1,1,0,1,0,1,1","2",""
"","html-keyboard-response","177","60027","0.0-177.0","30H4UDGLT34B5MS245662QXWE6JMP2","A3R97T5D3RR9JX","3RBI0I35XEP26UEZY8S8UZLEA1IY3E","","null","<img src=""img/flower5.png"" style=""width:200px; border:14px solid green;"">","null","","","","","","","","",""
"","image-keyboard-response","178","60100","0.0-178.0","30H4UDGLT34B5MS245662QXWE6JMP2","A3R97T5D3RR9JX","3RBI0I35XEP26UEZY8S8UZLEA1IY3E","","71.09999999962747","img/flower5.png","74","73.1000000005588","1","1","2","2","1,0,0,1,1,0,1,0,1","0,0,1,1,0,1,0,1,1","2",""
"","html-keyboard-response","179","60402","0.0-179.0","30H4UDGLT34B5MS245662QXWE6JMP2","A3R97T5D3RR9JX","3RBI0I35XEP26UEZY8S8UZLEA1IY3E","","null","<img src=""img/flower5.png"" style=""width:200px; border:14px solid green;"">","null","","","","","","","","",""
"","image-keyboard-response","180","60571","0.0-180.0","30H4UDGLT34B5MS245662QXWE6JMP2","A3R97T5D3RR9JX","3RBI0I35XEP26UEZY8S8UZLEA1IY3E","","166.29999999981374","img/flower5.png","75","168.09999999962747","2","0","2","2","1,0,0,1,1,0,1,0,1","0,0,1,1,0,1,0,1,1","2",""
"","html-keyboard-response","181","60874","0.0-181.0","30H4UDGLT34B5MS245662QXWE6JMP2","A3R97T5D3RR9JX","3RBI0I35XEP26UEZY8S8UZLEA1IY3E","","null","<img src=""img/flower5.png"" style=""width:200px;border:14px solid red;"">","null","","","","","","","","",""
"","image-keyboard-response","182","60950","0.0-182.0","30H4UDGLT34B5MS245662QXWE6JMP2","A3R97T5D3RR9JX","3RBI0I35XEP26UEZY8S8UZLEA1IY3E","","74.59999999962747","img/flower2.png","76","76.40000000037253","3","0","2","1","1,0.333,0.333,0.333,1,0.333,0.333,0.333,1","1,0.333,0.333,0.333,1,0.333,0.333,0.333,1","1",""
"","html-keyboard-response","183","61253","0.0-183.0","30H4UDGLT34B5MS245662QXWE6JMP2","A3R97T5D3RR9JX","3RBI0I35XEP26UEZY8S8UZLEA1IY3E","","null","<img src=""img/flower2.png"" style=""width:200px;border:14px solid red;"">","null","","","","","","","","",""
"","image-keyboard-response","184","61452","0.0-184.0","30H4UDGLT34B5MS245662QXWE6JMP2","A3R97T5D3RR9JX","3RBI0I35XEP26UEZY8S8UZLEA1IY3E","","196","img/flower3.png","75","198.1000000005588","2","1","1","1","1,0.333,0.333,0.333,1,0.333,0.333,0.333,1","1,0.333,0.333,0.333,1,0.333,0.333,0.333,1","1",""
"","html-keyboard-response","185","61755","0.0-185.0","30H4UDGLT34B5MS245662QXWE6JMP2","A3R97T5D3RR9JX","3RBI0I35XEP26UEZY8S8UZLEA1IY3E","","null","<img src=""img/flower3.png"" style=""width:200px; border:14px solid green;"">","null","","","","","","","","",""
"","image-keyboard-response","186","61868","0.0-186.0","30H4UDGLT34B5MS245662QXWE6JMP2","A3R97T5D3RR9JX","3RBI0I35XEP26UEZY8S8UZLEA1IY3E","","111.20000000018626","img/flower6.png","75","113","2","0","3","1","1,0.333,0.333,0.333,1,0.333,0.333,0.333,1","1,0.333,0.333,0.333,1,0.333,0.333,0.333,1","1",""
"","html-keyboard-response","187","62171","0.0-187.0","30H4UDGLT34B5MS245662QXWE6JMP2","A3R97T5D3RR9JX","3RBI0I35XEP26UEZY8S8UZLEA1IY3E","","null","<img src=""img/flower6.png"" style=""width:200px;border:14px solid red;"">","null","","","","","","","","",""
"","image-keyboard-response","188","62245","0.0-188.0","30H4UDGLT34B5MS245662QXWE6JMP2","A3R97T5D3RR9JX","3RBI0I35XEP26UEZY8S8UZLEA1IY3E","","71.29999999981374","img/flower6.png","75","73.69999999925494","2","0","3","1","1,0.333,0.333,0.333,1,0.333,0.333,0.333,1","1,0.333,0.333,0.333,1,0.333,0.333,0.333,1","1",""
"","html-keyboard-response","189","62547","0.0-189.0","30H4UDGLT34B5MS245662QXWE6JMP2","A3R97T5D3RR9JX","3RBI0I35XEP26UEZY8S8UZLEA1IY3E","","null","<img src=""img/flower6.png"" style=""width:200px;border:14px solid red;"">","null","","","","","","","","",""
"","image-keyboard-response","190","62566","0.0-190.0","30H4UDGLT34B5MS245662QXWE6JMP2","A3R97T5D3RR9JX","3RBI0I35XEP26UEZY8S8UZLEA1IY3E","","16.5","img/flower3.png","75","18.200000000186265","2","1","1","1","1,0.333,0.333,0.333,1,0.333,0.333,0.333,1","1,0.333,0.333,0.333,1,0.333,0.333,0.333,1","1",""
"","html-keyboard-response","191","62868","0.0-191.0","30H4UDGLT34B5MS245662QXWE6JMP2","A3R97T5D3RR9JX","3RBI0I35XEP26UEZY8S8UZLEA1IY3E","","null","<img src=""img/flower3.png"" style=""width:200px; border:14px solid green;"">","null","","","","","","","","",""
"","image-keyboard-response","192","62895","0.0-192.0","30H4UDGLT34B5MS245662QXWE6JMP2","A3R97T5D3RR9JX","3RBI0I35XEP26UEZY8S8UZLEA1IY3E","","25.40000000037253","img/flower3.png","76","27.100000000558794","3","1","1","1","1,0.333,0.333,0.333,1,0.333,0.333,0.333,1","1,0.333,0.333,0.333,1,0.333,0.333,0.333,1","1",""
"","html-keyboard-response","193","63198","0.0-193.0","30H4UDGLT34B5MS245662QXWE6JMP2","A3R97T5D3RR9JX","3RBI0I35XEP26UEZY8S8UZLEA1IY3E","","null","<img src=""img/flower3.png"" style=""width:200px; border:14px solid green;"">","null","","","","","","","","",""
"","image-keyboard-response","194","63424","0.0-194.0","30H4UDGLT34B5MS245662QXWE6JMP2","A3R97T5D3RR9JX","3RBI0I35XEP26UEZY8S8UZLEA1IY3E","","224","img/flower6.png","75","225.90000000037253","2","0","3","1","1,0.333,0.333,0.333,1,0.333,0.333,0.333,1","1,0.333,0.333,0.333,1,0.333,0.333,0.333,1","1",""
"","html-keyboard-response","195","63727","0.0-195.0","30H4UDGLT34B5MS245662QXWE6JMP2","A3R97T5D3RR9JX","3RBI0I35XEP26UEZY8S8UZLEA1IY3E","","null","<img src=""img/flower6.png"" style=""width:200px;border:14px solid red;"">","null","","","","","","","","",""
"","image-keyboard-response","196","63787","0.0-196.0","30H4UDGLT34B5MS245662QXWE6JMP2","A3R97T5D3RR9JX","3RBI0I35XEP26UEZY8S8UZLEA1IY3E","","57.90000000037253","img/flower2.png","74","59.40000000037253","1","0","2","1","1,0.333,0.333,0.333,1,0.333,0.333,0.333,1","1,0.333,0.333,0.333,1,0.333,0.333,0.333,1","1",""
"","html-keyboard-response","197","64089","0.0-197.0","30H4UDGLT34B5MS245662QXWE6JMP2","A3R97T5D3RR9JX","3RBI0I35XEP26UEZY8S8UZLEA1IY3E","","null","<img src=""img/flower2.png"" style=""width:200px;border:14px solid red;"">","null","","","","","","","","",""
"","image-keyboard-response","198","64232","0.0-198.0","30H4UDGLT34B5MS245662QXWE6JMP2","A3R97T5D3RR9JX","3RBI0I35XEP26UEZY8S8UZLEA1IY3E","","140.40000000037253","img/flower6.png","75","142.5","2","0","3","1","1,0.333,0.333,0.333,1,0.333,0.333,0.333,1","1,0.333,0.333,0.333,1,0.333,0.333,0.333,1","1",""
"","html-keyboard-response","199","64535","0.0-199.0","30H4UDGLT34B5MS245662QXWE6JMP2","A3R97T5D3RR9JX","3RBI0I35XEP26UEZY8S8UZLEA1IY3E","","null","<img src=""img/flower6.png"" style=""width:200px;border:14px solid red;"">","null","","","","","","","","",""
"","image-keyboard-response","200","64652","0.0-200.0","30H4UDGLT34B5MS245662QXWE6JMP2","A3R97T5D3RR9JX","3RBI0I35XEP26UEZY8S8UZLEA1IY3E","","115","img/flower6.png","76","116.8999999994412","3","1","3","1","1,0.333,0.333,0.333,1,0.333,0.333,0.333,1","1,0.333,0.333,0.333,1,0.333,0.333,0.333,1","1",""
"","html-keyboard-response","201","64955","0.0-201.0","30H4UDGLT34B5MS245662QXWE6JMP2","A3R97T5D3RR9JX","3RBI0I35XEP26UEZY8S8UZLEA1IY3E","","null","<img src=""img/flower6.png"" style=""width:200px; border:14px solid green;"">","null","","","","","","","","",""
"","image-keyboard-response","202","65016","0.0-202.0","30H4UDGLT34B5MS245662QXWE6JMP2","A3R97T5D3RR9JX","3RBI0I35XEP26UEZY8S8UZLEA1IY3E","","58.80000000074506","img/flower6.png","76","60.799999999813735","3","1","3","1","1,0.333,0.333,0.333,1,0.333,0.333,0.333,1","1,0.333,0.333,0.333,1,0.333,0.333,0.333,1","1",""
"","html-keyboard-response","203","65319","0.0-203.0","30H4UDGLT34B5MS245662QXWE6JMP2","A3R97T5D3RR9JX","3RBI0I35XEP26UEZY8S8UZLEA1IY3E","","null","<img src=""img/flower6.png"" style=""width:200px; border:14px solid green;"">","null","","","","","","","","",""
"","image-keyboard-response","204","65336","0.0-204.0","30H4UDGLT34B5MS245662QXWE6JMP2","A3R97T5D3RR9JX","3RBI0I35XEP26UEZY8S8UZLEA1IY3E","","14.599999999627471","img/flower3.png","75","16.299999999813735","2","1","1","1","1,0.333,0.333,0.333,1,0.333,0.333,0.333,1","1,0.333,0.333,0.333,1,0.333,0.333,0.333,1","1",""
"","html-keyboard-response","205","65643","0.0-205.0","30H4UDGLT34B5MS245662QXWE6JMP2","A3R97T5D3RR9JX","3RBI0I35XEP26UEZY8S8UZLEA1IY3E","","null","<img src=""img/flower3.png"" style=""width:200px; border:14px solid green;"">","null","","","","","","","","",""
"","image-keyboard-response","206","65735","0.0-206.0","30H4UDGLT34B5MS245662QXWE6JMP2","A3R97T5D3RR9JX","3RBI0I35XEP26UEZY8S8UZLEA1IY3E","","89.70000000018626","img/flower3.png","76","91.5","3","1","1","1","1,0.333,0.333,0.333,1,0.333,0.333,0.333,1","1,0.333,0.333,0.333,1,0.333,0.333,0.333,1","1",""
"","html-keyboard-response","207","66038","0.0-207.0","30H4UDGLT34B5MS245662QXWE6JMP2","A3R97T5D3RR9JX","3RBI0I35XEP26UEZY8S8UZLEA1IY3E","","null","<img src=""img/flower3.png"" style=""width:200px; border:14px solid green;"">","null","","","","","","","","",""
"","image-keyboard-response","208","66112","0.0-208.0","30H4UDGLT34B5MS245662QXWE6JMP2","A3R97T5D3RR9JX","3RBI0I35XEP26UEZY8S8UZLEA1IY3E","","72","img/flower3.png","76","73.5","3","1","1","1","1,0.333,0.333,0.333,1,0.333,0.333,0.333,1","1,0.333,0.333,0.333,1,0.333,0.333,0.333,1","1",""
"","html-keyboard-response","209","66414","0.0-209.0","30H4UDGLT34B5MS245662QXWE6JMP2","A3R97T5D3RR9JX","3RBI0I35XEP26UEZY8S8UZLEA1IY3E","","null","<img src=""img/flower3.png"" style=""width:200px; border:14px solid green;"">","null","","","","","","","","",""
"","image-keyboard-response","210","66540","0.0-210.0","30H4UDGLT34B5MS245662QXWE6JMP2","A3R97T5D3RR9JX","3RBI0I35XEP26UEZY8S8UZLEA1IY3E","","123.70000000018626","img/flower2.png","75","125.79999999981374","2","1","2","1","1,0.333,0.333,0.333,1,0.333,0.333,0.333,1","1,0.333,0.333,0.333,1,0.333,0.333,0.333,1","1",""
"","html-keyboard-response","211","66843","0.0-211.0","30H4UDGLT34B5MS245662QXWE6JMP2","A3R97T5D3RR9JX","3RBI0I35XEP26UEZY8S8UZLEA1IY3E","","null","<img src=""img/flower2.png"" style=""width:200px; border:14px solid green;"">","null","","","","","","","","",""
"","image-keyboard-response","212","66961","0.0-212.0","30H4UDGLT34B5MS245662QXWE6JMP2","A3R97T5D3RR9JX","3RBI0I35XEP26UEZY8S8UZLEA1IY3E","","115","img/flower6.png","75","116.90000000037253","2","1","3","1","1,0.333,0.333,0.333,1,0.333,0.333,0.333,1","1,0.333,0.333,0.333,1,0.333,0.333,0.333,1","1",""
"","html-keyboard-response","213","67264","0.0-213.0","30H4UDGLT34B5MS245662QXWE6JMP2","A3R97T5D3RR9JX","3RBI0I35XEP26UEZY8S8UZLEA1IY3E","","null","<img src=""img/flower6.png"" style=""width:200px; border:14px solid green;"">","null","","","","","","","","",""
"","image-keyboard-response","214","67339","0.0-214.0","30H4UDGLT34B5MS245662QXWE6JMP2","A3R97T5D3RR9JX","3RBI0I35XEP26UEZY8S8UZLEA1IY3E","","73.1000000005588","img/flower6.png","76","74.80000000074506","3","1","3","1","1,0.333,0.333,0.333,1,0.333,0.333,0.333,1","1,0.333,0.333,0.333,1,0.333,0.333,0.333,1","1",""
"","html-keyboard-response","215","67642","0.0-215.0","30H4UDGLT34B5MS245662QXWE6JMP2","A3R97T5D3RR9JX","3RBI0I35XEP26UEZY8S8UZLEA1IY3E","","null","<img src=""img/flower6.png"" style=""width:200px; border:14px solid green;"">","null","","","","","","","","",""
"","image-keyboard-response","216","67845","0.0-216.0","30H4UDGLT34B5MS245662QXWE6JMP2","A3R97T5D3RR9JX","3RBI0I35XEP26UEZY8S8UZLEA1IY3E","","200","img/flower6.png","76","202.40000000037253","3","1","3","1","1,0.333,0.333,0.333,1,0.333,0.333,0.333,1","1,0.333,0.333,0.333,1,0.333,0.333,0.333,1","1",""
"","html-keyboard-response","217","68148","0.0-217.0","30H4UDGLT34B5MS245662QXWE6JMP2","A3R97T5D3RR9JX","3RBI0I35XEP26UEZY8S8UZLEA1IY3E","","null","<img src=""img/flower6.png"" style=""width:200px; border:14px solid green;"">","null","","","","","","","","",""
"","image-keyboard-response","218","68202","0.0-218.0","30H4UDGLT34B5MS245662QXWE6JMP2","A3R97T5D3RR9JX","3RBI0I35XEP26UEZY8S8UZLEA1IY3E","","51.90000000037253","img/flower2.png","76","53.30000000074506","3","0","2","1","1,0.333,0.333,0.333,1,0.333,0.333,0.333,1","1,0.333,0.333,0.333,1,0.333,0.333,0.333,1","1",""
"","html-keyboard-response","219","68504","0.0-219.0","30H4UDGLT34B5MS245662QXWE6JMP2","A3R97T5D3RR9JX","3RBI0I35XEP26UEZY8S8UZLEA1IY3E","","null","<img src=""img/flower2.png"" style=""width:200px;border:14px solid red;"">","null","","","","","","","","",""
"","image-keyboard-response","220","68567","0.0-220.0","30H4UDGLT34B5MS245662QXWE6JMP2","A3R97T5D3RR9JX","3RBI0I35XEP26UEZY8S8UZLEA1IY3E","","61.299999999813735","img/flower6.png","75","62.60000000055879","2","0","3","1","1,0.333,0.333,0.333,1,0.333,0.333,0.333,1","1,0.333,0.333,0.333,1,0.333,0.333,0.333,1","1",""
"","html-keyboard-response","221","68875","0.0-221.0","30H4UDGLT34B5MS245662QXWE6JMP2","A3R97T5D3RR9JX","3RBI0I35XEP26UEZY8S8UZLEA1IY3E","","null","<img src=""img/flower6.png"" style=""width:200px;border:14px solid red;"">","null","","","","","","","","",""
"","image-keyboard-response","222","69064","0.0-222.0","30H4UDGLT34B5MS245662QXWE6JMP2","A3R97T5D3RR9JX","3RBI0I35XEP26UEZY8S8UZLEA1IY3E","","186.69999999925494","img/flower3.png","75","188.6000000005588","2","1","1","1","1,0.333,0.333,0.333,1,0.333,0.333,0.333,1","1,0.333,0.333,0.333,1,0.333,0.333,0.333,1","1",""
"","html-keyboard-response","223","69367","0.0-223.0","30H4UDGLT34B5MS245662QXWE6JMP2","A3R97T5D3RR9JX","3RBI0I35XEP26UEZY8S8UZLEA1IY3E","","null","<img src=""img/flower3.png"" style=""width:200px; border:14px solid green;"">","null","","","","","","","","",""
"","image-keyboard-response","224","69414","0.0-224.0","30H4UDGLT34B5MS245662QXWE6JMP2","A3R97T5D3RR9JX","3RBI0I35XEP26UEZY8S8UZLEA1IY3E","","45.80000000074506","img/flower3.png","76","47.40000000037253","3","1","1","1","1,0.333,0.333,0.333,1,0.333,0.333,0.333,1","1,0.333,0.333,0.333,1,0.333,0.333,0.333,1","1",""
"","html-keyboard-response","225","69718","0.0-225.0","30H4UDGLT34B5MS245662QXWE6JMP2","A3R97T5D3RR9JX","3RBI0I35XEP26UEZY8S8UZLEA1IY3E","","null","<img src=""img/flower3.png"" style=""width:200px; border:14px solid green;"">","null","","","","","","","","",""
"","image-keyboard-response","226","69814","0.0-226.0","30H4UDGLT34B5MS245662QXWE6JMP2","A3R97T5D3RR9JX","3RBI0I35XEP26UEZY8S8UZLEA1IY3E","","93.70000000018626","img/flower3.png","75","95.40000000037253","2","0","1","1","1,0.333,0.333,0.333,1,0.333,0.333,0.333,1","1,0.333,0.333,0.333,1,0.333,0.333,0.333,1","1",""
"","html-keyboard-response","227","70116","0.0-227.0","30H4UDGLT34B5MS245662QXWE6JMP2","A3R97T5D3RR9JX","3RBI0I35XEP26UEZY8S8UZLEA1IY3E","","null","<img src=""img/flower3.png"" style=""width:200px;border:14px solid red;"">","null","","","","","","","","",""
"","image-keyboard-response","228","70135","0.0-228.0","30H4UDGLT34B5MS245662QXWE6JMP2","A3R97T5D3RR9JX","3RBI0I35XEP26UEZY8S8UZLEA1IY3E","","16.5","img/flower6.png","76","18","3","1","3","1","1,0.333,0.333,0.333,1,0.333,0.333,0.333,1","1,0.333,0.333,0.333,1,0.333,0.333,0.333,1","1",""
"","html-keyboard-response","229","70438","0.0-229.0","30H4UDGLT34B5MS245662QXWE6JMP2","A3R97T5D3RR9JX","3RBI0I35XEP26UEZY8S8UZLEA1IY3E","","null","<img src=""img/flower6.png"" style=""width:200px; border:14px solid green;"">","null","","","","","","","","",""
"","image-keyboard-response","230","70652","0.0-230.0","30H4UDGLT34B5MS245662QXWE6JMP2","A3R97T5D3RR9JX","3RBI0I35XEP26UEZY8S8UZLEA1IY3E","","212.1000000005588","img/flower6.png","75","213.90000000037253","2","0","3","1","1,0.333,0.333,0.333,1,0.333,0.333,0.333,1","1,0.333,0.333,0.333,1,0.333,0.333,0.333,1","1",""
"","html-keyboard-response","231","70955","0.0-231.0","30H4UDGLT34B5MS245662QXWE6JMP2","A3R97T5D3RR9JX","3RBI0I35XEP26UEZY8S8UZLEA1IY3E","","null","<img src=""img/flower6.png"" style=""width:200px;border:14px solid red;"">","null","","","","","","","","",""
"","image-keyboard-response","232","71165","0.0-232.0","30H4UDGLT34B5MS245662QXWE6JMP2","A3R97T5D3RR9JX","3RBI0I35XEP26UEZY8S8UZLEA1IY3E","","208.59999999962747","img/flower2.png","74","210.29999999981374","1","0","2","1","1,0.333,0.333,0.333,1,0.333,0.333,0.333,1","1,0.333,0.333,0.333,1,0.333,0.333,0.333,1","1",""
"","html-keyboard-response","233","71468","0.0-233.0","30H4UDGLT34B5MS245662QXWE6JMP2","A3R97T5D3RR9JX","3RBI0I35XEP26UEZY8S8UZLEA1IY3E","","null","<img src=""img/flower2.png"" style=""width:200px;border:14px solid red;"">","null","","","","","","","","",""
"","image-keyboard-response","234","71547","0.0-234.0","30H4UDGLT34B5MS245662QXWE6JMP2","A3R97T5D3RR9JX","3RBI0I35XEP26UEZY8S8UZLEA1IY3E","","77.90000000037253","img/flower6.png","74","79.3999999994412","1","0","3","1","1,0.333,0.333,0.333,1,0.333,0.333,0.333,1","1,0.333,0.333,0.333,1,0.333,0.333,0.333,1","1",""
"","html-keyboard-response","235","71850","0.0-235.0","30H4UDGLT34B5MS245662QXWE6JMP2","A3R97T5D3RR9JX","3RBI0I35XEP26UEZY8S8UZLEA1IY3E","","null","<img src=""img/flower6.png"" style=""width:200px;border:14px solid red;"">","null","","","","","","","","",""
"","image-keyboard-response","236","71912","0.0-236.0","30H4UDGLT34B5MS245662QXWE6JMP2","A3R97T5D3RR9JX","3RBI0I35XEP26UEZY8S8UZLEA1IY3E","","60.299999999813735","img/flower3.png","74","62.09999999962747","1","1","1","1","1,0.333,0.333,0.333,1,0.333,0.333,0.333,1","1,0.333,0.333,0.333,1,0.333,0.333,0.333,1","1",""
"","html-keyboard-response","237","72215","0.0-237.0","30H4UDGLT34B5MS245662QXWE6JMP2","A3R97T5D3RR9JX","3RBI0I35XEP26UEZY8S8UZLEA1IY3E","","null","<img src=""img/flower3.png"" style=""width:200px; border:14px solid green;"">","null","","","","","","","","",""
"","image-keyboard-response","238","72255","0.0-238.0","30H4UDGLT34B5MS245662QXWE6JMP2","A3R97T5D3RR9JX","3RBI0I35XEP26UEZY8S8UZLEA1IY3E","","38.5","img/flower2.png","74","39.90000000037253","1","0","2","1","1,0.333,0.333,0.333,1,0.333,0.333,0.333,1","1,0.333,0.333,0.333,1,0.333,0.333,0.333,1","1",""
"","html-keyboard-response","239","72558","0.0-239.0","30H4UDGLT34B5MS245662QXWE6JMP2","A3R97T5D3RR9JX","3RBI0I35XEP26UEZY8S8UZLEA1IY3E","","null","<img src=""img/flower2.png"" style=""width:200px;border:14px solid red;"">","null","","","","","","","","",""
"","image-keyboard-response","240","72672","0.0-240.0","30H4UDGLT34B5MS245662QXWE6JMP2","A3R97T5D3RR9JX","3RBI0I35XEP26UEZY8S8UZLEA1IY3E","","111.90000000037253","img/flower3.png","74","113.59999999962747","1","1","1","1","1,0.333,0.333,0.333,1,0.333,0.333,0.333,1","1,0.333,0.333,0.333,1,0.333,0.333,0.333,1","1",""
"","html-keyboard-response","241","72974","0.0-241.0","30H4UDGLT34B5MS245662QXWE6JMP2","A3R97T5D3RR9JX","3RBI0I35XEP26UEZY8S8UZLEA1IY3E","","null","<img src=""img/flower3.png"" style=""width:200px; border:14px solid green;"">","null","","","","","","","","",""
"","image-keyboard-response","242","72982","0.0-242.0","30H4UDGLT34B5MS245662QXWE6JMP2","A3R97T5D3RR9JX","3RBI0I35XEP26UEZY8S8UZLEA1IY3E","","6","img/flower2.png","74","7.5","1","0","2","1","1,0.333,0.333,0.333,1,0.333,0.333,0.333,1","1,0.333,0.333,0.333,1,0.333,0.333,0.333,1","1",""
"","html-keyboard-response","243","73287","0.0-243.0","30H4UDGLT34B5MS245662QXWE6JMP2","A3R97T5D3RR9JX","3RBI0I35XEP26UEZY8S8UZLEA1IY3E","","null","<img src=""img/flower2.png"" style=""width:200px;border:14px solid red;"">","null","","","","","","","","",""
"","image-keyboard-response","244","73417","0.0-244.0","30H4UDGLT34B5MS245662QXWE6JMP2","A3R97T5D3RR9JX","3RBI0I35XEP26UEZY8S8UZLEA1IY3E","","128.1000000005588","img/flower2.png","74","129.90000000037253","1","0","2","1","1,0.333,0.333,0.333,1,0.333,0.333,0.333,1","1,0.333,0.333,0.333,1,0.333,0.333,0.333,1","1",""
"","html-keyboard-response","245","73720","0.0-245.0","30H4UDGLT34B5MS245662QXWE6JMP2","A3R97T5D3RR9JX","3RBI0I35XEP26UEZY8S8UZLEA1IY3E","","null","<img src=""img/flower2.png"" style=""width:200px;border:14px solid red;"">","null","","","","","","","","",""
"","image-keyboard-response","246","73814","0.0-246.0","30H4UDGLT34B5MS245662QXWE6JMP2","A3R97T5D3RR9JX","3RBI0I35XEP26UEZY8S8UZLEA1IY3E","","91.40000000037253","img/flower3.png","74","93.6000000005588","1","1","1","1","1,0.333,0.333,0.333,1,0.333,0.333,0.333,1","1,0.333,0.333,0.333,1,0.333,0.333,0.333,1","1",""
"","html-keyboard-response","247","74117","0.0-247.0","30H4UDGLT34B5MS245662QXWE6JMP2","A3R97T5D3RR9JX","3RBI0I35XEP26UEZY8S8UZLEA1IY3E","","null","<img src=""img/flower3.png"" style=""width:200px; border:14px solid green;"">","null","","","","","","","","",""
"","image-keyboard-response","248","74342","0.0-248.0","30H4UDGLT34B5MS245662QXWE6JMP2","A3R97T5D3RR9JX","3RBI0I35XEP26UEZY8S8UZLEA1IY3E","","223","img/flower3.png","74","224.8999999994412","1","1","1","1","1,0.333,0.333,0.333,1,0.333,0.333,0.333,1","1,0.333,0.333,0.333,1,0.333,0.333,0.333,1","1",""
"","html-keyboard-response","249","74645","0.0-249.0","30H4UDGLT34B5MS245662QXWE6JMP2","A3R97T5D3RR9JX","3RBI0I35XEP26UEZY8S8UZLEA1IY3E","","null","<img src=""img/flower3.png"" style=""width:200px; border:14px solid green;"">","null","","","","","","","","",""
"","image-keyboard-response","250","74753","0.0-250.0","30H4UDGLT34B5MS245662QXWE6JMP2","A3R97T5D3RR9JX","3RBI0I35XEP26UEZY8S8UZLEA1IY3E","","105.59999999962747","img/flower3.png","76","107.5","3","1","1","1","1,0.333,0.333,0.333,1,0.333,0.333,0.333,1","1,0.333,0.333,0.333,1,0.333,0.333,0.333,1","1",""
"","html-keyboard-response","251","75055","0.0-251.0","30H4UDGLT34B5MS245662QXWE6JMP2","A3R97T5D3RR9JX","3RBI0I35XEP26UEZY8S8UZLEA1IY3E","","null","<img src=""img/flower3.png"" style=""width:200px; border:14px solid green;"">","null","","","","","","","","",""
"","image-keyboard-response","252","75118","0.0-252.0","30H4UDGLT34B5MS245662QXWE6JMP2","A3R97T5D3RR9JX","3RBI0I35XEP26UEZY8S8UZLEA1IY3E","","60.200000000186265","img/flower6.png","76","62.299999999813735","3","1","3","1","1,0.333,0.333,0.333,1,0.333,0.333,0.333,1","1,0.333,0.333,0.333,1,0.333,0.333,0.333,1","1",""
"","html-keyboard-response","253","75433","0.0-253.0","30H4UDGLT34B5MS245662QXWE6JMP2","A3R97T5D3RR9JX","3RBI0I35XEP26UEZY8S8UZLEA1IY3E","","null","<img src=""img/flower6.png"" style=""width:200px; border:14px solid green;"">","null","","","","","","","","",""
"","image-keyboard-response","254","75454","0.0-254.0","30H4UDGLT34B5MS245662QXWE6JMP2","A3R97T5D3RR9JX","3RBI0I35XEP26UEZY8S8UZLEA1IY3E","","18.5","img/flower2.png","76","20.200000000186265","3","1","2","1","1,0.333,0.333,0.333,1,0.333,0.333,0.333,1","1,0.333,0.333,0.333,1,0.333,0.333,0.333,1","1",""
"","html-keyboard-response","255","75757","0.0-255.0","30H4UDGLT34B5MS245662QXWE6JMP2","A3R97T5D3RR9JX","3RBI0I35XEP26UEZY8S8UZLEA1IY3E","","null","<img src=""img/flower2.png"" style=""width:200px; border:14px solid green;"">","null","","","","","","","","",""
"","image-keyboard-response","256","75818","0.0-256.0","30H4UDGLT34B5MS245662QXWE6JMP2","A3R97T5D3RR9JX","3RBI0I35XEP26UEZY8S8UZLEA1IY3E","","58.90000000037253","img/flower6.png","75","60.5","2","0","3","1","1,0.333,0.333,0.333,1,0.333,0.333,0.333,1","1,0.333,0.333,0.333,1,0.333,0.333,0.333,1","1",""
"","html-keyboard-response","257","76120","0.0-257.0","30H4UDGLT34B5MS245662QXWE6JMP2","A3R97T5D3RR9JX","3RBI0I35XEP26UEZY8S8UZLEA1IY3E","","null","<img src=""img/flower6.png"" style=""width:200px;border:14px solid red;"">","null","","","","","","","","",""
"","image-keyboard-response","258","76176","0.0-258.0","30H4UDGLT34B5MS245662QXWE6JMP2","A3R97T5D3RR9JX","3RBI0I35XEP26UEZY8S8UZLEA1IY3E","","54.09999999962747","img/flower6.png","76","55.69999999925494","3","1","3","1","1,0.333,0.333,0.333,1,0.333,0.333,0.333,1","1,0.333,0.333,0.333,1,0.333,0.333,0.333,1","1",""
"","html-keyboard-response","259","76478","0.0-259.0","30H4UDGLT34B5MS245662QXWE6JMP2","A3R97T5D3RR9JX","3RBI0I35XEP26UEZY8S8UZLEA1IY3E","","null","<img src=""img/flower6.png"" style=""width:200px; border:14px solid green;"">","null","","","","","","","","",""
"","image-keyboard-response","260","76579","0.0-260.0","30H4UDGLT34B5MS245662QXWE6JMP2","A3R97T5D3RR9JX","3RBI0I35XEP26UEZY8S8UZLEA1IY3E","","98.90000000037253","img/flower2.png","74","100.70000000018626","1","0","2","1","1,0.333,0.333,0.333,1,0.333,0.333,0.333,1","1,0.333,0.333,0.333,1,0.333,0.333,0.333,1","1",""
"","html-keyboard-response","261","76882","0.0-261.0","30H4UDGLT34B5MS245662QXWE6JMP2","A3R97T5D3RR9JX","3RBI0I35XEP26UEZY8S8UZLEA1IY3E","","null","<img src=""img/flower2.png"" style=""width:200px;border:14px solid red;"">","null","","","","","","","","",""
"","image-keyboard-response","262","76939","0.0-262.0","30H4UDGLT34B5MS245662QXWE6JMP2","A3R97T5D3RR9JX","3RBI0I35XEP26UEZY8S8UZLEA1IY3E","","54.200000000186265","img/flower6.png","74","56","1","0","3","1","1,0.333,0.333,0.333,1,0.333,0.333,0.333,1","1,0.333,0.333,0.333,1,0.333,0.333,0.333,1","1",""
"","html-keyboard-response","263","77241","0.0-263.0","30H4UDGLT34B5MS245662QXWE6JMP2","A3R97T5D3RR9JX","3RBI0I35XEP26UEZY8S8UZLEA1IY3E","","null","<img src=""img/flower6.png"" style=""width:200px;border:14px solid red;"">","null","","","","","","","","",""
"","image-keyboard-response","264","77294","0.0-264.0","30H4UDGLT34B5MS245662QXWE6JMP2","A3R97T5D3RR9JX","3RBI0I35XEP26UEZY8S8UZLEA1IY3E","","50.700000000186265","img/flower2.png","74","52.40000000037253","1","1","2","1","1,0.333,0.333,0.333,1,0.333,0.333,0.333,1","1,0.333,0.333,0.333,1,0.333,0.333,0.333,1","1",""
"","html-keyboard-response","265","77597","0.0-265.0","30H4UDGLT34B5MS245662QXWE6JMP2","A3R97T5D3RR9JX","3RBI0I35XEP26UEZY8S8UZLEA1IY3E","","null","<img src=""img/flower2.png"" style=""width:200px; border:14px solid green;"">","null","","","","","","","","",""
"","image-keyboard-response","266","77819","0.0-266.0","30H4UDGLT34B5MS245662QXWE6JMP2","A3R97T5D3RR9JX","3RBI0I35XEP26UEZY8S8UZLEA1IY3E","","219.09999999962747","img/flower3.png","75","220.90000000037253","2","0","1","1","1,0.333,0.333,0.333,1,0.333,0.333,0.333,1","1,0.333,0.333,0.333,1,0.333,0.333,0.333,1","1",""
"","html-keyboard-response","267","78121","0.0-267.0","30H4UDGLT34B5MS245662QXWE6JMP2","A3R97T5D3RR9JX","3RBI0I35XEP26UEZY8S8UZLEA1IY3E","","null","<img src=""img/flower3.png"" style=""width:200px;border:14px solid red;"">","null","","","","","","","","",""
"","image-keyboard-response","268","78334","0.0-268.0","30H4UDGLT34B5MS245662QXWE6JMP2","A3R97T5D3RR9JX","3RBI0I35XEP26UEZY8S8UZLEA1IY3E","","211","img/flower6.png","75","212.90000000037253","2","1","3","1","1,0.333,0.333,0.333,1,0.333,0.333,0.333,1","1,0.333,0.333,0.333,1,0.333,0.333,0.333,1","1",""
"","html-keyboard-response","269","78636","0.0-269.0","30H4UDGLT34B5MS245662QXWE6JMP2","A3R97T5D3RR9JX","3RBI0I35XEP26UEZY8S8UZLEA1IY3E","","null","<img src=""img/flower6.png"" style=""width:200px; border:14px solid green;"">","null","","","","","","","","",""
"","image-keyboard-response","270","78785","0.0-270.0","30H4UDGLT34B5MS245662QXWE6JMP2","A3R97T5D3RR9JX","3RBI0I35XEP26UEZY8S8UZLEA1IY3E","","146.5","img/flower3.png","74","148.5","1","1","1","1","1,0.333,0.333,0.333,1,0.333,0.333,0.333,1","1,0.333,0.333,0.333,1,0.333,0.333,0.333,1","1",""
"","html-keyboard-response","271","79087","0.0-271.0","30H4UDGLT34B5MS245662QXWE6JMP2","A3R97T5D3RR9JX","3RBI0I35XEP26UEZY8S8UZLEA1IY3E","","null","<img src=""img/flower3.png"" style=""width:200px; border:14px solid green;"">","null","","","","","","","","",""
"","image-keyboard-response","272","79190","0.0-272.0","30H4UDGLT34B5MS245662QXWE6JMP2","A3R97T5D3RR9JX","3RBI0I35XEP26UEZY8S8UZLEA1IY3E","","100.20000000018626","img/flower3.png","76","102.09999999962747","3","0","1","1","1,0.333,0.333,0.333,1,0.333,0.333,0.333,1","1,0.333,0.333,0.333,1,0.333,0.333,0.333,1","1",""
"","html-keyboard-response","273","79493","0.0-273.0","30H4UDGLT34B5MS245662QXWE6JMP2","A3R97T5D3RR9JX","3RBI0I35XEP26UEZY8S8UZLEA1IY3E","","null","<img src=""img/flower3.png"" style=""width:200px;border:14px solid red;"">","null","","","","","","","","",""
"","image-keyboard-response","274","79630","0.0-274.0","30H4UDGLT34B5MS245662QXWE6JMP2","A3R97T5D3RR9JX","3RBI0I35XEP26UEZY8S8UZLEA1IY3E","","134.90000000037253","img/flower6.png","76","136.80000000074506","3","1","3","1","1,0.333,0.333,0.333,1,0.333,0.333,0.333,1","1,0.333,0.333,0.333,1,0.333,0.333,0.333,1","1",""
"","html-keyboard-response","275","79933","0.0-275.0","30H4UDGLT34B5MS245662QXWE6JMP2","A3R97T5D3RR9JX","3RBI0I35XEP26UEZY8S8UZLEA1IY3E","","null","<img src=""img/flower6.png"" style=""width:200px; border:14px solid green;"">","null","","","","","","","","",""
"","image-keyboard-response","276","80080","0.0-276.0","30H4UDGLT34B5MS245662QXWE6JMP2","A3R97T5D3RR9JX","3RBI0I35XEP26UEZY8S8UZLEA1IY3E","","144.59999999962747","img/flower2.png","74","146.5","1","1","2","1","1,0.333,0.333,0.333,1,0.333,0.333,0.333,1","1,0.333,0.333,0.333,1,0.333,0.333,0.333,1","1",""
"","html-keyboard-response","277","80383","0.0-277.0","30H4UDGLT34B5MS245662QXWE6JMP2","A3R97T5D3RR9JX","3RBI0I35XEP26UEZY8S8UZLEA1IY3E","","null","<img src=""img/flower2.png"" style=""width:200px; border:14px solid green;"">","null","","","","","","","","",""
"","image-keyboard-response","278","80452","0.0-278.0","30H4UDGLT34B5MS245662QXWE6JMP2","A3R97T5D3RR9JX","3RBI0I35XEP26UEZY8S8UZLEA1IY3E","","67.70000000018626","img/flower2.png","74","69.40000000037253","1","1","2","1","1,0.333,0.333,0.333,1,0.333,0.333,0.333,1","1,0.333,0.333,0.333,1,0.333,0.333,0.333,1","1",""
"","html-keyboard-response","279","80755","0.0-279.0","30H4UDGLT34B5MS245662QXWE6JMP2","A3R97T5D3RR9JX","3RBI0I35XEP26UEZY8S8UZLEA1IY3E","","null","<img src=""img/flower2.png"" style=""width:200px; border:14px solid green;"">","null","","","","","","","","",""
"","image-keyboard-response","280","80786","0.0-280.0","30H4UDGLT34B5MS245662QXWE6JMP2","A3R97T5D3RR9JX","3RBI0I35XEP26UEZY8S8UZLEA1IY3E","","29.40000000037253","img/flower2.png","74","31.299999999813735","1","0","2","1","1,0.333,0.333,0.333,1,0.333,0.333,0.333,1","1,0.333,0.333,0.333,1,0.333,0.333,0.333,1","1",""
"","html-keyboard-response","281","81089","0.0-281.0","30H4UDGLT34B5MS245662QXWE6JMP2","A3R97T5D3RR9JX","3RBI0I35XEP26UEZY8S8UZLEA1IY3E","","null","<img src=""img/flower2.png"" style=""width:200px;border:14px solid red;"">","null","","","","","","","","",""
"","image-keyboard-response","282","81182","0.0-282.0","30H4UDGLT34B5MS245662QXWE6JMP2","A3R97T5D3RR9JX","3RBI0I35XEP26UEZY8S8UZLEA1IY3E","","90.69999999925494","img/flower3.png","74","92.19999999925494","1","1","1","1","1,0.333,0.333,0.333,1,0.333,0.333,0.333,1","1,0.333,0.333,0.333,1,0.333,0.333,0.333,1","1",""
"","html-keyboard-response","283","81483","0.0-283.0","30H4UDGLT34B5MS245662QXWE6JMP2","A3R97T5D3RR9JX","3RBI0I35XEP26UEZY8S8UZLEA1IY3E","","null","<img src=""img/flower3.png"" style=""width:200px; border:14px solid green;"">","null","","","","","","","","",""
"","image-keyboard-response","284","81530","0.0-284.0","30H4UDGLT34B5MS245662QXWE6JMP2","A3R97T5D3RR9JX","3RBI0I35XEP26UEZY8S8UZLEA1IY3E","","44.40000000037253","img/flower2.png","74","47.19999999925494","1","0","2","1","1,0.333,0.333,0.333,1,0.333,0.333,0.333,1","1,0.333,0.333,0.333,1,0.333,0.333,0.333,1","1",""
"","html-keyboard-response","285","81834","0.0-285.0","30H4UDGLT34B5MS245662QXWE6JMP2","A3R97T5D3RR9JX","3RBI0I35XEP26UEZY8S8UZLEA1IY3E","","null","<img src=""img/flower2.png"" style=""width:200px;border:14px solid red;"">","null","","","","","","","","",""
"","image-keyboard-response","286","81877","0.0-286.0","30H4UDGLT34B5MS245662QXWE6JMP2","A3R97T5D3RR9JX","3RBI0I35XEP26UEZY8S8UZLEA1IY3E","","40.60000000055879","img/flower6.png","74","42.60000000055879","1","0","3","1","1,0.333,0.333,0.333,1,0.333,0.333,0.333,1","1,0.333,0.333,0.333,1,0.333,0.333,0.333,1","1",""
"","html-keyboard-response","287","82179","0.0-287.0","30H4UDGLT34B5MS245662QXWE6JMP2","A3R97T5D3RR9JX","3RBI0I35XEP26UEZY8S8UZLEA1IY3E","","null","<img src=""img/flower6.png"" style=""width:200px;border:14px solid red;"">","null","","","","","","","","",""
"","image-keyboard-response","288","82306","0.0-288.0","30H4UDGLT34B5MS245662QXWE6JMP2","A3R97T5D3RR9JX","3RBI0I35XEP26UEZY8S8UZLEA1IY3E","","124.79999999981374","img/flower2.png","74","126.5","1","0","2","1","1,0.333,0.333,0.333,1,0.333,0.333,0.333,1","1,0.333,0.333,0.333,1,0.333,0.333,0.333,1","1",""
"","html-keyboard-response","289","82609","0.0-289.0","30H4UDGLT34B5MS245662QXWE6JMP2","A3R97T5D3RR9JX","3RBI0I35XEP26UEZY8S8UZLEA1IY3E","","null","<img src=""img/flower2.png"" style=""width:200px;border:14px solid red;"">","null","","","","","","","","",""
"","image-keyboard-response","290","82762","0.0-290.0","30H4UDGLT34B5MS245662QXWE6JMP2","A3R97T5D3RR9JX","3RBI0I35XEP26UEZY8S8UZLEA1IY3E","","151.1000000005588","img/flower6.png","76","153","3","1","3","1","1,0.333,0.333,0.333,1,0.333,0.333,0.333,1","1,0.333,0.333,0.333,1,0.333,0.333,0.333,1","1",""
"","html-keyboard-response","291","83065","0.0-291.0","30H4UDGLT34B5MS245662QXWE6JMP2","A3R97T5D3RR9JX","3RBI0I35XEP26UEZY8S8UZLEA1IY3E","","null","<img src=""img/flower6.png"" style=""width:200px; border:14px solid green;"">","null","","","","","","","","",""
"","image-keyboard-response","292","83209","0.0-292.0","30H4UDGLT34B5MS245662QXWE6JMP2","A3R97T5D3RR9JX","3RBI0I35XEP26UEZY8S8UZLEA1IY3E","","142.20000000018626","img/flower2.png","75","144","2","1","2","1","1,0.333,0.333,0.333,1,0.333,0.333,0.333,1","1,0.333,0.333,0.333,1,0.333,0.333,0.333,1","1",""
"","html-keyboard-response","293","83513","0.0-293.0","30H4UDGLT34B5MS245662QXWE6JMP2","A3R97T5D3RR9JX","3RBI0I35XEP26UEZY8S8UZLEA1IY3E","","null","<img src=""img/flower2.png"" style=""width:200px; border:14px solid green;"">","null","","","","","","","","",""
"","image-keyboard-response","294","83561","0.0-294.0","30H4UDGLT34B5MS245662QXWE6JMP2","A3R97T5D3RR9JX","3RBI0I35XEP26UEZY8S8UZLEA1IY3E","","44.90000000037253","img/flower6.png","75","47.5","2","1","3","1","1,0.333,0.333,0.333,1,0.333,0.333,0.333,1","1,0.333,0.333,0.333,1,0.333,0.333,0.333,1","1",""
"","html-keyboard-response","295","83863","0.0-295.0","30H4UDGLT34B5MS245662QXWE6JMP2","A3R97T5D3RR9JX","3RBI0I35XEP26UEZY8S8UZLEA1IY3E","","null","<img src=""img/flower6.png"" style=""width:200px; border:14px solid green;"">","null","","","","","","","","",""
"","image-keyboard-response","296","83904","0.0-296.0","30H4UDGLT34B5MS245662QXWE6JMP2","A3R97T5D3RR9JX","3RBI0I35XEP26UEZY8S8UZLEA1IY3E","","39.09999999962747","img/flower3.png","76","40.59999999962747","3","0","1","1","1,0.333,0.333,0.333,1,0.333,0.333,0.333,1","1,0.333,0.333,0.333,1,0.333,0.333,0.333,1","1",""
"","html-keyboard-response","297","84207","0.0-297.0","30H4UDGLT34B5MS245662QXWE6JMP2","A3R97T5D3RR9JX","3RBI0I35XEP26UEZY8S8UZLEA1IY3E","","null","<img src=""img/flower3.png"" style=""width:200px;border:14px solid red;"">","null","","","","","","","","",""
"","image-keyboard-response","298","84284","0.0-298.0","30H4UDGLT34B5MS245662QXWE6JMP2","A3R97T5D3RR9JX","3RBI0I35XEP26UEZY8S8UZLEA1IY3E","","74.79999999981374","img/flower3.png","76","76.90000000037253","3","0","1","1","1,0.333,0.333,0.333,1,0.333,0.333,0.333,1","1,0.333,0.333,0.333,1,0.333,0.333,0.333,1","1",""
"","html-keyboard-response","299","84587","0.0-299.0","30H4UDGLT34B5MS245662QXWE6JMP2","A3R97T5D3RR9JX","3RBI0I35XEP26UEZY8S8UZLEA1IY3E","","null","<img src=""img/flower3.png"" style=""width:200px;border:14px solid red;"">","null","","","","","","","","",""
"","image-keyboard-response","300","84679","0.0-300.0","30H4UDGLT34B5MS245662QXWE6JMP2","A3R97T5D3RR9JX","3RBI0I35XEP26UEZY8S8UZLEA1IY3E","","89.8999999994412","img/flower6.png","75","91.09999999962747","2","0","3","1","1,0.333,0.333,0.333,1,0.333,0.333,0.333,1","1,0.333,0.333,0.333,1,0.333,0.333,0.333,1","1",""
"","html-keyboard-response","301","84980","0.0-301.0","30H4UDGLT34B5MS245662QXWE6JMP2","A3R97T5D3RR9JX","3RBI0I35XEP26UEZY8S8UZLEA1IY3E","","null","<img src=""img/flower6.png"" style=""width:200px;border:14px solid red;"">","null","","","","","","","","",""
"","image-keyboard-response","302","85124","0.0-302.0","30H4UDGLT34B5MS245662QXWE6JMP2","A3R97T5D3RR9JX","3RBI0I35XEP26UEZY8S8UZLEA1IY3E","","141.5","img/flower6.png","74","143.19999999925494","1","1","3","1","1,0.333,0.333,0.333,1,0.333,0.333,0.333,1","1,0.333,0.333,0.333,1,0.333,0.333,0.333,1","1",""
"","html-keyboard-response","303","85427","0.0-303.0","30H4UDGLT34B5MS245662QXWE6JMP2","A3R97T5D3RR9JX","3RBI0I35XEP26UEZY8S8UZLEA1IY3E","","null","<img src=""img/flower6.png"" style=""width:200px; border:14px solid green;"">","null","","","","","","","","",""
"","image-keyboard-response","304","85524","0.0-304.0","30H4UDGLT34B5MS245662QXWE6JMP2","A3R97T5D3RR9JX","3RBI0I35XEP26UEZY8S8UZLEA1IY3E","","95","img/flower6.png","74","96.69999999925494","1","1","3","1","1,0.333,0.333,0.333,1,0.333,0.333,0.333,1","1,0.333,0.333,0.333,1,0.333,0.333,0.333,1","1",""
"","html-keyboard-response","305","85826","0.0-305.0","30H4UDGLT34B5MS245662QXWE6JMP2","A3R97T5D3RR9JX","3RBI0I35XEP26UEZY8S8UZLEA1IY3E","","null","<img src=""img/flower6.png"" style=""width:200px; border:14px solid green;"">","null","","","","","","","","",""
"","image-keyboard-response","306","85863","0.0-306.0","30H4UDGLT34B5MS245662QXWE6JMP2","A3R97T5D3RR9JX","3RBI0I35XEP26UEZY8S8UZLEA1IY3E","","34.5","img/flower3.png","74","36.200000000186265","1","1","1","1","1,0.333,0.333,0.333,1,0.333,0.333,0.333,1","1,0.333,0.333,0.333,1,0.333,0.333,0.333,1","1",""
"","html-keyboard-response","307","86173","0.0-307.0","30H4UDGLT34B5MS245662QXWE6JMP2","A3R97T5D3RR9JX","3RBI0I35XEP26UEZY8S8UZLEA1IY3E","","null","<img src=""img/flower3.png"" style=""width:200px; border:14px solid green;"">","null","","","","","","","","",""
"","image-keyboard-response","308","86430","0.0-308.0","30H4UDGLT34B5MS245662QXWE6JMP2","A3R97T5D3RR9JX","3RBI0I35XEP26UEZY8S8UZLEA1IY3E","","254.5","img/flower3.png","75","256.29999999981374","2","0","1","1","1,0.333,0.333,0.333,1,0.333,0.333,0.333,1","1,0.333,0.333,0.333,1,0.333,0.333,0.333,1","1",""
"","html-keyboard-response","309","86733","0.0-309.0","30H4UDGLT34B5MS245662QXWE6JMP2","A3R97T5D3RR9JX","3RBI0I35XEP26UEZY8S8UZLEA1IY3E","","null","<img src=""img/flower3.png"" style=""width:200px;border:14px solid red;"">","null","","","","","","","","",""
"","image-keyboard-response","310","86784","0.0-310.0","30H4UDGLT34B5MS245662QXWE6JMP2","A3R97T5D3RR9JX","3RBI0I35XEP26UEZY8S8UZLEA1IY3E","","48.799999999813735","img/flower3.png","76","50.5","3","0","1","1","1,0.333,0.333,0.333,1,0.333,0.333,0.333,1","1,0.333,0.333,0.333,1,0.333,0.333,0.333,1","1",""
"","html-keyboard-response","311","87087","0.0-311.0","30H4UDGLT34B5MS245662QXWE6JMP2","A3R97T5D3RR9JX","3RBI0I35XEP26UEZY8S8UZLEA1IY3E","","null","<img src=""img/flower3.png"" style=""width:200px;border:14px solid red;"">","null","","","","","","","","",""
"","image-keyboard-response","312","87127","0.0-312.0","30H4UDGLT34B5MS245662QXWE6JMP2","A3R97T5D3RR9JX","3RBI0I35XEP26UEZY8S8UZLEA1IY3E","","37.90000000037253","img/flower2.png","76","39.799999999813735","3","1","2","1","1,0.333,0.333,0.333,1,0.333,0.333,0.333,1","1,0.333,0.333,0.333,1,0.333,0.333,0.333,1","1",""
"","html-keyboard-response","313","87430","0.0-313.0","30H4UDGLT34B5MS245662QXWE6JMP2","A3R97T5D3RR9JX","3RBI0I35XEP26UEZY8S8UZLEA1IY3E","","null","<img src=""img/flower2.png"" style=""width:200px; border:14px solid green;"">","null","","","","","","","","",""
"","image-keyboard-response","314","87603","0.0-314.0","30H4UDGLT34B5MS245662QXWE6JMP2","A3R97T5D3RR9JX","3RBI0I35XEP26UEZY8S8UZLEA1IY3E","","170.79999999981374","img/flower2.png","74","172.5","1","0","2","1","1,0.333,0.333,0.333,1,0.333,0.333,0.333,1","1,0.333,0.333,0.333,1,0.333,0.333,0.333,1","1",""
"","html-keyboard-response","315","87906","0.0-315.0","30H4UDGLT34B5MS245662QXWE6JMP2","A3R97T5D3RR9JX","3RBI0I35XEP26UEZY8S8UZLEA1IY3E","","null","<img src=""img/flower2.png"" style=""width:200px;border:14px solid red;"">","null","","","","","","","","",""
"","image-keyboard-response","316","88055","0.0-316.0","30H4UDGLT34B5MS245662QXWE6JMP2","A3R97T5D3RR9JX","3RBI0I35XEP26UEZY8S8UZLEA1IY3E","","146.5","img/flower6.png","75","148.40000000037253","2","0","3","1","1,0.333,0.333,0.333,1,0.333,0.333,0.333,1","1,0.333,0.333,0.333,1,0.333,0.333,0.333,1","1",""
"","html-keyboard-response","317","88358","0.0-317.0","30H4UDGLT34B5MS245662QXWE6JMP2","A3R97T5D3RR9JX","3RBI0I35XEP26UEZY8S8UZLEA1IY3E","","null","<img src=""img/flower6.png"" style=""width:200px;border:14px solid red;"">","null","","","","","","","","",""
"","image-keyboard-response","318","88383","0.0-318.0","30H4UDGLT34B5MS245662QXWE6JMP2","A3R97T5D3RR9JX","3RBI0I35XEP26UEZY8S8UZLEA1IY3E","","22.59999999962747","img/flower2.png","76","24.299999999813735","3","0","2","1","1,0.333,0.333,0.333,1,0.333,0.333,0.333,1","1,0.333,0.333,0.333,1,0.333,0.333,0.333,1","1",""
"","html-keyboard-response","319","88686","0.0-319.0","30H4UDGLT34B5MS245662QXWE6JMP2","A3R97T5D3RR9JX","3RBI0I35XEP26UEZY8S8UZLEA1IY3E","","null","<img src=""img/flower2.png"" style=""width:200px;border:14px solid red;"">","null","","","","","","","","",""
"","image-keyboard-response","320","88733","0.0-320.0","30H4UDGLT34B5MS245662QXWE6JMP2","A3R97T5D3RR9JX","3RBI0I35XEP26UEZY8S8UZLEA1IY3E","","44.5","img/flower2.png","75","45.89999999944121","2","1","2","1","1,0.333,0.333,0.333,1,0.333,0.333,0.333,1","1,0.333,0.333,0.333,1,0.333,0.333,0.333,1","1",""
"","html-keyboard-response","321","89035","0.0-321.0","30H4UDGLT34B5MS245662QXWE6JMP2","A3R97T5D3RR9JX","3RBI0I35XEP26UEZY8S8UZLEA1IY3E","","null","<img src=""img/flower2.png"" style=""width:200px; border:14px solid green;"">","null","","","","","","","","",""
"","image-keyboard-response","322","89073","0.0-322.0","30H4UDGLT34B5MS245662QXWE6JMP2","A3R97T5D3RR9JX","3RBI0I35XEP26UEZY8S8UZLEA1IY3E","","36.5","img/flower3.png","75","38.299999999813735","2","0","1","1","1,0.333,0.333,0.333,1,0.333,0.333,0.333,1","1,0.333,0.333,0.333,1,0.333,0.333,0.333,1","1",""
"","html-keyboard-response","323","89375","0.0-323.0","30H4UDGLT34B5MS245662QXWE6JMP2","A3R97T5D3RR9JX","3RBI0I35XEP26UEZY8S8UZLEA1IY3E","","null","<img src=""img/flower3.png"" style=""width:200px;border:14px solid red;"">","null","","","","","","","","",""
"","image-keyboard-response","324","89641","0.0-324.0","30H4UDGLT34B5MS245662QXWE6JMP2","A3R97T5D3RR9JX","3RBI0I35XEP26UEZY8S8UZLEA1IY3E","","263.20000000018626","img/flower2.png","76","265","3","0","2","1","1,0.333,0.333,0.333,1,0.333,0.333,0.333,1","1,0.333,0.333,0.333,1,0.333,0.333,0.333,1","1",""
"","html-keyboard-response","325","89944","0.0-325.0","30H4UDGLT34B5MS245662QXWE6JMP2","A3R97T5D3RR9JX","3RBI0I35XEP26UEZY8S8UZLEA1IY3E","","null","<img src=""img/flower2.png"" style=""width:200px;border:14px solid red;"">","null","","","","","","","","",""
"","image-keyboard-response","326","90255","0.0-326.0","30H4UDGLT34B5MS245662QXWE6JMP2","A3R97T5D3RR9JX","3RBI0I35XEP26UEZY8S8UZLEA1IY3E","","309.29999999981374","img/flower6.png","76","311.29999999981374","3","1","3","1","1,0.333,0.333,0.333,1,0.333,0.333,0.333,1","1,0.333,0.333,0.333,1,0.333,0.333,0.333,1","1",""
"","html-keyboard-response","327","90558","0.0-327.0","30H4UDGLT34B5MS245662QXWE6JMP2","A3R97T5D3RR9JX","3RBI0I35XEP26UEZY8S8UZLEA1IY3E","","null","<img src=""img/flower6.png"" style=""width:200px; border:14px solid green;"">","null","","","","","","","","",""
"","image-keyboard-response","328","90644","0.0-328.0","30H4UDGLT34B5MS245662QXWE6JMP2","A3R97T5D3RR9JX","3RBI0I35XEP26UEZY8S8UZLEA1IY3E","","83.90000000037253","img/flower2.png","75","85.70000000018626","2","1","2","1","1,0.333,0.333,0.333,1,0.333,0.333,0.333,1","1,0.333,0.333,0.333,1,0.333,0.333,0.333,1","1",""
"","html-keyboard-response","329","90947","0.0-329.0","30H4UDGLT34B5MS245662QXWE6JMP2","A3R97T5D3RR9JX","3RBI0I35XEP26UEZY8S8UZLEA1IY3E","","null","<img src=""img/flower2.png"" style=""width:200px; border:14px solid green;"">","null","","","","","","","","",""
"","image-keyboard-response","330","90967","0.0-330.0","30H4UDGLT34B5MS245662QXWE6JMP2","A3R97T5D3RR9JX","3RBI0I35XEP26UEZY8S8UZLEA1IY3E","","18.5","img/flower2.png","75","19.899999999441206","2","1","2","1","1,0.333,0.333,0.333,1,0.333,0.333,0.333,1","1,0.333,0.333,0.333,1,0.333,0.333,0.333,1","1",""
"","html-keyboard-response","331","91270","0.0-331.0","30H4UDGLT34B5MS245662QXWE6JMP2","A3R97T5D3RR9JX","3RBI0I35XEP26UEZY8S8UZLEA1IY3E","","null","<img src=""img/flower2.png"" style=""width:200px; border:14px solid green;"">","null","","","","","","","","",""
"","image-keyboard-response","332","91281","0.0-332.0","30H4UDGLT34B5MS245662QXWE6JMP2","A3R97T5D3RR9JX","3RBI0I35XEP26UEZY8S8UZLEA1IY3E","","9.599999999627471","img/flower2.png","75","11.299999999813735","2","1","2","1","1,0.333,0.333,0.333,1,0.333,0.333,0.333,1","1,0.333,0.333,0.333,1,0.333,0.333,0.333,1","1",""
"","html-keyboard-response","333","91584","0.0-333.0","30H4UDGLT34B5MS245662QXWE6JMP2","A3R97T5D3RR9JX","3RBI0I35XEP26UEZY8S8UZLEA1IY3E","","null","<img src=""img/flower2.png"" style=""width:200px; border:14px solid green;"">","null","","","","","","","","",""
"","image-keyboard-response","334","91750","0.0-334.0","30H4UDGLT34B5MS245662QXWE6JMP2","A3R97T5D3RR9JX","3RBI0I35XEP26UEZY8S8UZLEA1IY3E","","163.59999999962747","img/flower6.png","75","165.30000000074506","2","1","3","1","1,0.333,0.333,0.333,1,0.333,0.333,0.333,1","1,0.333,0.333,0.333,1,0.333,0.333,0.333,1","1",""
"","html-keyboard-response","335","92053","0.0-335.0","30H4UDGLT34B5MS245662QXWE6JMP2","A3R97T5D3RR9JX","3RBI0I35XEP26UEZY8S8UZLEA1IY3E","","null","<img src=""img/flower6.png"" style=""width:200px; border:14px solid green;"">","null","","","","","","","","",""
"","image-keyboard-response","336","92218","0.0-336.0","30H4UDGLT34B5MS245662QXWE6JMP2","A3R97T5D3RR9JX","3RBI0I35XEP26UEZY8S8UZLEA1IY3E","","162.3999999994412","img/flower3.png","76","164.40000000037253","3","0","1","1","1,0.333,0.333,0.333,1,0.333,0.333,0.333,1","1,0.333,0.333,0.333,1,0.333,0.333,0.333,1","1",""
"","html-keyboard-response","337","92520","0.0-337.0","30H4UDGLT34B5MS245662QXWE6JMP2","A3R97T5D3RR9JX","3RBI0I35XEP26UEZY8S8UZLEA1IY3E","","null","<img src=""img/flower3.png"" style=""width:200px;border:14px solid red;"">","null","","","","","","","","",""
"","image-keyboard-response","338","92644","0.0-338.0","30H4UDGLT34B5MS245662QXWE6JMP2","A3R97T5D3RR9JX","3RBI0I35XEP26UEZY8S8UZLEA1IY3E","","121.79999999981374","img/flower2.png","75","123.5","2","1","2","1","1,0.333,0.333,0.333,1,0.333,0.333,0.333,1","1,0.333,0.333,0.333,1,0.333,0.333,0.333,1","1",""
"","html-keyboard-response","339","92947","0.0-339.0","30H4UDGLT34B5MS245662QXWE6JMP2","A3R97T5D3RR9JX","3RBI0I35XEP26UEZY8S8UZLEA1IY3E","","null","<img src=""img/flower2.png"" style=""width:200px; border:14px solid green;"">","null","","","","","","","","",""
"","image-keyboard-response","340","92964","0.0-340.0","30H4UDGLT34B5MS245662QXWE6JMP2","A3R97T5D3RR9JX","3RBI0I35XEP26UEZY8S8UZLEA1IY3E","","14.5","img/flower3.png","75","16.399999999441206","2","0","1","1","1,0.333,0.333,0.333,1,0.333,0.333,0.333,1","1,0.333,0.333,0.333,1,0.333,0.333,0.333,1","1",""
"","html-keyboard-response","341","93267","0.0-341.0","30H4UDGLT34B5MS245662QXWE6JMP2","A3R97T5D3RR9JX","3RBI0I35XEP26UEZY8S8UZLEA1IY3E","","null","<img src=""img/flower3.png"" style=""width:200px;border:14px solid red;"">","null","","","","","","","","",""
"","image-keyboard-response","342","93445","0.0-342.0","30H4UDGLT34B5MS245662QXWE6JMP2","A3R97T5D3RR9JX","3RBI0I35XEP26UEZY8S8UZLEA1IY3E","","175.5","img/flower2.png","74","177.5","1","0","2","1","1,0.333,0.333,0.333,1,0.333,0.333,0.333,1","1,0.333,0.333,0.333,1,0.333,0.333,0.333,1","1",""
"","html-keyboard-response","343","93748","0.0-343.0","30H4UDGLT34B5MS245662QXWE6JMP2","A3R97T5D3RR9JX","3RBI0I35XEP26UEZY8S8UZLEA1IY3E","","null","<img src=""img/flower2.png"" style=""width:200px;border:14px solid red;"">","null","","","","","","","","",""
"","image-keyboard-response","344","93837","0.0-344.0","30H4UDGLT34B5MS245662QXWE6JMP2","A3R97T5D3RR9JX","3RBI0I35XEP26UEZY8S8UZLEA1IY3E","","88","img/flower2.png","74","90.19999999925494","1","0","2","1","1,0.333,0.333,0.333,1,0.333,0.333,0.333,1","1,0.333,0.333,0.333,1,0.333,0.333,0.333,1","1",""
"","html-keyboard-response","345","94140","0.0-345.0","30H4UDGLT34B5MS245662QXWE6JMP2","A3R97T5D3RR9JX","3RBI0I35XEP26UEZY8S8UZLEA1IY3E","","null","<img src=""img/flower2.png"" style=""width:200px;border:14px solid red;"">","null","","","","","","","","",""
"","image-keyboard-response","346","94186","0.0-346.0","30H4UDGLT34B5MS245662QXWE6JMP2","A3R97T5D3RR9JX","3RBI0I35XEP26UEZY8S8UZLEA1IY3E","","43.799999999813735","img/flower3.png","74","45.59999999962747","1","1","1","1","1,0.333,0.333,0.333,1,0.333,0.333,0.333,1","1,0.333,0.333,0.333,1,0.333,0.333,0.333,1","1",""
"","html-keyboard-response","347","94489","0.0-347.0","30H4UDGLT34B5MS245662QXWE6JMP2","A3R97T5D3RR9JX","3RBI0I35XEP26UEZY8S8UZLEA1IY3E","","null","<img src=""img/flower3.png"" style=""width:200px; border:14px solid green;"">","null","","","","","","","","",""
"","image-keyboard-response","348","94887","0.0-348.0","30H4UDGLT34B5MS245662QXWE6JMP2","A3R97T5D3RR9JX","3RBI0I35XEP26UEZY8S8UZLEA1IY3E","","395.70000000018626","img/flower6.png","74","397.6000000005588","1","1","3","1","1,0.333,0.333,0.333,1,0.333,0.333,0.333,1","1,0.333,0.333,0.333,1,0.333,0.333,0.333,1","1",""
"","html-keyboard-response","349","95190","0.0-349.0","30H4UDGLT34B5MS245662QXWE6JMP2","A3R97T5D3RR9JX","3RBI0I35XEP26UEZY8S8UZLEA1IY3E","","null","<img src=""img/flower6.png"" style=""width:200px; border:14px solid green;"">","null","","","","","","","","",""
"","image-keyboard-response","350","95205","0.0-350.0","30H4UDGLT34B5MS245662QXWE6JMP2","A3R97T5D3RR9JX","3RBI0I35XEP26UEZY8S8UZLEA1IY3E","","13.099999999627471","img/flower2.png","74","14.700000000186265","1","1","2","1","1,0.333,0.333,0.333,1,0.333,0.333,0.333,1","1,0.333,0.333,0.333,1,0.333,0.333,0.333,1","1",""
"","html-keyboard-response","351","95508","0.0-351.0","30H4UDGLT34B5MS245662QXWE6JMP2","A3R97T5D3RR9JX","3RBI0I35XEP26UEZY8S8UZLEA1IY3E","","null","<img src=""img/flower2.png"" style=""width:200px; border:14px solid green;"">","null","","","","","","","","",""
"","image-keyboard-response","352","95510","0.0-352.0","30H4UDGLT34B5MS245662QXWE6JMP2","A3R97T5D3RR9JX","3RBI0I35XEP26UEZY8S8UZLEA1IY3E","","0.20000000018626451","img/flower3.png","74","1.599999999627471","1","1","1","1","1,0.333,0.333,0.333,1,0.333,0.333,0.333,1","1,0.333,0.333,0.333,1,0.333,0.333,0.333,1","1",""
"","html-keyboard-response","353","95813","0.0-353.0","30H4UDGLT34B5MS245662QXWE6JMP2","A3R97T5D3RR9JX","3RBI0I35XEP26UEZY8S8UZLEA1IY3E","","null","<img src=""img/flower3.png"" style=""width:200px; border:14px solid green;"">","null","","","","","","","","",""
"","image-keyboard-response","354","95945","0.0-354.0","30H4UDGLT34B5MS245662QXWE6JMP2","A3R97T5D3RR9JX","3RBI0I35XEP26UEZY8S8UZLEA1IY3E","","129.79999999981374","img/flower6.png","76","131.59999999962747","3","1","3","1","1,0.333,0.333,0.333,1,0.333,0.333,0.333,1","1,0.333,0.333,0.333,1,0.333,0.333,0.333,1","1",""
"","html-keyboard-response","355","96247","0.0-355.0","30H4UDGLT34B5MS245662QXWE6JMP2","A3R97T5D3RR9JX","3RBI0I35XEP26UEZY8S8UZLEA1IY3E","","null","<img src=""img/flower6.png"" style=""width:200px; border:14px solid green;"">","null","","","","","","","","",""
"","image-keyboard-response","356","96269","0.0-356.0","30H4UDGLT34B5MS245662QXWE6JMP2","A3R97T5D3RR9JX","3RBI0I35XEP26UEZY8S8UZLEA1IY3E","","19.09999999962747","img/flower2.png","75","20.799999999813735","2","1","2","1","1,0.333,0.333,0.333,1,0.333,0.333,0.333,1","1,0.333,0.333,0.333,1,0.333,0.333,0.333,1","1",""
"","html-keyboard-response","357","96572","0.0-357.0","30H4UDGLT34B5MS245662QXWE6JMP2","A3R97T5D3RR9JX","3RBI0I35XEP26UEZY8S8UZLEA1IY3E","","null","<img src=""img/flower2.png"" style=""width:200px; border:14px solid green;"">","null","","","","","","","","",""
"","image-keyboard-response","358","96588","0.0-358.0","30H4UDGLT34B5MS245662QXWE6JMP2","A3R97T5D3RR9JX","3RBI0I35XEP26UEZY8S8UZLEA1IY3E","","13.900000000372529","img/flower3.png","74","15.5","1","1","1","1","1,0.333,0.333,0.333,1,0.333,0.333,0.333,1","1,0.333,0.333,0.333,1,0.333,0.333,0.333,1","1",""
"","html-keyboard-response","359","96890","0.0-359.0","30H4UDGLT34B5MS245662QXWE6JMP2","A3R97T5D3RR9JX","3RBI0I35XEP26UEZY8S8UZLEA1IY3E","","null","<img src=""img/flower3.png"" style=""width:200px; border:14px solid green;"">","null","","","","","","","","",""
"","image-keyboard-response","360","96919","0.0-360.0","30H4UDGLT34B5MS245662QXWE6JMP2","A3R97T5D3RR9JX","3RBI0I35XEP26UEZY8S8UZLEA1IY3E","","26.700000000186265","img/flower3.png","74","28.59999999962747","1","1","1","1","1,0.333,0.333,0.333,1,0.333,0.333,0.333,1","1,0.333,0.333,0.333,1,0.333,0.333,0.333,1","1",""
"","html-keyboard-response","361","97222","0.0-361.0","30H4UDGLT34B5MS245662QXWE6JMP2","A3R97T5D3RR9JX","3RBI0I35XEP26UEZY8S8UZLEA1IY3E","","null","<img src=""img/flower3.png"" style=""width:200px; border:14px solid green;"">","null","","","","","","","","",""
"","html-keyboard-response","362","99900","0.0-362.0","30H4UDGLT34B5MS245662QXWE6JMP2","A3R97T5D3RR9JX","3RBI0I35XEP26UEZY8S8UZLEA1IY3E","","","","","","","","","","","","",""
"","instructions","363","101544","0.0-363.0","30H4UDGLT34B5MS245662QXWE6JMP2","A3R97T5D3RR9JX","3RBI0I35XEP26UEZY8S8UZLEA1IY3E","[{""page_index"":0,""viewing_time"":1642.8999999994412}]","1643.0999999996275","","","","","","","","","","",""
"","survey-text","364","104282","0.0-364.0","30H4UDGLT34B5MS245662QXWE6JMP2","A3R97T5D3RR9JX","3RBI0I35XEP26UEZY8S8UZLEA1IY3E","","2735.300000000745","","","","","","","","","","","{""Q0"":""A3R97T5D3RR9JX""}"
