"success","trial_type","trial_index","time_elapsed","internal_node_id","assignmentID","mturkID","hitID","view_history","rt","stimulus","key_press","reactionTime","a","r","s","cond","reward_cond","reward_cond_actual","reward_matrix_idx","responses"
"true","fullscreen","0","29183","0.0-0.0","3HOSI13XH0AZCVJZM3G8J6TDRCYDDD","A3RTW9UWYKSNWX","335VBRURDJMQFRMOFGHOE9WKSHX9E1","","","","","","","","","","","","",""
"","instructions","1","40372","0.0-1.0","3HOSI13XH0AZCVJZM3G8J6TDRCYDDD","A3RTW9UWYKSNWX","335VBRURDJMQFRMOFGHOE9WKSHX9E1","[{""page_index"":0,""viewing_time"":2468},{""page_index"":1,""viewing_time"":725},{""page_index"":2,""viewing_time"":229},{""page_index"":3,""viewing_time"":1658},{""page_index"":4,""viewing_time"":2167},{""page_index"":5,""viewing_time"":2088},{""page_index"":6,""viewing_time"":1134},{""page_index"":7,""viewing_time"":720}]","11189","","","","","","","","","","",""
"","image-keyboard-response","2","41115","0.0-2.0","3HOSI13XH0AZCVJZM3G8J6TDRCYDDD","A3RTW9UWYKSNWX","335VBRURDJMQFRMOFGHOE9WKSHX9E1","","743","img/flower5.png","74","744","1","1","2","2","1,0,0,1,1,0,1,0,1","1,0,0,1,1,0,1,0,1","1",""
"","html-keyboard-response","3","41425","0.0-3.0","3HOSI13XH0AZCVJZM3G8J6TDRCYDDD","A3RTW9UWYKSNWX","335VBRURDJMQFRMOFGHOE9WKSHX9E1","","null","<img src=""img/flower5.png"" style=""width:200px; border:14px solid green;"">","null","","","","","","","","",""
"","image-keyboard-response","4","42087","0.0-4.0","3HOSI13XH0AZCVJZM3G8J6TDRCYDDD","A3RTW9UWYKSNWX","335VBRURDJMQFRMOFGHOE9WKSHX9E1","","661","img/flower4.png","74","662","1","1","3","2","1,0,0,1,1,0,1,0,1","1,0,0,1,1,0,1,0,1","1",""
"","html-keyboard-response","5","42403","0.0-5.0","3HOSI13XH0AZCVJZM3G8J6TDRCYDDD","A3RTW9UWYKSNWX","335VBRURDJMQFRMOFGHOE9WKSHX9E1","","null","<img src=""img/flower4.png"" style=""width:200px; border:14px solid green;"">","null","","","","","","","","",""
"","image-keyboard-response","6","42836","0.0-6.0","3HOSI13XH0AZCVJZM3G8J6TDRCYDDD","A3RTW9UWYKSNWX","335VBRURDJMQFRMOFGHOE9WKSHX9E1","","433","img/flower5.png","74","434","1","1","2","2","1,0,0,1,1,0,1,0,1","1,0,0,1,1,0,1,0,1","1",""
"","html-keyboard-response","7","43150","0.0-7.0","3HOSI13XH0AZCVJZM3G8J6TDRCYDDD","A3RTW9UWYKSNWX","335VBRURDJMQFRMOFGHOE9WKSHX9E1","","null","<img src=""img/flower5.png"" style=""width:200px; border:14px solid green;"">","null","","","","","","","","",""
"","image-keyboard-response","8","43521","0.0-8.0","3HOSI13XH0AZCVJZM3G8J6TDRCYDDD","A3RTW9UWYKSNWX","335VBRURDJMQFRMOFGHOE9WKSHX9E1","","371","img/flower4.png","74","371","1","1","3","2","1,0,0,1,1,0,1,0,1","1,0,0,1,1,0,1,0,1","1",""
"","html-keyboard-response","9","43824","0.0-9.0","3HOSI13XH0AZCVJZM3G8J6TDRCYDDD","A3RTW9UWYKSNWX","335VBRURDJMQFRMOFGHOE9WKSHX9E1","","null","<img src=""img/flower4.png"" style=""width:200px; border:14px solid green;"">","null","","","","","","","","",""
"","image-keyboard-response","10","44511","0.0-10.0","3HOSI13XH0AZCVJZM3G8J6TDRCYDDD","A3RTW9UWYKSNWX","335VBRURDJMQFRMOFGHOE9WKSHX9E1","","687","img/flower4.png","74","687","1","1","3","2","1,0,0,1,1,0,1,0,1","1,0,0,1,1,0,1,0,1","1",""
"","html-keyboard-response","11","44823","0.0-11.0","3HOSI13XH0AZCVJZM3G8J6TDRCYDDD","A3RTW9UWYKSNWX","335VBRURDJMQFRMOFGHOE9WKSHX9E1","","null","<img src=""img/flower4.png"" style=""width:200px; border:14px solid green;"">","null","","","","","","","","",""
"","image-keyboard-response","12","45271","0.0-12.0","3HOSI13XH0AZCVJZM3G8J6TDRCYDDD","A3RTW9UWYKSNWX","335VBRURDJMQFRMOFGHOE9WKSHX9E1","","446","img/flower1.png","74","447","1","1","1","2","1,0,0,1,1,0,1,0,1","1,0,0,1,1,0,1,0,1","1",""
"","html-keyboard-response","13","45584","0.0-13.0","3HOSI13XH0AZCVJZM3G8J6TDRCYDDD","A3RTW9UWYKSNWX","335VBRURDJMQFRMOFGHOE9WKSHX9E1","","null","<img src=""img/flower1.png"" style=""width:200px; border:14px solid green;"">","null","","","","","","","","",""
"","image-keyboard-response","14","45972","0.0-14.0","3HOSI13XH0AZCVJZM3G8J6TDRCYDDD","A3RTW9UWYKSNWX","335VBRURDJMQFRMOFGHOE9WKSHX9E1","","386","img/flower4.png","74","387","1","1","3","2","1,0,0,1,1,0,1,0,1","1,0,0,1,1,0,1,0,1","1",""
"","html-keyboard-response","15","46278","0.0-15.0","3HOSI13XH0AZCVJZM3G8J6TDRCYDDD","A3RTW9UWYKSNWX","335VBRURDJMQFRMOFGHOE9WKSHX9E1","","null","<img src=""img/flower4.png"" style=""width:200px; border:14px solid green;"">","null","","","","","","","","",""
"","image-keyboard-response","16","46825","0.0-16.0","3HOSI13XH0AZCVJZM3G8J6TDRCYDDD","A3RTW9UWYKSNWX","335VBRURDJMQFRMOFGHOE9WKSHX9E1","","548","img/flower4.png","74","548","1","1","3","2","1,0,0,1,1,0,1,0,1","1,0,0,1,1,0,1,0,1","1",""
"","html-keyboard-response","17","47136","0.0-17.0","3HOSI13XH0AZCVJZM3G8J6TDRCYDDD","A3RTW9UWYKSNWX","335VBRURDJMQFRMOFGHOE9WKSHX9E1","","null","<img src=""img/flower4.png"" style=""width:200px; border:14px solid green;"">","null","","","","","","","","",""
"","image-keyboard-response","18","47400","0.0-18.0","3HOSI13XH0AZCVJZM3G8J6TDRCYDDD","A3RTW9UWYKSNWX","335VBRURDJMQFRMOFGHOE9WKSHX9E1","","263","img/flower5.png","74","264","1","1","2","2","1,0,0,1,1,0,1,0,1","1,0,0,1,1,0,1,0,1","1",""
"","html-keyboard-response","19","47712","0.0-19.0","3HOSI13XH0AZCVJZM3G8J6TDRCYDDD","A3RTW9UWYKSNWX","335VBRURDJMQFRMOFGHOE9WKSHX9E1","","null","<img src=""img/flower5.png"" style=""width:200px; border:14px solid green;"">","null","","","","","","","","",""
"","image-keyboard-response","20","47969","0.0-20.0","3HOSI13XH0AZCVJZM3G8J6TDRCYDDD","A3RTW9UWYKSNWX","335VBRURDJMQFRMOFGHOE9WKSHX9E1","","258","img/flower4.png","74","258","1","1","3","2","1,0,0,1,1,0,1,0,1","1,0,0,1,1,0,1,0,1","1",""
"","html-keyboard-response","21","48274","0.0-21.0","3HOSI13XH0AZCVJZM3G8J6TDRCYDDD","A3RTW9UWYKSNWX","335VBRURDJMQFRMOFGHOE9WKSHX9E1","","null","<img src=""img/flower4.png"" style=""width:200px; border:14px solid green;"">","null","","","","","","","","",""
"","image-keyboard-response","22","48506","0.0-22.0","3HOSI13XH0AZCVJZM3G8J6TDRCYDDD","A3RTW9UWYKSNWX","335VBRURDJMQFRMOFGHOE9WKSHX9E1","","231","img/flower5.png","74","231","1","1","2","2","1,0,0,1,1,0,1,0,1","1,0,0,1,1,0,1,0,1","1",""
"","html-keyboard-response","23","48810","0.0-23.0","3HOSI13XH0AZCVJZM3G8J6TDRCYDDD","A3RTW9UWYKSNWX","335VBRURDJMQFRMOFGHOE9WKSHX9E1","","null","<img src=""img/flower5.png"" style=""width:200px; border:14px solid green;"">","null","","","","","","","","",""
"","image-keyboard-response","24","49024","0.0-24.0","3HOSI13XH0AZCVJZM3G8J6TDRCYDDD","A3RTW9UWYKSNWX","335VBRURDJMQFRMOFGHOE9WKSHX9E1","","213","img/flower5.png","74","214","1","1","2","2","1,0,0,1,1,0,1,0,1","1,0,0,1,1,0,1,0,1","1",""
"","html-keyboard-response","25","49338","0.0-25.0","3HOSI13XH0AZCVJZM3G8J6TDRCYDDD","A3RTW9UWYKSNWX","335VBRURDJMQFRMOFGHOE9WKSHX9E1","","null","<img src=""img/flower5.png"" style=""width:200px; border:14px solid green;"">","null","","","","","","","","",""
"","image-keyboard-response","26","49560","0.0-26.0","3HOSI13XH0AZCVJZM3G8J6TDRCYDDD","A3RTW9UWYKSNWX","335VBRURDJMQFRMOFGHOE9WKSHX9E1","","219","img/flower4.png","74","220","1","1","3","2","1,0,0,1,1,0,1,0,1","1,0,0,1,1,0,1,0,1","1",""
"","html-keyboard-response","27","49872","0.0-27.0","3HOSI13XH0AZCVJZM3G8J6TDRCYDDD","A3RTW9UWYKSNWX","335VBRURDJMQFRMOFGHOE9WKSHX9E1","","null","<img src=""img/flower4.png"" style=""width:200px; border:14px solid green;"">","null","","","","","","","","",""
"","image-keyboard-response","28","50075","0.0-28.0","3HOSI13XH0AZCVJZM3G8J6TDRCYDDD","A3RTW9UWYKSNWX","335VBRURDJMQFRMOFGHOE9WKSHX9E1","","204","img/flower1.png","74","204","1","1","1","2","1,0,0,1,1,0,1,0,1","1,0,0,1,1,0,1,0,1","1",""
"","html-keyboard-response","29","50390","0.0-29.0","3HOSI13XH0AZCVJZM3G8J6TDRCYDDD","A3RTW9UWYKSNWX","335VBRURDJMQFRMOFGHOE9WKSHX9E1","","null","<img src=""img/flower1.png"" style=""width:200px; border:14px solid green;"">","null","","","","","","","","",""
"","image-keyboard-response","30","50590","0.0-30.0","3HOSI13XH0AZCVJZM3G8J6TDRCYDDD","A3RTW9UWYKSNWX","335VBRURDJMQFRMOFGHOE9WKSHX9E1","","200","img/flower4.png","74","200","1","1","3","2","1,0,0,1,1,0,1,0,1","1,0,0,1,1,0,1,0,1","1",""
"","html-keyboard-response","31","50892","0.0-31.0","3HOSI13XH0AZCVJZM3G8J6TDRCYDDD","A3RTW9UWYKSNWX","335VBRURDJMQFRMOFGHOE9WKSHX9E1","","null","<img src=""img/flower4.png"" style=""width:200px; border:14px solid green;"">","null","","","","","","","","",""
"","image-keyboard-response","32","51088","0.0-32.0","3HOSI13XH0AZCVJZM3G8J6TDRCYDDD","A3RTW9UWYKSNWX","335VBRURDJMQFRMOFGHOE9WKSHX9E1","","196","img/flower1.png","74","196","1","1","1","2","1,0,0,1,1,0,1,0,1","1,0,0,1,1,0,1,0,1","1",""
"","html-keyboard-response","33","51390","0.0-33.0","3HOSI13XH0AZCVJZM3G8J6TDRCYDDD","A3RTW9UWYKSNWX","335VBRURDJMQFRMOFGHOE9WKSHX9E1","","null","<img src=""img/flower1.png"" style=""width:200px; border:14px solid green;"">","null","","","","","","","","",""
"","image-keyboard-response","34","51583","0.0-34.0","3HOSI13XH0AZCVJZM3G8J6TDRCYDDD","A3RTW9UWYKSNWX","335VBRURDJMQFRMOFGHOE9WKSHX9E1","","192","img/flower5.png","74","192","1","1","2","2","1,0,0,1,1,0,1,0,1","1,0,0,1,1,0,1,0,1","1",""
"","html-keyboard-response","35","51887","0.0-35.0","3HOSI13XH0AZCVJZM3G8J6TDRCYDDD","A3RTW9UWYKSNWX","335VBRURDJMQFRMOFGHOE9WKSHX9E1","","null","<img src=""img/flower5.png"" style=""width:200px; border:14px solid green;"">","null","","","","","","","","",""
"","image-keyboard-response","36","52081","0.0-36.0","3HOSI13XH0AZCVJZM3G8J6TDRCYDDD","A3RTW9UWYKSNWX","335VBRURDJMQFRMOFGHOE9WKSHX9E1","","193","img/flower1.png","74","194","1","1","1","2","1,0,0,1,1,0,1,0,1","1,0,0,1,1,0,1,0,1","1",""
"","html-keyboard-response","37","52387","0.0-37.0","3HOSI13XH0AZCVJZM3G8J6TDRCYDDD","A3RTW9UWYKSNWX","335VBRURDJMQFRMOFGHOE9WKSHX9E1","","null","<img src=""img/flower1.png"" style=""width:200px; border:14px solid green;"">","null","","","","","","","","",""
"","image-keyboard-response","38","52561","0.0-38.0","3HOSI13XH0AZCVJZM3G8J6TDRCYDDD","A3RTW9UWYKSNWX","335VBRURDJMQFRMOFGHOE9WKSHX9E1","","174","img/flower1.png","74","174","1","1","1","2","1,0,0,1,1,0,1,0,1","1,0,0,1,1,0,1,0,1","1",""
"","html-keyboard-response","39","52874","0.0-39.0","3HOSI13XH0AZCVJZM3G8J6TDRCYDDD","A3RTW9UWYKSNWX","335VBRURDJMQFRMOFGHOE9WKSHX9E1","","null","<img src=""img/flower1.png"" style=""width:200px; border:14px solid green;"">","null","","","","","","","","",""
"","image-keyboard-response","40","53040","0.0-40.0","3HOSI13XH0AZCVJZM3G8J6TDRCYDDD","A3RTW9UWYKSNWX","335VBRURDJMQFRMOFGHOE9WKSHX9E1","","166","img/flower5.png","74","166","1","1","2","2","1,0,0,1,1,0,1,0,1","1,0,0,1,1,0,1,0,1","1",""
"","html-keyboard-response","41","53345","0.0-41.0","3HOSI13XH0AZCVJZM3G8J6TDRCYDDD","A3RTW9UWYKSNWX","335VBRURDJMQFRMOFGHOE9WKSHX9E1","","null","<img src=""img/flower5.png"" style=""width:200px; border:14px solid green;"">","null","","","","","","","","",""
"","image-keyboard-response","42","53462","0.0-42.0","3HOSI13XH0AZCVJZM3G8J6TDRCYDDD","A3RTW9UWYKSNWX","335VBRURDJMQFRMOFGHOE9WKSHX9E1","","117","img/flower5.png","74","117","1","1","2","2","1,0,0,1,1,0,1,0,1","1,0,0,1,1,0,1,0,1","1",""
"","html-keyboard-response","43","53764","0.0-43.0","3HOSI13XH0AZCVJZM3G8J6TDRCYDDD","A3RTW9UWYKSNWX","335VBRURDJMQFRMOFGHOE9WKSHX9E1","","null","<img src=""img/flower5.png"" style=""width:200px; border:14px solid green;"">","null","","","","","","","","",""
"","image-keyboard-response","44","53945","0.0-44.0","3HOSI13XH0AZCVJZM3G8J6TDRCYDDD","A3RTW9UWYKSNWX","335VBRURDJMQFRMOFGHOE9WKSHX9E1","","180","img/flower5.png","74","180","1","1","2","2","1,0,0,1,1,0,1,0,1","1,0,0,1,1,0,1,0,1","1",""
"","html-keyboard-response","45","54247","0.0-45.0","3HOSI13XH0AZCVJZM3G8J6TDRCYDDD","A3RTW9UWYKSNWX","335VBRURDJMQFRMOFGHOE9WKSHX9E1","","null","<img src=""img/flower5.png"" style=""width:200px; border:14px solid green;"">","null","","","","","","","","",""
"","image-keyboard-response","46","54435","0.0-46.0","3HOSI13XH0AZCVJZM3G8J6TDRCYDDD","A3RTW9UWYKSNWX","335VBRURDJMQFRMOFGHOE9WKSHX9E1","","187","img/flower4.png","75","187","2","0","3","2","1,0,0,1,1,0,1,0,1","1,0,0,1,1,0,1,0,1","1",""
"","html-keyboard-response","47","54747","0.0-47.0","3HOSI13XH0AZCVJZM3G8J6TDRCYDDD","A3RTW9UWYKSNWX","335VBRURDJMQFRMOFGHOE9WKSHX9E1","","null","<img src=""img/flower4.png"" style=""width:200px;border:14px solid red;"">","null","","","","","","","","",""
"","image-keyboard-response","48","55229","0.0-48.0","3HOSI13XH0AZCVJZM3G8J6TDRCYDDD","A3RTW9UWYKSNWX","335VBRURDJMQFRMOFGHOE9WKSHX9E1","","481","img/flower4.png","75","482","2","0","3","2","1,0,0,1,1,0,1,0,1","1,0,0,1,1,0,1,0,1","1",""
"","html-keyboard-response","49","55545","0.0-49.0","3HOSI13XH0AZCVJZM3G8J6TDRCYDDD","A3RTW9UWYKSNWX","335VBRURDJMQFRMOFGHOE9WKSHX9E1","","null","<img src=""img/flower4.png"" style=""width:200px;border:14px solid red;"">","null","","","","","","","","",""
"","image-keyboard-response","50","55847","0.0-50.0","3HOSI13XH0AZCVJZM3G8J6TDRCYDDD","A3RTW9UWYKSNWX","335VBRURDJMQFRMOFGHOE9WKSHX9E1","","302","img/flower4.png","74","302","1","1","3","2","1,0,0,1,1,0,1,0,1","1,0,0,1,1,0,1,0,1","1",""
"","html-keyboard-response","51","56157","0.0-51.0","3HOSI13XH0AZCVJZM3G8J6TDRCYDDD","A3RTW9UWYKSNWX","335VBRURDJMQFRMOFGHOE9WKSHX9E1","","null","<img src=""img/flower4.png"" style=""width:200px; border:14px solid green;"">","null","","","","","","","","",""
"","image-keyboard-response","52","56669","0.0-52.0","3HOSI13XH0AZCVJZM3G8J6TDRCYDDD","A3RTW9UWYKSNWX","335VBRURDJMQFRMOFGHOE9WKSHX9E1","","513","img/flower1.png","75","514","2","0","1","2","1,0,0,1,1,0,1,0,1","1,0,0,1,1,0,1,0,1","1",""
"","html-keyboard-response","53","56982","0.0-53.0","3HOSI13XH0AZCVJZM3G8J6TDRCYDDD","A3RTW9UWYKSNWX","335VBRURDJMQFRMOFGHOE9WKSHX9E1","","null","<img src=""img/flower1.png"" style=""width:200px;border:14px solid red;"">","null","","","","","","","","",""
"","image-keyboard-response","54","57212","0.0-54.0","3HOSI13XH0AZCVJZM3G8J6TDRCYDDD","A3RTW9UWYKSNWX","335VBRURDJMQFRMOFGHOE9WKSHX9E1","","229","img/flower5.png","74","229","1","1","2","2","1,0,0,1,1,0,1,0,1","1,0,0,1,1,0,1,0,1","1",""
"","html-keyboard-response","55","57515","0.0-55.0","3HOSI13XH0AZCVJZM3G8J6TDRCYDDD","A3RTW9UWYKSNWX","335VBRURDJMQFRMOFGHOE9WKSHX9E1","","null","<img src=""img/flower5.png"" style=""width:200px; border:14px solid green;"">","null","","","","","","","","",""
"","image-keyboard-response","56","57684","0.0-56.0","3HOSI13XH0AZCVJZM3G8J6TDRCYDDD","A3RTW9UWYKSNWX","335VBRURDJMQFRMOFGHOE9WKSHX9E1","","169","img/flower1.png","74","169","1","1","1","2","1,0,0,1,1,0,1,0,1","1,0,0,1,1,0,1,0,1","1",""
"","html-keyboard-response","57","57997","0.0-57.0","3HOSI13XH0AZCVJZM3G8J6TDRCYDDD","A3RTW9UWYKSNWX","335VBRURDJMQFRMOFGHOE9WKSHX9E1","","null","<img src=""img/flower1.png"" style=""width:200px; border:14px solid green;"">","null","","","","","","","","",""
"","image-keyboard-response","58","58184","0.0-58.0","3HOSI13XH0AZCVJZM3G8J6TDRCYDDD","A3RTW9UWYKSNWX","335VBRURDJMQFRMOFGHOE9WKSHX9E1","","188","img/flower5.png","74","188","1","1","2","2","1,0,0,1,1,0,1,0,1","1,0,0,1,1,0,1,0,1","1",""
"","html-keyboard-response","59","58498","0.0-59.0","3HOSI13XH0AZCVJZM3G8J6TDRCYDDD","A3RTW9UWYKSNWX","335VBRURDJMQFRMOFGHOE9WKSHX9E1","","null","<img src=""img/flower5.png"" style=""width:200px; border:14px solid green;"">","null","","","","","","","","",""
"","image-keyboard-response","60","58746","0.0-60.0","3HOSI13XH0AZCVJZM3G8J6TDRCYDDD","A3RTW9UWYKSNWX","335VBRURDJMQFRMOFGHOE9WKSHX9E1","","248","img/flower5.png","76","248","3","0","2","2","1,0,0,1,1,0,1,0,1","1,0,0,1,1,0,1,0,1","1",""
"","html-keyboard-response","61","59056","0.0-61.0","3HOSI13XH0AZCVJZM3G8J6TDRCYDDD","A3RTW9UWYKSNWX","335VBRURDJMQFRMOFGHOE9WKSHX9E1","","null","<img src=""img/flower5.png"" style=""width:200px;border:14px solid red;"">","null","","","","","","","","",""
"","image-keyboard-response","62","59417","0.0-62.0","3HOSI13XH0AZCVJZM3G8J6TDRCYDDD","A3RTW9UWYKSNWX","335VBRURDJMQFRMOFGHOE9WKSHX9E1","","361","img/flower1.png","76","361","3","0","1","2","1,0,0,1,1,0,1,0,1","1,0,0,1,1,0,1,0,1","1",""
"","html-keyboard-response","63","59732","0.0-63.0","3HOSI13XH0AZCVJZM3G8J6TDRCYDDD","A3RTW9UWYKSNWX","335VBRURDJMQFRMOFGHOE9WKSHX9E1","","null","<img src=""img/flower1.png"" style=""width:200px;border:14px solid red;"">","null","","","","","","","","",""
"","image-keyboard-response","64","59955","0.0-64.0","3HOSI13XH0AZCVJZM3G8J6TDRCYDDD","A3RTW9UWYKSNWX","335VBRURDJMQFRMOFGHOE9WKSHX9E1","","222","img/flower5.png","74","222","1","1","2","2","1,0,0,1,1,0,1,0,1","1,0,0,1,1,0,1,0,1","1",""
"","html-keyboard-response","65","60262","0.0-65.0","3HOSI13XH0AZCVJZM3G8J6TDRCYDDD","A3RTW9UWYKSNWX","335VBRURDJMQFRMOFGHOE9WKSHX9E1","","null","<img src=""img/flower5.png"" style=""width:200px; border:14px solid green;"">","null","","","","","","","","",""
"","image-keyboard-response","66","60472","0.0-66.0","3HOSI13XH0AZCVJZM3G8J6TDRCYDDD","A3RTW9UWYKSNWX","335VBRURDJMQFRMOFGHOE9WKSHX9E1","","210","img/flower4.png","74","210","1","1","3","2","1,0,0,1,1,0,1,0,1","1,0,0,1,1,0,1,0,1","1",""
"","html-keyboard-response","67","60777","0.0-67.0","3HOSI13XH0AZCVJZM3G8J6TDRCYDDD","A3RTW9UWYKSNWX","335VBRURDJMQFRMOFGHOE9WKSHX9E1","","null","<img src=""img/flower4.png"" style=""width:200px; border:14px solid green;"">","null","","","","","","","","",""
"","image-keyboard-response","68","60827","0.0-68.0","3HOSI13XH0AZCVJZM3G8J6TDRCYDDD","A3RTW9UWYKSNWX","335VBRURDJMQFRMOFGHOE9WKSHX9E1","","49","img/flower5.png","74","49","1","1","2","2","1,0,0,1,1,0,1,0,1","1,0,0,1,1,0,1,0,1","1",""
"","html-keyboard-response","69","61137","0.0-69.0","3HOSI13XH0AZCVJZM3G8J6TDRCYDDD","A3RTW9UWYKSNWX","335VBRURDJMQFRMOFGHOE9WKSHX9E1","","null","<img src=""img/flower5.png"" style=""width:200px; border:14px solid green;"">","null","","","","","","","","",""
"","image-keyboard-response","70","61173","0.0-70.0","3HOSI13XH0AZCVJZM3G8J6TDRCYDDD","A3RTW9UWYKSNWX","335VBRURDJMQFRMOFGHOE9WKSHX9E1","","35","img/flower5.png","74","36","1","1","2","2","1,0,0,1,1,0,1,0,1","1,0,0,1,1,0,1,0,1","1",""
"","html-keyboard-response","71","61480","0.0-71.0","3HOSI13XH0AZCVJZM3G8J6TDRCYDDD","A3RTW9UWYKSNWX","335VBRURDJMQFRMOFGHOE9WKSHX9E1","","null","<img src=""img/flower5.png"" style=""width:200px; border:14px solid green;"">","null","","","","","","","","",""
"","image-keyboard-response","72","61543","0.0-72.0","3HOSI13XH0AZCVJZM3G8J6TDRCYDDD","A3RTW9UWYKSNWX","335VBRURDJMQFRMOFGHOE9WKSHX9E1","","63","img/flower1.png","74","63","1","1","1","2","1,0,0,1,1,0,1,0,1","1,0,0,1,1,0,1,0,1","1",""
"","html-keyboard-response","73","61844","0.0-73.0","3HOSI13XH0AZCVJZM3G8J6TDRCYDDD","A3RTW9UWYKSNWX","335VBRURDJMQFRMOFGHOE9WKSHX9E1","","null","<img src=""img/flower1.png"" style=""width:200px; border:14px solid green;"">","null","","","","","","","","",""
"","image-keyboard-response","74","61889","0.0-74.0","3HOSI13XH0AZCVJZM3G8J6TDRCYDDD","A3RTW9UWYKSNWX","335VBRURDJMQFRMOFGHOE9WKSHX9E1","","44","img/flower4.png","74","44","1","1","3","2","1,0,0,1,1,0,1,0,1","1,0,0,1,1,0,1,0,1","1",""
"","html-keyboard-response","75","62201","0.0-75.0","3HOSI13XH0AZCVJZM3G8J6TDRCYDDD","A3RTW9UWYKSNWX","335VBRURDJMQFRMOFGHOE9WKSHX9E1","","null","<img src=""img/flower4.png"" style=""width:200px; border:14px solid green;"">","null","","","","","","","","",""
"","image-keyboard-response","76","62440","0.0-76.0","3HOSI13XH0AZCVJZM3G8J6TDRCYDDD","A3RTW9UWYKSNWX","335VBRURDJMQFRMOFGHOE9WKSHX9E1","","237","img/flower1.png","74","237","1","1","1","2","1,0,0,1,1,0,1,0,1","1,0,0,1,1,0,1,0,1","1",""
"","html-keyboard-response","77","62748","0.0-77.0","3HOSI13XH0AZCVJZM3G8J6TDRCYDDD","A3RTW9UWYKSNWX","335VBRURDJMQFRMOFGHOE9WKSHX9E1","","null","<img src=""img/flower1.png"" style=""width:200px; border:14px solid green;"">","null","","","","","","","","",""
"","image-keyboard-response","78","62870","0.0-78.0","3HOSI13XH0AZCVJZM3G8J6TDRCYDDD","A3RTW9UWYKSNWX","335VBRURDJMQFRMOFGHOE9WKSHX9E1","","123","img/flower1.png","74","123","1","1","1","2","1,0,0,1,1,0,1,0,1","1,0,0,1,1,0,1,0,1","1",""
"","html-keyboard-response","79","63183","0.0-79.0","3HOSI13XH0AZCVJZM3G8J6TDRCYDDD","A3RTW9UWYKSNWX","335VBRURDJMQFRMOFGHOE9WKSHX9E1","","null","<img src=""img/flower1.png"" style=""width:200px; border:14px solid green;"">","null","","","","","","","","",""
"","image-keyboard-response","80","63266","0.0-80.0","3HOSI13XH0AZCVJZM3G8J6TDRCYDDD","A3RTW9UWYKSNWX","335VBRURDJMQFRMOFGHOE9WKSHX9E1","","82","img/flower5.png","74","82","1","1","2","2","1,0,0,1,1,0,1,0,1","1,0,0,1,1,0,1,0,1","1",""
"","html-keyboard-response","81","63573","0.0-81.0","3HOSI13XH0AZCVJZM3G8J6TDRCYDDD","A3RTW9UWYKSNWX","335VBRURDJMQFRMOFGHOE9WKSHX9E1","","null","<img src=""img/flower5.png"" style=""width:200px; border:14px solid green;"">","null","","","","","","","","",""
"","image-keyboard-response","82","63622","0.0-82.0","3HOSI13XH0AZCVJZM3G8J6TDRCYDDD","A3RTW9UWYKSNWX","335VBRURDJMQFRMOFGHOE9WKSHX9E1","","48","img/flower4.png","74","49","1","1","3","2","1,0,0,1,1,0,1,0,1","1,0,0,1,1,0,1,0,1","1",""
"","html-keyboard-response","83","63933","0.0-83.0","3HOSI13XH0AZCVJZM3G8J6TDRCYDDD","A3RTW9UWYKSNWX","335VBRURDJMQFRMOFGHOE9WKSHX9E1","","null","<img src=""img/flower4.png"" style=""width:200px; border:14px solid green;"">","null","","","","","","","","",""
"","image-keyboard-response","84","63984","0.0-84.0","3HOSI13XH0AZCVJZM3G8J6TDRCYDDD","A3RTW9UWYKSNWX","335VBRURDJMQFRMOFGHOE9WKSHX9E1","","50","img/flower1.png","74","50","1","1","1","2","1,0,0,1,1,0,1,0,1","1,0,0,1,1,0,1,0,1","1",""
"","html-keyboard-response","85","64291","0.0-85.0","3HOSI13XH0AZCVJZM3G8J6TDRCYDDD","A3RTW9UWYKSNWX","335VBRURDJMQFRMOFGHOE9WKSHX9E1","","null","<img src=""img/flower1.png"" style=""width:200px; border:14px solid green;"">","null","","","","","","","","",""
"","image-keyboard-response","86","64338","0.0-86.0","3HOSI13XH0AZCVJZM3G8J6TDRCYDDD","A3RTW9UWYKSNWX","335VBRURDJMQFRMOFGHOE9WKSHX9E1","","46","img/flower4.png","74","47","1","1","3","2","1,0,0,1,1,0,1,0,1","1,0,0,1,1,0,1,0,1","1",""
"","html-keyboard-response","87","64650","0.0-87.0","3HOSI13XH0AZCVJZM3G8J6TDRCYDDD","A3RTW9UWYKSNWX","335VBRURDJMQFRMOFGHOE9WKSHX9E1","","null","<img src=""img/flower4.png"" style=""width:200px; border:14px solid green;"">","null","","","","","","","","",""
"","image-keyboard-response","88","64711","0.0-88.0","3HOSI13XH0AZCVJZM3G8J6TDRCYDDD","A3RTW9UWYKSNWX","335VBRURDJMQFRMOFGHOE9WKSHX9E1","","61","img/flower1.png","74","61","1","1","1","2","1,0,0,1,1,0,1,0,1","1,0,0,1,1,0,1,0,1","1",""
"","html-keyboard-response","89","65025","0.0-89.0","3HOSI13XH0AZCVJZM3G8J6TDRCYDDD","A3RTW9UWYKSNWX","335VBRURDJMQFRMOFGHOE9WKSHX9E1","","null","<img src=""img/flower1.png"" style=""width:200px; border:14px solid green;"">","null","","","","","","","","",""
"","image-keyboard-response","90","65080","0.0-90.0","3HOSI13XH0AZCVJZM3G8J6TDRCYDDD","A3RTW9UWYKSNWX","335VBRURDJMQFRMOFGHOE9WKSHX9E1","","55","img/flower1.png","74","56","1","1","1","2","1,0,0,1,1,0,1,0,1","1,0,0,1,1,0,1,0,1","1",""
"","html-keyboard-response","91","65384","0.0-91.0","3HOSI13XH0AZCVJZM3G8J6TDRCYDDD","A3RTW9UWYKSNWX","335VBRURDJMQFRMOFGHOE9WKSHX9E1","","null","<img src=""img/flower1.png"" style=""width:200px; border:14px solid green;"">","null","","","","","","","","",""
"","image-keyboard-response","92","65466","0.0-92.0","3HOSI13XH0AZCVJZM3G8J6TDRCYDDD","A3RTW9UWYKSNWX","335VBRURDJMQFRMOFGHOE9WKSHX9E1","","82","img/flower4.png","74","82","1","1","3","2","1,0,0,1,1,0,1,0,1","1,0,0,1,1,0,1,0,1","1",""
"","html-keyboard-response","93","65775","0.0-93.0","3HOSI13XH0AZCVJZM3G8J6TDRCYDDD","A3RTW9UWYKSNWX","335VBRURDJMQFRMOFGHOE9WKSHX9E1","","null","<img src=""img/flower4.png"" style=""width:200px; border:14px solid green;"">","null","","","","","","","","",""
"","image-keyboard-response","94","65832","0.0-94.0","3HOSI13XH0AZCVJZM3G8J6TDRCYDDD","A3RTW9UWYKSNWX","335VBRURDJMQFRMOFGHOE9WKSHX9E1","","56","img/flower1.png","74","57","1","1","1","2","1,0,0,1,1,0,1,0,1","1,0,0,1,1,0,1,0,1","1",""
"","html-keyboard-response","95","66135","0.0-95.0","3HOSI13XH0AZCVJZM3G8J6TDRCYDDD","A3RTW9UWYKSNWX","335VBRURDJMQFRMOFGHOE9WKSHX9E1","","null","<img src=""img/flower1.png"" style=""width:200px; border:14px solid green;"">","null","","","","","","","","",""
"","image-keyboard-response","96","66217","0.0-96.0","3HOSI13XH0AZCVJZM3G8J6TDRCYDDD","A3RTW9UWYKSNWX","335VBRURDJMQFRMOFGHOE9WKSHX9E1","","80","img/flower4.png","74","80","1","1","3","2","1,0,0,1,1,0,1,0,1","1,0,0,1,1,0,1,0,1","1",""
"","html-keyboard-response","97","66528","0.0-97.0","3HOSI13XH0AZCVJZM3G8J6TDRCYDDD","A3RTW9UWYKSNWX","335VBRURDJMQFRMOFGHOE9WKSHX9E1","","null","<img src=""img/flower4.png"" style=""width:200px; border:14px solid green;"">","null","","","","","","","","",""
"","image-keyboard-response","98","66608","0.0-98.0","3HOSI13XH0AZCVJZM3G8J6TDRCYDDD","A3RTW9UWYKSNWX","335VBRURDJMQFRMOFGHOE9WKSHX9E1","","80","img/flower1.png","74","81","1","1","1","2","1,0,0,1,1,0,1,0,1","1,0,0,1,1,0,1,0,1","1",""
"","html-keyboard-response","99","66916","0.0-99.0","3HOSI13XH0AZCVJZM3G8J6TDRCYDDD","A3RTW9UWYKSNWX","335VBRURDJMQFRMOFGHOE9WKSHX9E1","","null","<img src=""img/flower1.png"" style=""width:200px; border:14px solid green;"">","null","","","","","","","","",""
"","image-keyboard-response","100","67022","0.0-100.0","3HOSI13XH0AZCVJZM3G8J6TDRCYDDD","A3RTW9UWYKSNWX","335VBRURDJMQFRMOFGHOE9WKSHX9E1","","104","img/flower1.png","74","104","1","1","1","2","1,0,0,1,1,0,1,0,1","1,0,0,1,1,0,1,0,1","1",""
"","html-keyboard-response","101","67322","0.0-101.0","3HOSI13XH0AZCVJZM3G8J6TDRCYDDD","A3RTW9UWYKSNWX","335VBRURDJMQFRMOFGHOE9WKSHX9E1","","null","<img src=""img/flower1.png"" style=""width:200px; border:14px solid green;"">","null","","","","","","","","",""
"","image-keyboard-response","102","67438","0.0-102.0","3HOSI13XH0AZCVJZM3G8J6TDRCYDDD","A3RTW9UWYKSNWX","335VBRURDJMQFRMOFGHOE9WKSHX9E1","","117","img/flower5.png","74","117","1","1","2","2","1,0,0,1,1,0,1,0,1","1,0,0,1,1,0,1,0,1","1",""
"","html-keyboard-response","103","67747","0.0-103.0","3HOSI13XH0AZCVJZM3G8J6TDRCYDDD","A3RTW9UWYKSNWX","335VBRURDJMQFRMOFGHOE9WKSHX9E1","","null","<img src=""img/flower5.png"" style=""width:200px; border:14px solid green;"">","null","","","","","","","","",""
"","image-keyboard-response","104","67865","0.0-104.0","3HOSI13XH0AZCVJZM3G8J6TDRCYDDD","A3RTW9UWYKSNWX","335VBRURDJMQFRMOFGHOE9WKSHX9E1","","119","img/flower4.png","74","119","1","1","3","2","1,0,0,1,1,0,1,0,1","1,0,0,1,1,0,1,0,1","1",""
"","html-keyboard-response","105","68179","0.0-105.0","3HOSI13XH0AZCVJZM3G8J6TDRCYDDD","A3RTW9UWYKSNWX","335VBRURDJMQFRMOFGHOE9WKSHX9E1","","null","<img src=""img/flower4.png"" style=""width:200px; border:14px solid green;"">","null","","","","","","","","",""
"","image-keyboard-response","106","68267","0.0-106.0","3HOSI13XH0AZCVJZM3G8J6TDRCYDDD","A3RTW9UWYKSNWX","335VBRURDJMQFRMOFGHOE9WKSHX9E1","","86","img/flower5.png","74","87","1","1","2","2","1,0,0,1,1,0,1,0,1","1,0,0,1,1,0,1,0,1","1",""
"","html-keyboard-response","107","68573","0.0-107.0","3HOSI13XH0AZCVJZM3G8J6TDRCYDDD","A3RTW9UWYKSNWX","335VBRURDJMQFRMOFGHOE9WKSHX9E1","","null","<img src=""img/flower5.png"" style=""width:200px; border:14px solid green;"">","null","","","","","","","","",""
"","image-keyboard-response","108","68723","0.0-108.0","3HOSI13XH0AZCVJZM3G8J6TDRCYDDD","A3RTW9UWYKSNWX","335VBRURDJMQFRMOFGHOE9WKSHX9E1","","150","img/flower1.png","74","150","1","1","1","2","1,0,0,1,1,0,1,0,1","1,0,0,1,1,0,1,0,1","1",""
"","html-keyboard-response","109","69033","0.0-109.0","3HOSI13XH0AZCVJZM3G8J6TDRCYDDD","A3RTW9UWYKSNWX","335VBRURDJMQFRMOFGHOE9WKSHX9E1","","null","<img src=""img/flower1.png"" style=""width:200px; border:14px solid green;"">","null","","","","","","","","",""
"","image-keyboard-response","110","69210","0.0-110.0","3HOSI13XH0AZCVJZM3G8J6TDRCYDDD","A3RTW9UWYKSNWX","335VBRURDJMQFRMOFGHOE9WKSHX9E1","","177","img/flower1.png","74","177","1","1","1","2","1,0,0,1,1,0,1,0,1","1,0,0,1,1,0,1,0,1","1",""
"","html-keyboard-response","111","69517","0.0-111.0","3HOSI13XH0AZCVJZM3G8J6TDRCYDDD","A3RTW9UWYKSNWX","335VBRURDJMQFRMOFGHOE9WKSHX9E1","","null","<img src=""img/flower1.png"" style=""width:200px; border:14px solid green;"">","null","","","","","","","","",""
"","image-keyboard-response","112","69662","0.0-112.0","3HOSI13XH0AZCVJZM3G8J6TDRCYDDD","A3RTW9UWYKSNWX","335VBRURDJMQFRMOFGHOE9WKSHX9E1","","144","img/flower4.png","74","145","1","1","3","2","1,0,0,1,1,0,1,0,1","1,0,0,1,1,0,1,0,1","1",""
"","html-keyboard-response","113","69970","0.0-113.0","3HOSI13XH0AZCVJZM3G8J6TDRCYDDD","A3RTW9UWYKSNWX","335VBRURDJMQFRMOFGHOE9WKSHX9E1","","null","<img src=""img/flower4.png"" style=""width:200px; border:14px solid green;"">","null","","","","","","","","",""
"","image-keyboard-response","114","70224","0.0-114.0","3HOSI13XH0AZCVJZM3G8J6TDRCYDDD","A3RTW9UWYKSNWX","335VBRURDJMQFRMOFGHOE9WKSHX9E1","","252","img/flower5.png","74","252","1","1","2","2","1,0,0,1,1,0,1,0,1","1,0,0,1,1,0,1,0,1","1",""
"","html-keyboard-response","115","70534","0.0-115.0","3HOSI13XH0AZCVJZM3G8J6TDRCYDDD","A3RTW9UWYKSNWX","335VBRURDJMQFRMOFGHOE9WKSHX9E1","","null","<img src=""img/flower5.png"" style=""width:200px; border:14px solid green;"">","null","","","","","","","","",""
"","image-keyboard-response","116","70665","0.0-116.0","3HOSI13XH0AZCVJZM3G8J6TDRCYDDD","A3RTW9UWYKSNWX","335VBRURDJMQFRMOFGHOE9WKSHX9E1","","131","img/flower4.png","74","131","1","1","3","2","1,0,0,1,1,0,1,0,1","1,0,0,1,1,0,1,0,1","1",""
"","html-keyboard-response","117","70976","0.0-117.0","3HOSI13XH0AZCVJZM3G8J6TDRCYDDD","A3RTW9UWYKSNWX","335VBRURDJMQFRMOFGHOE9WKSHX9E1","","null","<img src=""img/flower4.png"" style=""width:200px; border:14px solid green;"">","null","","","","","","","","",""
"","image-keyboard-response","118","71086","0.0-118.0","3HOSI13XH0AZCVJZM3G8J6TDRCYDDD","A3RTW9UWYKSNWX","335VBRURDJMQFRMOFGHOE9WKSHX9E1","","109","img/flower1.png","74","110","1","1","1","2","1,0,0,1,1,0,1,0,1","1,0,0,1,1,0,1,0,1","1",""
"","html-keyboard-response","119","71398","0.0-119.0","3HOSI13XH0AZCVJZM3G8J6TDRCYDDD","A3RTW9UWYKSNWX","335VBRURDJMQFRMOFGHOE9WKSHX9E1","","null","<img src=""img/flower1.png"" style=""width:200px; border:14px solid green;"">","null","","","","","","","","",""
"","image-keyboard-response","120","71600","0.0-120.0","3HOSI13XH0AZCVJZM3G8J6TDRCYDDD","A3RTW9UWYKSNWX","335VBRURDJMQFRMOFGHOE9WKSHX9E1","","203","img/flower1.png","74","203","1","1","1","2","1,0,0,1,1,0,1,0,1","1,0,0,1,1,0,1,0,1","1",""
"","html-keyboard-response","121","71914","0.0-121.0","3HOSI13XH0AZCVJZM3G8J6TDRCYDDD","A3RTW9UWYKSNWX","335VBRURDJMQFRMOFGHOE9WKSHX9E1","","null","<img src=""img/flower1.png"" style=""width:200px; border:14px solid green;"">","null","","","","","","","","",""
"","image-keyboard-response","122","72073","0.0-122.0","3HOSI13XH0AZCVJZM3G8J6TDRCYDDD","A3RTW9UWYKSNWX","335VBRURDJMQFRMOFGHOE9WKSHX9E1","","160","img/flower1.png","74","160","1","1","1","2","1,0,0,1,1,0,1,0,1","1,0,0,1,1,0,1,0,1","1",""
"","html-keyboard-response","123","72385","0.0-123.0","3HOSI13XH0AZCVJZM3G8J6TDRCYDDD","A3RTW9UWYKSNWX","335VBRURDJMQFRMOFGHOE9WKSHX9E1","","null","<img src=""img/flower1.png"" style=""width:200px; border:14px solid green;"">","null","","","","","","","","",""
"","image-keyboard-response","124","72551","0.0-124.0","3HOSI13XH0AZCVJZM3G8J6TDRCYDDD","A3RTW9UWYKSNWX","335VBRURDJMQFRMOFGHOE9WKSHX9E1","","167","img/flower4.png","74","167","1","1","3","2","1,0,0,1,1,0,1,0,1","1,0,0,1,1,0,1,0,1","1",""
"","html-keyboard-response","125","72855","0.0-125.0","3HOSI13XH0AZCVJZM3G8J6TDRCYDDD","A3RTW9UWYKSNWX","335VBRURDJMQFRMOFGHOE9WKSHX9E1","","null","<img src=""img/flower4.png"" style=""width:200px; border:14px solid green;"">","null","","","","","","","","",""
"","image-keyboard-response","126","73016","0.0-126.0","3HOSI13XH0AZCVJZM3G8J6TDRCYDDD","A3RTW9UWYKSNWX","335VBRURDJMQFRMOFGHOE9WKSHX9E1","","160","img/flower5.png","74","160","1","1","2","2","1,0,0,1,1,0,1,0,1","1,0,0,1,1,0,1,0,1","1",""
"","html-keyboard-response","127","73328","0.0-127.0","3HOSI13XH0AZCVJZM3G8J6TDRCYDDD","A3RTW9UWYKSNWX","335VBRURDJMQFRMOFGHOE9WKSHX9E1","","null","<img src=""img/flower5.png"" style=""width:200px; border:14px solid green;"">","null","","","","","","","","",""
"","image-keyboard-response","128","73446","0.0-128.0","3HOSI13XH0AZCVJZM3G8J6TDRCYDDD","A3RTW9UWYKSNWX","335VBRURDJMQFRMOFGHOE9WKSHX9E1","","118","img/flower1.png","74","118","1","1","1","2","1,0,0,1,1,0,1,0,1","1,0,0,1,1,0,1,0,1","1",""
"","html-keyboard-response","129","73747","0.0-129.0","3HOSI13XH0AZCVJZM3G8J6TDRCYDDD","A3RTW9UWYKSNWX","335VBRURDJMQFRMOFGHOE9WKSHX9E1","","null","<img src=""img/flower1.png"" style=""width:200px; border:14px solid green;"">","null","","","","","","","","",""
"","image-keyboard-response","130","73850","0.0-130.0","3HOSI13XH0AZCVJZM3G8J6TDRCYDDD","A3RTW9UWYKSNWX","335VBRURDJMQFRMOFGHOE9WKSHX9E1","","104","img/flower5.png","74","104","1","1","2","2","1,0,0,1,1,0,1,0,1","1,0,0,1,1,0,1,0,1","1",""
"","html-keyboard-response","131","74150","0.0-131.0","3HOSI13XH0AZCVJZM3G8J6TDRCYDDD","A3RTW9UWYKSNWX","335VBRURDJMQFRMOFGHOE9WKSHX9E1","","null","<img src=""img/flower5.png"" style=""width:200px; border:14px solid green;"">","null","","","","","","","","",""
"","image-keyboard-response","132","74292","0.0-132.0","3HOSI13XH0AZCVJZM3G8J6TDRCYDDD","A3RTW9UWYKSNWX","335VBRURDJMQFRMOFGHOE9WKSHX9E1","","140","img/flower1.png","74","140","1","1","1","2","1,0,0,1,1,0,1,0,1","1,0,0,1,1,0,1,0,1","1",""
"","html-keyboard-response","133","74604","0.0-133.0","3HOSI13XH0AZCVJZM3G8J6TDRCYDDD","A3RTW9UWYKSNWX","335VBRURDJMQFRMOFGHOE9WKSHX9E1","","null","<img src=""img/flower1.png"" style=""width:200px; border:14px solid green;"">","null","","","","","","","","",""
"","image-keyboard-response","134","74754","0.0-134.0","3HOSI13XH0AZCVJZM3G8J6TDRCYDDD","A3RTW9UWYKSNWX","335VBRURDJMQFRMOFGHOE9WKSHX9E1","","149","img/flower4.png","74","149","1","1","3","2","1,0,0,1,1,0,1,0,1","1,0,0,1,1,0,1,0,1","1",""
"","html-keyboard-response","135","75060","0.0-135.0","3HOSI13XH0AZCVJZM3G8J6TDRCYDDD","A3RTW9UWYKSNWX","335VBRURDJMQFRMOFGHOE9WKSHX9E1","","null","<img src=""img/flower4.png"" style=""width:200px; border:14px solid green;"">","null","","","","","","","","",""
"","image-keyboard-response","136","75193","0.0-136.0","3HOSI13XH0AZCVJZM3G8J6TDRCYDDD","A3RTW9UWYKSNWX","335VBRURDJMQFRMOFGHOE9WKSHX9E1","","133","img/flower5.png","74","133","1","1","2","2","1,0,0,1,1,0,1,0,1","1,0,0,1,1,0,1,0,1","1",""
"","html-keyboard-response","137","75496","0.0-137.0","3HOSI13XH0AZCVJZM3G8J6TDRCYDDD","A3RTW9UWYKSNWX","335VBRURDJMQFRMOFGHOE9WKSHX9E1","","null","<img src=""img/flower5.png"" style=""width:200px; border:14px solid green;"">","null","","","","","","","","",""
"","image-keyboard-response","138","75626","0.0-138.0","3HOSI13XH0AZCVJZM3G8J6TDRCYDDD","A3RTW9UWYKSNWX","335VBRURDJMQFRMOFGHOE9WKSHX9E1","","128","img/flower5.png","74","129","1","1","2","2","1,0,0,1,1,0,1,0,1","1,0,0,1,1,0,1,0,1","1",""
"","html-keyboard-response","139","75936","0.0-139.0","3HOSI13XH0AZCVJZM3G8J6TDRCYDDD","A3RTW9UWYKSNWX","335VBRURDJMQFRMOFGHOE9WKSHX9E1","","null","<img src=""img/flower5.png"" style=""width:200px; border:14px solid green;"">","null","","","","","","","","",""
"","image-keyboard-response","140","76074","0.0-140.0","3HOSI13XH0AZCVJZM3G8J6TDRCYDDD","A3RTW9UWYKSNWX","335VBRURDJMQFRMOFGHOE9WKSHX9E1","","138","img/flower1.png","74","139","1","1","1","2","1,0,0,1,1,0,1,0,1","1,0,0,1,1,0,1,0,1","1",""
"","html-keyboard-response","141","76388","0.0-141.0","3HOSI13XH0AZCVJZM3G8J6TDRCYDDD","A3RTW9UWYKSNWX","335VBRURDJMQFRMOFGHOE9WKSHX9E1","","null","<img src=""img/flower1.png"" style=""width:200px; border:14px solid green;"">","null","","","","","","","","",""
"","image-keyboard-response","142","76533","0.0-142.0","3HOSI13XH0AZCVJZM3G8J6TDRCYDDD","A3RTW9UWYKSNWX","335VBRURDJMQFRMOFGHOE9WKSHX9E1","","144","img/flower4.png","74","144","1","1","3","2","1,0,0,1,1,0,1,0,1","1,0,0,1,1,0,1,0,1","1",""
"","html-keyboard-response","143","76842","0.0-143.0","3HOSI13XH0AZCVJZM3G8J6TDRCYDDD","A3RTW9UWYKSNWX","335VBRURDJMQFRMOFGHOE9WKSHX9E1","","null","<img src=""img/flower4.png"" style=""width:200px; border:14px solid green;"">","null","","","","","","","","",""
"","image-keyboard-response","144","76982","0.0-144.0","3HOSI13XH0AZCVJZM3G8J6TDRCYDDD","A3RTW9UWYKSNWX","335VBRURDJMQFRMOFGHOE9WKSHX9E1","","141","img/flower1.png","74","141","1","1","1","2","1,0,0,1,1,0,1,0,1","1,0,0,1,1,0,1,0,1","1",""
"","html-keyboard-response","145","77297","0.0-145.0","3HOSI13XH0AZCVJZM3G8J6TDRCYDDD","A3RTW9UWYKSNWX","335VBRURDJMQFRMOFGHOE9WKSHX9E1","","null","<img src=""img/flower1.png"" style=""width:200px; border:14px solid green;"">","null","","","","","","","","",""
"","image-keyboard-response","146","77423","0.0-146.0","3HOSI13XH0AZCVJZM3G8J6TDRCYDDD","A3RTW9UWYKSNWX","335VBRURDJMQFRMOFGHOE9WKSHX9E1","","127","img/flower5.png","74","127","1","1","2","2","1,0,0,1,1,0,1,0,1","1,0,0,1,1,0,1,0,1","1",""
"","html-keyboard-response","147","77735","0.0-147.0","3HOSI13XH0AZCVJZM3G8J6TDRCYDDD","A3RTW9UWYKSNWX","335VBRURDJMQFRMOFGHOE9WKSHX9E1","","null","<img src=""img/flower5.png"" style=""width:200px; border:14px solid green;"">","null","","","","","","","","",""
"","image-keyboard-response","148","77836","0.0-148.0","3HOSI13XH0AZCVJZM3G8J6TDRCYDDD","A3RTW9UWYKSNWX","335VBRURDJMQFRMOFGHOE9WKSHX9E1","","101","img/flower5.png","74","101","1","1","2","2","1,0,0,1,1,0,1,0,1","1,0,0,1,1,0,1,0,1","1",""
"","html-keyboard-response","149","78136","0.0-149.0","3HOSI13XH0AZCVJZM3G8J6TDRCYDDD","A3RTW9UWYKSNWX","335VBRURDJMQFRMOFGHOE9WKSHX9E1","","null","<img src=""img/flower5.png"" style=""width:200px; border:14px solid green;"">","null","","","","","","","","",""
"","image-keyboard-response","150","78271","0.0-150.0","3HOSI13XH0AZCVJZM3G8J6TDRCYDDD","A3RTW9UWYKSNWX","335VBRURDJMQFRMOFGHOE9WKSHX9E1","","134","img/flower1.png","74","134","1","1","1","2","1,0,0,1,1,0,1,0,1","1,0,0,1,1,0,1,0,1","1",""
"","html-keyboard-response","151","78573","0.0-151.0","3HOSI13XH0AZCVJZM3G8J6TDRCYDDD","A3RTW9UWYKSNWX","335VBRURDJMQFRMOFGHOE9WKSHX9E1","","null","<img src=""img/flower1.png"" style=""width:200px; border:14px solid green;"">","null","","","","","","","","",""
"","image-keyboard-response","152","78690","0.0-152.0","3HOSI13XH0AZCVJZM3G8J6TDRCYDDD","A3RTW9UWYKSNWX","335VBRURDJMQFRMOFGHOE9WKSHX9E1","","117","img/flower5.png","74","117","1","1","2","2","1,0,0,1,1,0,1,0,1","1,0,0,1,1,0,1,0,1","1",""
"","html-keyboard-response","153","78992","0.0-153.0","3HOSI13XH0AZCVJZM3G8J6TDRCYDDD","A3RTW9UWYKSNWX","335VBRURDJMQFRMOFGHOE9WKSHX9E1","","null","<img src=""img/flower5.png"" style=""width:200px; border:14px solid green;"">","null","","","","","","","","",""
"","image-keyboard-response","154","79148","0.0-154.0","3HOSI13XH0AZCVJZM3G8J6TDRCYDDD","A3RTW9UWYKSNWX","335VBRURDJMQFRMOFGHOE9WKSHX9E1","","154","img/flower4.png","74","155","1","1","3","2","1,0,0,1,1,0,1,0,1","1,0,0,1,1,0,1,0,1","1",""
"","html-keyboard-response","155","79463","0.0-155.0","3HOSI13XH0AZCVJZM3G8J6TDRCYDDD","A3RTW9UWYKSNWX","335VBRURDJMQFRMOFGHOE9WKSHX9E1","","null","<img src=""img/flower4.png"" style=""width:200px; border:14px solid green;"">","null","","","","","","","","",""
"","image-keyboard-response","156","79592","0.0-156.0","3HOSI13XH0AZCVJZM3G8J6TDRCYDDD","A3RTW9UWYKSNWX","335VBRURDJMQFRMOFGHOE9WKSHX9E1","","129","img/flower5.png","74","129","1","1","2","2","1,0,0,1,1,0,1,0,1","1,0,0,1,1,0,1,0,1","1",""
"","html-keyboard-response","157","79903","0.0-157.0","3HOSI13XH0AZCVJZM3G8J6TDRCYDDD","A3RTW9UWYKSNWX","335VBRURDJMQFRMOFGHOE9WKSHX9E1","","null","<img src=""img/flower5.png"" style=""width:200px; border:14px solid green;"">","null","","","","","","","","",""
"","image-keyboard-response","158","80052","0.0-158.0","3HOSI13XH0AZCVJZM3G8J6TDRCYDDD","A3RTW9UWYKSNWX","335VBRURDJMQFRMOFGHOE9WKSHX9E1","","148","img/flower1.png","74","148","1","1","1","2","1,0,0,1,1,0,1,0,1","1,0,0,1,1,0,1,0,1","1",""
"","html-keyboard-response","159","80367","0.0-159.0","3HOSI13XH0AZCVJZM3G8J6TDRCYDDD","A3RTW9UWYKSNWX","335VBRURDJMQFRMOFGHOE9WKSHX9E1","","null","<img src=""img/flower1.png"" style=""width:200px; border:14px solid green;"">","null","","","","","","","","",""
"","image-keyboard-response","160","80478","0.0-160.0","3HOSI13XH0AZCVJZM3G8J6TDRCYDDD","A3RTW9UWYKSNWX","335VBRURDJMQFRMOFGHOE9WKSHX9E1","","111","img/flower1.png","74","111","1","1","1","2","1,0,0,1,1,0,1,0,1","1,0,0,1,1,0,1,0,1","1",""
"","html-keyboard-response","161","80787","0.0-161.0","3HOSI13XH0AZCVJZM3G8J6TDRCYDDD","A3RTW9UWYKSNWX","335VBRURDJMQFRMOFGHOE9WKSHX9E1","","null","<img src=""img/flower1.png"" style=""width:200px; border:14px solid green;"">","null","","","","","","","","",""
"","image-keyboard-response","162","80892","0.0-162.0","3HOSI13XH0AZCVJZM3G8J6TDRCYDDD","A3RTW9UWYKSNWX","335VBRURDJMQFRMOFGHOE9WKSHX9E1","","106","img/flower5.png","74","106","1","1","2","2","1,0,0,1,1,0,1,0,1","1,0,0,1,1,0,1,0,1","1",""
"","html-keyboard-response","163","81204","0.0-163.0","3HOSI13XH0AZCVJZM3G8J6TDRCYDDD","A3RTW9UWYKSNWX","335VBRURDJMQFRMOFGHOE9WKSHX9E1","","null","<img src=""img/flower5.png"" style=""width:200px; border:14px solid green;"">","null","","","","","","","","",""
"","image-keyboard-response","164","81344","0.0-164.0","3HOSI13XH0AZCVJZM3G8J6TDRCYDDD","A3RTW9UWYKSNWX","335VBRURDJMQFRMOFGHOE9WKSHX9E1","","138","img/flower4.png","74","138","1","1","3","2","1,0,0,1,1,0,1,0,1","1,0,0,1,1,0,1,0,1","1",""
"","html-keyboard-response","165","81656","0.0-165.0","3HOSI13XH0AZCVJZM3G8J6TDRCYDDD","A3RTW9UWYKSNWX","335VBRURDJMQFRMOFGHOE9WKSHX9E1","","null","<img src=""img/flower4.png"" style=""width:200px; border:14px solid green;"">","null","","","","","","","","",""
"","image-keyboard-response","166","81801","0.0-166.0","3HOSI13XH0AZCVJZM3G8J6TDRCYDDD","A3RTW9UWYKSNWX","335VBRURDJMQFRMOFGHOE9WKSHX9E1","","144","img/flower4.png","74","144","1","1","3","2","1,0,0,1,1,0,1,0,1","1,0,0,1,1,0,1,0,1","1",""
"","html-keyboard-response","167","82108","0.0-167.0","3HOSI13XH0AZCVJZM3G8J6TDRCYDDD","A3RTW9UWYKSNWX","335VBRURDJMQFRMOFGHOE9WKSHX9E1","","null","<img src=""img/flower4.png"" style=""width:200px; border:14px solid green;"">","null","","","","","","","","",""
"","image-keyboard-response","168","82223","0.0-168.0","3HOSI13XH0AZCVJZM3G8J6TDRCYDDD","A3RTW9UWYKSNWX","335VBRURDJMQFRMOFGHOE9WKSHX9E1","","115","img/flower5.png","74","115","1","1","2","2","1,0,0,1,1,0,1,0,1","1,0,0,1,1,0,1,0,1","1",""
"","html-keyboard-response","169","82529","0.0-169.0","3HOSI13XH0AZCVJZM3G8J6TDRCYDDD","A3RTW9UWYKSNWX","335VBRURDJMQFRMOFGHOE9WKSHX9E1","","null","<img src=""img/flower5.png"" style=""width:200px; border:14px solid green;"">","null","","","","","","","","",""
"","image-keyboard-response","170","82692","0.0-170.0","3HOSI13XH0AZCVJZM3G8J6TDRCYDDD","A3RTW9UWYKSNWX","335VBRURDJMQFRMOFGHOE9WKSHX9E1","","163","img/flower1.png","74","163","1","1","1","2","1,0,0,1,1,0,1,0,1","1,0,0,1,1,0,1,0,1","1",""
"","html-keyboard-response","171","82998","0.0-171.0","3HOSI13XH0AZCVJZM3G8J6TDRCYDDD","A3RTW9UWYKSNWX","335VBRURDJMQFRMOFGHOE9WKSHX9E1","","null","<img src=""img/flower1.png"" style=""width:200px; border:14px solid green;"">","null","","","","","","","","",""
"","image-keyboard-response","172","83166","0.0-172.0","3HOSI13XH0AZCVJZM3G8J6TDRCYDDD","A3RTW9UWYKSNWX","335VBRURDJMQFRMOFGHOE9WKSHX9E1","","169","img/flower4.png","74","169","1","1","3","2","1,0,0,1,1,0,1,0,1","1,0,0,1,1,0,1,0,1","1",""
"","html-keyboard-response","173","83467","0.0-173.0","3HOSI13XH0AZCVJZM3G8J6TDRCYDDD","A3RTW9UWYKSNWX","335VBRURDJMQFRMOFGHOE9WKSHX9E1","","null","<img src=""img/flower4.png"" style=""width:200px; border:14px solid green;"">","null","","","","","","","","",""
"","image-keyboard-response","174","83512","0.0-174.0","3HOSI13XH0AZCVJZM3G8J6TDRCYDDD","A3RTW9UWYKSNWX","335VBRURDJMQFRMOFGHOE9WKSHX9E1","","45","img/flower5.png","74","45","1","1","2","2","1,0,0,1,1,0,1,0,1","1,0,0,1,1,0,1,0,1","1",""
"","html-keyboard-response","175","83816","0.0-175.0","3HOSI13XH0AZCVJZM3G8J6TDRCYDDD","A3RTW9UWYKSNWX","335VBRURDJMQFRMOFGHOE9WKSHX9E1","","null","<img src=""img/flower5.png"" style=""width:200px; border:14px solid green;"">","null","","","","","","","","",""
"","image-keyboard-response","176","84348","0.0-176.0","3HOSI13XH0AZCVJZM3G8J6TDRCYDDD","A3RTW9UWYKSNWX","335VBRURDJMQFRMOFGHOE9WKSHX9E1","","533","img/flower4.png","74","533","1","1","3","2","1,0,0,1,1,0,1,0,1","1,0,0,1,1,0,1,0,1","1",""
"","html-keyboard-response","177","84661","0.0-177.0","3HOSI13XH0AZCVJZM3G8J6TDRCYDDD","A3RTW9UWYKSNWX","335VBRURDJMQFRMOFGHOE9WKSHX9E1","","null","<img src=""img/flower4.png"" style=""width:200px; border:14px solid green;"">","null","","","","","","","","",""
"","image-keyboard-response","178","84944","0.0-178.0","3HOSI13XH0AZCVJZM3G8J6TDRCYDDD","A3RTW9UWYKSNWX","335VBRURDJMQFRMOFGHOE9WKSHX9E1","","283","img/flower4.png","74","284","1","1","3","2","1,0,0,1,1,0,1,0,1","1,0,0,1,1,0,1,0,1","1",""
"","html-keyboard-response","179","85254","0.0-179.0","3HOSI13XH0AZCVJZM3G8J6TDRCYDDD","A3RTW9UWYKSNWX","335VBRURDJMQFRMOFGHOE9WKSHX9E1","","null","<img src=""img/flower4.png"" style=""width:200px; border:14px solid green;"">","null","","","","","","","","",""
"","image-keyboard-response","180","85318","0.0-180.0","3HOSI13XH0AZCVJZM3G8J6TDRCYDDD","A3RTW9UWYKSNWX","335VBRURDJMQFRMOFGHOE9WKSHX9E1","","64","img/flower4.png","74","65","1","1","3","2","1,0,0,1,1,0,1,0,1","1,0,0,1,1,0,1,0,1","1",""
"","html-keyboard-response","181","85626","0.0-181.0","3HOSI13XH0AZCVJZM3G8J6TDRCYDDD","A3RTW9UWYKSNWX","335VBRURDJMQFRMOFGHOE9WKSHX9E1","","null","<img src=""img/flower4.png"" style=""width:200px; border:14px solid green;"">","null","","","","","","","","",""
"","image-keyboard-response","182","85727","0.0-182.0","3HOSI13XH0AZCVJZM3G8J6TDRCYDDD","A3RTW9UWYKSNWX","335VBRURDJMQFRMOFGHOE9WKSHX9E1","","102","img/flower3.png","74","102","1","0","2","1","1,0.333,0.333,0.333,1,0.333,0.333,0.333,1","1,0.333,0.333,0.333,1,0.333,0.333,0.333,1","1",""
"","html-keyboard-response","183","86034","0.0-183.0","3HOSI13XH0AZCVJZM3G8J6TDRCYDDD","A3RTW9UWYKSNWX","335VBRURDJMQFRMOFGHOE9WKSHX9E1","","null","<img src=""img/flower3.png"" style=""width:200px;border:14px solid red;"">","null","","","","","","","","",""
"","image-keyboard-response","184","86440","0.0-184.0","3HOSI13XH0AZCVJZM3G8J6TDRCYDDD","A3RTW9UWYKSNWX","335VBRURDJMQFRMOFGHOE9WKSHX9E1","","404","img/flower6.png","74","404","1","0","3","1","1,0.333,0.333,0.333,1,0.333,0.333,0.333,1","1,0.333,0.333,0.333,1,0.333,0.333,0.333,1","1",""
"","html-keyboard-response","185","86754","0.0-185.0","3HOSI13XH0AZCVJZM3G8J6TDRCYDDD","A3RTW9UWYKSNWX","335VBRURDJMQFRMOFGHOE9WKSHX9E1","","null","<img src=""img/flower6.png"" style=""width:200px;border:14px solid red;"">","null","","","","","","","","",""
"","image-keyboard-response","186","87186","0.0-186.0","3HOSI13XH0AZCVJZM3G8J6TDRCYDDD","A3RTW9UWYKSNWX","335VBRURDJMQFRMOFGHOE9WKSHX9E1","","432","img/flower2.png","74","432","1","1","1","1","1,0.333,0.333,0.333,1,0.333,0.333,0.333,1","1,0.333,0.333,0.333,1,0.333,0.333,0.333,1","1",""
"","html-keyboard-response","187","87493","0.0-187.0","3HOSI13XH0AZCVJZM3G8J6TDRCYDDD","A3RTW9UWYKSNWX","335VBRURDJMQFRMOFGHOE9WKSHX9E1","","null","<img src=""img/flower2.png"" style=""width:200px; border:14px solid green;"">","null","","","","","","","","",""
"","image-keyboard-response","188","87733","0.0-188.0","3HOSI13XH0AZCVJZM3G8J6TDRCYDDD","A3RTW9UWYKSNWX","335VBRURDJMQFRMOFGHOE9WKSHX9E1","","240","img/flower2.png","74","240","1","1","1","1","1,0.333,0.333,0.333,1,0.333,0.333,0.333,1","1,0.333,0.333,0.333,1,0.333,0.333,0.333,1","1",""
"","html-keyboard-response","189","88039","0.0-189.0","3HOSI13XH0AZCVJZM3G8J6TDRCYDDD","A3RTW9UWYKSNWX","335VBRURDJMQFRMOFGHOE9WKSHX9E1","","null","<img src=""img/flower2.png"" style=""width:200px; border:14px solid green;"">","null","","","","","","","","",""
"","image-keyboard-response","190","88353","0.0-190.0","3HOSI13XH0AZCVJZM3G8J6TDRCYDDD","A3RTW9UWYKSNWX","335VBRURDJMQFRMOFGHOE9WKSHX9E1","","315","img/flower2.png","74","315","1","1","1","1","1,0.333,0.333,0.333,1,0.333,0.333,0.333,1","1,0.333,0.333,0.333,1,0.333,0.333,0.333,1","1",""
"","html-keyboard-response","191","88655","0.0-191.0","3HOSI13XH0AZCVJZM3G8J6TDRCYDDD","A3RTW9UWYKSNWX","335VBRURDJMQFRMOFGHOE9WKSHX9E1","","null","<img src=""img/flower2.png"" style=""width:200px; border:14px solid green;"">","null","","","","","","","","",""
"","image-keyboard-response","192","88886","0.0-192.0","3HOSI13XH0AZCVJZM3G8J6TDRCYDDD","A3RTW9UWYKSNWX","335VBRURDJMQFRMOFGHOE9WKSHX9E1","","230","img/flower2.png","74","231","1","1","1","1","1,0.333,0.333,0.333,1,0.333,0.333,0.333,1","1,0.333,0.333,0.333,1,0.333,0.333,0.333,1","1",""
"","html-keyboard-response","193","89201","0.0-193.0","3HOSI13XH0AZCVJZM3G8J6TDRCYDDD","A3RTW9UWYKSNWX","335VBRURDJMQFRMOFGHOE9WKSHX9E1","","null","<img src=""img/flower2.png"" style=""width:200px; border:14px solid green;"">","null","","","","","","","","",""
"","image-keyboard-response","194","89369","0.0-194.0","3HOSI13XH0AZCVJZM3G8J6TDRCYDDD","A3RTW9UWYKSNWX","335VBRURDJMQFRMOFGHOE9WKSHX9E1","","166","img/flower6.png","74","168","1","0","3","1","1,0.333,0.333,0.333,1,0.333,0.333,0.333,1","1,0.333,0.333,0.333,1,0.333,0.333,0.333,1","1",""
"","html-keyboard-response","195","89675","0.0-195.0","3HOSI13XH0AZCVJZM3G8J6TDRCYDDD","A3RTW9UWYKSNWX","335VBRURDJMQFRMOFGHOE9WKSHX9E1","","null","<img src=""img/flower6.png"" style=""width:200px;border:14px solid red;"">","null","","","","","","","","",""
"","image-keyboard-response","196","90029","0.0-196.0","3HOSI13XH0AZCVJZM3G8J6TDRCYDDD","A3RTW9UWYKSNWX","335VBRURDJMQFRMOFGHOE9WKSHX9E1","","353","img/flower2.png","74","353","1","1","1","1","1,0.333,0.333,0.333,1,0.333,0.333,0.333,1","1,0.333,0.333,0.333,1,0.333,0.333,0.333,1","1",""
"","html-keyboard-response","197","90337","0.0-197.0","3HOSI13XH0AZCVJZM3G8J6TDRCYDDD","A3RTW9UWYKSNWX","335VBRURDJMQFRMOFGHOE9WKSHX9E1","","null","<img src=""img/flower2.png"" style=""width:200px; border:14px solid green;"">","null","","","","","","","","",""
"","image-keyboard-response","198","90534","0.0-198.0","3HOSI13XH0AZCVJZM3G8J6TDRCYDDD","A3RTW9UWYKSNWX","335VBRURDJMQFRMOFGHOE9WKSHX9E1","","197","img/flower2.png","74","197","1","1","1","1","1,0.333,0.333,0.333,1,0.333,0.333,0.333,1","1,0.333,0.333,0.333,1,0.333,0.333,0.333,1","1",""
"","html-keyboard-response","199","90842","0.0-199.0","3HOSI13XH0AZCVJZM3G8J6TDRCYDDD","A3RTW9UWYKSNWX","335VBRURDJMQFRMOFGHOE9WKSHX9E1","","null","<img src=""img/flower2.png"" style=""width:200px; border:14px solid green;"">","null","","","","","","","","",""
"","image-keyboard-response","200","91048","0.0-200.0","3HOSI13XH0AZCVJZM3G8J6TDRCYDDD","A3RTW9UWYKSNWX","335VBRURDJMQFRMOFGHOE9WKSHX9E1","","205","img/flower3.png","74","206","1","0","2","1","1,0.333,0.333,0.333,1,0.333,0.333,0.333,1","1,0.333,0.333,0.333,1,0.333,0.333,0.333,1","1",""
"","html-keyboard-response","201","91357","0.0-201.0","3HOSI13XH0AZCVJZM3G8J6TDRCYDDD","A3RTW9UWYKSNWX","335VBRURDJMQFRMOFGHOE9WKSHX9E1","","null","<img src=""img/flower3.png"" style=""width:200px;border:14px solid red;"">","null","","","","","","","","",""
"","image-keyboard-response","202","91784","0.0-202.0","3HOSI13XH0AZCVJZM3G8J6TDRCYDDD","A3RTW9UWYKSNWX","335VBRURDJMQFRMOFGHOE9WKSHX9E1","","427","img/flower6.png","74","427","1","0","3","1","1,0.333,0.333,0.333,1,0.333,0.333,0.333,1","1,0.333,0.333,0.333,1,0.333,0.333,0.333,1","1",""
"","html-keyboard-response","203","92089","0.0-203.0","3HOSI13XH0AZCVJZM3G8J6TDRCYDDD","A3RTW9UWYKSNWX","335VBRURDJMQFRMOFGHOE9WKSHX9E1","","null","<img src=""img/flower6.png"" style=""width:200px;border:14px solid red;"">","null","","","","","","","","",""
"","image-keyboard-response","204","92386","0.0-204.0","3HOSI13XH0AZCVJZM3G8J6TDRCYDDD","A3RTW9UWYKSNWX","335VBRURDJMQFRMOFGHOE9WKSHX9E1","","296","img/flower6.png","75","298","2","1","3","1","1,0.333,0.333,0.333,1,0.333,0.333,0.333,1","1,0.333,0.333,0.333,1,0.333,0.333,0.333,1","1",""
"","html-keyboard-response","205","92700","0.0-205.0","3HOSI13XH0AZCVJZM3G8J6TDRCYDDD","A3RTW9UWYKSNWX","335VBRURDJMQFRMOFGHOE9WKSHX9E1","","null","<img src=""img/flower6.png"" style=""width:200px; border:14px solid green;"">","null","","","","","","","","",""
"","image-keyboard-response","206","93173","0.0-206.0","3HOSI13XH0AZCVJZM3G8J6TDRCYDDD","A3RTW9UWYKSNWX","335VBRURDJMQFRMOFGHOE9WKSHX9E1","","473","img/flower6.png","75","474","2","0","3","1","1,0.333,0.333,0.333,1,0.333,0.333,0.333,1","1,0.333,0.333,0.333,1,0.333,0.333,0.333,1","1",""
"","html-keyboard-response","207","93476","0.0-207.0","3HOSI13XH0AZCVJZM3G8J6TDRCYDDD","A3RTW9UWYKSNWX","335VBRURDJMQFRMOFGHOE9WKSHX9E1","","null","<img src=""img/flower6.png"" style=""width:200px;border:14px solid red;"">","null","","","","","","","","",""
"","image-keyboard-response","208","93756","0.0-208.0","3HOSI13XH0AZCVJZM3G8J6TDRCYDDD","A3RTW9UWYKSNWX","335VBRURDJMQFRMOFGHOE9WKSHX9E1","","279","img/flower3.png","74","279","1","0","2","1","1,0.333,0.333,0.333,1,0.333,0.333,0.333,1","1,0.333,0.333,0.333,1,0.333,0.333,0.333,1","1",""
"","html-keyboard-response","209","94070","0.0-209.0","3HOSI13XH0AZCVJZM3G8J6TDRCYDDD","A3RTW9UWYKSNWX","335VBRURDJMQFRMOFGHOE9WKSHX9E1","","null","<img src=""img/flower3.png"" style=""width:200px;border:14px solid red;"">","null","","","","","","","","",""
"","image-keyboard-response","210","94656","0.0-210.0","3HOSI13XH0AZCVJZM3G8J6TDRCYDDD","A3RTW9UWYKSNWX","335VBRURDJMQFRMOFGHOE9WKSHX9E1","","586","img/flower3.png","76","586","3","0","2","1","1,0.333,0.333,0.333,1,0.333,0.333,0.333,1","1,0.333,0.333,0.333,1,0.333,0.333,0.333,1","1",""
"","html-keyboard-response","211","94961","0.0-211.0","3HOSI13XH0AZCVJZM3G8J6TDRCYDDD","A3RTW9UWYKSNWX","335VBRURDJMQFRMOFGHOE9WKSHX9E1","","null","<img src=""img/flower3.png"" style=""width:200px;border:14px solid red;"">","null","","","","","","","","",""
"","image-keyboard-response","212","95315","0.0-212.0","3HOSI13XH0AZCVJZM3G8J6TDRCYDDD","A3RTW9UWYKSNWX","335VBRURDJMQFRMOFGHOE9WKSHX9E1","","353","img/flower3.png","76","353","3","0","2","1","1,0.333,0.333,0.333,1,0.333,0.333,0.333,1","1,0.333,0.333,0.333,1,0.333,0.333,0.333,1","1",""
"","html-keyboard-response","213","95630","0.0-213.0","3HOSI13XH0AZCVJZM3G8J6TDRCYDDD","A3RTW9UWYKSNWX","335VBRURDJMQFRMOFGHOE9WKSHX9E1","","null","<img src=""img/flower3.png"" style=""width:200px;border:14px solid red;"">","null","","","","","","","","",""
"","image-keyboard-response","214","96217","0.0-214.0","3HOSI13XH0AZCVJZM3G8J6TDRCYDDD","A3RTW9UWYKSNWX","335VBRURDJMQFRMOFGHOE9WKSHX9E1","","585","img/flower2.png","75","586","2","1","1","1","1,0.333,0.333,0.333,1,0.333,0.333,0.333,1","1,0.333,0.333,0.333,1,0.333,0.333,0.333,1","1",""
"","html-keyboard-response","215","96527","0.0-215.0","3HOSI13XH0AZCVJZM3G8J6TDRCYDDD","A3RTW9UWYKSNWX","335VBRURDJMQFRMOFGHOE9WKSHX9E1","","null","<img src=""img/flower2.png"" style=""width:200px; border:14px solid green;"">","null","","","","","","","","",""
"","image-keyboard-response","216","97105","0.0-216.0","3HOSI13XH0AZCVJZM3G8J6TDRCYDDD","A3RTW9UWYKSNWX","335VBRURDJMQFRMOFGHOE9WKSHX9E1","","577","img/flower6.png","75","578","2","0","3","1","1,0.333,0.333,0.333,1,0.333,0.333,0.333,1","1,0.333,0.333,0.333,1,0.333,0.333,0.333,1","1",""
"","html-keyboard-response","217","97407","0.0-217.0","3HOSI13XH0AZCVJZM3G8J6TDRCYDDD","A3RTW9UWYKSNWX","335VBRURDJMQFRMOFGHOE9WKSHX9E1","","null","<img src=""img/flower6.png"" style=""width:200px;border:14px solid red;"">","null","","","","","","","","",""
"","image-keyboard-response","218","97555","0.0-218.0","3HOSI13XH0AZCVJZM3G8J6TDRCYDDD","A3RTW9UWYKSNWX","335VBRURDJMQFRMOFGHOE9WKSHX9E1","","149","img/flower3.png","74","149","1","0","2","1","1,0.333,0.333,0.333,1,0.333,0.333,0.333,1","1,0.333,0.333,0.333,1,0.333,0.333,0.333,1","1",""
"","html-keyboard-response","219","97859","0.0-219.0","3HOSI13XH0AZCVJZM3G8J6TDRCYDDD","A3RTW9UWYKSNWX","335VBRURDJMQFRMOFGHOE9WKSHX9E1","","null","<img src=""img/flower3.png"" style=""width:200px;border:14px solid red;"">","null","","","","","","","","",""
"","image-keyboard-response","220","98274","0.0-220.0","3HOSI13XH0AZCVJZM3G8J6TDRCYDDD","A3RTW9UWYKSNWX","335VBRURDJMQFRMOFGHOE9WKSHX9E1","","415","img/flower3.png","75","415","2","1","2","1","1,0.333,0.333,0.333,1,0.333,0.333,0.333,1","1,0.333,0.333,0.333,1,0.333,0.333,0.333,1","1",""
"","html-keyboard-response","221","98588","0.0-221.0","3HOSI13XH0AZCVJZM3G8J6TDRCYDDD","A3RTW9UWYKSNWX","335VBRURDJMQFRMOFGHOE9WKSHX9E1","","null","<img src=""img/flower3.png"" style=""width:200px; border:14px solid green;"">","null","","","","","","","","",""
"","image-keyboard-response","222","99154","0.0-222.0","3HOSI13XH0AZCVJZM3G8J6TDRCYDDD","A3RTW9UWYKSNWX","335VBRURDJMQFRMOFGHOE9WKSHX9E1","","565","img/flower6.png","75","565","2","0","3","1","1,0.333,0.333,0.333,1,0.333,0.333,0.333,1","1,0.333,0.333,0.333,1,0.333,0.333,0.333,1","1",""
"","html-keyboard-response","223","99467","0.0-223.0","3HOSI13XH0AZCVJZM3G8J6TDRCYDDD","A3RTW9UWYKSNWX","335VBRURDJMQFRMOFGHOE9WKSHX9E1","","null","<img src=""img/flower6.png"" style=""width:200px;border:14px solid red;"">","null","","","","","","","","",""
"","image-keyboard-response","224","99567","0.0-224.0","3HOSI13XH0AZCVJZM3G8J6TDRCYDDD","A3RTW9UWYKSNWX","335VBRURDJMQFRMOFGHOE9WKSHX9E1","","99","img/flower3.png","76","99","3","0","2","1","1,0.333,0.333,0.333,1,0.333,0.333,0.333,1","1,0.333,0.333,0.333,1,0.333,0.333,0.333,1","1",""
"","html-keyboard-response","225","99872","0.0-225.0","3HOSI13XH0AZCVJZM3G8J6TDRCYDDD","A3RTW9UWYKSNWX","335VBRURDJMQFRMOFGHOE9WKSHX9E1","","null","<img src=""img/flower3.png"" style=""width:200px;border:14px solid red;"">","null","","","","","","","","",""
"","image-keyboard-response","226","100124","0.0-226.0","3HOSI13XH0AZCVJZM3G8J6TDRCYDDD","A3RTW9UWYKSNWX","335VBRURDJMQFRMOFGHOE9WKSHX9E1","","251","img/flower6.png","74","251","1","0","3","1","1,0.333,0.333,0.333,1,0.333,0.333,0.333,1","1,0.333,0.333,0.333,1,0.333,0.333,0.333,1","1",""
"","html-keyboard-response","227","100437","0.0-227.0","3HOSI13XH0AZCVJZM3G8J6TDRCYDDD","A3RTW9UWYKSNWX","335VBRURDJMQFRMOFGHOE9WKSHX9E1","","null","<img src=""img/flower6.png"" style=""width:200px;border:14px solid red;"">","null","","","","","","","","",""
"","image-keyboard-response","228","100683","0.0-228.0","3HOSI13XH0AZCVJZM3G8J6TDRCYDDD","A3RTW9UWYKSNWX","335VBRURDJMQFRMOFGHOE9WKSHX9E1","","246","img/flower6.png","75","246","2","0","3","1","1,0.333,0.333,0.333,1,0.333,0.333,0.333,1","1,0.333,0.333,0.333,1,0.333,0.333,0.333,1","1",""
"","html-keyboard-response","229","100998","0.0-229.0","3HOSI13XH0AZCVJZM3G8J6TDRCYDDD","A3RTW9UWYKSNWX","335VBRURDJMQFRMOFGHOE9WKSHX9E1","","null","<img src=""img/flower6.png"" style=""width:200px;border:14px solid red;"">","null","","","","","","","","",""
"","image-keyboard-response","230","101256","0.0-230.0","3HOSI13XH0AZCVJZM3G8J6TDRCYDDD","A3RTW9UWYKSNWX","335VBRURDJMQFRMOFGHOE9WKSHX9E1","","258","img/flower6.png","75","258","2","0","3","1","1,0.333,0.333,0.333,1,0.333,0.333,0.333,1","1,0.333,0.333,0.333,1,0.333,0.333,0.333,1","1",""
"","html-keyboard-response","231","101564","0.0-231.0","3HOSI13XH0AZCVJZM3G8J6TDRCYDDD","A3RTW9UWYKSNWX","335VBRURDJMQFRMOFGHOE9WKSHX9E1","","null","<img src=""img/flower6.png"" style=""width:200px;border:14px solid red;"">","null","","","","","","","","",""
"","image-keyboard-response","232","101830","0.0-232.0","3HOSI13XH0AZCVJZM3G8J6TDRCYDDD","A3RTW9UWYKSNWX","335VBRURDJMQFRMOFGHOE9WKSHX9E1","","265","img/flower6.png","75","266","2","1","3","1","1,0.333,0.333,0.333,1,0.333,0.333,0.333,1","1,0.333,0.333,0.333,1,0.333,0.333,0.333,1","1",""
"","html-keyboard-response","233","102142","0.0-233.0","3HOSI13XH0AZCVJZM3G8J6TDRCYDDD","A3RTW9UWYKSNWX","335VBRURDJMQFRMOFGHOE9WKSHX9E1","","null","<img src=""img/flower6.png"" style=""width:200px; border:14px solid green;"">","null","","","","","","","","",""
"","image-keyboard-response","234","102375","0.0-234.0","3HOSI13XH0AZCVJZM3G8J6TDRCYDDD","A3RTW9UWYKSNWX","335VBRURDJMQFRMOFGHOE9WKSHX9E1","","233","img/flower3.png","75","233","2","1","2","1","1,0.333,0.333,0.333,1,0.333,0.333,0.333,1","1,0.333,0.333,0.333,1,0.333,0.333,0.333,1","1",""
"","html-keyboard-response","235","102678","0.0-235.0","3HOSI13XH0AZCVJZM3G8J6TDRCYDDD","A3RTW9UWYKSNWX","335VBRURDJMQFRMOFGHOE9WKSHX9E1","","null","<img src=""img/flower3.png"" style=""width:200px; border:14px solid green;"">","null","","","","","","","","",""
"","image-keyboard-response","236","103067","0.0-236.0","3HOSI13XH0AZCVJZM3G8J6TDRCYDDD","A3RTW9UWYKSNWX","335VBRURDJMQFRMOFGHOE9WKSHX9E1","","389","img/flower3.png","75","389","2","1","2","1","1,0.333,0.333,0.333,1,0.333,0.333,0.333,1","1,0.333,0.333,0.333,1,0.333,0.333,0.333,1","1",""
"","html-keyboard-response","237","103370","0.0-237.0","3HOSI13XH0AZCVJZM3G8J6TDRCYDDD","A3RTW9UWYKSNWX","335VBRURDJMQFRMOFGHOE9WKSHX9E1","","null","<img src=""img/flower3.png"" style=""width:200px; border:14px solid green;"">","null","","","","","","","","",""
"","image-keyboard-response","238","103575","0.0-238.0","3HOSI13XH0AZCVJZM3G8J6TDRCYDDD","A3RTW9UWYKSNWX","335VBRURDJMQFRMOFGHOE9WKSHX9E1","","205","img/flower2.png","75","205","2","0","1","1","1,0.333,0.333,0.333,1,0.333,0.333,0.333,1","1,0.333,0.333,0.333,1,0.333,0.333,0.333,1","1",""
"","html-keyboard-response","239","103879","0.0-239.0","3HOSI13XH0AZCVJZM3G8J6TDRCYDDD","A3RTW9UWYKSNWX","335VBRURDJMQFRMOFGHOE9WKSHX9E1","","null","<img src=""img/flower2.png"" style=""width:200px;border:14px solid red;"">","null","","","","","","","","",""
"","image-keyboard-response","240","104157","0.0-240.0","3HOSI13XH0AZCVJZM3G8J6TDRCYDDD","A3RTW9UWYKSNWX","335VBRURDJMQFRMOFGHOE9WKSHX9E1","","279","img/flower2.png","75","279","2","1","1","1","1,0.333,0.333,0.333,1,0.333,0.333,0.333,1","1,0.333,0.333,0.333,1,0.333,0.333,0.333,1","1",""
"","html-keyboard-response","241","104458","0.0-241.0","3HOSI13XH0AZCVJZM3G8J6TDRCYDDD","A3RTW9UWYKSNWX","335VBRURDJMQFRMOFGHOE9WKSHX9E1","","null","<img src=""img/flower2.png"" style=""width:200px; border:14px solid green;"">","null","","","","","","","","",""
"","image-keyboard-response","242","104682","0.0-242.0","3HOSI13XH0AZCVJZM3G8J6TDRCYDDD","A3RTW9UWYKSNWX","335VBRURDJMQFRMOFGHOE9WKSHX9E1","","223","img/flower2.png","75","224","2","1","1","1","1,0.333,0.333,0.333,1,0.333,0.333,0.333,1","1,0.333,0.333,0.333,1,0.333,0.333,0.333,1","1",""
"","html-keyboard-response","243","104991","0.0-243.0","3HOSI13XH0AZCVJZM3G8J6TDRCYDDD","A3RTW9UWYKSNWX","335VBRURDJMQFRMOFGHOE9WKSHX9E1","","null","<img src=""img/flower2.png"" style=""width:200px; border:14px solid green;"">","null","","","","","","","","",""
"","image-keyboard-response","244","105058","0.0-244.0","3HOSI13XH0AZCVJZM3G8J6TDRCYDDD","A3RTW9UWYKSNWX","335VBRURDJMQFRMOFGHOE9WKSHX9E1","","68","img/flower2.png","75","68","2","0","1","1","1,0.333,0.333,0.333,1,0.333,0.333,0.333,1","1,0.333,0.333,0.333,1,0.333,0.333,0.333,1","1",""
"","html-keyboard-response","245","105370","0.0-245.0","3HOSI13XH0AZCVJZM3G8J6TDRCYDDD","A3RTW9UWYKSNWX","335VBRURDJMQFRMOFGHOE9WKSHX9E1","","null","<img src=""img/flower2.png"" style=""width:200px;border:14px solid red;"">","null","","","","","","","","",""
"","image-keyboard-response","246","105621","0.0-246.0","3HOSI13XH0AZCVJZM3G8J6TDRCYDDD","A3RTW9UWYKSNWX","335VBRURDJMQFRMOFGHOE9WKSHX9E1","","249","img/flower2.png","75","249","2","0","1","1","1,0.333,0.333,0.333,1,0.333,0.333,0.333,1","1,0.333,0.333,0.333,1,0.333,0.333,0.333,1","1",""
"","html-keyboard-response","247","105928","0.0-247.0","3HOSI13XH0AZCVJZM3G8J6TDRCYDDD","A3RTW9UWYKSNWX","335VBRURDJMQFRMOFGHOE9WKSHX9E1","","null","<img src=""img/flower2.png"" style=""width:200px;border:14px solid red;"">","null","","","","","","","","",""
"","image-keyboard-response","248","106058","0.0-248.0","3HOSI13XH0AZCVJZM3G8J6TDRCYDDD","A3RTW9UWYKSNWX","335VBRURDJMQFRMOFGHOE9WKSHX9E1","","131","img/flower6.png","75","131","2","0","3","1","1,0.333,0.333,0.333,1,0.333,0.333,0.333,1","1,0.333,0.333,0.333,1,0.333,0.333,0.333,1","1",""
"","html-keyboard-response","249","106368","0.0-249.0","3HOSI13XH0AZCVJZM3G8J6TDRCYDDD","A3RTW9UWYKSNWX","335VBRURDJMQFRMOFGHOE9WKSHX9E1","","null","<img src=""img/flower6.png"" style=""width:200px;border:14px solid red;"">","null","","","","","","","","",""
"","image-keyboard-response","250","106680","0.0-250.0","3HOSI13XH0AZCVJZM3G8J6TDRCYDDD","A3RTW9UWYKSNWX","335VBRURDJMQFRMOFGHOE9WKSHX9E1","","312","img/flower2.png","75","312","2","0","1","1","1,0.333,0.333,0.333,1,0.333,0.333,0.333,1","1,0.333,0.333,0.333,1,0.333,0.333,0.333,1","1",""
"","html-keyboard-response","251","106989","0.0-251.0","3HOSI13XH0AZCVJZM3G8J6TDRCYDDD","A3RTW9UWYKSNWX","335VBRURDJMQFRMOFGHOE9WKSHX9E1","","null","<img src=""img/flower2.png"" style=""width:200px;border:14px solid red;"">","null","","","","","","","","",""
"","image-keyboard-response","252","107304","0.0-252.0","3HOSI13XH0AZCVJZM3G8J6TDRCYDDD","A3RTW9UWYKSNWX","335VBRURDJMQFRMOFGHOE9WKSHX9E1","","314","img/flower2.png","75","314","2","1","1","1","1,0.333,0.333,0.333,1,0.333,0.333,0.333,1","1,0.333,0.333,0.333,1,0.333,0.333,0.333,1","1",""
"","html-keyboard-response","253","107616","0.0-253.0","3HOSI13XH0AZCVJZM3G8J6TDRCYDDD","A3RTW9UWYKSNWX","335VBRURDJMQFRMOFGHOE9WKSHX9E1","","null","<img src=""img/flower2.png"" style=""width:200px; border:14px solid green;"">","null","","","","","","","","",""
"","image-keyboard-response","254","108070","0.0-254.0","3HOSI13XH0AZCVJZM3G8J6TDRCYDDD","A3RTW9UWYKSNWX","335VBRURDJMQFRMOFGHOE9WKSHX9E1","","454","img/flower3.png","76","455","3","1","2","1","1,0.333,0.333,0.333,1,0.333,0.333,0.333,1","1,0.333,0.333,0.333,1,0.333,0.333,0.333,1","1",""
"","html-keyboard-response","255","108385","0.0-255.0","3HOSI13XH0AZCVJZM3G8J6TDRCYDDD","A3RTW9UWYKSNWX","335VBRURDJMQFRMOFGHOE9WKSHX9E1","","null","<img src=""img/flower3.png"" style=""width:200px; border:14px solid green;"">","null","","","","","","","","",""
"","image-keyboard-response","256","108998","0.0-256.0","3HOSI13XH0AZCVJZM3G8J6TDRCYDDD","A3RTW9UWYKSNWX","335VBRURDJMQFRMOFGHOE9WKSHX9E1","","612","img/flower3.png","76","613","3","0","2","1","1,0.333,0.333,0.333,1,0.333,0.333,0.333,1","1,0.333,0.333,0.333,1,0.333,0.333,0.333,1","1",""
"","html-keyboard-response","257","109306","0.0-257.0","3HOSI13XH0AZCVJZM3G8J6TDRCYDDD","A3RTW9UWYKSNWX","335VBRURDJMQFRMOFGHOE9WKSHX9E1","","null","<img src=""img/flower3.png"" style=""width:200px;border:14px solid red;"">","null","","","","","","","","",""
"","image-keyboard-response","258","109587","0.0-258.0","3HOSI13XH0AZCVJZM3G8J6TDRCYDDD","A3RTW9UWYKSNWX","335VBRURDJMQFRMOFGHOE9WKSHX9E1","","280","img/flower6.png","76","280","3","1","3","1","1,0.333,0.333,0.333,1,0.333,0.333,0.333,1","1,0.333,0.333,0.333,1,0.333,0.333,0.333,1","1",""
"","html-keyboard-response","259","109903","0.0-259.0","3HOSI13XH0AZCVJZM3G8J6TDRCYDDD","A3RTW9UWYKSNWX","335VBRURDJMQFRMOFGHOE9WKSHX9E1","","null","<img src=""img/flower6.png"" style=""width:200px; border:14px solid green;"">","null","","","","","","","","",""
"","image-keyboard-response","260","110128","0.0-260.0","3HOSI13XH0AZCVJZM3G8J6TDRCYDDD","A3RTW9UWYKSNWX","335VBRURDJMQFRMOFGHOE9WKSHX9E1","","225","img/flower2.png","76","225","3","0","1","1","1,0.333,0.333,0.333,1,0.333,0.333,0.333,1","1,0.333,0.333,0.333,1,0.333,0.333,0.333,1","1",""
"","html-keyboard-response","261","110439","0.0-261.0","3HOSI13XH0AZCVJZM3G8J6TDRCYDDD","A3RTW9UWYKSNWX","335VBRURDJMQFRMOFGHOE9WKSHX9E1","","null","<img src=""img/flower2.png"" style=""width:200px;border:14px solid red;"">","null","","","","","","","","",""
"","image-keyboard-response","262","110700","0.0-262.0","3HOSI13XH0AZCVJZM3G8J6TDRCYDDD","A3RTW9UWYKSNWX","335VBRURDJMQFRMOFGHOE9WKSHX9E1","","259","img/flower2.png","76","260","3","0","1","1","1,0.333,0.333,0.333,1,0.333,0.333,0.333,1","1,0.333,0.333,0.333,1,0.333,0.333,0.333,1","1",""
"","html-keyboard-response","263","111013","0.0-263.0","3HOSI13XH0AZCVJZM3G8J6TDRCYDDD","A3RTW9UWYKSNWX","335VBRURDJMQFRMOFGHOE9WKSHX9E1","","null","<img src=""img/flower2.png"" style=""width:200px;border:14px solid red;"">","null","","","","","","","","",""
"","image-keyboard-response","264","111652","0.0-264.0","3HOSI13XH0AZCVJZM3G8J6TDRCYDDD","A3RTW9UWYKSNWX","335VBRURDJMQFRMOFGHOE9WKSHX9E1","","640","img/flower6.png","76","640","3","1","3","1","1,0.333,0.333,0.333,1,0.333,0.333,0.333,1","1,0.333,0.333,0.333,1,0.333,0.333,0.333,1","1",""
"","html-keyboard-response","265","111964","0.0-265.0","3HOSI13XH0AZCVJZM3G8J6TDRCYDDD","A3RTW9UWYKSNWX","335VBRURDJMQFRMOFGHOE9WKSHX9E1","","null","<img src=""img/flower6.png"" style=""width:200px; border:14px solid green;"">","null","","","","","","","","",""
"","image-keyboard-response","266","112380","0.0-266.0","3HOSI13XH0AZCVJZM3G8J6TDRCYDDD","A3RTW9UWYKSNWX","335VBRURDJMQFRMOFGHOE9WKSHX9E1","","416","img/flower2.png","76","416","3","1","1","1","1,0.333,0.333,0.333,1,0.333,0.333,0.333,1","1,0.333,0.333,0.333,1,0.333,0.333,0.333,1","1",""
"","html-keyboard-response","267","112687","0.0-267.0","3HOSI13XH0AZCVJZM3G8J6TDRCYDDD","A3RTW9UWYKSNWX","335VBRURDJMQFRMOFGHOE9WKSHX9E1","","null","<img src=""img/flower2.png"" style=""width:200px; border:14px solid green;"">","null","","","","","","","","",""
"","image-keyboard-response","268","113218","0.0-268.0","3HOSI13XH0AZCVJZM3G8J6TDRCYDDD","A3RTW9UWYKSNWX","335VBRURDJMQFRMOFGHOE9WKSHX9E1","","530","img/flower2.png","76","531","3","0","1","1","1,0.333,0.333,0.333,1,0.333,0.333,0.333,1","1,0.333,0.333,0.333,1,0.333,0.333,0.333,1","1",""
"","html-keyboard-response","269","113533","0.0-269.0","3HOSI13XH0AZCVJZM3G8J6TDRCYDDD","A3RTW9UWYKSNWX","335VBRURDJMQFRMOFGHOE9WKSHX9E1","","null","<img src=""img/flower2.png"" style=""width:200px;border:14px solid red;"">","null","","","","","","","","",""
"","image-keyboard-response","270","114189","0.0-270.0","3HOSI13XH0AZCVJZM3G8J6TDRCYDDD","A3RTW9UWYKSNWX","335VBRURDJMQFRMOFGHOE9WKSHX9E1","","656","img/flower6.png","75","657","2","0","3","1","1,0.333,0.333,0.333,1,0.333,0.333,0.333,1","1,0.333,0.333,0.333,1,0.333,0.333,0.333,1","1",""
"","html-keyboard-response","271","114500","0.0-271.0","3HOSI13XH0AZCVJZM3G8J6TDRCYDDD","A3RTW9UWYKSNWX","335VBRURDJMQFRMOFGHOE9WKSHX9E1","","null","<img src=""img/flower6.png"" style=""width:200px;border:14px solid red;"">","null","","","","","","","","",""
"","image-keyboard-response","272","114856","0.0-272.0","3HOSI13XH0AZCVJZM3G8J6TDRCYDDD","A3RTW9UWYKSNWX","335VBRURDJMQFRMOFGHOE9WKSHX9E1","","356","img/flower3.png","74","356","1","0","2","1","1,0.333,0.333,0.333,1,0.333,0.333,0.333,1","1,0.333,0.333,0.333,1,0.333,0.333,0.333,1","1",""
"","html-keyboard-response","273","115158","0.0-273.0","3HOSI13XH0AZCVJZM3G8J6TDRCYDDD","A3RTW9UWYKSNWX","335VBRURDJMQFRMOFGHOE9WKSHX9E1","","null","<img src=""img/flower3.png"" style=""width:200px;border:14px solid red;"">","null","","","","","","","","",""
"","image-keyboard-response","274","115614","0.0-274.0","3HOSI13XH0AZCVJZM3G8J6TDRCYDDD","A3RTW9UWYKSNWX","335VBRURDJMQFRMOFGHOE9WKSHX9E1","","456","img/flower3.png","74","456","1","0","2","1","1,0.333,0.333,0.333,1,0.333,0.333,0.333,1","1,0.333,0.333,0.333,1,0.333,0.333,0.333,1","1",""
"","html-keyboard-response","275","115923","0.0-275.0","3HOSI13XH0AZCVJZM3G8J6TDRCYDDD","A3RTW9UWYKSNWX","335VBRURDJMQFRMOFGHOE9WKSHX9E1","","null","<img src=""img/flower3.png"" style=""width:200px;border:14px solid red;"">","null","","","","","","","","",""
"","image-keyboard-response","276","116265","0.0-276.0","3HOSI13XH0AZCVJZM3G8J6TDRCYDDD","A3RTW9UWYKSNWX","335VBRURDJMQFRMOFGHOE9WKSHX9E1","","341","img/flower2.png","74","341","1","1","1","1","1,0.333,0.333,0.333,1,0.333,0.333,0.333,1","1,0.333,0.333,0.333,1,0.333,0.333,0.333,1","1",""
"","html-keyboard-response","277","116579","0.0-277.0","3HOSI13XH0AZCVJZM3G8J6TDRCYDDD","A3RTW9UWYKSNWX","335VBRURDJMQFRMOFGHOE9WKSHX9E1","","null","<img src=""img/flower2.png"" style=""width:200px; border:14px solid green;"">","null","","","","","","","","",""
"","image-keyboard-response","278","116873","0.0-278.0","3HOSI13XH0AZCVJZM3G8J6TDRCYDDD","A3RTW9UWYKSNWX","335VBRURDJMQFRMOFGHOE9WKSHX9E1","","294","img/flower6.png","74","294","1","0","3","1","1,0.333,0.333,0.333,1,0.333,0.333,0.333,1","1,0.333,0.333,0.333,1,0.333,0.333,0.333,1","1",""
"","html-keyboard-response","279","117174","0.0-279.0","3HOSI13XH0AZCVJZM3G8J6TDRCYDDD","A3RTW9UWYKSNWX","335VBRURDJMQFRMOFGHOE9WKSHX9E1","","null","<img src=""img/flower6.png"" style=""width:200px;border:14px solid red;"">","null","","","","","","","","",""
"","image-keyboard-response","280","117433","0.0-280.0","3HOSI13XH0AZCVJZM3G8J6TDRCYDDD","A3RTW9UWYKSNWX","335VBRURDJMQFRMOFGHOE9WKSHX9E1","","258","img/flower6.png","74","259","1","1","3","1","1,0.333,0.333,0.333,1,0.333,0.333,0.333,1","1,0.333,0.333,0.333,1,0.333,0.333,0.333,1","1",""
"","html-keyboard-response","281","117737","0.0-281.0","3HOSI13XH0AZCVJZM3G8J6TDRCYDDD","A3RTW9UWYKSNWX","335VBRURDJMQFRMOFGHOE9WKSHX9E1","","null","<img src=""img/flower6.png"" style=""width:200px; border:14px solid green;"">","null","","","","","","","","",""
"","image-keyboard-response","282","117946","0.0-282.0","3HOSI13XH0AZCVJZM3G8J6TDRCYDDD","A3RTW9UWYKSNWX","335VBRURDJMQFRMOFGHOE9WKSHX9E1","","209","img/flower6.png","74","210","1","1","3","1","1,0.333,0.333,0.333,1,0.333,0.333,0.333,1","1,0.333,0.333,0.333,1,0.333,0.333,0.333,1","1",""
"","html-keyboard-response","283","118251","0.0-283.0","3HOSI13XH0AZCVJZM3G8J6TDRCYDDD","A3RTW9UWYKSNWX","335VBRURDJMQFRMOFGHOE9WKSHX9E1","","null","<img src=""img/flower6.png"" style=""width:200px; border:14px solid green;"">","null","","","","","","","","",""
"","image-keyboard-response","284","118358","0.0-284.0","3HOSI13XH0AZCVJZM3G8J6TDRCYDDD","A3RTW9UWYKSNWX","335VBRURDJMQFRMOFGHOE9WKSHX9E1","","105","img/flower2.png","74","105","1","1","1","1","1,0.333,0.333,0.333,1,0.333,0.333,0.333,1","1,0.333,0.333,0.333,1,0.333,0.333,0.333,1","1",""
"","html-keyboard-response","285","118658","0.0-285.0","3HOSI13XH0AZCVJZM3G8J6TDRCYDDD","A3RTW9UWYKSNWX","335VBRURDJMQFRMOFGHOE9WKSHX9E1","","null","<img src=""img/flower2.png"" style=""width:200px; border:14px solid green;"">","null","","","","","","","","",""
"","image-keyboard-response","286","118848","0.0-286.0","3HOSI13XH0AZCVJZM3G8J6TDRCYDDD","A3RTW9UWYKSNWX","335VBRURDJMQFRMOFGHOE9WKSHX9E1","","189","img/flower6.png","74","189","1","0","3","1","1,0.333,0.333,0.333,1,0.333,0.333,0.333,1","1,0.333,0.333,0.333,1,0.333,0.333,0.333,1","1",""
"","html-keyboard-response","287","119154","0.0-287.0","3HOSI13XH0AZCVJZM3G8J6TDRCYDDD","A3RTW9UWYKSNWX","335VBRURDJMQFRMOFGHOE9WKSHX9E1","","null","<img src=""img/flower6.png"" style=""width:200px;border:14px solid red;"">","null","","","","","","","","",""
"","image-keyboard-response","288","119476","0.0-288.0","3HOSI13XH0AZCVJZM3G8J6TDRCYDDD","A3RTW9UWYKSNWX","335VBRURDJMQFRMOFGHOE9WKSHX9E1","","320","img/flower3.png","74","321","1","0","2","1","1,0.333,0.333,0.333,1,0.333,0.333,0.333,1","1,0.333,0.333,0.333,1,0.333,0.333,0.333,1","1",""
"","html-keyboard-response","289","119778","0.0-289.0","3HOSI13XH0AZCVJZM3G8J6TDRCYDDD","A3RTW9UWYKSNWX","335VBRURDJMQFRMOFGHOE9WKSHX9E1","","null","<img src=""img/flower3.png"" style=""width:200px;border:14px solid red;"">","null","","","","","","","","",""
"","image-keyboard-response","290","119928","0.0-290.0","3HOSI13XH0AZCVJZM3G8J6TDRCYDDD","A3RTW9UWYKSNWX","335VBRURDJMQFRMOFGHOE9WKSHX9E1","","150","img/flower6.png","74","150","1","0","3","1","1,0.333,0.333,0.333,1,0.333,0.333,0.333,1","1,0.333,0.333,0.333,1,0.333,0.333,0.333,1","1",""
"","html-keyboard-response","291","120233","0.0-291.0","3HOSI13XH0AZCVJZM3G8J6TDRCYDDD","A3RTW9UWYKSNWX","335VBRURDJMQFRMOFGHOE9WKSHX9E1","","null","<img src=""img/flower6.png"" style=""width:200px;border:14px solid red;"">","null","","","","","","","","",""
"","image-keyboard-response","292","120438","0.0-292.0","3HOSI13XH0AZCVJZM3G8J6TDRCYDDD","A3RTW9UWYKSNWX","335VBRURDJMQFRMOFGHOE9WKSHX9E1","","205","img/flower3.png","74","205","1","0","2","1","1,0.333,0.333,0.333,1,0.333,0.333,0.333,1","1,0.333,0.333,0.333,1,0.333,0.333,0.333,1","1",""
"","html-keyboard-response","293","120749","0.0-293.0","3HOSI13XH0AZCVJZM3G8J6TDRCYDDD","A3RTW9UWYKSNWX","335VBRURDJMQFRMOFGHOE9WKSHX9E1","","null","<img src=""img/flower3.png"" style=""width:200px;border:14px solid red;"">","null","","","","","","","","",""
"","image-keyboard-response","294","120927","0.0-294.0","3HOSI13XH0AZCVJZM3G8J6TDRCYDDD","A3RTW9UWYKSNWX","335VBRURDJMQFRMOFGHOE9WKSHX9E1","","177","img/flower3.png","74","178","1","0","2","1","1,0.333,0.333,0.333,1,0.333,0.333,0.333,1","1,0.333,0.333,0.333,1,0.333,0.333,0.333,1","1",""
"","html-keyboard-response","295","121236","0.0-295.0","3HOSI13XH0AZCVJZM3G8J6TDRCYDDD","A3RTW9UWYKSNWX","335VBRURDJMQFRMOFGHOE9WKSHX9E1","","null","<img src=""img/flower3.png"" style=""width:200px;border:14px solid red;"">","null","","","","","","","","",""
"","image-keyboard-response","296","121388","0.0-296.0","3HOSI13XH0AZCVJZM3G8J6TDRCYDDD","A3RTW9UWYKSNWX","335VBRURDJMQFRMOFGHOE9WKSHX9E1","","153","img/flower6.png","74","153","1","0","3","1","1,0.333,0.333,0.333,1,0.333,0.333,0.333,1","1,0.333,0.333,0.333,1,0.333,0.333,0.333,1","1",""
"","html-keyboard-response","297","121690","0.0-297.0","3HOSI13XH0AZCVJZM3G8J6TDRCYDDD","A3RTW9UWYKSNWX","335VBRURDJMQFRMOFGHOE9WKSHX9E1","","null","<img src=""img/flower6.png"" style=""width:200px;border:14px solid red;"">","null","","","","","","","","",""
"","image-keyboard-response","298","122018","0.0-298.0","3HOSI13XH0AZCVJZM3G8J6TDRCYDDD","A3RTW9UWYKSNWX","335VBRURDJMQFRMOFGHOE9WKSHX9E1","","328","img/flower6.png","75","328","2","1","3","1","1,0.333,0.333,0.333,1,0.333,0.333,0.333,1","1,0.333,0.333,0.333,1,0.333,0.333,0.333,1","1",""
"","html-keyboard-response","299","122326","0.0-299.0","3HOSI13XH0AZCVJZM3G8J6TDRCYDDD","A3RTW9UWYKSNWX","335VBRURDJMQFRMOFGHOE9WKSHX9E1","","null","<img src=""img/flower6.png"" style=""width:200px; border:14px solid green;"">","null","","","","","","","","",""
"","image-keyboard-response","300","122588","0.0-300.0","3HOSI13XH0AZCVJZM3G8J6TDRCYDDD","A3RTW9UWYKSNWX","335VBRURDJMQFRMOFGHOE9WKSHX9E1","","262","img/flower3.png","75","262","2","1","2","1","1,0.333,0.333,0.333,1,0.333,0.333,0.333,1","1,0.333,0.333,0.333,1,0.333,0.333,0.333,1","1",""
"","html-keyboard-response","301","122891","0.0-301.0","3HOSI13XH0AZCVJZM3G8J6TDRCYDDD","A3RTW9UWYKSNWX","335VBRURDJMQFRMOFGHOE9WKSHX9E1","","null","<img src=""img/flower3.png"" style=""width:200px; border:14px solid green;"">","null","","","","","","","","",""
"","image-keyboard-response","302","123306","0.0-302.0","3HOSI13XH0AZCVJZM3G8J6TDRCYDDD","A3RTW9UWYKSNWX","335VBRURDJMQFRMOFGHOE9WKSHX9E1","","413","img/flower3.png","75","415","2","1","2","1","1,0.333,0.333,0.333,1,0.333,0.333,0.333,1","1,0.333,0.333,0.333,1,0.333,0.333,0.333,1","1",""
"","html-keyboard-response","303","123614","0.0-303.0","3HOSI13XH0AZCVJZM3G8J6TDRCYDDD","A3RTW9UWYKSNWX","335VBRURDJMQFRMOFGHOE9WKSHX9E1","","null","<img src=""img/flower3.png"" style=""width:200px; border:14px solid green;"">","null","","","","","","","","",""
"","image-keyboard-response","304","123909","0.0-304.0","3HOSI13XH0AZCVJZM3G8J6TDRCYDDD","A3RTW9UWYKSNWX","335VBRURDJMQFRMOFGHOE9WKSHX9E1","","295","img/flower2.png","75","295","2","1","1","1","1,0.333,0.333,0.333,1,0.333,0.333,0.333,1","1,0.333,0.333,0.333,1,0.333,0.333,0.333,1","1",""
"","html-keyboard-response","305","124223","0.0-305.0","3HOSI13XH0AZCVJZM3G8J6TDRCYDDD","A3RTW9UWYKSNWX","335VBRURDJMQFRMOFGHOE9WKSHX9E1","","null","<img src=""img/flower2.png"" style=""width:200px; border:14px solid green;"">","null","","","","","","","","",""
"","image-keyboard-response","306","124449","0.0-306.0","3HOSI13XH0AZCVJZM3G8J6TDRCYDDD","A3RTW9UWYKSNWX","335VBRURDJMQFRMOFGHOE9WKSHX9E1","","226","img/flower3.png","75","226","2","1","2","1","1,0.333,0.333,0.333,1,0.333,0.333,0.333,1","1,0.333,0.333,0.333,1,0.333,0.333,0.333,1","1",""
"","html-keyboard-response","307","124752","0.0-307.0","3HOSI13XH0AZCVJZM3G8J6TDRCYDDD","A3RTW9UWYKSNWX","335VBRURDJMQFRMOFGHOE9WKSHX9E1","","null","<img src=""img/flower3.png"" style=""width:200px; border:14px solid green;"">","null","","","","","","","","",""
"","image-keyboard-response","308","124983","0.0-308.0","3HOSI13XH0AZCVJZM3G8J6TDRCYDDD","A3RTW9UWYKSNWX","335VBRURDJMQFRMOFGHOE9WKSHX9E1","","230","img/flower6.png","75","230","2","1","3","1","1,0.333,0.333,0.333,1,0.333,0.333,0.333,1","1,0.333,0.333,0.333,1,0.333,0.333,0.333,1","1",""
"","html-keyboard-response","309","125298","0.0-309.0","3HOSI13XH0AZCVJZM3G8J6TDRCYDDD","A3RTW9UWYKSNWX","335VBRURDJMQFRMOFGHOE9WKSHX9E1","","null","<img src=""img/flower6.png"" style=""width:200px; border:14px solid green;"">","null","","","","","","","","",""
"","image-keyboard-response","310","125533","0.0-310.0","3HOSI13XH0AZCVJZM3G8J6TDRCYDDD","A3RTW9UWYKSNWX","335VBRURDJMQFRMOFGHOE9WKSHX9E1","","236","img/flower2.png","75","236","2","0","1","1","1,0.333,0.333,0.333,1,0.333,0.333,0.333,1","1,0.333,0.333,0.333,1,0.333,0.333,0.333,1","1",""
"","html-keyboard-response","311","125834","0.0-311.0","3HOSI13XH0AZCVJZM3G8J6TDRCYDDD","A3RTW9UWYKSNWX","335VBRURDJMQFRMOFGHOE9WKSHX9E1","","null","<img src=""img/flower2.png"" style=""width:200px;border:14px solid red;"">","null","","","","","","","","",""
"","image-keyboard-response","312","126136","0.0-312.0","3HOSI13XH0AZCVJZM3G8J6TDRCYDDD","A3RTW9UWYKSNWX","335VBRURDJMQFRMOFGHOE9WKSHX9E1","","300","img/flower3.png","75","302","2","1","2","1","1,0.333,0.333,0.333,1,0.333,0.333,0.333,1","1,0.333,0.333,0.333,1,0.333,0.333,0.333,1","1",""
"","html-keyboard-response","313","126441","0.0-313.0","3HOSI13XH0AZCVJZM3G8J6TDRCYDDD","A3RTW9UWYKSNWX","335VBRURDJMQFRMOFGHOE9WKSHX9E1","","null","<img src=""img/flower3.png"" style=""width:200px; border:14px solid green;"">","null","","","","","","","","",""
"","image-keyboard-response","314","126719","0.0-314.0","3HOSI13XH0AZCVJZM3G8J6TDRCYDDD","A3RTW9UWYKSNWX","335VBRURDJMQFRMOFGHOE9WKSHX9E1","","278","img/flower3.png","75","278","2","1","2","1","1,0.333,0.333,0.333,1,0.333,0.333,0.333,1","1,0.333,0.333,0.333,1,0.333,0.333,0.333,1","1",""
"","html-keyboard-response","315","127021","0.0-315.0","3HOSI13XH0AZCVJZM3G8J6TDRCYDDD","A3RTW9UWYKSNWX","335VBRURDJMQFRMOFGHOE9WKSHX9E1","","null","<img src=""img/flower3.png"" style=""width:200px; border:14px solid green;"">","null","","","","","","","","",""
"","image-keyboard-response","316","127222","0.0-316.0","3HOSI13XH0AZCVJZM3G8J6TDRCYDDD","A3RTW9UWYKSNWX","335VBRURDJMQFRMOFGHOE9WKSHX9E1","","201","img/flower2.png","75","201","2","0","1","1","1,0.333,0.333,0.333,1,0.333,0.333,0.333,1","1,0.333,0.333,0.333,1,0.333,0.333,0.333,1","1",""
"","html-keyboard-response","317","127538","0.0-317.0","3HOSI13XH0AZCVJZM3G8J6TDRCYDDD","A3RTW9UWYKSNWX","335VBRURDJMQFRMOFGHOE9WKSHX9E1","","null","<img src=""img/flower2.png"" style=""width:200px;border:14px solid red;"">","null","","","","","","","","",""
"","image-keyboard-response","318","127929","0.0-318.0","3HOSI13XH0AZCVJZM3G8J6TDRCYDDD","A3RTW9UWYKSNWX","335VBRURDJMQFRMOFGHOE9WKSHX9E1","","392","img/flower6.png","75","392","2","1","3","1","1,0.333,0.333,0.333,1,0.333,0.333,0.333,1","1,0.333,0.333,0.333,1,0.333,0.333,0.333,1","1",""
"","html-keyboard-response","319","128243","0.0-319.0","3HOSI13XH0AZCVJZM3G8J6TDRCYDDD","A3RTW9UWYKSNWX","335VBRURDJMQFRMOFGHOE9WKSHX9E1","","null","<img src=""img/flower6.png"" style=""width:200px; border:14px solid green;"">","null","","","","","","","","",""
"","image-keyboard-response","320","128385","0.0-320.0","3HOSI13XH0AZCVJZM3G8J6TDRCYDDD","A3RTW9UWYKSNWX","335VBRURDJMQFRMOFGHOE9WKSHX9E1","","142","img/flower3.png","75","142","2","1","2","1","1,0.333,0.333,0.333,1,0.333,0.333,0.333,1","1,0.333,0.333,0.333,1,0.333,0.333,0.333,1","1",""
"","html-keyboard-response","321","128693","0.0-321.0","3HOSI13XH0AZCVJZM3G8J6TDRCYDDD","A3RTW9UWYKSNWX","335VBRURDJMQFRMOFGHOE9WKSHX9E1","","null","<img src=""img/flower3.png"" style=""width:200px; border:14px solid green;"">","null","","","","","","","","",""
"","image-keyboard-response","322","128816","0.0-322.0","3HOSI13XH0AZCVJZM3G8J6TDRCYDDD","A3RTW9UWYKSNWX","335VBRURDJMQFRMOFGHOE9WKSHX9E1","","122","img/flower3.png","75","122","2","1","2","1","1,0.333,0.333,0.333,1,0.333,0.333,0.333,1","1,0.333,0.333,0.333,1,0.333,0.333,0.333,1","1",""
"","html-keyboard-response","323","129125","0.0-323.0","3HOSI13XH0AZCVJZM3G8J6TDRCYDDD","A3RTW9UWYKSNWX","335VBRURDJMQFRMOFGHOE9WKSHX9E1","","null","<img src=""img/flower3.png"" style=""width:200px; border:14px solid green;"">","null","","","","","","","","",""
"","image-keyboard-response","324","129279","0.0-324.0","3HOSI13XH0AZCVJZM3G8J6TDRCYDDD","A3RTW9UWYKSNWX","335VBRURDJMQFRMOFGHOE9WKSHX9E1","","153","img/flower3.png","75","154","2","1","2","1","1,0.333,0.333,0.333,1,0.333,0.333,0.333,1","1,0.333,0.333,0.333,1,0.333,0.333,0.333,1","1",""
"","html-keyboard-response","325","129594","0.0-325.0","3HOSI13XH0AZCVJZM3G8J6TDRCYDDD","A3RTW9UWYKSNWX","335VBRURDJMQFRMOFGHOE9WKSHX9E1","","null","<img src=""img/flower3.png"" style=""width:200px; border:14px solid green;"">","null","","","","","","","","",""
"","image-keyboard-response","326","129690","0.0-326.0","3HOSI13XH0AZCVJZM3G8J6TDRCYDDD","A3RTW9UWYKSNWX","335VBRURDJMQFRMOFGHOE9WKSHX9E1","","95","img/flower2.png","75","96","2","0","1","1","1,0.333,0.333,0.333,1,0.333,0.333,0.333,1","1,0.333,0.333,0.333,1,0.333,0.333,0.333,1","1",""
"","html-keyboard-response","327","129997","0.0-327.0","3HOSI13XH0AZCVJZM3G8J6TDRCYDDD","A3RTW9UWYKSNWX","335VBRURDJMQFRMOFGHOE9WKSHX9E1","","null","<img src=""img/flower2.png"" style=""width:200px;border:14px solid red;"">","null","","","","","","","","",""
"","image-keyboard-response","328","130178","0.0-328.0","3HOSI13XH0AZCVJZM3G8J6TDRCYDDD","A3RTW9UWYKSNWX","335VBRURDJMQFRMOFGHOE9WKSHX9E1","","181","img/flower2.png","75","182","2","1","1","1","1,0.333,0.333,0.333,1,0.333,0.333,0.333,1","1,0.333,0.333,0.333,1,0.333,0.333,0.333,1","1",""
"","html-keyboard-response","329","130483","0.0-329.0","3HOSI13XH0AZCVJZM3G8J6TDRCYDDD","A3RTW9UWYKSNWX","335VBRURDJMQFRMOFGHOE9WKSHX9E1","","null","<img src=""img/flower2.png"" style=""width:200px; border:14px solid green;"">","null","","","","","","","","",""
"","image-keyboard-response","330","130607","0.0-330.0","3HOSI13XH0AZCVJZM3G8J6TDRCYDDD","A3RTW9UWYKSNWX","335VBRURDJMQFRMOFGHOE9WKSHX9E1","","124","img/flower6.png","76","124","3","1","3","1","1,0.333,0.333,0.333,1,0.333,0.333,0.333,1","1,0.333,0.333,0.333,1,0.333,0.333,0.333,1","1",""
"","html-keyboard-response","331","130917","0.0-331.0","3HOSI13XH0AZCVJZM3G8J6TDRCYDDD","A3RTW9UWYKSNWX","335VBRURDJMQFRMOFGHOE9WKSHX9E1","","null","<img src=""img/flower6.png"" style=""width:200px; border:14px solid green;"">","null","","","","","","","","",""
"","image-keyboard-response","332","131060","0.0-332.0","3HOSI13XH0AZCVJZM3G8J6TDRCYDDD","A3RTW9UWYKSNWX","335VBRURDJMQFRMOFGHOE9WKSHX9E1","","143","img/flower3.png","76","143","3","0","2","1","1,0.333,0.333,0.333,1,0.333,0.333,0.333,1","1,0.333,0.333,0.333,1,0.333,0.333,0.333,1","1",""
"","html-keyboard-response","333","131369","0.0-333.0","3HOSI13XH0AZCVJZM3G8J6TDRCYDDD","A3RTW9UWYKSNWX","335VBRURDJMQFRMOFGHOE9WKSHX9E1","","null","<img src=""img/flower3.png"" style=""width:200px;border:14px solid red;"">","null","","","","","","","","",""
"","image-keyboard-response","334","131553","0.0-334.0","3HOSI13XH0AZCVJZM3G8J6TDRCYDDD","A3RTW9UWYKSNWX","335VBRURDJMQFRMOFGHOE9WKSHX9E1","","184","img/flower6.png","76","184","3","1","3","1","1,0.333,0.333,0.333,1,0.333,0.333,0.333,1","1,0.333,0.333,0.333,1,0.333,0.333,0.333,1","1",""
"","html-keyboard-response","335","131866","0.0-335.0","3HOSI13XH0AZCVJZM3G8J6TDRCYDDD","A3RTW9UWYKSNWX","335VBRURDJMQFRMOFGHOE9WKSHX9E1","","null","<img src=""img/flower6.png"" style=""width:200px; border:14px solid green;"">","null","","","","","","","","",""
"","image-keyboard-response","336","131926","0.0-336.0","3HOSI13XH0AZCVJZM3G8J6TDRCYDDD","A3RTW9UWYKSNWX","335VBRURDJMQFRMOFGHOE9WKSHX9E1","","58","img/flower3.png","76","58","3","0","2","1","1,0.333,0.333,0.333,1,0.333,0.333,0.333,1","1,0.333,0.333,0.333,1,0.333,0.333,0.333,1","1",""
"","html-keyboard-response","337","132241","0.0-337.0","3HOSI13XH0AZCVJZM3G8J6TDRCYDDD","A3RTW9UWYKSNWX","335VBRURDJMQFRMOFGHOE9WKSHX9E1","","null","<img src=""img/flower3.png"" style=""width:200px;border:14px solid red;"">","null","","","","","","","","",""
"","image-keyboard-response","338","132294","0.0-338.0","3HOSI13XH0AZCVJZM3G8J6TDRCYDDD","A3RTW9UWYKSNWX","335VBRURDJMQFRMOFGHOE9WKSHX9E1","","53","img/flower6.png","76","53","3","1","3","1","1,0.333,0.333,0.333,1,0.333,0.333,0.333,1","1,0.333,0.333,0.333,1,0.333,0.333,0.333,1","1",""
"","html-keyboard-response","339","132598","0.0-339.0","3HOSI13XH0AZCVJZM3G8J6TDRCYDDD","A3RTW9UWYKSNWX","335VBRURDJMQFRMOFGHOE9WKSHX9E1","","null","<img src=""img/flower6.png"" style=""width:200px; border:14px solid green;"">","null","","","","","","","","",""
"","image-keyboard-response","340","132665","0.0-340.0","3HOSI13XH0AZCVJZM3G8J6TDRCYDDD","A3RTW9UWYKSNWX","335VBRURDJMQFRMOFGHOE9WKSHX9E1","","65","img/flower2.png","76","65","3","1","1","1","1,0.333,0.333,0.333,1,0.333,0.333,0.333,1","1,0.333,0.333,0.333,1,0.333,0.333,0.333,1","1",""
"","html-keyboard-response","341","132973","0.0-341.0","3HOSI13XH0AZCVJZM3G8J6TDRCYDDD","A3RTW9UWYKSNWX","335VBRURDJMQFRMOFGHOE9WKSHX9E1","","null","<img src=""img/flower2.png"" style=""width:200px; border:14px solid green;"">","null","","","","","","","","",""
"","image-keyboard-response","342","133080","0.0-342.0","3HOSI13XH0AZCVJZM3G8J6TDRCYDDD","A3RTW9UWYKSNWX","335VBRURDJMQFRMOFGHOE9WKSHX9E1","","106","img/flower3.png","76","106","3","0","2","1","1,0.333,0.333,0.333,1,0.333,0.333,0.333,1","1,0.333,0.333,0.333,1,0.333,0.333,0.333,1","1",""
"","html-keyboard-response","343","133384","0.0-343.0","3HOSI13XH0AZCVJZM3G8J6TDRCYDDD","A3RTW9UWYKSNWX","335VBRURDJMQFRMOFGHOE9WKSHX9E1","","null","<img src=""img/flower3.png"" style=""width:200px;border:14px solid red;"">","null","","","","","","","","",""
"","image-keyboard-response","344","133568","0.0-344.0","3HOSI13XH0AZCVJZM3G8J6TDRCYDDD","A3RTW9UWYKSNWX","335VBRURDJMQFRMOFGHOE9WKSHX9E1","","183","img/flower2.png","76","184","3","0","1","1","1,0.333,0.333,0.333,1,0.333,0.333,0.333,1","1,0.333,0.333,0.333,1,0.333,0.333,0.333,1","1",""
"","html-keyboard-response","345","133882","0.0-345.0","3HOSI13XH0AZCVJZM3G8J6TDRCYDDD","A3RTW9UWYKSNWX","335VBRURDJMQFRMOFGHOE9WKSHX9E1","","null","<img src=""img/flower2.png"" style=""width:200px;border:14px solid red;"">","null","","","","","","","","",""
"","image-keyboard-response","346","133945","0.0-346.0","3HOSI13XH0AZCVJZM3G8J6TDRCYDDD","A3RTW9UWYKSNWX","335VBRURDJMQFRMOFGHOE9WKSHX9E1","","63","img/flower3.png","75","63","2","1","2","1","1,0.333,0.333,0.333,1,0.333,0.333,0.333,1","1,0.333,0.333,0.333,1,0.333,0.333,0.333,1","1",""
"","html-keyboard-response","347","134258","0.0-347.0","3HOSI13XH0AZCVJZM3G8J6TDRCYDDD","A3RTW9UWYKSNWX","335VBRURDJMQFRMOFGHOE9WKSHX9E1","","null","<img src=""img/flower3.png"" style=""width:200px; border:14px solid green;"">","null","","","","","","","","",""
"","image-keyboard-response","348","134290","0.0-348.0","3HOSI13XH0AZCVJZM3G8J6TDRCYDDD","A3RTW9UWYKSNWX","335VBRURDJMQFRMOFGHOE9WKSHX9E1","","32","img/flower6.png","75","33","2","1","3","1","1,0.333,0.333,0.333,1,0.333,0.333,0.333,1","1,0.333,0.333,0.333,1,0.333,0.333,0.333,1","1",""
"","html-keyboard-response","349","134604","0.0-349.0","3HOSI13XH0AZCVJZM3G8J6TDRCYDDD","A3RTW9UWYKSNWX","335VBRURDJMQFRMOFGHOE9WKSHX9E1","","null","<img src=""img/flower6.png"" style=""width:200px; border:14px solid green;"">","null","","","","","","","","",""
"","image-keyboard-response","350","134715","0.0-350.0","3HOSI13XH0AZCVJZM3G8J6TDRCYDDD","A3RTW9UWYKSNWX","335VBRURDJMQFRMOFGHOE9WKSHX9E1","","110","img/flower6.png","75","110","2","0","3","1","1,0.333,0.333,0.333,1,0.333,0.333,0.333,1","1,0.333,0.333,0.333,1,0.333,0.333,0.333,1","1",""
"","html-keyboard-response","351","135025","0.0-351.0","3HOSI13XH0AZCVJZM3G8J6TDRCYDDD","A3RTW9UWYKSNWX","335VBRURDJMQFRMOFGHOE9WKSHX9E1","","null","<img src=""img/flower6.png"" style=""width:200px;border:14px solid red;"">","null","","","","","","","","",""
"","image-keyboard-response","352","135092","0.0-352.0","3HOSI13XH0AZCVJZM3G8J6TDRCYDDD","A3RTW9UWYKSNWX","335VBRURDJMQFRMOFGHOE9WKSHX9E1","","66","img/flower2.png","75","66","2","0","1","1","1,0.333,0.333,0.333,1,0.333,0.333,0.333,1","1,0.333,0.333,0.333,1,0.333,0.333,0.333,1","1",""
"","html-keyboard-response","353","135403","0.0-353.0","3HOSI13XH0AZCVJZM3G8J6TDRCYDDD","A3RTW9UWYKSNWX","335VBRURDJMQFRMOFGHOE9WKSHX9E1","","null","<img src=""img/flower2.png"" style=""width:200px;border:14px solid red;"">","null","","","","","","","","",""
"","image-keyboard-response","354","135521","0.0-354.0","3HOSI13XH0AZCVJZM3G8J6TDRCYDDD","A3RTW9UWYKSNWX","335VBRURDJMQFRMOFGHOE9WKSHX9E1","","118","img/flower6.png","75","119","2","0","3","1","1,0.333,0.333,0.333,1,0.333,0.333,0.333,1","1,0.333,0.333,0.333,1,0.333,0.333,0.333,1","1",""
"","html-keyboard-response","355","135835","0.0-355.0","3HOSI13XH0AZCVJZM3G8J6TDRCYDDD","A3RTW9UWYKSNWX","335VBRURDJMQFRMOFGHOE9WKSHX9E1","","null","<img src=""img/flower6.png"" style=""width:200px;border:14px solid red;"">","null","","","","","","","","",""
"","image-keyboard-response","356","135993","0.0-356.0","3HOSI13XH0AZCVJZM3G8J6TDRCYDDD","A3RTW9UWYKSNWX","335VBRURDJMQFRMOFGHOE9WKSHX9E1","","158","img/flower2.png","75","158","2","0","1","1","1,0.333,0.333,0.333,1,0.333,0.333,0.333,1","1,0.333,0.333,0.333,1,0.333,0.333,0.333,1","1",""
"","html-keyboard-response","357","136305","0.0-357.0","3HOSI13XH0AZCVJZM3G8J6TDRCYDDD","A3RTW9UWYKSNWX","335VBRURDJMQFRMOFGHOE9WKSHX9E1","","null","<img src=""img/flower2.png"" style=""width:200px;border:14px solid red;"">","null","","","","","","","","",""
"","image-keyboard-response","358","136544","0.0-358.0","3HOSI13XH0AZCVJZM3G8J6TDRCYDDD","A3RTW9UWYKSNWX","335VBRURDJMQFRMOFGHOE9WKSHX9E1","","239","img/flower2.png","75","239","2","1","1","1","1,0.333,0.333,0.333,1,0.333,0.333,0.333,1","1,0.333,0.333,0.333,1,0.333,0.333,0.333,1","1",""
"","html-keyboard-response","359","136855","0.0-359.0","3HOSI13XH0AZCVJZM3G8J6TDRCYDDD","A3RTW9UWYKSNWX","335VBRURDJMQFRMOFGHOE9WKSHX9E1","","null","<img src=""img/flower2.png"" style=""width:200px; border:14px solid green;"">","null","","","","","","","","",""
"","image-keyboard-response","360","136911","0.0-360.0","3HOSI13XH0AZCVJZM3G8J6TDRCYDDD","A3RTW9UWYKSNWX","335VBRURDJMQFRMOFGHOE9WKSHX9E1","","56","img/flower3.png","75","56","2","1","2","1","1,0.333,0.333,0.333,1,0.333,0.333,0.333,1","1,0.333,0.333,0.333,1,0.333,0.333,0.333,1","1",""
"","html-keyboard-response","361","137218","0.0-361.0","3HOSI13XH0AZCVJZM3G8J6TDRCYDDD","A3RTW9UWYKSNWX","335VBRURDJMQFRMOFGHOE9WKSHX9E1","","null","<img src=""img/flower3.png"" style=""width:200px; border:14px solid green;"">","null","","","","","","","","",""
"","html-keyboard-response","362","139728","0.0-362.0","3HOSI13XH0AZCVJZM3G8J6TDRCYDDD","A3RTW9UWYKSNWX","335VBRURDJMQFRMOFGHOE9WKSHX9E1","","","","","","","","","","","","",""
"","instructions","363","143699","0.0-363.0","3HOSI13XH0AZCVJZM3G8J6TDRCYDDD","A3RTW9UWYKSNWX","335VBRURDJMQFRMOFGHOE9WKSHX9E1","[{""page_index"":0,""viewing_time"":3969}]","3970","","","","","","","","","","",""
"","survey-text","364","148321","0.0-364.0","3HOSI13XH0AZCVJZM3G8J6TDRCYDDD","A3RTW9UWYKSNWX","335VBRURDJMQFRMOFGHOE9WKSHX9E1","","4620","","","","","","","","","","","{""Q0"":""A3RTW9UWYKSNWX""}"
