"success","trial_type","trial_index","time_elapsed","internal_node_id","assignmentID","mturkID","hitID","view_history","rt","stimulus","key_press","reactionTime","a","r","s","cond","reward_cond","reward_cond_actual","reward_matrix_idx","responses"
"true","fullscreen","0","7784","0.0-0.0","339ANSOTR6OOYC5V6Y36EG4G3MHIK3","A3TH6B3RUD1MUQ","3ECKRY5B1QIH1N6NFX1ECCW5ZDKIZQ","","","","","","","","","","","","",""
"","instructions","1","22448","0.0-1.0","339ANSOTR6OOYC5V6Y36EG4G3MHIK3","A3TH6B3RUD1MUQ","3ECKRY5B1QIH1N6NFX1ECCW5ZDKIZQ","[{""page_index"":0,""viewing_time"":1689.6000000238419},{""page_index"":1,""viewing_time"":799.8999999761581},{""page_index"":2,""viewing_time"":1181.8000000715256},{""page_index"":3,""viewing_time"":738.3999999761581},{""page_index"":4,""viewing_time"":2500},{""page_index"":5,""viewing_time"":2249.7999999523163},{""page_index"":6,""viewing_time"":3139.899999976158},{""page_index"":7,""viewing_time"":2360.600000023842}]","14661","","","","","","","","","","",""
"","image-keyboard-response","2","24047","0.0-2.0","339ANSOTR6OOYC5V6Y36EG4G3MHIK3","A3TH6B3RUD1MUQ","3ECKRY5B1QIH1N6NFX1ECCW5ZDKIZQ","","1595.8000000715256","img/flower1.png","76","1598.5999999046326","3","1","3","1","1,0.333,0.333,0.333,1,0.333,0.333,0.333,1","1,0.333,0.333,0.333,1,0.333,0.333,0.333,1","1",""
"","html-keyboard-response","3","24350","0.0-3.0","339ANSOTR6OOYC5V6Y36EG4G3MHIK3","A3TH6B3RUD1MUQ","3ECKRY5B1QIH1N6NFX1ECCW5ZDKIZQ","","null","<img src=""img/flower1.png"" style=""width:200px; border:14px solid green;"">","null","","","","","","","","",""
"","image-keyboard-response","4","24366","0.0-4.0","339ANSOTR6OOYC5V6Y36EG4G3MHIK3","A3TH6B3RUD1MUQ","3ECKRY5B1QIH1N6NFX1ECCW5ZDKIZQ","","14.200000047683716","img/flower5.png","74","15.299999952316284","1","1","1","1","1,0.333,0.333,0.333,1,0.333,0.333,0.333,1","1,0.333,0.333,0.333,1,0.333,0.333,0.333,1","1",""
"","html-keyboard-response","5","24668","0.0-5.0","339ANSOTR6OOYC5V6Y36EG4G3MHIK3","A3TH6B3RUD1MUQ","3ECKRY5B1QIH1N6NFX1ECCW5ZDKIZQ","","null","<img src=""img/flower5.png"" style=""width:200px; border:14px solid green;"">","null","","","","","","","","",""
"","image-keyboard-response","6","24696","0.0-6.0","339ANSOTR6OOYC5V6Y36EG4G3MHIK3","A3TH6B3RUD1MUQ","3ECKRY5B1QIH1N6NFX1ECCW5ZDKIZQ","","27.100000023841858","img/flower5.png","75","28.100000023841858","2","0","1","1","1,0.333,0.333,0.333,1,0.333,0.333,0.333,1","1,0.333,0.333,0.333,1,0.333,0.333,0.333,1","1",""
"","html-keyboard-response","7","24999","0.0-7.0","339ANSOTR6OOYC5V6Y36EG4G3MHIK3","A3TH6B3RUD1MUQ","3ECKRY5B1QIH1N6NFX1ECCW5ZDKIZQ","","null","<img src=""img/flower5.png"" style=""width:200px;border:14px solid red;"">","null","","","","","","","","",""
"","image-keyboard-response","8","25066","0.0-8.0","339ANSOTR6OOYC5V6Y36EG4G3MHIK3","A3TH6B3RUD1MUQ","3ECKRY5B1QIH1N6NFX1ECCW5ZDKIZQ","","66.10000002384186","img/flower5.png","76","67.19999992847443","3","0","1","1","1,0.333,0.333,0.333,1,0.333,0.333,0.333,1","1,0.333,0.333,0.333,1,0.333,0.333,0.333,1","1",""
"","html-keyboard-response","9","25368","0.0-9.0","339ANSOTR6OOYC5V6Y36EG4G3MHIK3","A3TH6B3RUD1MUQ","3ECKRY5B1QIH1N6NFX1ECCW5ZDKIZQ","","null","<img src=""img/flower5.png"" style=""width:200px;border:14px solid red;"">","null","","","","","","","","",""
"","image-keyboard-response","10","25437","0.0-10.0","339ANSOTR6OOYC5V6Y36EG4G3MHIK3","A3TH6B3RUD1MUQ","3ECKRY5B1QIH1N6NFX1ECCW5ZDKIZQ","","67.60000002384186","img/flower1.png","76","68.39999997615814","3","1","3","1","1,0.333,0.333,0.333,1,0.333,0.333,0.333,1","1,0.333,0.333,0.333,1,0.333,0.333,0.333,1","1",""
"","html-keyboard-response","11","25739","0.0-11.0","339ANSOTR6OOYC5V6Y36EG4G3MHIK3","A3TH6B3RUD1MUQ","3ECKRY5B1QIH1N6NFX1ECCW5ZDKIZQ","","null","<img src=""img/flower1.png"" style=""width:200px; border:14px solid green;"">","null","","","","","","","","",""
"","image-keyboard-response","12","25811","0.0-12.0","339ANSOTR6OOYC5V6Y36EG4G3MHIK3","A3TH6B3RUD1MUQ","3ECKRY5B1QIH1N6NFX1ECCW5ZDKIZQ","","71.20000004768372","img/flower5.png","76","72.29999995231628","3","1","1","1","1,0.333,0.333,0.333,1,0.333,0.333,0.333,1","1,0.333,0.333,0.333,1,0.333,0.333,0.333,1","1",""
"","html-keyboard-response","13","26114","0.0-13.0","339ANSOTR6OOYC5V6Y36EG4G3MHIK3","A3TH6B3RUD1MUQ","3ECKRY5B1QIH1N6NFX1ECCW5ZDKIZQ","","null","<img src=""img/flower5.png"" style=""width:200px; border:14px solid green;"">","null","","","","","","","","",""
"","image-keyboard-response","14","26267","0.0-14.0","339ANSOTR6OOYC5V6Y36EG4G3MHIK3","A3TH6B3RUD1MUQ","3ECKRY5B1QIH1N6NFX1ECCW5ZDKIZQ","","151.40000009536743","img/flower1.png","76","152.80000007152557","3","1","3","1","1,0.333,0.333,0.333,1,0.333,0.333,0.333,1","1,0.333,0.333,0.333,1,0.333,0.333,0.333,1","1",""
"","html-keyboard-response","15","26569","0.0-15.0","339ANSOTR6OOYC5V6Y36EG4G3MHIK3","A3TH6B3RUD1MUQ","3ECKRY5B1QIH1N6NFX1ECCW5ZDKIZQ","","null","<img src=""img/flower1.png"" style=""width:200px; border:14px solid green;"">","null","","","","","","","","",""
"","image-keyboard-response","16","26616","0.0-16.0","339ANSOTR6OOYC5V6Y36EG4G3MHIK3","A3TH6B3RUD1MUQ","3ECKRY5B1QIH1N6NFX1ECCW5ZDKIZQ","","45.5","img/flower1.png","76","47.10000002384186","3","1","3","1","1,0.333,0.333,0.333,1,0.333,0.333,0.333,1","1,0.333,0.333,0.333,1,0.333,0.333,0.333,1","1",""
"","html-keyboard-response","17","26919","0.0-17.0","339ANSOTR6OOYC5V6Y36EG4G3MHIK3","A3TH6B3RUD1MUQ","3ECKRY5B1QIH1N6NFX1ECCW5ZDKIZQ","","null","<img src=""img/flower1.png"" style=""width:200px; border:14px solid green;"">","null","","","","","","","","",""
"","image-keyboard-response","18","27027","0.0-18.0","339ANSOTR6OOYC5V6Y36EG4G3MHIK3","A3TH6B3RUD1MUQ","3ECKRY5B1QIH1N6NFX1ECCW5ZDKIZQ","","107.5","img/flower1.png","76","108.60000002384186","3","1","3","1","1,0.333,0.333,0.333,1,0.333,0.333,0.333,1","1,0.333,0.333,0.333,1,0.333,0.333,0.333,1","1",""
"","html-keyboard-response","19","27329","0.0-19.0","339ANSOTR6OOYC5V6Y36EG4G3MHIK3","A3TH6B3RUD1MUQ","3ECKRY5B1QIH1N6NFX1ECCW5ZDKIZQ","","null","<img src=""img/flower1.png"" style=""width:200px; border:14px solid green;"">","null","","","","","","","","",""
"","image-keyboard-response","20","27442","0.0-20.0","339ANSOTR6OOYC5V6Y36EG4G3MHIK3","A3TH6B3RUD1MUQ","3ECKRY5B1QIH1N6NFX1ECCW5ZDKIZQ","","112.5","img/flower5.png","76","113.5","3","0","1","1","1,0.333,0.333,0.333,1,0.333,0.333,0.333,1","1,0.333,0.333,0.333,1,0.333,0.333,0.333,1","1",""
"","html-keyboard-response","21","27745","0.0-21.0","339ANSOTR6OOYC5V6Y36EG4G3MHIK3","A3TH6B3RUD1MUQ","3ECKRY5B1QIH1N6NFX1ECCW5ZDKIZQ","","null","<img src=""img/flower5.png"" style=""width:200px;border:14px solid red;"">","null","","","","","","","","",""
"","image-keyboard-response","22","27807","0.0-22.0","339ANSOTR6OOYC5V6Y36EG4G3MHIK3","A3TH6B3RUD1MUQ","3ECKRY5B1QIH1N6NFX1ECCW5ZDKIZQ","","60.5","img/flower1.png","76","61.60000002384186","3","1","3","1","1,0.333,0.333,0.333,1,0.333,0.333,0.333,1","1,0.333,0.333,0.333,1,0.333,0.333,0.333,1","1",""
"","html-keyboard-response","23","28109","0.0-23.0","339ANSOTR6OOYC5V6Y36EG4G3MHIK3","A3TH6B3RUD1MUQ","3ECKRY5B1QIH1N6NFX1ECCW5ZDKIZQ","","null","<img src=""img/flower1.png"" style=""width:200px; border:14px solid green;"">","null","","","","","","","","",""
"","image-keyboard-response","24","28146","0.0-24.0","339ANSOTR6OOYC5V6Y36EG4G3MHIK3","A3TH6B3RUD1MUQ","3ECKRY5B1QIH1N6NFX1ECCW5ZDKIZQ","","35.40000009536743","img/flower5.png","76","36.700000047683716","3","1","1","1","1,0.333,0.333,0.333,1,0.333,0.333,0.333,1","1,0.333,0.333,0.333,1,0.333,0.333,0.333,1","1",""
"","html-keyboard-response","25","28448","0.0-25.0","339ANSOTR6OOYC5V6Y36EG4G3MHIK3","A3TH6B3RUD1MUQ","3ECKRY5B1QIH1N6NFX1ECCW5ZDKIZQ","","null","<img src=""img/flower5.png"" style=""width:200px; border:14px solid green;"">","null","","","","","","","","",""
"","image-keyboard-response","26","28537","0.0-26.0","339ANSOTR6OOYC5V6Y36EG4G3MHIK3","A3TH6B3RUD1MUQ","3ECKRY5B1QIH1N6NFX1ECCW5ZDKIZQ","","87.39999997615814","img/flower2.png","76","88.39999997615814","3","0","2","1","1,0.333,0.333,0.333,1,0.333,0.333,0.333,1","1,0.333,0.333,0.333,1,0.333,0.333,0.333,1","1",""
"","html-keyboard-response","27","28839","0.0-27.0","339ANSOTR6OOYC5V6Y36EG4G3MHIK3","A3TH6B3RUD1MUQ","3ECKRY5B1QIH1N6NFX1ECCW5ZDKIZQ","","null","<img src=""img/flower2.png"" style=""width:200px;border:14px solid red;"">","null","","","","","","","","",""
"","image-keyboard-response","28","28926","0.0-28.0","339ANSOTR6OOYC5V6Y36EG4G3MHIK3","A3TH6B3RUD1MUQ","3ECKRY5B1QIH1N6NFX1ECCW5ZDKIZQ","","86","img/flower1.png","76","86.89999997615814","3","1","3","1","1,0.333,0.333,0.333,1,0.333,0.333,0.333,1","1,0.333,0.333,0.333,1,0.333,0.333,0.333,1","1",""
"","html-keyboard-response","29","29229","0.0-29.0","339ANSOTR6OOYC5V6Y36EG4G3MHIK3","A3TH6B3RUD1MUQ","3ECKRY5B1QIH1N6NFX1ECCW5ZDKIZQ","","null","<img src=""img/flower1.png"" style=""width:200px; border:14px solid green;"">","null","","","","","","","","",""
"","image-keyboard-response","30","29407","0.0-30.0","339ANSOTR6OOYC5V6Y36EG4G3MHIK3","A3TH6B3RUD1MUQ","3ECKRY5B1QIH1N6NFX1ECCW5ZDKIZQ","","176.89999997615814","img/flower2.png","76","178.10000002384186","3","1","2","1","1,0.333,0.333,0.333,1,0.333,0.333,0.333,1","1,0.333,0.333,0.333,1,0.333,0.333,0.333,1","1",""
"","html-keyboard-response","31","29709","0.0-31.0","339ANSOTR6OOYC5V6Y36EG4G3MHIK3","A3TH6B3RUD1MUQ","3ECKRY5B1QIH1N6NFX1ECCW5ZDKIZQ","","null","<img src=""img/flower2.png"" style=""width:200px; border:14px solid green;"">","null","","","","","","","","",""
"","image-keyboard-response","32","29847","0.0-32.0","339ANSOTR6OOYC5V6Y36EG4G3MHIK3","A3TH6B3RUD1MUQ","3ECKRY5B1QIH1N6NFX1ECCW5ZDKIZQ","","137.29999995231628","img/flower5.png","74","138.39999997615814","1","1","1","1","1,0.333,0.333,0.333,1,0.333,0.333,0.333,1","1,0.333,0.333,0.333,1,0.333,0.333,0.333,1","1",""
"","html-keyboard-response","33","30149","0.0-33.0","339ANSOTR6OOYC5V6Y36EG4G3MHIK3","A3TH6B3RUD1MUQ","3ECKRY5B1QIH1N6NFX1ECCW5ZDKIZQ","","null","<img src=""img/flower5.png"" style=""width:200px; border:14px solid green;"">","null","","","","","","","","",""
"","image-keyboard-response","34","30306","0.0-34.0","339ANSOTR6OOYC5V6Y36EG4G3MHIK3","A3TH6B3RUD1MUQ","3ECKRY5B1QIH1N6NFX1ECCW5ZDKIZQ","","155.09999990463257","img/flower5.png","76","156","3","0","1","1","1,0.333,0.333,0.333,1,0.333,0.333,0.333,1","1,0.333,0.333,0.333,1,0.333,0.333,0.333,1","1",""
"","html-keyboard-response","35","30608","0.0-35.0","339ANSOTR6OOYC5V6Y36EG4G3MHIK3","A3TH6B3RUD1MUQ","3ECKRY5B1QIH1N6NFX1ECCW5ZDKIZQ","","null","<img src=""img/flower5.png"" style=""width:200px;border:14px solid red;"">","null","","","","","","","","",""
"","image-keyboard-response","36","30656","0.0-36.0","339ANSOTR6OOYC5V6Y36EG4G3MHIK3","A3TH6B3RUD1MUQ","3ECKRY5B1QIH1N6NFX1ECCW5ZDKIZQ","","47.200000047683716","img/flower1.png","75","48.200000047683716","2","0","3","1","1,0.333,0.333,0.333,1,0.333,0.333,0.333,1","1,0.333,0.333,0.333,1,0.333,0.333,0.333,1","1",""
"","html-keyboard-response","37","30959","0.0-37.0","339ANSOTR6OOYC5V6Y36EG4G3MHIK3","A3TH6B3RUD1MUQ","3ECKRY5B1QIH1N6NFX1ECCW5ZDKIZQ","","null","<img src=""img/flower1.png"" style=""width:200px;border:14px solid red;"">","null","","","","","","","","",""
"","image-keyboard-response","38","31036","0.0-38.0","339ANSOTR6OOYC5V6Y36EG4G3MHIK3","A3TH6B3RUD1MUQ","3ECKRY5B1QIH1N6NFX1ECCW5ZDKIZQ","","76.29999995231628","img/flower5.png","74","77.39999997615814","1","1","1","1","1,0.333,0.333,0.333,1,0.333,0.333,0.333,1","1,0.333,0.333,0.333,1,0.333,0.333,0.333,1","1",""
"","html-keyboard-response","39","31339","0.0-39.0","339ANSOTR6OOYC5V6Y36EG4G3MHIK3","A3TH6B3RUD1MUQ","3ECKRY5B1QIH1N6NFX1ECCW5ZDKIZQ","","null","<img src=""img/flower5.png"" style=""width:200px; border:14px solid green;"">","null","","","","","","","","",""
"","image-keyboard-response","40","31436","0.0-40.0","339ANSOTR6OOYC5V6Y36EG4G3MHIK3","A3TH6B3RUD1MUQ","3ECKRY5B1QIH1N6NFX1ECCW5ZDKIZQ","","96.39999997615814","img/flower1.png","76","97.30000007152557","3","1","3","1","1,0.333,0.333,0.333,1,0.333,0.333,0.333,1","1,0.333,0.333,0.333,1,0.333,0.333,0.333,1","1",""
"","html-keyboard-response","41","31739","0.0-41.0","339ANSOTR6OOYC5V6Y36EG4G3MHIK3","A3TH6B3RUD1MUQ","3ECKRY5B1QIH1N6NFX1ECCW5ZDKIZQ","","null","<img src=""img/flower1.png"" style=""width:200px; border:14px solid green;"">","null","","","","","","","","",""
"","image-keyboard-response","42","31786","0.0-42.0","339ANSOTR6OOYC5V6Y36EG4G3MHIK3","A3TH6B3RUD1MUQ","3ECKRY5B1QIH1N6NFX1ECCW5ZDKIZQ","","45.39999997615814","img/flower1.png","74","46.10000002384186","1","0","3","1","1,0.333,0.333,0.333,1,0.333,0.333,0.333,1","1,0.333,0.333,0.333,1,0.333,0.333,0.333,1","1",""
"","html-keyboard-response","43","32088","0.0-43.0","339ANSOTR6OOYC5V6Y36EG4G3MHIK3","A3TH6B3RUD1MUQ","3ECKRY5B1QIH1N6NFX1ECCW5ZDKIZQ","","null","<img src=""img/flower1.png"" style=""width:200px;border:14px solid red;"">","null","","","","","","","","",""
"","image-keyboard-response","44","32246","0.0-44.0","339ANSOTR6OOYC5V6Y36EG4G3MHIK3","A3TH6B3RUD1MUQ","3ECKRY5B1QIH1N6NFX1ECCW5ZDKIZQ","","157","img/flower1.png","76","157.90000009536743","3","1","3","1","1,0.333,0.333,0.333,1,0.333,0.333,0.333,1","1,0.333,0.333,0.333,1,0.333,0.333,0.333,1","1",""
"","html-keyboard-response","45","32549","0.0-45.0","339ANSOTR6OOYC5V6Y36EG4G3MHIK3","A3TH6B3RUD1MUQ","3ECKRY5B1QIH1N6NFX1ECCW5ZDKIZQ","","null","<img src=""img/flower1.png"" style=""width:200px; border:14px solid green;"">","null","","","","","","","","",""
"","image-keyboard-response","46","32696","0.0-46.0","339ANSOTR6OOYC5V6Y36EG4G3MHIK3","A3TH6B3RUD1MUQ","3ECKRY5B1QIH1N6NFX1ECCW5ZDKIZQ","","146.5","img/flower5.png","74","147.5","1","1","1","1","1,0.333,0.333,0.333,1,0.333,0.333,0.333,1","1,0.333,0.333,0.333,1,0.333,0.333,0.333,1","1",""
"","html-keyboard-response","47","32998","0.0-47.0","339ANSOTR6OOYC5V6Y36EG4G3MHIK3","A3TH6B3RUD1MUQ","3ECKRY5B1QIH1N6NFX1ECCW5ZDKIZQ","","null","<img src=""img/flower5.png"" style=""width:200px; border:14px solid green;"">","null","","","","","","","","",""
"","image-keyboard-response","48","33066","0.0-48.0","339ANSOTR6OOYC5V6Y36EG4G3MHIK3","A3TH6B3RUD1MUQ","3ECKRY5B1QIH1N6NFX1ECCW5ZDKIZQ","","66.69999992847443","img/flower5.png","76","67.80000007152557","3","0","1","1","1,0.333,0.333,0.333,1,0.333,0.333,0.333,1","1,0.333,0.333,0.333,1,0.333,0.333,0.333,1","1",""
"","html-keyboard-response","49","33368","0.0-49.0","339ANSOTR6OOYC5V6Y36EG4G3MHIK3","A3TH6B3RUD1MUQ","3ECKRY5B1QIH1N6NFX1ECCW5ZDKIZQ","","null","<img src=""img/flower5.png"" style=""width:200px;border:14px solid red;"">","null","","","","","","","","",""
"","image-keyboard-response","50","33506","0.0-50.0","339ANSOTR6OOYC5V6Y36EG4G3MHIK3","A3TH6B3RUD1MUQ","3ECKRY5B1QIH1N6NFX1ECCW5ZDKIZQ","","136.5","img/flower5.png","75","137.5","2","0","1","1","1,0.333,0.333,0.333,1,0.333,0.333,0.333,1","1,0.333,0.333,0.333,1,0.333,0.333,0.333,1","1",""
"","html-keyboard-response","51","33808","0.0-51.0","339ANSOTR6OOYC5V6Y36EG4G3MHIK3","A3TH6B3RUD1MUQ","3ECKRY5B1QIH1N6NFX1ECCW5ZDKIZQ","","null","<img src=""img/flower5.png"" style=""width:200px;border:14px solid red;"">","null","","","","","","","","",""
"","image-keyboard-response","52","33886","0.0-52.0","339ANSOTR6OOYC5V6Y36EG4G3MHIK3","A3TH6B3RUD1MUQ","3ECKRY5B1QIH1N6NFX1ECCW5ZDKIZQ","","77.40000009536743","img/flower5.png","76","78.39999997615814","3","1","1","1","1,0.333,0.333,0.333,1,0.333,0.333,0.333,1","1,0.333,0.333,0.333,1,0.333,0.333,0.333,1","1",""
"","html-keyboard-response","53","34188","0.0-53.0","339ANSOTR6OOYC5V6Y36EG4G3MHIK3","A3TH6B3RUD1MUQ","3ECKRY5B1QIH1N6NFX1ECCW5ZDKIZQ","","null","<img src=""img/flower5.png"" style=""width:200px; border:14px solid green;"">","null","","","","","","","","",""
"","image-keyboard-response","54","34286","0.0-54.0","339ANSOTR6OOYC5V6Y36EG4G3MHIK3","A3TH6B3RUD1MUQ","3ECKRY5B1QIH1N6NFX1ECCW5ZDKIZQ","","96.60000002384186","img/flower1.png","76","97.5","3","1","3","1","1,0.333,0.333,0.333,1,0.333,0.333,0.333,1","1,0.333,0.333,0.333,1,0.333,0.333,0.333,1","1",""
"","html-keyboard-response","55","34589","0.0-55.0","339ANSOTR6OOYC5V6Y36EG4G3MHIK3","A3TH6B3RUD1MUQ","3ECKRY5B1QIH1N6NFX1ECCW5ZDKIZQ","","null","<img src=""img/flower1.png"" style=""width:200px; border:14px solid green;"">","null","","","","","","","","",""
"","image-keyboard-response","56","34881","0.0-56.0","339ANSOTR6OOYC5V6Y36EG4G3MHIK3","A3TH6B3RUD1MUQ","3ECKRY5B1QIH1N6NFX1ECCW5ZDKIZQ","","291.5","img/flower2.png","74","292.5","1","1","2","1","1,0.333,0.333,0.333,1,0.333,0.333,0.333,1","1,0.333,0.333,0.333,1,0.333,0.333,0.333,1","1",""
"","html-keyboard-response","57","35183","0.0-57.0","339ANSOTR6OOYC5V6Y36EG4G3MHIK3","A3TH6B3RUD1MUQ","3ECKRY5B1QIH1N6NFX1ECCW5ZDKIZQ","","null","<img src=""img/flower2.png"" style=""width:200px; border:14px solid green;"">","null","","","","","","","","",""
"","image-keyboard-response","58","35316","0.0-58.0","339ANSOTR6OOYC5V6Y36EG4G3MHIK3","A3TH6B3RUD1MUQ","3ECKRY5B1QIH1N6NFX1ECCW5ZDKIZQ","","132","img/flower1.png","76","133","3","1","3","1","1,0.333,0.333,0.333,1,0.333,0.333,0.333,1","1,0.333,0.333,0.333,1,0.333,0.333,0.333,1","1",""
"","html-keyboard-response","59","35618","0.0-59.0","339ANSOTR6OOYC5V6Y36EG4G3MHIK3","A3TH6B3RUD1MUQ","3ECKRY5B1QIH1N6NFX1ECCW5ZDKIZQ","","null","<img src=""img/flower1.png"" style=""width:200px; border:14px solid green;"">","null","","","","","","","","",""
"","image-keyboard-response","60","35697","0.0-60.0","339ANSOTR6OOYC5V6Y36EG4G3MHIK3","A3TH6B3RUD1MUQ","3ECKRY5B1QIH1N6NFX1ECCW5ZDKIZQ","","77.30000007152557","img/flower2.png","74","78.29999995231628","1","0","2","1","1,0.333,0.333,0.333,1,0.333,0.333,0.333,1","1,0.333,0.333,0.333,1,0.333,0.333,0.333,1","1",""
"","html-keyboard-response","61","35999","0.0-61.0","339ANSOTR6OOYC5V6Y36EG4G3MHIK3","A3TH6B3RUD1MUQ","3ECKRY5B1QIH1N6NFX1ECCW5ZDKIZQ","","null","<img src=""img/flower2.png"" style=""width:200px;border:14px solid red;"">","null","","","","","","","","",""
"","image-keyboard-response","62","36141","0.0-62.0","339ANSOTR6OOYC5V6Y36EG4G3MHIK3","A3TH6B3RUD1MUQ","3ECKRY5B1QIH1N6NFX1ECCW5ZDKIZQ","","141.19999992847443","img/flower5.png","76","142.10000002384186","3","0","1","1","1,0.333,0.333,0.333,1,0.333,0.333,0.333,1","1,0.333,0.333,0.333,1,0.333,0.333,0.333,1","1",""
"","html-keyboard-response","63","36443","0.0-63.0","339ANSOTR6OOYC5V6Y36EG4G3MHIK3","A3TH6B3RUD1MUQ","3ECKRY5B1QIH1N6NFX1ECCW5ZDKIZQ","","null","<img src=""img/flower5.png"" style=""width:200px;border:14px solid red;"">","null","","","","","","","","",""
"","image-keyboard-response","64","36516","0.0-64.0","339ANSOTR6OOYC5V6Y36EG4G3MHIK3","A3TH6B3RUD1MUQ","3ECKRY5B1QIH1N6NFX1ECCW5ZDKIZQ","","72.20000004768372","img/flower2.png","74","73.19999992847443","1","1","2","1","1,0.333,0.333,0.333,1,0.333,0.333,0.333,1","1,0.333,0.333,0.333,1,0.333,0.333,0.333,1","1",""
"","html-keyboard-response","65","36819","0.0-65.0","339ANSOTR6OOYC5V6Y36EG4G3MHIK3","A3TH6B3RUD1MUQ","3ECKRY5B1QIH1N6NFX1ECCW5ZDKIZQ","","null","<img src=""img/flower2.png"" style=""width:200px; border:14px solid green;"">","null","","","","","","","","",""
"","image-keyboard-response","66","37076","0.0-66.0","339ANSOTR6OOYC5V6Y36EG4G3MHIK3","A3TH6B3RUD1MUQ","3ECKRY5B1QIH1N6NFX1ECCW5ZDKIZQ","","255.80000007152557","img/flower1.png","76","256.60000002384186","3","1","3","1","1,0.333,0.333,0.333,1,0.333,0.333,0.333,1","1,0.333,0.333,0.333,1,0.333,0.333,0.333,1","1",""
"","html-keyboard-response","67","37378","0.0-67.0","339ANSOTR6OOYC5V6Y36EG4G3MHIK3","A3TH6B3RUD1MUQ","3ECKRY5B1QIH1N6NFX1ECCW5ZDKIZQ","","null","<img src=""img/flower1.png"" style=""width:200px; border:14px solid green;"">","null","","","","","","","","",""
"","image-keyboard-response","68","37466","0.0-68.0","339ANSOTR6OOYC5V6Y36EG4G3MHIK3","A3TH6B3RUD1MUQ","3ECKRY5B1QIH1N6NFX1ECCW5ZDKIZQ","","87.79999995231628","img/flower2.png","74","88.5","1","1","2","1","1,0.333,0.333,0.333,1,0.333,0.333,0.333,1","1,0.333,0.333,0.333,1,0.333,0.333,0.333,1","1",""
"","html-keyboard-response","69","37768","0.0-69.0","339ANSOTR6OOYC5V6Y36EG4G3MHIK3","A3TH6B3RUD1MUQ","3ECKRY5B1QIH1N6NFX1ECCW5ZDKIZQ","","null","<img src=""img/flower2.png"" style=""width:200px; border:14px solid green;"">","null","","","","","","","","",""
"","image-keyboard-response","70","37846","0.0-70.0","339ANSOTR6OOYC5V6Y36EG4G3MHIK3","A3TH6B3RUD1MUQ","3ECKRY5B1QIH1N6NFX1ECCW5ZDKIZQ","","77.39999997615814","img/flower5.png","76","78.30000007152557","3","1","1","1","1,0.333,0.333,0.333,1,0.333,0.333,0.333,1","1,0.333,0.333,0.333,1,0.333,0.333,0.333,1","1",""
"","html-keyboard-response","71","38148","0.0-71.0","339ANSOTR6OOYC5V6Y36EG4G3MHIK3","A3TH6B3RUD1MUQ","3ECKRY5B1QIH1N6NFX1ECCW5ZDKIZQ","","null","<img src=""img/flower5.png"" style=""width:200px; border:14px solid green;"">","null","","","","","","","","",""
"","image-keyboard-response","72","38256","0.0-72.0","339ANSOTR6OOYC5V6Y36EG4G3MHIK3","A3TH6B3RUD1MUQ","3ECKRY5B1QIH1N6NFX1ECCW5ZDKIZQ","","107.60000002384186","img/flower2.png","74","108.39999997615814","1","0","2","1","1,0.333,0.333,0.333,1,0.333,0.333,0.333,1","1,0.333,0.333,0.333,1,0.333,0.333,0.333,1","1",""
"","html-keyboard-response","73","38559","0.0-73.0","339ANSOTR6OOYC5V6Y36EG4G3MHIK3","A3TH6B3RUD1MUQ","3ECKRY5B1QIH1N6NFX1ECCW5ZDKIZQ","","null","<img src=""img/flower2.png"" style=""width:200px;border:14px solid red;"">","null","","","","","","","","",""
"","image-keyboard-response","74","38626","0.0-74.0","339ANSOTR6OOYC5V6Y36EG4G3MHIK3","A3TH6B3RUD1MUQ","3ECKRY5B1QIH1N6NFX1ECCW5ZDKIZQ","","66.39999997615814","img/flower1.png","76","67.20000004768372","3","1","3","1","1,0.333,0.333,0.333,1,0.333,0.333,0.333,1","1,0.333,0.333,0.333,1,0.333,0.333,0.333,1","1",""
"","html-keyboard-response","75","38928","0.0-75.0","339ANSOTR6OOYC5V6Y36EG4G3MHIK3","A3TH6B3RUD1MUQ","3ECKRY5B1QIH1N6NFX1ECCW5ZDKIZQ","","null","<img src=""img/flower1.png"" style=""width:200px; border:14px solid green;"">","null","","","","","","","","",""
"","image-keyboard-response","76","38946","0.0-76.0","339ANSOTR6OOYC5V6Y36EG4G3MHIK3","A3TH6B3RUD1MUQ","3ECKRY5B1QIH1N6NFX1ECCW5ZDKIZQ","","16.800000071525574","img/flower2.png","75","17.799999952316284","2","1","2","1","1,0.333,0.333,0.333,1,0.333,0.333,0.333,1","1,0.333,0.333,0.333,1,0.333,0.333,0.333,1","1",""
"","html-keyboard-response","77","39248","0.0-77.0","339ANSOTR6OOYC5V6Y36EG4G3MHIK3","A3TH6B3RUD1MUQ","3ECKRY5B1QIH1N6NFX1ECCW5ZDKIZQ","","null","<img src=""img/flower2.png"" style=""width:200px; border:14px solid green;"">","null","","","","","","","","",""
"","image-keyboard-response","78","39396","0.0-78.0","339ANSOTR6OOYC5V6Y36EG4G3MHIK3","A3TH6B3RUD1MUQ","3ECKRY5B1QIH1N6NFX1ECCW5ZDKIZQ","","147.10000002384186","img/flower2.png","76","147.89999997615814","3","0","2","1","1,0.333,0.333,0.333,1,0.333,0.333,0.333,1","1,0.333,0.333,0.333,1,0.333,0.333,0.333,1","1",""
"","html-keyboard-response","79","39698","0.0-79.0","339ANSOTR6OOYC5V6Y36EG4G3MHIK3","A3TH6B3RUD1MUQ","3ECKRY5B1QIH1N6NFX1ECCW5ZDKIZQ","","null","<img src=""img/flower2.png"" style=""width:200px;border:14px solid red;"">","null","","","","","","","","",""
"","image-keyboard-response","80","39786","0.0-80.0","339ANSOTR6OOYC5V6Y36EG4G3MHIK3","A3TH6B3RUD1MUQ","3ECKRY5B1QIH1N6NFX1ECCW5ZDKIZQ","","86.70000004768372","img/flower2.png","76","87.60000002384186","3","0","2","1","1,0.333,0.333,0.333,1,0.333,0.333,0.333,1","1,0.333,0.333,0.333,1,0.333,0.333,0.333,1","1",""
"","html-keyboard-response","81","40088","0.0-81.0","339ANSOTR6OOYC5V6Y36EG4G3MHIK3","A3TH6B3RUD1MUQ","3ECKRY5B1QIH1N6NFX1ECCW5ZDKIZQ","","null","<img src=""img/flower2.png"" style=""width:200px;border:14px solid red;"">","null","","","","","","","","",""
"","image-keyboard-response","82","40196","0.0-82.0","339ANSOTR6OOYC5V6Y36EG4G3MHIK3","A3TH6B3RUD1MUQ","3ECKRY5B1QIH1N6NFX1ECCW5ZDKIZQ","","107.10000002384186","img/flower5.png","74","107.89999997615814","1","1","1","1","1,0.333,0.333,0.333,1,0.333,0.333,0.333,1","1,0.333,0.333,0.333,1,0.333,0.333,0.333,1","1",""
"","html-keyboard-response","83","40498","0.0-83.0","339ANSOTR6OOYC5V6Y36EG4G3MHIK3","A3TH6B3RUD1MUQ","3ECKRY5B1QIH1N6NFX1ECCW5ZDKIZQ","","null","<img src=""img/flower5.png"" style=""width:200px; border:14px solid green;"">","null","","","","","","","","",""
"","image-keyboard-response","84","40596","0.0-84.0","339ANSOTR6OOYC5V6Y36EG4G3MHIK3","A3TH6B3RUD1MUQ","3ECKRY5B1QIH1N6NFX1ECCW5ZDKIZQ","","96.69999992847443","img/flower1.png","75","97.80000007152557","2","0","3","1","1,0.333,0.333,0.333,1,0.333,0.333,0.333,1","1,0.333,0.333,0.333,1,0.333,0.333,0.333,1","1",""
"","html-keyboard-response","85","40898","0.0-85.0","339ANSOTR6OOYC5V6Y36EG4G3MHIK3","A3TH6B3RUD1MUQ","3ECKRY5B1QIH1N6NFX1ECCW5ZDKIZQ","","null","<img src=""img/flower1.png"" style=""width:200px;border:14px solid red;"">","null","","","","","","","","",""
"","image-keyboard-response","86","40976","0.0-86.0","339ANSOTR6OOYC5V6Y36EG4G3MHIK3","A3TH6B3RUD1MUQ","3ECKRY5B1QIH1N6NFX1ECCW5ZDKIZQ","","76.79999995231628","img/flower1.png","75","77.60000002384186","2","0","3","1","1,0.333,0.333,0.333,1,0.333,0.333,0.333,1","1,0.333,0.333,0.333,1,0.333,0.333,0.333,1","1",""
"","html-keyboard-response","87","41278","0.0-87.0","339ANSOTR6OOYC5V6Y36EG4G3MHIK3","A3TH6B3RUD1MUQ","3ECKRY5B1QIH1N6NFX1ECCW5ZDKIZQ","","null","<img src=""img/flower1.png"" style=""width:200px;border:14px solid red;"">","null","","","","","","","","",""
"","image-keyboard-response","88","41346","0.0-88.0","339ANSOTR6OOYC5V6Y36EG4G3MHIK3","A3TH6B3RUD1MUQ","3ECKRY5B1QIH1N6NFX1ECCW5ZDKIZQ","","66.29999995231628","img/flower2.png","76","67.20000004768372","3","1","2","1","1,0.333,0.333,0.333,1,0.333,0.333,0.333,1","1,0.333,0.333,0.333,1,0.333,0.333,0.333,1","1",""
"","html-keyboard-response","89","41648","0.0-89.0","339ANSOTR6OOYC5V6Y36EG4G3MHIK3","A3TH6B3RUD1MUQ","3ECKRY5B1QIH1N6NFX1ECCW5ZDKIZQ","","null","<img src=""img/flower2.png"" style=""width:200px; border:14px solid green;"">","null","","","","","","","","",""
"","image-keyboard-response","90","41736","0.0-90.0","339ANSOTR6OOYC5V6Y36EG4G3MHIK3","A3TH6B3RUD1MUQ","3ECKRY5B1QIH1N6NFX1ECCW5ZDKIZQ","","87","img/flower5.png","75","87.89999997615814","2","0","1","1","1,0.333,0.333,0.333,1,0.333,0.333,0.333,1","1,0.333,0.333,0.333,1,0.333,0.333,0.333,1","1",""
"","html-keyboard-response","91","42038","0.0-91.0","339ANSOTR6OOYC5V6Y36EG4G3MHIK3","A3TH6B3RUD1MUQ","3ECKRY5B1QIH1N6NFX1ECCW5ZDKIZQ","","null","<img src=""img/flower5.png"" style=""width:200px;border:14px solid red;"">","null","","","","","","","","",""
"","image-keyboard-response","92","42126","0.0-92.0","339ANSOTR6OOYC5V6Y36EG4G3MHIK3","A3TH6B3RUD1MUQ","3ECKRY5B1QIH1N6NFX1ECCW5ZDKIZQ","","87","img/flower2.png","75","88.19999992847443","2","1","2","1","1,0.333,0.333,0.333,1,0.333,0.333,0.333,1","1,0.333,0.333,0.333,1,0.333,0.333,0.333,1","1",""
"","html-keyboard-response","93","42429","0.0-93.0","339ANSOTR6OOYC5V6Y36EG4G3MHIK3","A3TH6B3RUD1MUQ","3ECKRY5B1QIH1N6NFX1ECCW5ZDKIZQ","","null","<img src=""img/flower2.png"" style=""width:200px; border:14px solid green;"">","null","","","","","","","","",""
"","image-keyboard-response","94","42567","0.0-94.0","339ANSOTR6OOYC5V6Y36EG4G3MHIK3","A3TH6B3RUD1MUQ","3ECKRY5B1QIH1N6NFX1ECCW5ZDKIZQ","","136.10000002384186","img/flower5.png","76","137.20000004768372","3","0","1","1","1,0.333,0.333,0.333,1,0.333,0.333,0.333,1","1,0.333,0.333,0.333,1,0.333,0.333,0.333,1","1",""
"","html-keyboard-response","95","42870","0.0-95.0","339ANSOTR6OOYC5V6Y36EG4G3MHIK3","A3TH6B3RUD1MUQ","3ECKRY5B1QIH1N6NFX1ECCW5ZDKIZQ","","null","<img src=""img/flower5.png"" style=""width:200px;border:14px solid red;"">","null","","","","","","","","",""
"","image-keyboard-response","96","43016","0.0-96.0","339ANSOTR6OOYC5V6Y36EG4G3MHIK3","A3TH6B3RUD1MUQ","3ECKRY5B1QIH1N6NFX1ECCW5ZDKIZQ","","145.5","img/flower2.png","75","146.60000002384186","2","1","2","1","1,0.333,0.333,0.333,1,0.333,0.333,0.333,1","1,0.333,0.333,0.333,1,0.333,0.333,0.333,1","1",""
"","html-keyboard-response","97","43319","0.0-97.0","339ANSOTR6OOYC5V6Y36EG4G3MHIK3","A3TH6B3RUD1MUQ","3ECKRY5B1QIH1N6NFX1ECCW5ZDKIZQ","","null","<img src=""img/flower2.png"" style=""width:200px; border:14px solid green;"">","null","","","","","","","","",""
"","image-keyboard-response","98","43686","0.0-98.0","339ANSOTR6OOYC5V6Y36EG4G3MHIK3","A3TH6B3RUD1MUQ","3ECKRY5B1QIH1N6NFX1ECCW5ZDKIZQ","","366.59999990463257","img/flower5.png","76","367.39999997615814","3","1","1","1","1,0.333,0.333,0.333,1,0.333,0.333,0.333,1","1,0.333,0.333,0.333,1,0.333,0.333,0.333,1","1",""
"","html-keyboard-response","99","43988","0.0-99.0","339ANSOTR6OOYC5V6Y36EG4G3MHIK3","A3TH6B3RUD1MUQ","3ECKRY5B1QIH1N6NFX1ECCW5ZDKIZQ","","null","<img src=""img/flower5.png"" style=""width:200px; border:14px solid green;"">","null","","","","","","","","",""
"","image-keyboard-response","100","44046","0.0-100.0","339ANSOTR6OOYC5V6Y36EG4G3MHIK3","A3TH6B3RUD1MUQ","3ECKRY5B1QIH1N6NFX1ECCW5ZDKIZQ","","57","img/flower2.png","74","58.10000002384186","1","0","2","1","1,0.333,0.333,0.333,1,0.333,0.333,0.333,1","1,0.333,0.333,0.333,1,0.333,0.333,0.333,1","1",""
"","html-keyboard-response","101","44349","0.0-101.0","339ANSOTR6OOYC5V6Y36EG4G3MHIK3","A3TH6B3RUD1MUQ","3ECKRY5B1QIH1N6NFX1ECCW5ZDKIZQ","","null","<img src=""img/flower2.png"" style=""width:200px;border:14px solid red;"">","null","","","","","","","","",""
"","image-keyboard-response","102","44526","0.0-102.0","339ANSOTR6OOYC5V6Y36EG4G3MHIK3","A3TH6B3RUD1MUQ","3ECKRY5B1QIH1N6NFX1ECCW5ZDKIZQ","","176","img/flower5.png","76","176.90000009536743","3","0","1","1","1,0.333,0.333,0.333,1,0.333,0.333,0.333,1","1,0.333,0.333,0.333,1,0.333,0.333,0.333,1","1",""
"","html-keyboard-response","103","44828","0.0-103.0","339ANSOTR6OOYC5V6Y36EG4G3MHIK3","A3TH6B3RUD1MUQ","3ECKRY5B1QIH1N6NFX1ECCW5ZDKIZQ","","null","<img src=""img/flower5.png"" style=""width:200px;border:14px solid red;"">","null","","","","","","","","",""
"","image-keyboard-response","104","44981","0.0-104.0","339ANSOTR6OOYC5V6Y36EG4G3MHIK3","A3TH6B3RUD1MUQ","3ECKRY5B1QIH1N6NFX1ECCW5ZDKIZQ","","151.79999995231628","img/flower2.png","75","152.80000007152557","2","1","2","1","1,0.333,0.333,0.333,1,0.333,0.333,0.333,1","1,0.333,0.333,0.333,1,0.333,0.333,0.333,1","1",""
"","html-keyboard-response","105","45284","0.0-105.0","339ANSOTR6OOYC5V6Y36EG4G3MHIK3","A3TH6B3RUD1MUQ","3ECKRY5B1QIH1N6NFX1ECCW5ZDKIZQ","","null","<img src=""img/flower2.png"" style=""width:200px; border:14px solid green;"">","null","","","","","","","","",""
"","image-keyboard-response","106","45386","0.0-106.0","339ANSOTR6OOYC5V6Y36EG4G3MHIK3","A3TH6B3RUD1MUQ","3ECKRY5B1QIH1N6NFX1ECCW5ZDKIZQ","","101.20000004768372","img/flower2.png","76","102.29999995231628","3","0","2","1","1,0.333,0.333,0.333,1,0.333,0.333,0.333,1","1,0.333,0.333,0.333,1,0.333,0.333,0.333,1","1",""
"","html-keyboard-response","107","45688","0.0-107.0","339ANSOTR6OOYC5V6Y36EG4G3MHIK3","A3TH6B3RUD1MUQ","3ECKRY5B1QIH1N6NFX1ECCW5ZDKIZQ","","null","<img src=""img/flower2.png"" style=""width:200px;border:14px solid red;"">","null","","","","","","","","",""
"","image-keyboard-response","108","45796","0.0-108.0","339ANSOTR6OOYC5V6Y36EG4G3MHIK3","A3TH6B3RUD1MUQ","3ECKRY5B1QIH1N6NFX1ECCW5ZDKIZQ","","107","img/flower1.png","76","108","3","1","3","1","1,0.333,0.333,0.333,1,0.333,0.333,0.333,1","1,0.333,0.333,0.333,1,0.333,0.333,0.333,1","1",""
"","html-keyboard-response","109","46098","0.0-109.0","339ANSOTR6OOYC5V6Y36EG4G3MHIK3","A3TH6B3RUD1MUQ","3ECKRY5B1QIH1N6NFX1ECCW5ZDKIZQ","","null","<img src=""img/flower1.png"" style=""width:200px; border:14px solid green;"">","null","","","","","","","","",""
"","image-keyboard-response","110","46206","0.0-110.0","339ANSOTR6OOYC5V6Y36EG4G3MHIK3","A3TH6B3RUD1MUQ","3ECKRY5B1QIH1N6NFX1ECCW5ZDKIZQ","","107","img/flower2.png","74","108.10000002384186","1","0","2","1","1,0.333,0.333,0.333,1,0.333,0.333,0.333,1","1,0.333,0.333,0.333,1,0.333,0.333,0.333,1","1",""
"","html-keyboard-response","111","46508","0.0-111.0","339ANSOTR6OOYC5V6Y36EG4G3MHIK3","A3TH6B3RUD1MUQ","3ECKRY5B1QIH1N6NFX1ECCW5ZDKIZQ","","null","<img src=""img/flower2.png"" style=""width:200px;border:14px solid red;"">","null","","","","","","","","",""
"","image-keyboard-response","112","46626","0.0-112.0","339ANSOTR6OOYC5V6Y36EG4G3MHIK3","A3TH6B3RUD1MUQ","3ECKRY5B1QIH1N6NFX1ECCW5ZDKIZQ","","117","img/flower2.png","76","118.30000007152557","3","0","2","1","1,0.333,0.333,0.333,1,0.333,0.333,0.333,1","1,0.333,0.333,0.333,1,0.333,0.333,0.333,1","1",""
"","html-keyboard-response","113","46929","0.0-113.0","339ANSOTR6OOYC5V6Y36EG4G3MHIK3","A3TH6B3RUD1MUQ","3ECKRY5B1QIH1N6NFX1ECCW5ZDKIZQ","","null","<img src=""img/flower2.png"" style=""width:200px;border:14px solid red;"">","null","","","","","","","","",""
"","image-keyboard-response","114","47066","0.0-114.0","339ANSOTR6OOYC5V6Y36EG4G3MHIK3","A3TH6B3RUD1MUQ","3ECKRY5B1QIH1N6NFX1ECCW5ZDKIZQ","","135.70000004768372","img/flower5.png","75","136.5","2","1","1","1","1,0.333,0.333,0.333,1,0.333,0.333,0.333,1","1,0.333,0.333,0.333,1,0.333,0.333,0.333,1","1",""
"","html-keyboard-response","115","47369","0.0-115.0","339ANSOTR6OOYC5V6Y36EG4G3MHIK3","A3TH6B3RUD1MUQ","3ECKRY5B1QIH1N6NFX1ECCW5ZDKIZQ","","null","<img src=""img/flower5.png"" style=""width:200px; border:14px solid green;"">","null","","","","","","","","",""
"","image-keyboard-response","116","47516","0.0-116.0","339ANSOTR6OOYC5V6Y36EG4G3MHIK3","A3TH6B3RUD1MUQ","3ECKRY5B1QIH1N6NFX1ECCW5ZDKIZQ","","146.80000007152557","img/flower2.png","76","147.69999992847443","3","0","2","1","1,0.333,0.333,0.333,1,0.333,0.333,0.333,1","1,0.333,0.333,0.333,1,0.333,0.333,0.333,1","1",""
"","html-keyboard-response","117","47818","0.0-117.0","339ANSOTR6OOYC5V6Y36EG4G3MHIK3","A3TH6B3RUD1MUQ","3ECKRY5B1QIH1N6NFX1ECCW5ZDKIZQ","","null","<img src=""img/flower2.png"" style=""width:200px;border:14px solid red;"">","null","","","","","","","","",""
"","image-keyboard-response","118","47876","0.0-118.0","339ANSOTR6OOYC5V6Y36EG4G3MHIK3","A3TH6B3RUD1MUQ","3ECKRY5B1QIH1N6NFX1ECCW5ZDKIZQ","","56.700000047683716","img/flower5.png","76","57.799999952316284","3","1","1","1","1,0.333,0.333,0.333,1,0.333,0.333,0.333,1","1,0.333,0.333,0.333,1,0.333,0.333,0.333,1","1",""
"","html-keyboard-response","119","48178","0.0-119.0","339ANSOTR6OOYC5V6Y36EG4G3MHIK3","A3TH6B3RUD1MUQ","3ECKRY5B1QIH1N6NFX1ECCW5ZDKIZQ","","null","<img src=""img/flower5.png"" style=""width:200px; border:14px solid green;"">","null","","","","","","","","",""
"","image-keyboard-response","120","48346","0.0-120.0","339ANSOTR6OOYC5V6Y36EG4G3MHIK3","A3TH6B3RUD1MUQ","3ECKRY5B1QIH1N6NFX1ECCW5ZDKIZQ","","166.60000002384186","img/flower2.png","74","167.60000002384186","1","0","2","1","1,0.333,0.333,0.333,1,0.333,0.333,0.333,1","1,0.333,0.333,0.333,1,0.333,0.333,0.333,1","1",""
"","html-keyboard-response","121","48648","0.0-121.0","339ANSOTR6OOYC5V6Y36EG4G3MHIK3","A3TH6B3RUD1MUQ","3ECKRY5B1QIH1N6NFX1ECCW5ZDKIZQ","","null","<img src=""img/flower2.png"" style=""width:200px;border:14px solid red;"">","null","","","","","","","","",""
"","image-keyboard-response","122","48726","0.0-122.0","339ANSOTR6OOYC5V6Y36EG4G3MHIK3","A3TH6B3RUD1MUQ","3ECKRY5B1QIH1N6NFX1ECCW5ZDKIZQ","","76.5","img/flower1.png","76","77.70000004768372","3","1","3","1","1,0.333,0.333,0.333,1,0.333,0.333,0.333,1","1,0.333,0.333,0.333,1,0.333,0.333,0.333,1","1",""
"","html-keyboard-response","123","49028","0.0-123.0","339ANSOTR6OOYC5V6Y36EG4G3MHIK3","A3TH6B3RUD1MUQ","3ECKRY5B1QIH1N6NFX1ECCW5ZDKIZQ","","null","<img src=""img/flower1.png"" style=""width:200px; border:14px solid green;"">","null","","","","","","","","",""
"","image-keyboard-response","124","49136","0.0-124.0","339ANSOTR6OOYC5V6Y36EG4G3MHIK3","A3TH6B3RUD1MUQ","3ECKRY5B1QIH1N6NFX1ECCW5ZDKIZQ","","106.5","img/flower1.png","76","107.30000007152557","3","1","3","1","1,0.333,0.333,0.333,1,0.333,0.333,0.333,1","1,0.333,0.333,0.333,1,0.333,0.333,0.333,1","1",""
"","html-keyboard-response","125","49438","0.0-125.0","339ANSOTR6OOYC5V6Y36EG4G3MHIK3","A3TH6B3RUD1MUQ","3ECKRY5B1QIH1N6NFX1ECCW5ZDKIZQ","","null","<img src=""img/flower1.png"" style=""width:200px; border:14px solid green;"">","null","","","","","","","","",""
"","image-keyboard-response","126","49526","0.0-126.0","339ANSOTR6OOYC5V6Y36EG4G3MHIK3","A3TH6B3RUD1MUQ","3ECKRY5B1QIH1N6NFX1ECCW5ZDKIZQ","","86.5","img/flower5.png","76","87.5","3","1","1","1","1,0.333,0.333,0.333,1,0.333,0.333,0.333,1","1,0.333,0.333,0.333,1,0.333,0.333,0.333,1","1",""
"","html-keyboard-response","127","49828","0.0-127.0","339ANSOTR6OOYC5V6Y36EG4G3MHIK3","A3TH6B3RUD1MUQ","3ECKRY5B1QIH1N6NFX1ECCW5ZDKIZQ","","null","<img src=""img/flower5.png"" style=""width:200px; border:14px solid green;"">","null","","","","","","","","",""
"","image-keyboard-response","128","49966","0.0-128.0","339ANSOTR6OOYC5V6Y36EG4G3MHIK3","A3TH6B3RUD1MUQ","3ECKRY5B1QIH1N6NFX1ECCW5ZDKIZQ","","136.59999990463257","img/flower1.png","76","137.5","3","1","3","1","1,0.333,0.333,0.333,1,0.333,0.333,0.333,1","1,0.333,0.333,0.333,1,0.333,0.333,0.333,1","1",""
"","html-keyboard-response","129","50268","0.0-129.0","339ANSOTR6OOYC5V6Y36EG4G3MHIK3","A3TH6B3RUD1MUQ","3ECKRY5B1QIH1N6NFX1ECCW5ZDKIZQ","","null","<img src=""img/flower1.png"" style=""width:200px; border:14px solid green;"">","null","","","","","","","","",""
"","image-keyboard-response","130","50296","0.0-130.0","339ANSOTR6OOYC5V6Y36EG4G3MHIK3","A3TH6B3RUD1MUQ","3ECKRY5B1QIH1N6NFX1ECCW5ZDKIZQ","","26.899999976158142","img/flower2.png","74","27.899999976158142","1","1","2","1","1,0.333,0.333,0.333,1,0.333,0.333,0.333,1","1,0.333,0.333,0.333,1,0.333,0.333,0.333,1","1",""
"","html-keyboard-response","131","50598","0.0-131.0","339ANSOTR6OOYC5V6Y36EG4G3MHIK3","A3TH6B3RUD1MUQ","3ECKRY5B1QIH1N6NFX1ECCW5ZDKIZQ","","null","<img src=""img/flower2.png"" style=""width:200px; border:14px solid green;"">","null","","","","","","","","",""
"","image-keyboard-response","132","50656","0.0-132.0","339ANSOTR6OOYC5V6Y36EG4G3MHIK3","A3TH6B3RUD1MUQ","3ECKRY5B1QIH1N6NFX1ECCW5ZDKIZQ","","56.700000047683716","img/flower1.png","76","57.699999928474426","3","1","3","1","1,0.333,0.333,0.333,1,0.333,0.333,0.333,1","1,0.333,0.333,0.333,1,0.333,0.333,0.333,1","1",""
"","html-keyboard-response","133","50957","0.0-133.0","339ANSOTR6OOYC5V6Y36EG4G3MHIK3","A3TH6B3RUD1MUQ","3ECKRY5B1QIH1N6NFX1ECCW5ZDKIZQ","","null","<img src=""img/flower1.png"" style=""width:200px; border:14px solid green;"">","null","","","","","","","","",""
"","image-keyboard-response","134","51096","0.0-134.0","339ANSOTR6OOYC5V6Y36EG4G3MHIK3","A3TH6B3RUD1MUQ","3ECKRY5B1QIH1N6NFX1ECCW5ZDKIZQ","","137.29999995231628","img/flower2.png","74","138.20000004768372","1","1","2","1","1,0.333,0.333,0.333,1,0.333,0.333,0.333,1","1,0.333,0.333,0.333,1,0.333,0.333,0.333,1","1",""
"","html-keyboard-response","135","51398","0.0-135.0","339ANSOTR6OOYC5V6Y36EG4G3MHIK3","A3TH6B3RUD1MUQ","3ECKRY5B1QIH1N6NFX1ECCW5ZDKIZQ","","null","<img src=""img/flower2.png"" style=""width:200px; border:14px solid green;"">","null","","","","","","","","",""
"","image-keyboard-response","136","51526","0.0-136.0","339ANSOTR6OOYC5V6Y36EG4G3MHIK3","A3TH6B3RUD1MUQ","3ECKRY5B1QIH1N6NFX1ECCW5ZDKIZQ","","126.90000009536743","img/flower1.png","76","127.89999997615814","3","1","3","1","1,0.333,0.333,0.333,1,0.333,0.333,0.333,1","1,0.333,0.333,0.333,1,0.333,0.333,0.333,1","1",""
"","html-keyboard-response","137","51829","0.0-137.0","339ANSOTR6OOYC5V6Y36EG4G3MHIK3","A3TH6B3RUD1MUQ","3ECKRY5B1QIH1N6NFX1ECCW5ZDKIZQ","","null","<img src=""img/flower1.png"" style=""width:200px; border:14px solid green;"">","null","","","","","","","","",""
"","image-keyboard-response","138","51956","0.0-138.0","339ANSOTR6OOYC5V6Y36EG4G3MHIK3","A3TH6B3RUD1MUQ","3ECKRY5B1QIH1N6NFX1ECCW5ZDKIZQ","","125","img/flower2.png","76","126","3","1","2","1","1,0.333,0.333,0.333,1,0.333,0.333,0.333,1","1,0.333,0.333,0.333,1,0.333,0.333,0.333,1","1",""
"","html-keyboard-response","139","52258","0.0-139.0","339ANSOTR6OOYC5V6Y36EG4G3MHIK3","A3TH6B3RUD1MUQ","3ECKRY5B1QIH1N6NFX1ECCW5ZDKIZQ","","null","<img src=""img/flower2.png"" style=""width:200px; border:14px solid green;"">","null","","","","","","","","",""
"","image-keyboard-response","140","52366","0.0-140.0","339ANSOTR6OOYC5V6Y36EG4G3MHIK3","A3TH6B3RUD1MUQ","3ECKRY5B1QIH1N6NFX1ECCW5ZDKIZQ","","106.5","img/flower2.png","76","107.60000002384186","3","0","2","1","1,0.333,0.333,0.333,1,0.333,0.333,0.333,1","1,0.333,0.333,0.333,1,0.333,0.333,0.333,1","1",""
"","html-keyboard-response","141","52669","0.0-141.0","339ANSOTR6OOYC5V6Y36EG4G3MHIK3","A3TH6B3RUD1MUQ","3ECKRY5B1QIH1N6NFX1ECCW5ZDKIZQ","","null","<img src=""img/flower2.png"" style=""width:200px;border:14px solid red;"">","null","","","","","","","","",""
"","image-keyboard-response","142","52806","0.0-142.0","339ANSOTR6OOYC5V6Y36EG4G3MHIK3","A3TH6B3RUD1MUQ","3ECKRY5B1QIH1N6NFX1ECCW5ZDKIZQ","","135.5","img/flower2.png","74","136.30000007152557","1","1","2","1","1,0.333,0.333,0.333,1,0.333,0.333,0.333,1","1,0.333,0.333,0.333,1,0.333,0.333,0.333,1","1",""
"","html-keyboard-response","143","53108","0.0-143.0","339ANSOTR6OOYC5V6Y36EG4G3MHIK3","A3TH6B3RUD1MUQ","3ECKRY5B1QIH1N6NFX1ECCW5ZDKIZQ","","null","<img src=""img/flower2.png"" style=""width:200px; border:14px solid green;"">","null","","","","","","","","",""
"","image-keyboard-response","144","53236","0.0-144.0","339ANSOTR6OOYC5V6Y36EG4G3MHIK3","A3TH6B3RUD1MUQ","3ECKRY5B1QIH1N6NFX1ECCW5ZDKIZQ","","126.20000004768372","img/flower5.png","76","126.89999997615814","3","0","1","1","1,0.333,0.333,0.333,1,0.333,0.333,0.333,1","1,0.333,0.333,0.333,1,0.333,0.333,0.333,1","1",""
"","html-keyboard-response","145","53538","0.0-145.0","339ANSOTR6OOYC5V6Y36EG4G3MHIK3","A3TH6B3RUD1MUQ","3ECKRY5B1QIH1N6NFX1ECCW5ZDKIZQ","","null","<img src=""img/flower5.png"" style=""width:200px;border:14px solid red;"">","null","","","","","","","","",""
"","image-keyboard-response","146","53646","0.0-146.0","339ANSOTR6OOYC5V6Y36EG4G3MHIK3","A3TH6B3RUD1MUQ","3ECKRY5B1QIH1N6NFX1ECCW5ZDKIZQ","","106.19999992847443","img/flower2.png","76","107.5","3","1","2","1","1,0.333,0.333,0.333,1,0.333,0.333,0.333,1","1,0.333,0.333,0.333,1,0.333,0.333,0.333,1","1",""
"","html-keyboard-response","147","53947","0.0-147.0","339ANSOTR6OOYC5V6Y36EG4G3MHIK3","A3TH6B3RUD1MUQ","3ECKRY5B1QIH1N6NFX1ECCW5ZDKIZQ","","null","<img src=""img/flower2.png"" style=""width:200px; border:14px solid green;"">","null","","","","","","","","",""
"","image-keyboard-response","148","54056","0.0-148.0","339ANSOTR6OOYC5V6Y36EG4G3MHIK3","A3TH6B3RUD1MUQ","3ECKRY5B1QIH1N6NFX1ECCW5ZDKIZQ","","107.39999997615814","img/flower1.png","76","109.10000002384186","3","1","3","1","1,0.333,0.333,0.333,1,0.333,0.333,0.333,1","1,0.333,0.333,0.333,1,0.333,0.333,0.333,1","1",""
"","html-keyboard-response","149","54360","0.0-149.0","339ANSOTR6OOYC5V6Y36EG4G3MHIK3","A3TH6B3RUD1MUQ","3ECKRY5B1QIH1N6NFX1ECCW5ZDKIZQ","","null","<img src=""img/flower1.png"" style=""width:200px; border:14px solid green;"">","null","","","","","","","","",""
"","image-keyboard-response","150","54505","0.0-150.0","339ANSOTR6OOYC5V6Y36EG4G3MHIK3","A3TH6B3RUD1MUQ","3ECKRY5B1QIH1N6NFX1ECCW5ZDKIZQ","","144.70000004768372","img/flower1.png","76","145.5","3","1","3","1","1,0.333,0.333,0.333,1,0.333,0.333,0.333,1","1,0.333,0.333,0.333,1,0.333,0.333,0.333,1","1",""
"","html-keyboard-response","151","54807","0.0-151.0","339ANSOTR6OOYC5V6Y36EG4G3MHIK3","A3TH6B3RUD1MUQ","3ECKRY5B1QIH1N6NFX1ECCW5ZDKIZQ","","null","<img src=""img/flower1.png"" style=""width:200px; border:14px solid green;"">","null","","","","","","","","",""
"","image-keyboard-response","152","54916","0.0-152.0","339ANSOTR6OOYC5V6Y36EG4G3MHIK3","A3TH6B3RUD1MUQ","3ECKRY5B1QIH1N6NFX1ECCW5ZDKIZQ","","107.19999992847443","img/flower1.png","76","108.29999995231628","3","1","3","1","1,0.333,0.333,0.333,1,0.333,0.333,0.333,1","1,0.333,0.333,0.333,1,0.333,0.333,0.333,1","1",""
"","html-keyboard-response","153","55219","0.0-153.0","339ANSOTR6OOYC5V6Y36EG4G3MHIK3","A3TH6B3RUD1MUQ","3ECKRY5B1QIH1N6NFX1ECCW5ZDKIZQ","","null","<img src=""img/flower1.png"" style=""width:200px; border:14px solid green;"">","null","","","","","","","","",""
"","image-keyboard-response","154","55346","0.0-154.0","339ANSOTR6OOYC5V6Y36EG4G3MHIK3","A3TH6B3RUD1MUQ","3ECKRY5B1QIH1N6NFX1ECCW5ZDKIZQ","","125.79999995231628","img/flower1.png","74","126.79999995231628","1","1","3","1","1,0.333,0.333,0.333,1,0.333,0.333,0.333,1","1,0.333,0.333,0.333,1,0.333,0.333,0.333,1","1",""
"","html-keyboard-response","155","55648","0.0-155.0","339ANSOTR6OOYC5V6Y36EG4G3MHIK3","A3TH6B3RUD1MUQ","3ECKRY5B1QIH1N6NFX1ECCW5ZDKIZQ","","null","<img src=""img/flower1.png"" style=""width:200px; border:14px solid green;"">","null","","","","","","","","",""
"","image-keyboard-response","156","55786","0.0-156.0","339ANSOTR6OOYC5V6Y36EG4G3MHIK3","A3TH6B3RUD1MUQ","3ECKRY5B1QIH1N6NFX1ECCW5ZDKIZQ","","137","img/flower1.png","76","137.90000009536743","3","1","3","1","1,0.333,0.333,0.333,1,0.333,0.333,0.333,1","1,0.333,0.333,0.333,1,0.333,0.333,0.333,1","1",""
"","html-keyboard-response","157","56088","0.0-157.0","339ANSOTR6OOYC5V6Y36EG4G3MHIK3","A3TH6B3RUD1MUQ","3ECKRY5B1QIH1N6NFX1ECCW5ZDKIZQ","","null","<img src=""img/flower1.png"" style=""width:200px; border:14px solid green;"">","null","","","","","","","","",""
"","image-keyboard-response","158","56166","0.0-158.0","339ANSOTR6OOYC5V6Y36EG4G3MHIK3","A3TH6B3RUD1MUQ","3ECKRY5B1QIH1N6NFX1ECCW5ZDKIZQ","","76.60000002384186","img/flower5.png","75","77.69999992847443","2","0","1","1","1,0.333,0.333,0.333,1,0.333,0.333,0.333,1","1,0.333,0.333,0.333,1,0.333,0.333,0.333,1","1",""
"","html-keyboard-response","159","56469","0.0-159.0","339ANSOTR6OOYC5V6Y36EG4G3MHIK3","A3TH6B3RUD1MUQ","3ECKRY5B1QIH1N6NFX1ECCW5ZDKIZQ","","null","<img src=""img/flower5.png"" style=""width:200px;border:14px solid red;"">","null","","","","","","","","",""
"","image-keyboard-response","160","56819","0.0-160.0","339ANSOTR6OOYC5V6Y36EG4G3MHIK3","A3TH6B3RUD1MUQ","3ECKRY5B1QIH1N6NFX1ECCW5ZDKIZQ","","347.6999999284744","img/flower5.png","76","350.39999997615814","3","1","1","1","1,0.333,0.333,0.333,1,0.333,0.333,0.333,1","1,0.333,0.333,0.333,1,0.333,0.333,0.333,1","1",""
"","html-keyboard-response","161","57121","0.0-161.0","339ANSOTR6OOYC5V6Y36EG4G3MHIK3","A3TH6B3RUD1MUQ","3ECKRY5B1QIH1N6NFX1ECCW5ZDKIZQ","","null","<img src=""img/flower5.png"" style=""width:200px; border:14px solid green;"">","null","","","","","","","","",""
"","image-keyboard-response","162","57196","0.0-162.0","339ANSOTR6OOYC5V6Y36EG4G3MHIK3","A3TH6B3RUD1MUQ","3ECKRY5B1QIH1N6NFX1ECCW5ZDKIZQ","","74.30000007152557","img/flower5.png","76","75","3","0","1","1","1,0.333,0.333,0.333,1,0.333,0.333,0.333,1","1,0.333,0.333,0.333,1,0.333,0.333,0.333,1","1",""
"","html-keyboard-response","163","57498","0.0-163.0","339ANSOTR6OOYC5V6Y36EG4G3MHIK3","A3TH6B3RUD1MUQ","3ECKRY5B1QIH1N6NFX1ECCW5ZDKIZQ","","null","<img src=""img/flower5.png"" style=""width:200px;border:14px solid red;"">","null","","","","","","","","",""
"","image-keyboard-response","164","57616","0.0-164.0","339ANSOTR6OOYC5V6Y36EG4G3MHIK3","A3TH6B3RUD1MUQ","3ECKRY5B1QIH1N6NFX1ECCW5ZDKIZQ","","116.70000004768372","img/flower1.png","76","117.70000004768372","3","1","3","1","1,0.333,0.333,0.333,1,0.333,0.333,0.333,1","1,0.333,0.333,0.333,1,0.333,0.333,0.333,1","1",""
"","html-keyboard-response","165","57918","0.0-165.0","339ANSOTR6OOYC5V6Y36EG4G3MHIK3","A3TH6B3RUD1MUQ","3ECKRY5B1QIH1N6NFX1ECCW5ZDKIZQ","","null","<img src=""img/flower1.png"" style=""width:200px; border:14px solid green;"">","null","","","","","","","","",""
"","image-keyboard-response","166","58045","0.0-166.0","339ANSOTR6OOYC5V6Y36EG4G3MHIK3","A3TH6B3RUD1MUQ","3ECKRY5B1QIH1N6NFX1ECCW5ZDKIZQ","","126","img/flower2.png","76","126.89999997615814","3","1","2","1","1,0.333,0.333,0.333,1,0.333,0.333,0.333,1","1,0.333,0.333,0.333,1,0.333,0.333,0.333,1","1",""
"","html-keyboard-response","167","58348","0.0-167.0","339ANSOTR6OOYC5V6Y36EG4G3MHIK3","A3TH6B3RUD1MUQ","3ECKRY5B1QIH1N6NFX1ECCW5ZDKIZQ","","null","<img src=""img/flower2.png"" style=""width:200px; border:14px solid green;"">","null","","","","","","","","",""
"","image-keyboard-response","168","58436","0.0-168.0","339ANSOTR6OOYC5V6Y36EG4G3MHIK3","A3TH6B3RUD1MUQ","3ECKRY5B1QIH1N6NFX1ECCW5ZDKIZQ","","86.30000007152557","img/flower2.png","75","87.20000004768372","2","1","2","1","1,0.333,0.333,0.333,1,0.333,0.333,0.333,1","1,0.333,0.333,0.333,1,0.333,0.333,0.333,1","1",""
"","html-keyboard-response","169","58738","0.0-169.0","339ANSOTR6OOYC5V6Y36EG4G3MHIK3","A3TH6B3RUD1MUQ","3ECKRY5B1QIH1N6NFX1ECCW5ZDKIZQ","","null","<img src=""img/flower2.png"" style=""width:200px; border:14px solid green;"">","null","","","","","","","","",""
"","image-keyboard-response","170","58796","0.0-170.0","339ANSOTR6OOYC5V6Y36EG4G3MHIK3","A3TH6B3RUD1MUQ","3ECKRY5B1QIH1N6NFX1ECCW5ZDKIZQ","","56.800000071525574","img/flower2.png","76","58","3","0","2","1","1,0.333,0.333,0.333,1,0.333,0.333,0.333,1","1,0.333,0.333,0.333,1,0.333,0.333,0.333,1","1",""
"","html-keyboard-response","171","59099","0.0-171.0","339ANSOTR6OOYC5V6Y36EG4G3MHIK3","A3TH6B3RUD1MUQ","3ECKRY5B1QIH1N6NFX1ECCW5ZDKIZQ","","null","<img src=""img/flower2.png"" style=""width:200px;border:14px solid red;"">","null","","","","","","","","",""
"","image-keyboard-response","172","59417","0.0-172.0","339ANSOTR6OOYC5V6Y36EG4G3MHIK3","A3TH6B3RUD1MUQ","3ECKRY5B1QIH1N6NFX1ECCW5ZDKIZQ","","315.7999999523163","img/flower1.png","75","316.8000000715256","2","1","3","1","1,0.333,0.333,0.333,1,0.333,0.333,0.333,1","1,0.333,0.333,0.333,1,0.333,0.333,0.333,1","1",""
"","html-keyboard-response","173","59720","0.0-173.0","339ANSOTR6OOYC5V6Y36EG4G3MHIK3","A3TH6B3RUD1MUQ","3ECKRY5B1QIH1N6NFX1ECCW5ZDKIZQ","","null","<img src=""img/flower1.png"" style=""width:200px; border:14px solid green;"">","null","","","","","","","","",""
"","image-keyboard-response","174","59827","0.0-174.0","339ANSOTR6OOYC5V6Y36EG4G3MHIK3","A3TH6B3RUD1MUQ","3ECKRY5B1QIH1N6NFX1ECCW5ZDKIZQ","","106.20000004768372","img/flower5.png","76","107.19999992847443","3","0","1","1","1,0.333,0.333,0.333,1,0.333,0.333,0.333,1","1,0.333,0.333,0.333,1,0.333,0.333,0.333,1","1",""
"","html-keyboard-response","175","60130","0.0-175.0","339ANSOTR6OOYC5V6Y36EG4G3MHIK3","A3TH6B3RUD1MUQ","3ECKRY5B1QIH1N6NFX1ECCW5ZDKIZQ","","null","<img src=""img/flower5.png"" style=""width:200px;border:14px solid red;"">","null","","","","","","","","",""
"","image-keyboard-response","176","60267","0.0-176.0","339ANSOTR6OOYC5V6Y36EG4G3MHIK3","A3TH6B3RUD1MUQ","3ECKRY5B1QIH1N6NFX1ECCW5ZDKIZQ","","136.40000009536743","img/flower5.png","75","137.19999992847443","2","0","1","1","1,0.333,0.333,0.333,1,0.333,0.333,0.333,1","1,0.333,0.333,0.333,1,0.333,0.333,0.333,1","1",""
"","html-keyboard-response","177","60570","0.0-177.0","339ANSOTR6OOYC5V6Y36EG4G3MHIK3","A3TH6B3RUD1MUQ","3ECKRY5B1QIH1N6NFX1ECCW5ZDKIZQ","","null","<img src=""img/flower5.png"" style=""width:200px;border:14px solid red;"">","null","","","","","","","","",""
"","image-keyboard-response","178","60718","0.0-178.0","339ANSOTR6OOYC5V6Y36EG4G3MHIK3","A3TH6B3RUD1MUQ","3ECKRY5B1QIH1N6NFX1ECCW5ZDKIZQ","","146","img/flower5.png","76","147.20000004768372","3","1","1","1","1,0.333,0.333,0.333,1,0.333,0.333,0.333,1","1,0.333,0.333,0.333,1,0.333,0.333,0.333,1","1",""
"","html-keyboard-response","179","61020","0.0-179.0","339ANSOTR6OOYC5V6Y36EG4G3MHIK3","A3TH6B3RUD1MUQ","3ECKRY5B1QIH1N6NFX1ECCW5ZDKIZQ","","null","<img src=""img/flower5.png"" style=""width:200px; border:14px solid green;"">","null","","","","","","","","",""
"","image-keyboard-response","180","61138","0.0-180.0","339ANSOTR6OOYC5V6Y36EG4G3MHIK3","A3TH6B3RUD1MUQ","3ECKRY5B1QIH1N6NFX1ECCW5ZDKIZQ","","116.60000002384186","img/flower2.png","75","117.5","2","1","2","1","1,0.333,0.333,0.333,1,0.333,0.333,0.333,1","1,0.333,0.333,0.333,1,0.333,0.333,0.333,1","1",""
"","html-keyboard-response","181","61440","0.0-181.0","339ANSOTR6OOYC5V6Y36EG4G3MHIK3","A3TH6B3RUD1MUQ","3ECKRY5B1QIH1N6NFX1ECCW5ZDKIZQ","","null","<img src=""img/flower2.png"" style=""width:200px; border:14px solid green;"">","null","","","","","","","","",""
"","html-keyboard-response","182","64398","0.0-182.0","339ANSOTR6OOYC5V6Y36EG4G3MHIK3","A3TH6B3RUD1MUQ","3ECKRY5B1QIH1N6NFX1ECCW5ZDKIZQ","","","","","","","","","","","","",""
"","image-keyboard-response","183","65897","0.0-183.0","339ANSOTR6OOYC5V6Y36EG4G3MHIK3","A3TH6B3RUD1MUQ","3ECKRY5B1QIH1N6NFX1ECCW5ZDKIZQ","","1497.1000000238419","img/flower3.png","76","1498.8999999761581","3","0","3","2","1,0,0,1,1,0,1,0,1","0,1,0,0,1,1,1,1,0","3",""
"","html-keyboard-response","184","66199","0.0-184.0","339ANSOTR6OOYC5V6Y36EG4G3MHIK3","A3TH6B3RUD1MUQ","3ECKRY5B1QIH1N6NFX1ECCW5ZDKIZQ","","null","<img src=""img/flower3.png"" style=""width:200px;border:14px solid red;"">","null","","","","","","","","",""
"","image-keyboard-response","185","66257","0.0-185.0","339ANSOTR6OOYC5V6Y36EG4G3MHIK3","A3TH6B3RUD1MUQ","3ECKRY5B1QIH1N6NFX1ECCW5ZDKIZQ","","57.10000002384186","img/flower3.png","76","58.199999928474426","3","0","3","2","1,0,0,1,1,0,1,0,1","0,1,0,0,1,1,1,1,0","3",""
"","html-keyboard-response","186","66559","0.0-186.0","339ANSOTR6OOYC5V6Y36EG4G3MHIK3","A3TH6B3RUD1MUQ","3ECKRY5B1QIH1N6NFX1ECCW5ZDKIZQ","","null","<img src=""img/flower3.png"" style=""width:200px;border:14px solid red;"">","null","","","","","","","","",""
"","image-keyboard-response","187","66617","0.0-187.0","339ANSOTR6OOYC5V6Y36EG4G3MHIK3","A3TH6B3RUD1MUQ","3ECKRY5B1QIH1N6NFX1ECCW5ZDKIZQ","","57.09999990463257","img/flower4.png","74","57.799999952316284","1","0","2","2","1,0,0,1,1,0,1,0,1","0,1,0,0,1,1,1,1,0","3",""
"","html-keyboard-response","188","66920","0.0-188.0","339ANSOTR6OOYC5V6Y36EG4G3MHIK3","A3TH6B3RUD1MUQ","3ECKRY5B1QIH1N6NFX1ECCW5ZDKIZQ","","null","<img src=""img/flower4.png"" style=""width:200px;border:14px solid red;"">","null","","","","","","","","",""
"","image-keyboard-response","189","67017","0.0-189.0","339ANSOTR6OOYC5V6Y36EG4G3MHIK3","A3TH6B3RUD1MUQ","3ECKRY5B1QIH1N6NFX1ECCW5ZDKIZQ","","96.30000007152557","img/flower4.png","76","97.30000007152557","3","1","2","2","1,0,0,1,1,0,1,0,1","0,1,0,0,1,1,1,1,0","3",""
"","html-keyboard-response","190","67319","0.0-190.0","339ANSOTR6OOYC5V6Y36EG4G3MHIK3","A3TH6B3RUD1MUQ","3ECKRY5B1QIH1N6NFX1ECCW5ZDKIZQ","","null","<img src=""img/flower4.png"" style=""width:200px; border:14px solid green;"">","null","","","","","","","","",""
"","image-keyboard-response","191","67409","0.0-191.0","339ANSOTR6OOYC5V6Y36EG4G3MHIK3","A3TH6B3RUD1MUQ","3ECKRY5B1QIH1N6NFX1ECCW5ZDKIZQ","","88.79999995231628","img/flower4.png","76","89.69999992847443","3","1","2","2","1,0,0,1,1,0,1,0,1","0,1,0,0,1,1,1,1,0","3",""
"","html-keyboard-response","192","67711","0.0-192.0","339ANSOTR6OOYC5V6Y36EG4G3MHIK3","A3TH6B3RUD1MUQ","3ECKRY5B1QIH1N6NFX1ECCW5ZDKIZQ","","null","<img src=""img/flower4.png"" style=""width:200px; border:14px solid green;"">","null","","","","","","","","",""
"","image-keyboard-response","193","67837","0.0-193.0","339ANSOTR6OOYC5V6Y36EG4G3MHIK3","A3TH6B3RUD1MUQ","3ECKRY5B1QIH1N6NFX1ECCW5ZDKIZQ","","124.40000009536743","img/flower3.png","74","125.29999995231628","1","1","3","2","1,0,0,1,1,0,1,0,1","0,1,0,0,1,1,1,1,0","3",""
"","html-keyboard-response","194","68140","0.0-194.0","339ANSOTR6OOYC5V6Y36EG4G3MHIK3","A3TH6B3RUD1MUQ","3ECKRY5B1QIH1N6NFX1ECCW5ZDKIZQ","","null","<img src=""img/flower3.png"" style=""width:200px; border:14px solid green;"">","null","","","","","","","","",""
"","image-keyboard-response","195","68227","0.0-195.0","339ANSOTR6OOYC5V6Y36EG4G3MHIK3","A3TH6B3RUD1MUQ","3ECKRY5B1QIH1N6NFX1ECCW5ZDKIZQ","","86.19999992847443","img/flower6.png","75","87.20000004768372","2","1","1","2","1,0,0,1,1,0,1,0,1","0,1,0,0,1,1,1,1,0","3",""
"","html-keyboard-response","196","68529","0.0-196.0","339ANSOTR6OOYC5V6Y36EG4G3MHIK3","A3TH6B3RUD1MUQ","3ECKRY5B1QIH1N6NFX1ECCW5ZDKIZQ","","null","<img src=""img/flower6.png"" style=""width:200px; border:14px solid green;"">","null","","","","","","","","",""
"","image-keyboard-response","197","68697","0.0-197.0","339ANSOTR6OOYC5V6Y36EG4G3MHIK3","A3TH6B3RUD1MUQ","3ECKRY5B1QIH1N6NFX1ECCW5ZDKIZQ","","167.10000002384186","img/flower4.png","74","167.79999995231628","1","0","2","2","1,0,0,1,1,0,1,0,1","0,1,0,0,1,1,1,1,0","3",""
"","html-keyboard-response","198","68998","0.0-198.0","339ANSOTR6OOYC5V6Y36EG4G3MHIK3","A3TH6B3RUD1MUQ","3ECKRY5B1QIH1N6NFX1ECCW5ZDKIZQ","","null","<img src=""img/flower4.png"" style=""width:200px;border:14px solid red;"">","null","","","","","","","","",""
"","image-keyboard-response","199","69147","0.0-199.0","339ANSOTR6OOYC5V6Y36EG4G3MHIK3","A3TH6B3RUD1MUQ","3ECKRY5B1QIH1N6NFX1ECCW5ZDKIZQ","","147.79999995231628","img/flower6.png","74","148.60000002384186","1","0","1","2","1,0,0,1,1,0,1,0,1","0,1,0,0,1,1,1,1,0","3",""
"","html-keyboard-response","200","69449","0.0-200.0","339ANSOTR6OOYC5V6Y36EG4G3MHIK3","A3TH6B3RUD1MUQ","3ECKRY5B1QIH1N6NFX1ECCW5ZDKIZQ","","null","<img src=""img/flower6.png"" style=""width:200px;border:14px solid red;"">","null","","","","","","","","",""
"","image-keyboard-response","201","69517","0.0-201.0","339ANSOTR6OOYC5V6Y36EG4G3MHIK3","A3TH6B3RUD1MUQ","3ECKRY5B1QIH1N6NFX1ECCW5ZDKIZQ","","66.79999995231628","img/flower6.png","76","67.70000004768372","3","0","1","2","1,0,0,1,1,0,1,0,1","0,1,0,0,1,1,1,1,0","3",""
"","html-keyboard-response","202","69819","0.0-202.0","339ANSOTR6OOYC5V6Y36EG4G3MHIK3","A3TH6B3RUD1MUQ","3ECKRY5B1QIH1N6NFX1ECCW5ZDKIZQ","","null","<img src=""img/flower6.png"" style=""width:200px;border:14px solid red;"">","null","","","","","","","","",""
"","image-keyboard-response","203","69987","0.0-203.0","339ANSOTR6OOYC5V6Y36EG4G3MHIK3","A3TH6B3RUD1MUQ","3ECKRY5B1QIH1N6NFX1ECCW5ZDKIZQ","","166.60000002384186","img/flower4.png","76","167.70000004768372","3","1","2","2","1,0,0,1,1,0,1,0,1","0,1,0,0,1,1,1,1,0","3",""
"","html-keyboard-response","204","70289","0.0-204.0","339ANSOTR6OOYC5V6Y36EG4G3MHIK3","A3TH6B3RUD1MUQ","3ECKRY5B1QIH1N6NFX1ECCW5ZDKIZQ","","null","<img src=""img/flower4.png"" style=""width:200px; border:14px solid green;"">","null","","","","","","","","",""
"","image-keyboard-response","205","70357","0.0-205.0","339ANSOTR6OOYC5V6Y36EG4G3MHIK3","A3TH6B3RUD1MUQ","3ECKRY5B1QIH1N6NFX1ECCW5ZDKIZQ","","66.60000002384186","img/flower6.png","75","67.30000007152557","2","1","1","2","1,0,0,1,1,0,1,0,1","0,1,0,0,1,1,1,1,0","3",""
"","html-keyboard-response","206","70659","0.0-206.0","339ANSOTR6OOYC5V6Y36EG4G3MHIK3","A3TH6B3RUD1MUQ","3ECKRY5B1QIH1N6NFX1ECCW5ZDKIZQ","","null","<img src=""img/flower6.png"" style=""width:200px; border:14px solid green;"">","null","","","","","","","","",""
"","image-keyboard-response","207","70727","0.0-207.0","339ANSOTR6OOYC5V6Y36EG4G3MHIK3","A3TH6B3RUD1MUQ","3ECKRY5B1QIH1N6NFX1ECCW5ZDKIZQ","","67.19999992847443","img/flower4.png","74","68.20000004768372","1","0","2","2","1,0,0,1,1,0,1,0,1","0,1,0,0,1,1,1,1,0","3",""
"","html-keyboard-response","208","71030","0.0-208.0","339ANSOTR6OOYC5V6Y36EG4G3MHIK3","A3TH6B3RUD1MUQ","3ECKRY5B1QIH1N6NFX1ECCW5ZDKIZQ","","null","<img src=""img/flower4.png"" style=""width:200px;border:14px solid red;"">","null","","","","","","","","",""
"","image-keyboard-response","209","71207","0.0-209.0","339ANSOTR6OOYC5V6Y36EG4G3MHIK3","A3TH6B3RUD1MUQ","3ECKRY5B1QIH1N6NFX1ECCW5ZDKIZQ","","175.70000004768372","img/flower6.png","74","176.69999992847443","1","0","1","2","1,0,0,1,1,0,1,0,1","0,1,0,0,1,1,1,1,0","3",""
"","html-keyboard-response","210","71508","0.0-210.0","339ANSOTR6OOYC5V6Y36EG4G3MHIK3","A3TH6B3RUD1MUQ","3ECKRY5B1QIH1N6NFX1ECCW5ZDKIZQ","","null","<img src=""img/flower6.png"" style=""width:200px;border:14px solid red;"">","null","","","","","","","","",""
"","image-keyboard-response","211","71627","0.0-211.0","339ANSOTR6OOYC5V6Y36EG4G3MHIK3","A3TH6B3RUD1MUQ","3ECKRY5B1QIH1N6NFX1ECCW5ZDKIZQ","","117.29999995231628","img/flower6.png","74","118.5","1","0","1","2","1,0,0,1,1,0,1,0,1","0,1,0,0,1,1,1,1,0","3",""
"","html-keyboard-response","212","71930","0.0-212.0","339ANSOTR6OOYC5V6Y36EG4G3MHIK3","A3TH6B3RUD1MUQ","3ECKRY5B1QIH1N6NFX1ECCW5ZDKIZQ","","null","<img src=""img/flower6.png"" style=""width:200px;border:14px solid red;"">","null","","","","","","","","",""
"","image-keyboard-response","213","71947","0.0-213.0","339ANSOTR6OOYC5V6Y36EG4G3MHIK3","A3TH6B3RUD1MUQ","3ECKRY5B1QIH1N6NFX1ECCW5ZDKIZQ","","15.600000023841858","img/flower6.png","75","16.600000023841858","2","1","1","2","1,0,0,1,1,0,1,0,1","0,1,0,0,1,1,1,1,0","3",""
"","html-keyboard-response","214","72249","0.0-214.0","339ANSOTR6OOYC5V6Y36EG4G3MHIK3","A3TH6B3RUD1MUQ","3ECKRY5B1QIH1N6NFX1ECCW5ZDKIZQ","","null","<img src=""img/flower6.png"" style=""width:200px; border:14px solid green;"">","null","","","","","","","","",""
"","image-keyboard-response","215","72357","0.0-215.0","339ANSOTR6OOYC5V6Y36EG4G3MHIK3","A3TH6B3RUD1MUQ","3ECKRY5B1QIH1N6NFX1ECCW5ZDKIZQ","","107.29999995231628","img/flower3.png","76","108.20000004768372","3","0","3","2","1,0,0,1,1,0,1,0,1","0,1,0,0,1,1,1,1,0","3",""
"","html-keyboard-response","216","72660","0.0-216.0","339ANSOTR6OOYC5V6Y36EG4G3MHIK3","A3TH6B3RUD1MUQ","3ECKRY5B1QIH1N6NFX1ECCW5ZDKIZQ","","null","<img src=""img/flower3.png"" style=""width:200px;border:14px solid red;"">","null","","","","","","","","",""
"","image-keyboard-response","217","72757","0.0-217.0","339ANSOTR6OOYC5V6Y36EG4G3MHIK3","A3TH6B3RUD1MUQ","3ECKRY5B1QIH1N6NFX1ECCW5ZDKIZQ","","95.5","img/flower3.png","74","96.60000002384186","1","1","3","2","1,0,0,1,1,0,1,0,1","0,1,0,0,1,1,1,1,0","3",""
"","html-keyboard-response","218","73060","0.0-218.0","339ANSOTR6OOYC5V6Y36EG4G3MHIK3","A3TH6B3RUD1MUQ","3ECKRY5B1QIH1N6NFX1ECCW5ZDKIZQ","","null","<img src=""img/flower3.png"" style=""width:200px; border:14px solid green;"">","null","","","","","","","","",""
"","image-keyboard-response","219","73197","0.0-219.0","339ANSOTR6OOYC5V6Y36EG4G3MHIK3","A3TH6B3RUD1MUQ","3ECKRY5B1QIH1N6NFX1ECCW5ZDKIZQ","","135.59999990463257","img/flower6.png","75","136.5","2","1","1","2","1,0,0,1,1,0,1,0,1","0,1,0,0,1,1,1,1,0","3",""
"","html-keyboard-response","220","73500","0.0-220.0","339ANSOTR6OOYC5V6Y36EG4G3MHIK3","A3TH6B3RUD1MUQ","3ECKRY5B1QIH1N6NFX1ECCW5ZDKIZQ","","null","<img src=""img/flower6.png"" style=""width:200px; border:14px solid green;"">","null","","","","","","","","",""
"","image-keyboard-response","221","73512","0.0-221.0","339ANSOTR6OOYC5V6Y36EG4G3MHIK3","A3TH6B3RUD1MUQ","3ECKRY5B1QIH1N6NFX1ECCW5ZDKIZQ","","10.900000095367432","img/flower6.png","76","11.700000047683716","3","0","1","2","1,0,0,1,1,0,1,0,1","0,1,0,0,1,1,1,1,0","3",""
"","html-keyboard-response","222","73814","0.0-222.0","339ANSOTR6OOYC5V6Y36EG4G3MHIK3","A3TH6B3RUD1MUQ","3ECKRY5B1QIH1N6NFX1ECCW5ZDKIZQ","","null","<img src=""img/flower6.png"" style=""width:200px;border:14px solid red;"">","null","","","","","","","","",""
"","image-keyboard-response","223","73857","0.0-223.0","339ANSOTR6OOYC5V6Y36EG4G3MHIK3","A3TH6B3RUD1MUQ","3ECKRY5B1QIH1N6NFX1ECCW5ZDKIZQ","","42.5","img/flower3.png","76","43.39999997615814","3","0","3","2","1,0,0,1,1,0,1,0,1","0,1,0,0,1,1,1,1,0","3",""
"","html-keyboard-response","224","74159","0.0-224.0","339ANSOTR6OOYC5V6Y36EG4G3MHIK3","A3TH6B3RUD1MUQ","3ECKRY5B1QIH1N6NFX1ECCW5ZDKIZQ","","null","<img src=""img/flower3.png"" style=""width:200px;border:14px solid red;"">","null","","","","","","","","",""
"","image-keyboard-response","225","74238","0.0-225.0","339ANSOTR6OOYC5V6Y36EG4G3MHIK3","A3TH6B3RUD1MUQ","3ECKRY5B1QIH1N6NFX1ECCW5ZDKIZQ","","77.5","img/flower6.png","75","78.5","2","1","1","2","1,0,0,1,1,0,1,0,1","0,1,0,0,1,1,1,1,0","3",""
"","html-keyboard-response","226","74541","0.0-226.0","339ANSOTR6OOYC5V6Y36EG4G3MHIK3","A3TH6B3RUD1MUQ","3ECKRY5B1QIH1N6NFX1ECCW5ZDKIZQ","","null","<img src=""img/flower6.png"" style=""width:200px; border:14px solid green;"">","null","","","","","","","","",""
"","image-keyboard-response","227","74586","0.0-227.0","339ANSOTR6OOYC5V6Y36EG4G3MHIK3","A3TH6B3RUD1MUQ","3ECKRY5B1QIH1N6NFX1ECCW5ZDKIZQ","","43.699999928474426","img/flower3.png","74","44.89999997615814","1","1","3","2","1,0,0,1,1,0,1,0,1","0,1,0,0,1,1,1,1,0","3",""
"","html-keyboard-response","228","74889","0.0-228.0","339ANSOTR6OOYC5V6Y36EG4G3MHIK3","A3TH6B3RUD1MUQ","3ECKRY5B1QIH1N6NFX1ECCW5ZDKIZQ","","null","<img src=""img/flower3.png"" style=""width:200px; border:14px solid green;"">","null","","","","","","","","",""
"","image-keyboard-response","229","74898","0.0-229.0","339ANSOTR6OOYC5V6Y36EG4G3MHIK3","A3TH6B3RUD1MUQ","3ECKRY5B1QIH1N6NFX1ECCW5ZDKIZQ","","7.800000071525574","img/flower3.png","76","8.799999952316284","3","0","3","2","1,0,0,1,1,0,1,0,1","0,1,0,0,1,1,1,1,0","3",""
"","html-keyboard-response","230","75200","0.0-230.0","339ANSOTR6OOYC5V6Y36EG4G3MHIK3","A3TH6B3RUD1MUQ","3ECKRY5B1QIH1N6NFX1ECCW5ZDKIZQ","","null","<img src=""img/flower3.png"" style=""width:200px;border:14px solid red;"">","null","","","","","","","","",""
"","image-keyboard-response","231","75257","0.0-231.0","339ANSOTR6OOYC5V6Y36EG4G3MHIK3","A3TH6B3RUD1MUQ","3ECKRY5B1QIH1N6NFX1ECCW5ZDKIZQ","","55.60000002384186","img/flower4.png","74","56.700000047683716","1","0","2","2","1,0,0,1,1,0,1,0,1","0,1,0,0,1,1,1,1,0","3",""
"","html-keyboard-response","232","75559","0.0-232.0","339ANSOTR6OOYC5V6Y36EG4G3MHIK3","A3TH6B3RUD1MUQ","3ECKRY5B1QIH1N6NFX1ECCW5ZDKIZQ","","null","<img src=""img/flower4.png"" style=""width:200px;border:14px solid red;"">","null","","","","","","","","",""
"","image-keyboard-response","233","75627","0.0-233.0","339ANSOTR6OOYC5V6Y36EG4G3MHIK3","A3TH6B3RUD1MUQ","3ECKRY5B1QIH1N6NFX1ECCW5ZDKIZQ","","66.30000007152557","img/flower3.png","76","67.69999992847443","3","0","3","2","1,0,0,1,1,0,1,0,1","0,1,0,0,1,1,1,1,0","3",""
"","html-keyboard-response","234","75930","0.0-234.0","339ANSOTR6OOYC5V6Y36EG4G3MHIK3","A3TH6B3RUD1MUQ","3ECKRY5B1QIH1N6NFX1ECCW5ZDKIZQ","","null","<img src=""img/flower3.png"" style=""width:200px;border:14px solid red;"">","null","","","","","","","","",""
"","image-keyboard-response","235","75947","0.0-235.0","339ANSOTR6OOYC5V6Y36EG4G3MHIK3","A3TH6B3RUD1MUQ","3ECKRY5B1QIH1N6NFX1ECCW5ZDKIZQ","","15","img/flower4.png","74","16","1","0","2","2","1,0,0,1,1,0,1,0,1","0,1,0,0,1,1,1,1,0","3",""
"","html-keyboard-response","236","76248","0.0-236.0","339ANSOTR6OOYC5V6Y36EG4G3MHIK3","A3TH6B3RUD1MUQ","3ECKRY5B1QIH1N6NFX1ECCW5ZDKIZQ","","null","<img src=""img/flower4.png"" style=""width:200px;border:14px solid red;"">","null","","","","","","","","",""
"","image-keyboard-response","237","76367","0.0-237.0","339ANSOTR6OOYC5V6Y36EG4G3MHIK3","A3TH6B3RUD1MUQ","3ECKRY5B1QIH1N6NFX1ECCW5ZDKIZQ","","118","img/flower4.png","76","118.89999997615814","3","1","2","2","1,0,0,1,1,0,1,0,1","0,1,0,0,1,1,1,1,0","3",""
"","html-keyboard-response","238","76670","0.0-238.0","339ANSOTR6OOYC5V6Y36EG4G3MHIK3","A3TH6B3RUD1MUQ","3ECKRY5B1QIH1N6NFX1ECCW5ZDKIZQ","","null","<img src=""img/flower4.png"" style=""width:200px; border:14px solid green;"">","null","","","","","","","","",""
"","image-keyboard-response","239","76787","0.0-239.0","339ANSOTR6OOYC5V6Y36EG4G3MHIK3","A3TH6B3RUD1MUQ","3ECKRY5B1QIH1N6NFX1ECCW5ZDKIZQ","","115.40000009536743","img/flower6.png","76","116.19999992847443","3","0","1","2","1,0,0,1,1,0,1,0,1","0,1,0,0,1,1,1,1,0","3",""
"","html-keyboard-response","240","77089","0.0-240.0","339ANSOTR6OOYC5V6Y36EG4G3MHIK3","A3TH6B3RUD1MUQ","3ECKRY5B1QIH1N6NFX1ECCW5ZDKIZQ","","null","<img src=""img/flower6.png"" style=""width:200px;border:14px solid red;"">","null","","","","","","","","",""
"","image-keyboard-response","241","77157","0.0-241.0","339ANSOTR6OOYC5V6Y36EG4G3MHIK3","A3TH6B3RUD1MUQ","3ECKRY5B1QIH1N6NFX1ECCW5ZDKIZQ","","66.30000007152557","img/flower4.png","74","67.29999995231628","1","0","2","2","1,0,0,1,1,0,1,0,1","0,1,0,0,1,1,1,1,0","3",""
"","html-keyboard-response","242","77459","0.0-242.0","339ANSOTR6OOYC5V6Y36EG4G3MHIK3","A3TH6B3RUD1MUQ","3ECKRY5B1QIH1N6NFX1ECCW5ZDKIZQ","","null","<img src=""img/flower4.png"" style=""width:200px;border:14px solid red;"">","null","","","","","","","","",""
"","image-keyboard-response","243","77567","0.0-243.0","339ANSOTR6OOYC5V6Y36EG4G3MHIK3","A3TH6B3RUD1MUQ","3ECKRY5B1QIH1N6NFX1ECCW5ZDKIZQ","","106.60000002384186","img/flower6.png","76","107.60000002384186","3","0","1","2","1,0,0,1,1,0,1,0,1","0,1,0,0,1,1,1,1,0","3",""
"","html-keyboard-response","244","77871","0.0-244.0","339ANSOTR6OOYC5V6Y36EG4G3MHIK3","A3TH6B3RUD1MUQ","3ECKRY5B1QIH1N6NFX1ECCW5ZDKIZQ","","null","<img src=""img/flower6.png"" style=""width:200px;border:14px solid red;"">","null","","","","","","","","",""
"","image-keyboard-response","245","77897","0.0-245.0","339ANSOTR6OOYC5V6Y36EG4G3MHIK3","A3TH6B3RUD1MUQ","3ECKRY5B1QIH1N6NFX1ECCW5ZDKIZQ","","25.200000047683716","img/flower6.png","76","26.399999976158142","3","0","1","2","1,0,0,1,1,0,1,0,1","0,1,0,0,1,1,1,1,0","3",""
"","html-keyboard-response","246","78199","0.0-246.0","339ANSOTR6OOYC5V6Y36EG4G3MHIK3","A3TH6B3RUD1MUQ","3ECKRY5B1QIH1N6NFX1ECCW5ZDKIZQ","","null","<img src=""img/flower6.png"" style=""width:200px;border:14px solid red;"">","null","","","","","","","","",""
"","image-keyboard-response","247","78218","0.0-247.0","339ANSOTR6OOYC5V6Y36EG4G3MHIK3","A3TH6B3RUD1MUQ","3ECKRY5B1QIH1N6NFX1ECCW5ZDKIZQ","","18.199999928474426","img/flower4.png","74","19.299999952316284","1","0","2","2","1,0,0,1,1,0,1,0,1","0,1,0,0,1,1,1,1,0","3",""
"","html-keyboard-response","248","78521","0.0-248.0","339ANSOTR6OOYC5V6Y36EG4G3MHIK3","A3TH6B3RUD1MUQ","3ECKRY5B1QIH1N6NFX1ECCW5ZDKIZQ","","null","<img src=""img/flower4.png"" style=""width:200px;border:14px solid red;"">","null","","","","","","","","",""
"","image-keyboard-response","249","78577","0.0-249.0","339ANSOTR6OOYC5V6Y36EG4G3MHIK3","A3TH6B3RUD1MUQ","3ECKRY5B1QIH1N6NFX1ECCW5ZDKIZQ","","54.89999997615814","img/flower4.png","76","55.800000071525574","3","1","2","2","1,0,0,1,1,0,1,0,1","0,1,0,0,1,1,1,1,0","3",""
"","html-keyboard-response","250","78880","0.0-250.0","339ANSOTR6OOYC5V6Y36EG4G3MHIK3","A3TH6B3RUD1MUQ","3ECKRY5B1QIH1N6NFX1ECCW5ZDKIZQ","","null","<img src=""img/flower4.png"" style=""width:200px; border:14px solid green;"">","null","","","","","","","","",""
"","image-keyboard-response","251","78967","0.0-251.0","339ANSOTR6OOYC5V6Y36EG4G3MHIK3","A3TH6B3RUD1MUQ","3ECKRY5B1QIH1N6NFX1ECCW5ZDKIZQ","","86.39999997615814","img/flower4.png","74","87.39999997615814","1","0","2","2","1,0,0,1,1,0,1,0,1","0,1,0,0,1,1,1,1,0","3",""
"","html-keyboard-response","252","79270","0.0-252.0","339ANSOTR6OOYC5V6Y36EG4G3MHIK3","A3TH6B3RUD1MUQ","3ECKRY5B1QIH1N6NFX1ECCW5ZDKIZQ","","null","<img src=""img/flower4.png"" style=""width:200px;border:14px solid red;"">","null","","","","","","","","",""
"","image-keyboard-response","253","79357","0.0-253.0","339ANSOTR6OOYC5V6Y36EG4G3MHIK3","A3TH6B3RUD1MUQ","3ECKRY5B1QIH1N6NFX1ECCW5ZDKIZQ","","85.5","img/flower3.png","74","86.60000002384186","1","1","3","2","1,0,0,1,1,0,1,0,1","0,1,0,0,1,1,1,1,0","3",""
"","html-keyboard-response","254","79658","0.0-254.0","339ANSOTR6OOYC5V6Y36EG4G3MHIK3","A3TH6B3RUD1MUQ","3ECKRY5B1QIH1N6NFX1ECCW5ZDKIZQ","","null","<img src=""img/flower3.png"" style=""width:200px; border:14px solid green;"">","null","","","","","","","","",""
"","image-keyboard-response","255","79716","0.0-255.0","339ANSOTR6OOYC5V6Y36EG4G3MHIK3","A3TH6B3RUD1MUQ","3ECKRY5B1QIH1N6NFX1ECCW5ZDKIZQ","","56.90000009536743","img/flower3.png","76","58","3","0","3","2","1,0,0,1,1,0,1,0,1","0,1,0,0,1,1,1,1,0","3",""
"","html-keyboard-response","256","80019","0.0-256.0","339ANSOTR6OOYC5V6Y36EG4G3MHIK3","A3TH6B3RUD1MUQ","3ECKRY5B1QIH1N6NFX1ECCW5ZDKIZQ","","null","<img src=""img/flower3.png"" style=""width:200px;border:14px solid red;"">","null","","","","","","","","",""
"","image-keyboard-response","257","80037","0.0-257.0","339ANSOTR6OOYC5V6Y36EG4G3MHIK3","A3TH6B3RUD1MUQ","3ECKRY5B1QIH1N6NFX1ECCW5ZDKIZQ","","16.700000047683716","img/flower6.png","76","17.799999952316284","3","0","1","2","1,0,0,1,1,0,1,0,1","0,1,0,0,1,1,1,1,0","3",""
"","html-keyboard-response","258","80338","0.0-258.0","339ANSOTR6OOYC5V6Y36EG4G3MHIK3","A3TH6B3RUD1MUQ","3ECKRY5B1QIH1N6NFX1ECCW5ZDKIZQ","","null","<img src=""img/flower6.png"" style=""width:200px;border:14px solid red;"">","null","","","","","","","","",""
"","image-keyboard-response","259","80387","0.0-259.0","339ANSOTR6OOYC5V6Y36EG4G3MHIK3","A3TH6B3RUD1MUQ","3ECKRY5B1QIH1N6NFX1ECCW5ZDKIZQ","","46.799999952316284","img/flower3.png","74","48","1","1","3","2","1,0,0,1,1,0,1,0,1","0,1,0,0,1,1,1,1,0","3",""
"","html-keyboard-response","260","80688","0.0-260.0","339ANSOTR6OOYC5V6Y36EG4G3MHIK3","A3TH6B3RUD1MUQ","3ECKRY5B1QIH1N6NFX1ECCW5ZDKIZQ","","null","<img src=""img/flower3.png"" style=""width:200px; border:14px solid green;"">","null","","","","","","","","",""
"","image-keyboard-response","261","80717","0.0-261.0","339ANSOTR6OOYC5V6Y36EG4G3MHIK3","A3TH6B3RUD1MUQ","3ECKRY5B1QIH1N6NFX1ECCW5ZDKIZQ","","27.100000023841858","img/flower4.png","76","28.200000047683716","3","1","2","2","1,0,0,1,1,0,1,0,1","0,1,0,0,1,1,1,1,0","3",""
"","html-keyboard-response","262","81020","0.0-262.0","339ANSOTR6OOYC5V6Y36EG4G3MHIK3","A3TH6B3RUD1MUQ","3ECKRY5B1QIH1N6NFX1ECCW5ZDKIZQ","","null","<img src=""img/flower4.png"" style=""width:200px; border:14px solid green;"">","null","","","","","","","","",""
"","image-keyboard-response","263","81157","0.0-263.0","339ANSOTR6OOYC5V6Y36EG4G3MHIK3","A3TH6B3RUD1MUQ","3ECKRY5B1QIH1N6NFX1ECCW5ZDKIZQ","","136.29999995231628","img/flower3.png","76","137.10000002384186","3","0","3","2","1,0,0,1,1,0,1,0,1","0,1,0,0,1,1,1,1,0","3",""
"","html-keyboard-response","264","81459","0.0-264.0","339ANSOTR6OOYC5V6Y36EG4G3MHIK3","A3TH6B3RUD1MUQ","3ECKRY5B1QIH1N6NFX1ECCW5ZDKIZQ","","null","<img src=""img/flower3.png"" style=""width:200px;border:14px solid red;"">","null","","","","","","","","",""
"","image-keyboard-response","265","81487","0.0-265.0","339ANSOTR6OOYC5V6Y36EG4G3MHIK3","A3TH6B3RUD1MUQ","3ECKRY5B1QIH1N6NFX1ECCW5ZDKIZQ","","26.399999976158142","img/flower4.png","74","27.299999952316284","1","0","2","2","1,0,0,1,1,0,1,0,1","0,1,0,0,1,1,1,1,0","3",""
"","html-keyboard-response","266","81789","0.0-266.0","339ANSOTR6OOYC5V6Y36EG4G3MHIK3","A3TH6B3RUD1MUQ","3ECKRY5B1QIH1N6NFX1ECCW5ZDKIZQ","","null","<img src=""img/flower4.png"" style=""width:200px;border:14px solid red;"">","null","","","","","","","","",""
"","image-keyboard-response","267","81867","0.0-267.0","339ANSOTR6OOYC5V6Y36EG4G3MHIK3","A3TH6B3RUD1MUQ","3ECKRY5B1QIH1N6NFX1ECCW5ZDKIZQ","","76.5","img/flower4.png","76","77.70000004768372","3","1","2","2","1,0,0,1,1,0,1,0,1","0,1,0,0,1,1,1,1,0","3",""
"","html-keyboard-response","268","82169","0.0-268.0","339ANSOTR6OOYC5V6Y36EG4G3MHIK3","A3TH6B3RUD1MUQ","3ECKRY5B1QIH1N6NFX1ECCW5ZDKIZQ","","null","<img src=""img/flower4.png"" style=""width:200px; border:14px solid green;"">","null","","","","","","","","",""
"","image-keyboard-response","269","82211","0.0-269.0","339ANSOTR6OOYC5V6Y36EG4G3MHIK3","A3TH6B3RUD1MUQ","3ECKRY5B1QIH1N6NFX1ECCW5ZDKIZQ","","40.5","img/flower4.png","74","41.60000002384186","1","0","2","2","1,0,0,1,1,0,1,0,1","0,1,0,0,1,1,1,1,0","3",""
"","html-keyboard-response","270","82514","0.0-270.0","339ANSOTR6OOYC5V6Y36EG4G3MHIK3","A3TH6B3RUD1MUQ","3ECKRY5B1QIH1N6NFX1ECCW5ZDKIZQ","","null","<img src=""img/flower4.png"" style=""width:200px;border:14px solid red;"">","null","","","","","","","","",""
"","image-keyboard-response","271","82537","0.0-271.0","339ANSOTR6OOYC5V6Y36EG4G3MHIK3","A3TH6B3RUD1MUQ","3ECKRY5B1QIH1N6NFX1ECCW5ZDKIZQ","","22","img/flower6.png","75","23","2","1","1","2","1,0,0,1,1,0,1,0,1","0,1,0,0,1,1,1,1,0","3",""
"","html-keyboard-response","272","82839","0.0-272.0","339ANSOTR6OOYC5V6Y36EG4G3MHIK3","A3TH6B3RUD1MUQ","3ECKRY5B1QIH1N6NFX1ECCW5ZDKIZQ","","null","<img src=""img/flower6.png"" style=""width:200px; border:14px solid green;"">","null","","","","","","","","",""
"","image-keyboard-response","273","82931","0.0-273.0","339ANSOTR6OOYC5V6Y36EG4G3MHIK3","A3TH6B3RUD1MUQ","3ECKRY5B1QIH1N6NFX1ECCW5ZDKIZQ","","90.60000002384186","img/flower3.png","74","91.89999997615814","1","1","3","2","1,0,0,1,1,0,1,0,1","0,1,0,0,1,1,1,1,0","3",""
"","html-keyboard-response","274","83234","0.0-274.0","339ANSOTR6OOYC5V6Y36EG4G3MHIK3","A3TH6B3RUD1MUQ","3ECKRY5B1QIH1N6NFX1ECCW5ZDKIZQ","","null","<img src=""img/flower3.png"" style=""width:200px; border:14px solid green;"">","null","","","","","","","","",""
"","image-keyboard-response","275","83306","0.0-275.0","339ANSOTR6OOYC5V6Y36EG4G3MHIK3","A3TH6B3RUD1MUQ","3ECKRY5B1QIH1N6NFX1ECCW5ZDKIZQ","","71.20000004768372","img/flower4.png","76","72.10000002384186","3","1","2","2","1,0,0,1,1,0,1,0,1","0,1,0,0,1,1,1,1,0","3",""
"","html-keyboard-response","276","83608","0.0-276.0","339ANSOTR6OOYC5V6Y36EG4G3MHIK3","A3TH6B3RUD1MUQ","3ECKRY5B1QIH1N6NFX1ECCW5ZDKIZQ","","null","<img src=""img/flower4.png"" style=""width:200px; border:14px solid green;"">","null","","","","","","","","",""
"","image-keyboard-response","277","83646","0.0-277.0","339ANSOTR6OOYC5V6Y36EG4G3MHIK3","A3TH6B3RUD1MUQ","3ECKRY5B1QIH1N6NFX1ECCW5ZDKIZQ","","37","img/flower4.png","74","38.09999990463257","1","0","2","2","1,0,0,1,1,0,1,0,1","0,1,0,0,1,1,1,1,0","3",""
"","html-keyboard-response","278","83948","0.0-278.0","339ANSOTR6OOYC5V6Y36EG4G3MHIK3","A3TH6B3RUD1MUQ","3ECKRY5B1QIH1N6NFX1ECCW5ZDKIZQ","","null","<img src=""img/flower4.png"" style=""width:200px;border:14px solid red;"">","null","","","","","","","","",""
"","image-keyboard-response","279","84016","0.0-279.0","339ANSOTR6OOYC5V6Y36EG4G3MHIK3","A3TH6B3RUD1MUQ","3ECKRY5B1QIH1N6NFX1ECCW5ZDKIZQ","","67.10000002384186","img/flower6.png","76","68","3","0","1","2","1,0,0,1,1,0,1,0,1","0,1,0,0,1,1,1,1,0","3",""
"","html-keyboard-response","280","84317","0.0-280.0","339ANSOTR6OOYC5V6Y36EG4G3MHIK3","A3TH6B3RUD1MUQ","3ECKRY5B1QIH1N6NFX1ECCW5ZDKIZQ","","null","<img src=""img/flower6.png"" style=""width:200px;border:14px solid red;"">","null","","","","","","","","",""
"","image-keyboard-response","281","84386","0.0-281.0","339ANSOTR6OOYC5V6Y36EG4G3MHIK3","A3TH6B3RUD1MUQ","3ECKRY5B1QIH1N6NFX1ECCW5ZDKIZQ","","67.59999990463257","img/flower3.png","74","68.70000004768372","1","1","3","2","1,0,0,1,1,0,1,0,1","0,1,0,0,1,1,1,1,0","3",""
"","html-keyboard-response","282","84688","0.0-282.0","339ANSOTR6OOYC5V6Y36EG4G3MHIK3","A3TH6B3RUD1MUQ","3ECKRY5B1QIH1N6NFX1ECCW5ZDKIZQ","","null","<img src=""img/flower3.png"" style=""width:200px; border:14px solid green;"">","null","","","","","","","","",""
"","image-keyboard-response","283","84736","0.0-283.0","339ANSOTR6OOYC5V6Y36EG4G3MHIK3","A3TH6B3RUD1MUQ","3ECKRY5B1QIH1N6NFX1ECCW5ZDKIZQ","","46.60000002384186","img/flower6.png","75","47.5","2","1","1","2","1,0,0,1,1,0,1,0,1","0,1,0,0,1,1,1,1,0","3",""
"","html-keyboard-response","284","85038","0.0-284.0","339ANSOTR6OOYC5V6Y36EG4G3MHIK3","A3TH6B3RUD1MUQ","3ECKRY5B1QIH1N6NFX1ECCW5ZDKIZQ","","null","<img src=""img/flower6.png"" style=""width:200px; border:14px solid green;"">","null","","","","","","","","",""
"","image-keyboard-response","285","85111","0.0-285.0","339ANSOTR6OOYC5V6Y36EG4G3MHIK3","A3TH6B3RUD1MUQ","3ECKRY5B1QIH1N6NFX1ECCW5ZDKIZQ","","72.5","img/flower4.png","74","73.5","1","0","2","2","1,0,0,1,1,0,1,0,1","0,1,0,0,1,1,1,1,0","3",""
"","html-keyboard-response","286","85414","0.0-286.0","339ANSOTR6OOYC5V6Y36EG4G3MHIK3","A3TH6B3RUD1MUQ","3ECKRY5B1QIH1N6NFX1ECCW5ZDKIZQ","","null","<img src=""img/flower4.png"" style=""width:200px;border:14px solid red;"">","null","","","","","","","","",""
"","image-keyboard-response","287","85526","0.0-287.0","339ANSOTR6OOYC5V6Y36EG4G3MHIK3","A3TH6B3RUD1MUQ","3ECKRY5B1QIH1N6NFX1ECCW5ZDKIZQ","","111.5","img/flower6.png","75","112.5","2","1","1","2","1,0,0,1,1,0,1,0,1","0,1,0,0,1,1,1,1,0","3",""
"","html-keyboard-response","288","85829","0.0-288.0","339ANSOTR6OOYC5V6Y36EG4G3MHIK3","A3TH6B3RUD1MUQ","3ECKRY5B1QIH1N6NFX1ECCW5ZDKIZQ","","null","<img src=""img/flower6.png"" style=""width:200px; border:14px solid green;"">","null","","","","","","","","",""
"","image-keyboard-response","289","85853","0.0-289.0","339ANSOTR6OOYC5V6Y36EG4G3MHIK3","A3TH6B3RUD1MUQ","3ECKRY5B1QIH1N6NFX1ECCW5ZDKIZQ","","21.899999976158142","img/flower6.png","74","22.899999976158142","1","0","1","2","1,0,0,1,1,0,1,0,1","0,1,0,0,1,1,1,1,0","3",""
"","html-keyboard-response","290","86155","0.0-290.0","339ANSOTR6OOYC5V6Y36EG4G3MHIK3","A3TH6B3RUD1MUQ","3ECKRY5B1QIH1N6NFX1ECCW5ZDKIZQ","","null","<img src=""img/flower6.png"" style=""width:200px;border:14px solid red;"">","null","","","","","","","","",""
"","image-keyboard-response","291","86237","0.0-291.0","339ANSOTR6OOYC5V6Y36EG4G3MHIK3","A3TH6B3RUD1MUQ","3ECKRY5B1QIH1N6NFX1ECCW5ZDKIZQ","","80.5","img/flower4.png","76","81.70000004768372","3","1","2","2","1,0,0,1,1,0,1,0,1","0,1,0,0,1,1,1,1,0","3",""
"","html-keyboard-response","292","86539","0.0-292.0","339ANSOTR6OOYC5V6Y36EG4G3MHIK3","A3TH6B3RUD1MUQ","3ECKRY5B1QIH1N6NFX1ECCW5ZDKIZQ","","null","<img src=""img/flower4.png"" style=""width:200px; border:14px solid green;"">","null","","","","","","","","",""
"","image-keyboard-response","293","86697","0.0-293.0","339ANSOTR6OOYC5V6Y36EG4G3MHIK3","A3TH6B3RUD1MUQ","3ECKRY5B1QIH1N6NFX1ECCW5ZDKIZQ","","156.60000002384186","img/flower3.png","74","157.60000002384186","1","1","3","2","1,0,0,1,1,0,1,0,1","0,1,0,0,1,1,1,1,0","3",""
"","html-keyboard-response","294","86999","0.0-294.0","339ANSOTR6OOYC5V6Y36EG4G3MHIK3","A3TH6B3RUD1MUQ","3ECKRY5B1QIH1N6NFX1ECCW5ZDKIZQ","","null","<img src=""img/flower3.png"" style=""width:200px; border:14px solid green;"">","null","","","","","","","","",""
"","image-keyboard-response","295","87056","0.0-295.0","339ANSOTR6OOYC5V6Y36EG4G3MHIK3","A3TH6B3RUD1MUQ","3ECKRY5B1QIH1N6NFX1ECCW5ZDKIZQ","","55.700000047683716","img/flower3.png","76","56.89999997615814","3","0","3","2","1,0,0,1,1,0,1,0,1","0,1,0,0,1,1,1,1,0","3",""
"","html-keyboard-response","296","87358","0.0-296.0","339ANSOTR6OOYC5V6Y36EG4G3MHIK3","A3TH6B3RUD1MUQ","3ECKRY5B1QIH1N6NFX1ECCW5ZDKIZQ","","null","<img src=""img/flower3.png"" style=""width:200px;border:14px solid red;"">","null","","","","","","","","",""
"","image-keyboard-response","297","87487","0.0-297.0","339ANSOTR6OOYC5V6Y36EG4G3MHIK3","A3TH6B3RUD1MUQ","3ECKRY5B1QIH1N6NFX1ECCW5ZDKIZQ","","127.5","img/flower4.png","76","128.5","3","1","2","2","1,0,0,1,1,0,1,0,1","0,1,0,0,1,1,1,1,0","3",""
"","html-keyboard-response","298","87789","0.0-298.0","339ANSOTR6OOYC5V6Y36EG4G3MHIK3","A3TH6B3RUD1MUQ","3ECKRY5B1QIH1N6NFX1ECCW5ZDKIZQ","","null","<img src=""img/flower4.png"" style=""width:200px; border:14px solid green;"">","null","","","","","","","","",""
"","image-keyboard-response","299","87896","0.0-299.0","339ANSOTR6OOYC5V6Y36EG4G3MHIK3","A3TH6B3RUD1MUQ","3ECKRY5B1QIH1N6NFX1ECCW5ZDKIZQ","","106.10000002384186","img/flower6.png","76","107.10000002384186","3","0","1","2","1,0,0,1,1,0,1,0,1","0,1,0,0,1,1,1,1,0","3",""
"","html-keyboard-response","300","88199","0.0-300.0","339ANSOTR6OOYC5V6Y36EG4G3MHIK3","A3TH6B3RUD1MUQ","3ECKRY5B1QIH1N6NFX1ECCW5ZDKIZQ","","null","<img src=""img/flower6.png"" style=""width:200px;border:14px solid red;"">","null","","","","","","","","",""
"","image-keyboard-response","301","88336","0.0-301.0","339ANSOTR6OOYC5V6Y36EG4G3MHIK3","A3TH6B3RUD1MUQ","3ECKRY5B1QIH1N6NFX1ECCW5ZDKIZQ","","136.29999995231628","img/flower3.png","75","137.20000004768372","2","1","3","2","1,0,0,1,1,0,1,0,1","0,1,0,0,1,1,1,1,0","3",""
"","html-keyboard-response","302","88638","0.0-302.0","339ANSOTR6OOYC5V6Y36EG4G3MHIK3","A3TH6B3RUD1MUQ","3ECKRY5B1QIH1N6NFX1ECCW5ZDKIZQ","","null","<img src=""img/flower3.png"" style=""width:200px; border:14px solid green;"">","null","","","","","","","","",""
"","image-keyboard-response","303","88737","0.0-303.0","339ANSOTR6OOYC5V6Y36EG4G3MHIK3","A3TH6B3RUD1MUQ","3ECKRY5B1QIH1N6NFX1ECCW5ZDKIZQ","","97.5","img/flower3.png","76","98.39999997615814","3","0","3","2","1,0,0,1,1,0,1,0,1","0,1,0,0,1,1,1,1,0","3",""
"","html-keyboard-response","304","89039","0.0-304.0","339ANSOTR6OOYC5V6Y36EG4G3MHIK3","A3TH6B3RUD1MUQ","3ECKRY5B1QIH1N6NFX1ECCW5ZDKIZQ","","null","<img src=""img/flower3.png"" style=""width:200px;border:14px solid red;"">","null","","","","","","","","",""
"","image-keyboard-response","305","89087","0.0-305.0","339ANSOTR6OOYC5V6Y36EG4G3MHIK3","A3TH6B3RUD1MUQ","3ECKRY5B1QIH1N6NFX1ECCW5ZDKIZQ","","46","img/flower6.png","76","47","3","0","1","2","1,0,0,1,1,0,1,0,1","0,1,0,0,1,1,1,1,0","3",""
"","html-keyboard-response","306","89389","0.0-306.0","339ANSOTR6OOYC5V6Y36EG4G3MHIK3","A3TH6B3RUD1MUQ","3ECKRY5B1QIH1N6NFX1ECCW5ZDKIZQ","","null","<img src=""img/flower6.png"" style=""width:200px;border:14px solid red;"">","null","","","","","","","","",""
"","image-keyboard-response","307","89427","0.0-307.0","339ANSOTR6OOYC5V6Y36EG4G3MHIK3","A3TH6B3RUD1MUQ","3ECKRY5B1QIH1N6NFX1ECCW5ZDKIZQ","","36.10000002384186","img/flower6.png","76","37.199999928474426","3","0","1","2","1,0,0,1,1,0,1,0,1","0,1,0,0,1,1,1,1,0","3",""
"","html-keyboard-response","308","89730","0.0-308.0","339ANSOTR6OOYC5V6Y36EG4G3MHIK3","A3TH6B3RUD1MUQ","3ECKRY5B1QIH1N6NFX1ECCW5ZDKIZQ","","null","<img src=""img/flower6.png"" style=""width:200px;border:14px solid red;"">","null","","","","","","","","",""
"","image-keyboard-response","309","89847","0.0-309.0","339ANSOTR6OOYC5V6Y36EG4G3MHIK3","A3TH6B3RUD1MUQ","3ECKRY5B1QIH1N6NFX1ECCW5ZDKIZQ","","115.60000002384186","img/flower6.png","76","116.69999992847443","3","0","1","2","1,0,0,1,1,0,1,0,1","0,1,0,0,1,1,1,1,0","3",""
"","html-keyboard-response","310","90150","0.0-310.0","339ANSOTR6OOYC5V6Y36EG4G3MHIK3","A3TH6B3RUD1MUQ","3ECKRY5B1QIH1N6NFX1ECCW5ZDKIZQ","","null","<img src=""img/flower6.png"" style=""width:200px;border:14px solid red;"">","null","","","","","","","","",""
"","image-keyboard-response","311","90237","0.0-311.0","339ANSOTR6OOYC5V6Y36EG4G3MHIK3","A3TH6B3RUD1MUQ","3ECKRY5B1QIH1N6NFX1ECCW5ZDKIZQ","","85.29999995231628","img/flower3.png","74","86.5","1","1","3","2","1,0,0,1,1,0,1,0,1","0,1,0,0,1,1,1,1,0","3",""
"","html-keyboard-response","312","90539","0.0-312.0","339ANSOTR6OOYC5V6Y36EG4G3MHIK3","A3TH6B3RUD1MUQ","3ECKRY5B1QIH1N6NFX1ECCW5ZDKIZQ","","null","<img src=""img/flower3.png"" style=""width:200px; border:14px solid green;"">","null","","","","","","","","",""
"","image-keyboard-response","313","90616","0.0-313.0","339ANSOTR6OOYC5V6Y36EG4G3MHIK3","A3TH6B3RUD1MUQ","3ECKRY5B1QIH1N6NFX1ECCW5ZDKIZQ","","76.5","img/flower4.png","76","77.60000002384186","3","1","2","2","1,0,0,1,1,0,1,0,1","0,1,0,0,1,1,1,1,0","3",""
"","html-keyboard-response","314","90919","0.0-314.0","339ANSOTR6OOYC5V6Y36EG4G3MHIK3","A3TH6B3RUD1MUQ","3ECKRY5B1QIH1N6NFX1ECCW5ZDKIZQ","","null","<img src=""img/flower4.png"" style=""width:200px; border:14px solid green;"">","null","","","","","","","","",""
"","image-keyboard-response","315","90977","0.0-315.0","339ANSOTR6OOYC5V6Y36EG4G3MHIK3","A3TH6B3RUD1MUQ","3ECKRY5B1QIH1N6NFX1ECCW5ZDKIZQ","","57.10000002384186","img/flower6.png","74","58.200000047683716","1","0","1","2","1,0,0,1,1,0,1,0,1","0,1,0,0,1,1,1,1,0","3",""
"","html-keyboard-response","316","91280","0.0-316.0","339ANSOTR6OOYC5V6Y36EG4G3MHIK3","A3TH6B3RUD1MUQ","3ECKRY5B1QIH1N6NFX1ECCW5ZDKIZQ","","null","<img src=""img/flower6.png"" style=""width:200px;border:14px solid red;"">","null","","","","","","","","",""
"","image-keyboard-response","317","91346","0.0-317.0","339ANSOTR6OOYC5V6Y36EG4G3MHIK3","A3TH6B3RUD1MUQ","3ECKRY5B1QIH1N6NFX1ECCW5ZDKIZQ","","65.30000007152557","img/flower3.png","76","66.39999997615814","3","0","3","2","1,0,0,1,1,0,1,0,1","0,1,0,0,1,1,1,1,0","3",""
"","html-keyboard-response","318","91648","0.0-318.0","339ANSOTR6OOYC5V6Y36EG4G3MHIK3","A3TH6B3RUD1MUQ","3ECKRY5B1QIH1N6NFX1ECCW5ZDKIZQ","","null","<img src=""img/flower3.png"" style=""width:200px;border:14px solid red;"">","null","","","","","","","","",""
"","image-keyboard-response","319","91717","0.0-319.0","339ANSOTR6OOYC5V6Y36EG4G3MHIK3","A3TH6B3RUD1MUQ","3ECKRY5B1QIH1N6NFX1ECCW5ZDKIZQ","","67.09999990463257","img/flower3.png","74","68.39999997615814","1","1","3","2","1,0,0,1,1,0,1,0,1","0,1,0,0,1,1,1,1,0","3",""
"","html-keyboard-response","320","92018","0.0-320.0","339ANSOTR6OOYC5V6Y36EG4G3MHIK3","A3TH6B3RUD1MUQ","3ECKRY5B1QIH1N6NFX1ECCW5ZDKIZQ","","null","<img src=""img/flower3.png"" style=""width:200px; border:14px solid green;"">","null","","","","","","","","",""
"","image-keyboard-response","321","92076","0.0-321.0","339ANSOTR6OOYC5V6Y36EG4G3MHIK3","A3TH6B3RUD1MUQ","3ECKRY5B1QIH1N6NFX1ECCW5ZDKIZQ","","56.90000009536743","img/flower4.png","76","57.89999997615814","3","1","2","2","1,0,0,1,1,0,1,0,1","0,1,0,0,1,1,1,1,0","3",""
"","html-keyboard-response","322","92379","0.0-322.0","339ANSOTR6OOYC5V6Y36EG4G3MHIK3","A3TH6B3RUD1MUQ","3ECKRY5B1QIH1N6NFX1ECCW5ZDKIZQ","","null","<img src=""img/flower4.png"" style=""width:200px; border:14px solid green;"">","null","","","","","","","","",""
"","image-keyboard-response","323","92426","0.0-323.0","339ANSOTR6OOYC5V6Y36EG4G3MHIK3","A3TH6B3RUD1MUQ","3ECKRY5B1QIH1N6NFX1ECCW5ZDKIZQ","","46.10000002384186","img/flower4.png","75","47.200000047683716","2","1","2","2","1,0,0,1,1,0,1,0,1","0,1,0,0,1,1,1,1,0","3",""
"","html-keyboard-response","324","92729","0.0-324.0","339ANSOTR6OOYC5V6Y36EG4G3MHIK3","A3TH6B3RUD1MUQ","3ECKRY5B1QIH1N6NFX1ECCW5ZDKIZQ","","null","<img src=""img/flower4.png"" style=""width:200px; border:14px solid green;"">","null","","","","","","","","",""
"","image-keyboard-response","325","92806","0.0-325.0","339ANSOTR6OOYC5V6Y36EG4G3MHIK3","A3TH6B3RUD1MUQ","3ECKRY5B1QIH1N6NFX1ECCW5ZDKIZQ","","75.59999990463257","img/flower6.png","75","76.60000002384186","2","1","1","2","1,0,0,1,1,0,1,0,1","0,1,0,0,1,1,1,1,0","3",""
"","html-keyboard-response","326","93108","0.0-326.0","339ANSOTR6OOYC5V6Y36EG4G3MHIK3","A3TH6B3RUD1MUQ","3ECKRY5B1QIH1N6NFX1ECCW5ZDKIZQ","","null","<img src=""img/flower6.png"" style=""width:200px; border:14px solid green;"">","null","","","","","","","","",""
"","image-keyboard-response","327","93137","0.0-327.0","339ANSOTR6OOYC5V6Y36EG4G3MHIK3","A3TH6B3RUD1MUQ","3ECKRY5B1QIH1N6NFX1ECCW5ZDKIZQ","","27.799999952316284","img/flower6.png","76","28.59999990463257","3","0","1","2","1,0,0,1,1,0,1,0,1","0,1,0,0,1,1,1,1,0","3",""
"","html-keyboard-response","328","93440","0.0-328.0","339ANSOTR6OOYC5V6Y36EG4G3MHIK3","A3TH6B3RUD1MUQ","3ECKRY5B1QIH1N6NFX1ECCW5ZDKIZQ","","null","<img src=""img/flower6.png"" style=""width:200px;border:14px solid red;"">","null","","","","","","","","",""
"","image-keyboard-response","329","93526","0.0-329.0","339ANSOTR6OOYC5V6Y36EG4G3MHIK3","A3TH6B3RUD1MUQ","3ECKRY5B1QIH1N6NFX1ECCW5ZDKIZQ","","85.69999992847443","img/flower6.png","74","86.70000004768372","1","0","1","2","1,0,0,1,1,0,1,0,1","0,1,0,0,1,1,1,1,0","3",""
"","html-keyboard-response","330","93829","0.0-330.0","339ANSOTR6OOYC5V6Y36EG4G3MHIK3","A3TH6B3RUD1MUQ","3ECKRY5B1QIH1N6NFX1ECCW5ZDKIZQ","","null","<img src=""img/flower6.png"" style=""width:200px;border:14px solid red;"">","null","","","","","","","","",""
"","image-keyboard-response","331","93896","0.0-331.0","339ANSOTR6OOYC5V6Y36EG4G3MHIK3","A3TH6B3RUD1MUQ","3ECKRY5B1QIH1N6NFX1ECCW5ZDKIZQ","","65.89999997615814","img/flower3.png","76","67","3","0","3","2","1,0,0,1,1,0,1,0,1","0,1,0,0,1,1,1,1,0","3",""
"","html-keyboard-response","332","94198","0.0-332.0","339ANSOTR6OOYC5V6Y36EG4G3MHIK3","A3TH6B3RUD1MUQ","3ECKRY5B1QIH1N6NFX1ECCW5ZDKIZQ","","null","<img src=""img/flower3.png"" style=""width:200px;border:14px solid red;"">","null","","","","","","","","",""
"","image-keyboard-response","333","94267","0.0-333.0","339ANSOTR6OOYC5V6Y36EG4G3MHIK3","A3TH6B3RUD1MUQ","3ECKRY5B1QIH1N6NFX1ECCW5ZDKIZQ","","67","img/flower3.png","74","68.29999995231628","1","1","3","2","1,0,0,1,1,0,1,0,1","0,1,0,0,1,1,1,1,0","3",""
"","html-keyboard-response","334","94569","0.0-334.0","339ANSOTR6OOYC5V6Y36EG4G3MHIK3","A3TH6B3RUD1MUQ","3ECKRY5B1QIH1N6NFX1ECCW5ZDKIZQ","","null","<img src=""img/flower3.png"" style=""width:200px; border:14px solid green;"">","null","","","","","","","","",""
"","image-keyboard-response","335","94797","0.0-335.0","339ANSOTR6OOYC5V6Y36EG4G3MHIK3","A3TH6B3RUD1MUQ","3ECKRY5B1QIH1N6NFX1ECCW5ZDKIZQ","","226.60000002384186","img/flower3.png","74","227.39999997615814","1","1","3","2","1,0,0,1,1,0,1,0,1","0,1,0,0,1,1,1,1,0","3",""
"","html-keyboard-response","336","95100","0.0-336.0","339ANSOTR6OOYC5V6Y36EG4G3MHIK3","A3TH6B3RUD1MUQ","3ECKRY5B1QIH1N6NFX1ECCW5ZDKIZQ","","null","<img src=""img/flower3.png"" style=""width:200px; border:14px solid green;"">","null","","","","","","","","",""
"","image-keyboard-response","337","95146","0.0-337.0","339ANSOTR6OOYC5V6Y36EG4G3MHIK3","A3TH6B3RUD1MUQ","3ECKRY5B1QIH1N6NFX1ECCW5ZDKIZQ","","44.700000047683716","img/flower6.png","76","45.89999997615814","3","0","1","2","1,0,0,1,1,0,1,0,1","0,1,0,0,1,1,1,1,0","3",""
"","html-keyboard-response","338","95448","0.0-338.0","339ANSOTR6OOYC5V6Y36EG4G3MHIK3","A3TH6B3RUD1MUQ","3ECKRY5B1QIH1N6NFX1ECCW5ZDKIZQ","","null","<img src=""img/flower6.png"" style=""width:200px;border:14px solid red;"">","null","","","","","","","","",""
"","image-keyboard-response","339","95542","0.0-339.0","339ANSOTR6OOYC5V6Y36EG4G3MHIK3","A3TH6B3RUD1MUQ","3ECKRY5B1QIH1N6NFX1ECCW5ZDKIZQ","","92.39999997615814","img/flower4.png","74","93.59999990463257","1","0","2","2","1,0,0,1,1,0,1,0,1","0,1,0,0,1,1,1,1,0","3",""
"","html-keyboard-response","340","95845","0.0-340.0","339ANSOTR6OOYC5V6Y36EG4G3MHIK3","A3TH6B3RUD1MUQ","3ECKRY5B1QIH1N6NFX1ECCW5ZDKIZQ","","null","<img src=""img/flower4.png"" style=""width:200px;border:14px solid red;"">","null","","","","","","","","",""
"","image-keyboard-response","341","95886","0.0-341.0","339ANSOTR6OOYC5V6Y36EG4G3MHIK3","A3TH6B3RUD1MUQ","3ECKRY5B1QIH1N6NFX1ECCW5ZDKIZQ","","40.699999928474426","img/flower4.png","76","41.60000002384186","3","1","2","2","1,0,0,1,1,0,1,0,1","0,1,0,0,1,1,1,1,0","3",""
"","html-keyboard-response","342","96188","0.0-342.0","339ANSOTR6OOYC5V6Y36EG4G3MHIK3","A3TH6B3RUD1MUQ","3ECKRY5B1QIH1N6NFX1ECCW5ZDKIZQ","","null","<img src=""img/flower4.png"" style=""width:200px; border:14px solid green;"">","null","","","","","","","","",""
"","image-keyboard-response","343","96246","0.0-343.0","339ANSOTR6OOYC5V6Y36EG4G3MHIK3","A3TH6B3RUD1MUQ","3ECKRY5B1QIH1N6NFX1ECCW5ZDKIZQ","","56.10000002384186","img/flower3.png","74","57.299999952316284","1","1","3","2","1,0,0,1,1,0,1,0,1","0,1,0,0,1,1,1,1,0","3",""
"","html-keyboard-response","344","96548","0.0-344.0","339ANSOTR6OOYC5V6Y36EG4G3MHIK3","A3TH6B3RUD1MUQ","3ECKRY5B1QIH1N6NFX1ECCW5ZDKIZQ","","null","<img src=""img/flower3.png"" style=""width:200px; border:14px solid green;"">","null","","","","","","","","",""
"","image-keyboard-response","345","96626","0.0-345.0","339ANSOTR6OOYC5V6Y36EG4G3MHIK3","A3TH6B3RUD1MUQ","3ECKRY5B1QIH1N6NFX1ECCW5ZDKIZQ","","77.20000004768372","img/flower3.png","75","78.20000004768372","2","1","3","2","1,0,0,1,1,0,1,0,1","0,1,0,0,1,1,1,1,0","3",""
"","html-keyboard-response","346","96928","0.0-346.0","339ANSOTR6OOYC5V6Y36EG4G3MHIK3","A3TH6B3RUD1MUQ","3ECKRY5B1QIH1N6NFX1ECCW5ZDKIZQ","","null","<img src=""img/flower3.png"" style=""width:200px; border:14px solid green;"">","null","","","","","","","","",""
"","image-keyboard-response","347","97026","0.0-347.0","339ANSOTR6OOYC5V6Y36EG4G3MHIK3","A3TH6B3RUD1MUQ","3ECKRY5B1QIH1N6NFX1ECCW5ZDKIZQ","","96.70000004768372","img/flower3.png","74","97.79999995231628","1","1","3","2","1,0,0,1,1,0,1,0,1","0,1,0,0,1,1,1,1,0","3",""
"","html-keyboard-response","348","97329","0.0-348.0","339ANSOTR6OOYC5V6Y36EG4G3MHIK3","A3TH6B3RUD1MUQ","3ECKRY5B1QIH1N6NFX1ECCW5ZDKIZQ","","null","<img src=""img/flower3.png"" style=""width:200px; border:14px solid green;"">","null","","","","","","","","",""
"","image-keyboard-response","349","97381","0.0-349.0","339ANSOTR6OOYC5V6Y36EG4G3MHIK3","A3TH6B3RUD1MUQ","3ECKRY5B1QIH1N6NFX1ECCW5ZDKIZQ","","51.700000047683716","img/flower3.png","76","52.39999997615814","3","0","3","2","1,0,0,1,1,0,1,0,1","0,1,0,0,1,1,1,1,0","3",""
"","html-keyboard-response","350","97683","0.0-350.0","339ANSOTR6OOYC5V6Y36EG4G3MHIK3","A3TH6B3RUD1MUQ","3ECKRY5B1QIH1N6NFX1ECCW5ZDKIZQ","","null","<img src=""img/flower3.png"" style=""width:200px;border:14px solid red;"">","null","","","","","","","","",""
"","image-keyboard-response","351","97787","0.0-351.0","339ANSOTR6OOYC5V6Y36EG4G3MHIK3","A3TH6B3RUD1MUQ","3ECKRY5B1QIH1N6NFX1ECCW5ZDKIZQ","","102.39999997615814","img/flower6.png","75","103.70000004768372","2","1","1","2","1,0,0,1,1,0,1,0,1","0,1,0,0,1,1,1,1,0","3",""
"","html-keyboard-response","352","98089","0.0-352.0","339ANSOTR6OOYC5V6Y36EG4G3MHIK3","A3TH6B3RUD1MUQ","3ECKRY5B1QIH1N6NFX1ECCW5ZDKIZQ","","null","<img src=""img/flower6.png"" style=""width:200px; border:14px solid green;"">","null","","","","","","","","",""
"","image-keyboard-response","353","98136","0.0-353.0","339ANSOTR6OOYC5V6Y36EG4G3MHIK3","A3TH6B3RUD1MUQ","3ECKRY5B1QIH1N6NFX1ECCW5ZDKIZQ","","45.700000047683716","img/flower4.png","75","46.699999928474426","2","1","2","2","1,0,0,1,1,0,1,0,1","0,1,0,0,1,1,1,1,0","3",""
"","html-keyboard-response","354","98440","0.0-354.0","339ANSOTR6OOYC5V6Y36EG4G3MHIK3","A3TH6B3RUD1MUQ","3ECKRY5B1QIH1N6NFX1ECCW5ZDKIZQ","","null","<img src=""img/flower4.png"" style=""width:200px; border:14px solid green;"">","null","","","","","","","","",""
"","image-keyboard-response","355","98507","0.0-355.0","339ANSOTR6OOYC5V6Y36EG4G3MHIK3","A3TH6B3RUD1MUQ","3ECKRY5B1QIH1N6NFX1ECCW5ZDKIZQ","","65.69999992847443","img/flower4.png","74","66.89999997615814","1","0","2","2","1,0,0,1,1,0,1,0,1","0,1,0,0,1,1,1,1,0","3",""
"","html-keyboard-response","356","98808","0.0-356.0","339ANSOTR6OOYC5V6Y36EG4G3MHIK3","A3TH6B3RUD1MUQ","3ECKRY5B1QIH1N6NFX1ECCW5ZDKIZQ","","null","<img src=""img/flower4.png"" style=""width:200px;border:14px solid red;"">","null","","","","","","","","",""
"","image-keyboard-response","357","98936","0.0-357.0","339ANSOTR6OOYC5V6Y36EG4G3MHIK3","A3TH6B3RUD1MUQ","3ECKRY5B1QIH1N6NFX1ECCW5ZDKIZQ","","127.19999992847443","img/flower6.png","76","128.20000004768372","3","0","1","2","1,0,0,1,1,0,1,0,1","0,1,0,0,1,1,1,1,0","3",""
"","html-keyboard-response","358","99239","0.0-358.0","339ANSOTR6OOYC5V6Y36EG4G3MHIK3","A3TH6B3RUD1MUQ","3ECKRY5B1QIH1N6NFX1ECCW5ZDKIZQ","","null","<img src=""img/flower6.png"" style=""width:200px;border:14px solid red;"">","null","","","","","","","","",""
"","image-keyboard-response","359","99436","0.0-359.0","339ANSOTR6OOYC5V6Y36EG4G3MHIK3","A3TH6B3RUD1MUQ","3ECKRY5B1QIH1N6NFX1ECCW5ZDKIZQ","","196","img/flower4.png","76","196.69999992847443","3","1","2","2","1,0,0,1,1,0,1,0,1","0,1,0,0,1,1,1,1,0","3",""
"","html-keyboard-response","360","99738","0.0-360.0","339ANSOTR6OOYC5V6Y36EG4G3MHIK3","A3TH6B3RUD1MUQ","3ECKRY5B1QIH1N6NFX1ECCW5ZDKIZQ","","null","<img src=""img/flower4.png"" style=""width:200px; border:14px solid green;"">","null","","","","","","","","",""
"","image-keyboard-response","361","99811","0.0-361.0","339ANSOTR6OOYC5V6Y36EG4G3MHIK3","A3TH6B3RUD1MUQ","3ECKRY5B1QIH1N6NFX1ECCW5ZDKIZQ","","71.39999997615814","img/flower3.png","74","72.19999992847443","1","1","3","2","1,0,0,1,1,0,1,0,1","0,1,0,0,1,1,1,1,0","3",""
"","html-keyboard-response","362","100112","0.0-362.0","339ANSOTR6OOYC5V6Y36EG4G3MHIK3","A3TH6B3RUD1MUQ","3ECKRY5B1QIH1N6NFX1ECCW5ZDKIZQ","","null","<img src=""img/flower3.png"" style=""width:200px; border:14px solid green;"">","null","","","","","","","","",""
"","instructions","363","102508","0.0-363.0","339ANSOTR6OOYC5V6Y36EG4G3MHIK3","A3TH6B3RUD1MUQ","3ECKRY5B1QIH1N6NFX1ECCW5ZDKIZQ","[{""page_index"":0,""viewing_time"":2393.899999976158}]","2394.7999999523163","","","","","","","","","","",""
"","survey-text","364","106889","0.0-364.0","339ANSOTR6OOYC5V6Y36EG4G3MHIK3","A3TH6B3RUD1MUQ","3ECKRY5B1QIH1N6NFX1ECCW5ZDKIZQ","","4373.800000071526","","","","","","","","","","","{""Q0"":""A3TH6B3RUD1MUQ""}"
