"success","trial_type","trial_index","time_elapsed","internal_node_id","assignmentID","mturkID","hitID","view_history","rt","stimulus","key_press","reactionTime","a","r","s","cond","reward_cond","reward_cond_actual","reward_matrix_idx","responses"
"true","fullscreen","0","3760","0.0-0.0","3AMW0RGHOEOHN4D2G6L6F5MWJU2NP8","A3UC9N3EEE6733","3I7KR83SNAZT1REYB2SRC49PCEEK9H","","","","","","","","","","","","",""
"","instructions","1","42840","0.0-1.0","3AMW0RGHOEOHN4D2G6L6F5MWJU2NP8","A3UC9N3EEE6733","3I7KR83SNAZT1REYB2SRC49PCEEK9H","[{""page_index"":0,""viewing_time"":5597.939999999653},{""page_index"":1,""viewing_time"":1310.0700000004508},{""page_index"":2,""viewing_time"":729.2699999998149},{""page_index"":3,""viewing_time"":1084.020000000237},{""page_index"":4,""viewing_time"":25794.364999999743},{""page_index"":5,""viewing_time"":2107.915000000503},{""page_index"":6,""viewing_time"":1371.9849999997678},{""page_index"":7,""viewing_time"":1078.0249999997977}]","39075.85500000005","","","","","","","","","","",""
"","image-keyboard-response","2","43651","0.0-2.0","3AMW0RGHOEOHN4D2G6L6F5MWJU2NP8","A3UC9N3EEE6733","3I7KR83SNAZT1REYB2SRC49PCEEK9H","","793.1300000000192","img/flower6.png","75","800.0400000000809","2","0","3","1","1,0.333,0.333,0.333,1,0.333,0.333,0.333,1","1,0.333,0.333,0.333,1,0.333,0.333,0.333,1","1",""
"","html-keyboard-response","3","43957","0.0-3.0","3AMW0RGHOEOHN4D2G6L6F5MWJU2NP8","A3UC9N3EEE6733","3I7KR83SNAZT1REYB2SRC49PCEEK9H","","null","<img src=""img/flower6.png"" style=""width:200px;border:14px solid red;"">","null","","","","","","","","",""
"","image-keyboard-response","4","44234","0.0-4.0","3AMW0RGHOEOHN4D2G6L6F5MWJU2NP8","A3UC9N3EEE6733","3I7KR83SNAZT1REYB2SRC49PCEEK9H","","274.1150000001653","img/flower2.png","74","276.1449999998149","1","1","1","1","1,0.333,0.333,0.333,1,0.333,0.333,0.333,1","1,0.333,0.333,0.333,1,0.333,0.333,0.333,1","1",""
"","html-keyboard-response","5","44538","0.0-5.0","3AMW0RGHOEOHN4D2G6L6F5MWJU2NP8","A3UC9N3EEE6733","3I7KR83SNAZT1REYB2SRC49PCEEK9H","","null","<img src=""img/flower2.png"" style=""width:200px; border:14px solid green;"">","null","","","","","","","","",""
"","image-keyboard-response","6","45537","0.0-6.0","3AMW0RGHOEOHN4D2G6L6F5MWJU2NP8","A3UC9N3EEE6733","3I7KR83SNAZT1REYB2SRC49PCEEK9H","","996.660000000702","img/flower5.png","74","998.9100000002509","1","0","2","1","1,0.333,0.333,0.333,1,0.333,0.333,0.333,1","1,0.333,0.333,0.333,1,0.333,0.333,0.333,1","1",""
"","html-keyboard-response","7","45840","0.0-7.0","3AMW0RGHOEOHN4D2G6L6F5MWJU2NP8","A3UC9N3EEE6733","3I7KR83SNAZT1REYB2SRC49PCEEK9H","","null","<img src=""img/flower5.png"" style=""width:200px;border:14px solid red;"">","null","","","","","","","","",""
"","image-keyboard-response","8","46604","0.0-8.0","3AMW0RGHOEOHN4D2G6L6F5MWJU2NP8","A3UC9N3EEE6733","3I7KR83SNAZT1REYB2SRC49PCEEK9H","","760.6949999999415","img/flower6.png","74","762.8349999995407","1","0","3","1","1,0.333,0.333,0.333,1,0.333,0.333,0.333,1","1,0.333,0.333,0.333,1,0.333,0.333,0.333,1","1",""
"","html-keyboard-response","9","46912","0.0-9.0","3AMW0RGHOEOHN4D2G6L6F5MWJU2NP8","A3UC9N3EEE6733","3I7KR83SNAZT1REYB2SRC49PCEEK9H","","null","<img src=""img/flower6.png"" style=""width:200px;border:14px solid red;"">","null","","","","","","","","",""
"","image-keyboard-response","10","47393","0.0-10.0","3AMW0RGHOEOHN4D2G6L6F5MWJU2NP8","A3UC9N3EEE6733","3I7KR83SNAZT1REYB2SRC49PCEEK9H","","479.15000000011787","img/flower6.png","75","480.8199999997669","2","0","3","1","1,0.333,0.333,0.333,1,0.333,0.333,0.333,1","1,0.333,0.333,0.333,1,0.333,0.333,0.333,1","1",""
"","html-keyboard-response","11","47696","0.0-11.0","3AMW0RGHOEOHN4D2G6L6F5MWJU2NP8","A3UC9N3EEE6733","3I7KR83SNAZT1REYB2SRC49PCEEK9H","","null","<img src=""img/flower6.png"" style=""width:200px;border:14px solid red;"">","null","","","","","","","","",""
"","image-keyboard-response","12","48036","0.0-12.0","3AMW0RGHOEOHN4D2G6L6F5MWJU2NP8","A3UC9N3EEE6733","3I7KR83SNAZT1REYB2SRC49PCEEK9H","","338.45000000019354","img/flower2.png","74","340.06500000032247","1","1","1","1","1,0.333,0.333,0.333,1,0.333,0.333,0.333,1","1,0.333,0.333,0.333,1,0.333,0.333,0.333,1","1",""
"","html-keyboard-response","13","48339","0.0-13.0","3AMW0RGHOEOHN4D2G6L6F5MWJU2NP8","A3UC9N3EEE6733","3I7KR83SNAZT1REYB2SRC49PCEEK9H","","null","<img src=""img/flower2.png"" style=""width:200px; border:14px solid green;"">","null","","","","","","","","",""
"","image-keyboard-response","14","48742","0.0-14.0","3AMW0RGHOEOHN4D2G6L6F5MWJU2NP8","A3UC9N3EEE6733","3I7KR83SNAZT1REYB2SRC49PCEEK9H","","400.8700000003955","img/flower6.png","74","402.8099999995902","1","0","3","1","1,0.333,0.333,0.333,1,0.333,0.333,0.333,1","1,0.333,0.333,0.333,1,0.333,0.333,0.333,1","1",""
"","html-keyboard-response","15","49044","0.0-15.0","3AMW0RGHOEOHN4D2G6L6F5MWJU2NP8","A3UC9N3EEE6733","3I7KR83SNAZT1REYB2SRC49PCEEK9H","","null","<img src=""img/flower6.png"" style=""width:200px;border:14px solid red;"">","null","","","","","","","","",""
"","image-keyboard-response","16","49220","0.0-16.0","3AMW0RGHOEOHN4D2G6L6F5MWJU2NP8","A3UC9N3EEE6733","3I7KR83SNAZT1REYB2SRC49PCEEK9H","","174.7800000002826","img/flower6.png","75","176.17500000051223","2","0","3","1","1,0.333,0.333,0.333,1,0.333,0.333,0.333,1","1,0.333,0.333,0.333,1,0.333,0.333,0.333,1","1",""
"","html-keyboard-response","17","49523","0.0-17.0","3AMW0RGHOEOHN4D2G6L6F5MWJU2NP8","A3UC9N3EEE6733","3I7KR83SNAZT1REYB2SRC49PCEEK9H","","null","<img src=""img/flower6.png"" style=""width:200px;border:14px solid red;"">","null","","","","","","","","",""
"","image-keyboard-response","18","49741","0.0-18.0","3AMW0RGHOEOHN4D2G6L6F5MWJU2NP8","A3UC9N3EEE6733","3I7KR83SNAZT1REYB2SRC49PCEEK9H","","214.9150000004738","img/flower6.png","75","216.83500000017375","2","0","3","1","1,0.333,0.333,0.333,1,0.333,0.333,0.333,1","1,0.333,0.333,0.333,1,0.333,0.333,0.333,1","1",""
"","html-keyboard-response","19","50043","0.0-19.0","3AMW0RGHOEOHN4D2G6L6F5MWJU2NP8","A3UC9N3EEE6733","3I7KR83SNAZT1REYB2SRC49PCEEK9H","","null","<img src=""img/flower6.png"" style=""width:200px;border:14px solid red;"">","null","","","","","","","","",""
"","image-keyboard-response","20","50139","0.0-20.0","3AMW0RGHOEOHN4D2G6L6F5MWJU2NP8","A3UC9N3EEE6733","3I7KR83SNAZT1REYB2SRC49PCEEK9H","","94.39500000007683","img/flower2.png","76","96.24999999959982","3","0","1","1","1,0.333,0.333,0.333,1,0.333,0.333,0.333,1","1,0.333,0.333,0.333,1,0.333,0.333,0.333,1","1",""
"","html-keyboard-response","21","50442","0.0-21.0","3AMW0RGHOEOHN4D2G6L6F5MWJU2NP8","A3UC9N3EEE6733","3I7KR83SNAZT1REYB2SRC49PCEEK9H","","null","<img src=""img/flower2.png"" style=""width:200px;border:14px solid red;"">","null","","","","","","","","",""
"","image-keyboard-response","22","50834","0.0-22.0","3AMW0RGHOEOHN4D2G6L6F5MWJU2NP8","A3UC9N3EEE6733","3I7KR83SNAZT1REYB2SRC49PCEEK9H","","389.5199999997203","img/flower2.png","74","391.6800000006333","1","1","1","1","1,0.333,0.333,0.333,1,0.333,0.333,0.333,1","1,0.333,0.333,0.333,1,0.333,0.333,0.333,1","1",""
"","html-keyboard-response","23","51137","0.0-23.0","3AMW0RGHOEOHN4D2G6L6F5MWJU2NP8","A3UC9N3EEE6733","3I7KR83SNAZT1REYB2SRC49PCEEK9H","","null","<img src=""img/flower2.png"" style=""width:200px; border:14px solid green;"">","null","","","","","","","","",""
"","image-keyboard-response","24","51491","0.0-24.0","3AMW0RGHOEOHN4D2G6L6F5MWJU2NP8","A3UC9N3EEE6733","3I7KR83SNAZT1REYB2SRC49PCEEK9H","","352.2999999995591","img/flower2.png","75","354.1049999994357","2","0","1","1","1,0.333,0.333,0.333,1,0.333,0.333,0.333,1","1,0.333,0.333,0.333,1,0.333,0.333,0.333,1","1",""
"","html-keyboard-response","25","51794","0.0-25.0","3AMW0RGHOEOHN4D2G6L6F5MWJU2NP8","A3UC9N3EEE6733","3I7KR83SNAZT1REYB2SRC49PCEEK9H","","null","<img src=""img/flower2.png"" style=""width:200px;border:14px solid red;"">","null","","","","","","","","",""
"","image-keyboard-response","26","51958","0.0-26.0","3AMW0RGHOEOHN4D2G6L6F5MWJU2NP8","A3UC9N3EEE6733","3I7KR83SNAZT1REYB2SRC49PCEEK9H","","162.37499999988358","img/flower2.png","76","164.20999999991182","3","0","1","1","1,0.333,0.333,0.333,1,0.333,0.333,0.333,1","1,0.333,0.333,0.333,1,0.333,0.333,0.333,1","1",""
"","html-keyboard-response","27","52261","0.0-27.0","3AMW0RGHOEOHN4D2G6L6F5MWJU2NP8","A3UC9N3EEE6733","3I7KR83SNAZT1REYB2SRC49PCEEK9H","","null","<img src=""img/flower2.png"" style=""width:200px;border:14px solid red;"">","null","","","","","","","","",""
"","image-keyboard-response","28","52582","0.0-28.0","3AMW0RGHOEOHN4D2G6L6F5MWJU2NP8","A3UC9N3EEE6733","3I7KR83SNAZT1REYB2SRC49PCEEK9H","","318.38499999958003","img/flower5.png","74","320.3350000003411","1","0","2","1","1,0.333,0.333,0.333,1,0.333,0.333,0.333,1","1,0.333,0.333,0.333,1,0.333,0.333,0.333,1","1",""
"","html-keyboard-response","29","52885","0.0-29.0","3AMW0RGHOEOHN4D2G6L6F5MWJU2NP8","A3UC9N3EEE6733","3I7KR83SNAZT1REYB2SRC49PCEEK9H","","null","<img src=""img/flower5.png"" style=""width:200px;border:14px solid red;"">","null","","","","","","","","",""
"","image-keyboard-response","30","53030","0.0-30.0","3AMW0RGHOEOHN4D2G6L6F5MWJU2NP8","A3UC9N3EEE6733","3I7KR83SNAZT1REYB2SRC49PCEEK9H","","142.9599999992206","img/flower5.png","76","144.69499999995605","3","1","2","1","1,0.333,0.333,0.333,1,0.333,0.333,0.333,1","1,0.333,0.333,0.333,1,0.333,0.333,0.333,1","1",""
"","html-keyboard-response","31","53332","0.0-31.0","3AMW0RGHOEOHN4D2G6L6F5MWJU2NP8","A3UC9N3EEE6733","3I7KR83SNAZT1REYB2SRC49PCEEK9H","","null","<img src=""img/flower5.png"" style=""width:200px; border:14px solid green;"">","null","","","","","","","","",""
"","image-keyboard-response","32","53334","0.0-32.0","3AMW0RGHOEOHN4D2G6L6F5MWJU2NP8","A3UC9N3EEE6733","3I7KR83SNAZT1REYB2SRC49PCEEK9H","","0.22499999977299012","img/flower6.png","75","1.9350000002305023","2","1","3","1","1,0.333,0.333,0.333,1,0.333,0.333,0.333,1","1,0.333,0.333,0.333,1,0.333,0.333,0.333,1","1",""
"","html-keyboard-response","33","53637","0.0-33.0","3AMW0RGHOEOHN4D2G6L6F5MWJU2NP8","A3UC9N3EEE6733","3I7KR83SNAZT1REYB2SRC49PCEEK9H","","null","<img src=""img/flower6.png"" style=""width:200px; border:14px solid green;"">","null","","","","","","","","",""
"","image-keyboard-response","34","53864","0.0-34.0","3AMW0RGHOEOHN4D2G6L6F5MWJU2NP8","A3UC9N3EEE6733","3I7KR83SNAZT1REYB2SRC49PCEEK9H","","225.14500000033877","img/flower2.png","74","227.04499999963446","1","1","1","1","1,0.333,0.333,0.333,1,0.333,0.333,0.333,1","1,0.333,0.333,0.333,1,0.333,0.333,0.333,1","1",""
"","html-keyboard-response","35","54167","0.0-35.0","3AMW0RGHOEOHN4D2G6L6F5MWJU2NP8","A3UC9N3EEE6733","3I7KR83SNAZT1REYB2SRC49PCEEK9H","","null","<img src=""img/flower2.png"" style=""width:200px; border:14px solid green;"">","null","","","","","","","","",""
"","image-keyboard-response","36","54427","0.0-36.0","3AMW0RGHOEOHN4D2G6L6F5MWJU2NP8","A3UC9N3EEE6733","3I7KR83SNAZT1REYB2SRC49PCEEK9H","","257.37000000026455","img/flower2.png","76","259.30500000049506","3","0","1","1","1,0.333,0.333,0.333,1,0.333,0.333,0.333,1","1,0.333,0.333,0.333,1,0.333,0.333,0.333,1","1",""
"","html-keyboard-response","37","54730","0.0-37.0","3AMW0RGHOEOHN4D2G6L6F5MWJU2NP8","A3UC9N3EEE6733","3I7KR83SNAZT1REYB2SRC49PCEEK9H","","null","<img src=""img/flower2.png"" style=""width:200px;border:14px solid red;"">","null","","","","","","","","",""
"","image-keyboard-response","38","54980","0.0-38.0","3AMW0RGHOEOHN4D2G6L6F5MWJU2NP8","A3UC9N3EEE6733","3I7KR83SNAZT1REYB2SRC49PCEEK9H","","247.47999999998137","img/flower2.png","75","249.62499999947613","2","0","1","1","1,0.333,0.333,0.333,1,0.333,0.333,0.333,1","1,0.333,0.333,0.333,1,0.333,0.333,0.333,1","1",""
"","html-keyboard-response","39","55284","0.0-39.0","3AMW0RGHOEOHN4D2G6L6F5MWJU2NP8","A3UC9N3EEE6733","3I7KR83SNAZT1REYB2SRC49PCEEK9H","","null","<img src=""img/flower2.png"" style=""width:200px;border:14px solid red;"">","null","","","","","","","","",""
"","image-keyboard-response","40","55448","0.0-40.0","3AMW0RGHOEOHN4D2G6L6F5MWJU2NP8","A3UC9N3EEE6733","3I7KR83SNAZT1REYB2SRC49PCEEK9H","","161.65000000000873","img/flower5.png","74","163.59000000011292","1","0","2","1","1,0.333,0.333,0.333,1,0.333,0.333,0.333,1","1,0.333,0.333,0.333,1,0.333,0.333,0.333,1","1",""
"","html-keyboard-response","41","55751","0.0-41.0","3AMW0RGHOEOHN4D2G6L6F5MWJU2NP8","A3UC9N3EEE6733","3I7KR83SNAZT1REYB2SRC49PCEEK9H","","null","<img src=""img/flower5.png"" style=""width:200px;border:14px solid red;"">","null","","","","","","","","",""
"","image-keyboard-response","42","56202","0.0-42.0","3AMW0RGHOEOHN4D2G6L6F5MWJU2NP8","A3UC9N3EEE6733","3I7KR83SNAZT1REYB2SRC49PCEEK9H","","449.53499999974156","img/flower6.png","75","451.37999999952444","2","1","3","1","1,0.333,0.333,0.333,1,0.333,0.333,0.333,1","1,0.333,0.333,0.333,1,0.333,0.333,0.333,1","1",""
"","html-keyboard-response","43","56505","0.0-43.0","3AMW0RGHOEOHN4D2G6L6F5MWJU2NP8","A3UC9N3EEE6733","3I7KR83SNAZT1REYB2SRC49PCEEK9H","","null","<img src=""img/flower6.png"" style=""width:200px; border:14px solid green;"">","null","","","","","","","","",""
"","image-keyboard-response","44","56829","0.0-44.0","3AMW0RGHOEOHN4D2G6L6F5MWJU2NP8","A3UC9N3EEE6733","3I7KR83SNAZT1REYB2SRC49PCEEK9H","","321.9149999995425","img/flower5.png","75","323.8900000005815","2","1","2","1","1,0.333,0.333,0.333,1,0.333,0.333,0.333,1","1,0.333,0.333,0.333,1,0.333,0.333,0.333,1","1",""
"","html-keyboard-response","45","57132","0.0-45.0","3AMW0RGHOEOHN4D2G6L6F5MWJU2NP8","A3UC9N3EEE6733","3I7KR83SNAZT1REYB2SRC49PCEEK9H","","null","<img src=""img/flower5.png"" style=""width:200px; border:14px solid green;"">","null","","","","","","","","",""
"","image-keyboard-response","46","57520","0.0-46.0","3AMW0RGHOEOHN4D2G6L6F5MWJU2NP8","A3UC9N3EEE6733","3I7KR83SNAZT1REYB2SRC49PCEEK9H","","386.2050000006857","img/flower5.png","74","387.8649999996851","1","0","2","1","1,0.333,0.333,0.333,1,0.333,0.333,0.333,1","1,0.333,0.333,0.333,1,0.333,0.333,0.333,1","1",""
"","html-keyboard-response","47","57823","0.0-47.0","3AMW0RGHOEOHN4D2G6L6F5MWJU2NP8","A3UC9N3EEE6733","3I7KR83SNAZT1REYB2SRC49PCEEK9H","","null","<img src=""img/flower5.png"" style=""width:200px;border:14px solid red;"">","null","","","","","","","","",""
"","image-keyboard-response","48","58223","0.0-48.0","3AMW0RGHOEOHN4D2G6L6F5MWJU2NP8","A3UC9N3EEE6733","3I7KR83SNAZT1REYB2SRC49PCEEK9H","","396.8850000000966","img/flower5.png","76","399.2550000002666","3","1","2","1","1,0.333,0.333,0.333,1,0.333,0.333,0.333,1","1,0.333,0.333,0.333,1,0.333,0.333,0.333,1","1",""
"","html-keyboard-response","49","58526","0.0-49.0","3AMW0RGHOEOHN4D2G6L6F5MWJU2NP8","A3UC9N3EEE6733","3I7KR83SNAZT1REYB2SRC49PCEEK9H","","null","<img src=""img/flower5.png"" style=""width:200px; border:14px solid green;"">","null","","","","","","","","",""
"","image-keyboard-response","50","58806","0.0-50.0","3AMW0RGHOEOHN4D2G6L6F5MWJU2NP8","A3UC9N3EEE6733","3I7KR83SNAZT1REYB2SRC49PCEEK9H","","277.38499999939813","img/flower2.png","76","279.64999999948486","3","0","1","1","1,0.333,0.333,0.333,1,0.333,0.333,0.333,1","1,0.333,0.333,0.333,1,0.333,0.333,0.333,1","1",""
"","html-keyboard-response","51","59109","0.0-51.0","3AMW0RGHOEOHN4D2G6L6F5MWJU2NP8","A3UC9N3EEE6733","3I7KR83SNAZT1REYB2SRC49PCEEK9H","","null","<img src=""img/flower2.png"" style=""width:200px;border:14px solid red;"">","null","","","","","","","","",""
"","image-keyboard-response","52","59281","0.0-52.0","3AMW0RGHOEOHN4D2G6L6F5MWJU2NP8","A3UC9N3EEE6733","3I7KR83SNAZT1REYB2SRC49PCEEK9H","","170.06000000037602","img/flower5.png","75","172.0599999998667","2","1","2","1","1,0.333,0.333,0.333,1,0.333,0.333,0.333,1","1,0.333,0.333,0.333,1,0.333,0.333,0.333,1","1",""
"","html-keyboard-response","53","59584","0.0-53.0","3AMW0RGHOEOHN4D2G6L6F5MWJU2NP8","A3UC9N3EEE6733","3I7KR83SNAZT1REYB2SRC49PCEEK9H","","null","<img src=""img/flower5.png"" style=""width:200px; border:14px solid green;"">","null","","","","","","","","",""
"","image-keyboard-response","54","59901","0.0-54.0","3AMW0RGHOEOHN4D2G6L6F5MWJU2NP8","A3UC9N3EEE6733","3I7KR83SNAZT1REYB2SRC49PCEEK9H","","314.26499999998487","img/flower2.png","75","316.05000000035216","2","0","1","1","1,0.333,0.333,0.333,1,0.333,0.333,0.333,1","1,0.333,0.333,0.333,1,0.333,0.333,0.333,1","1",""
"","html-keyboard-response","55","60203","0.0-55.0","3AMW0RGHOEOHN4D2G6L6F5MWJU2NP8","A3UC9N3EEE6733","3I7KR83SNAZT1REYB2SRC49PCEEK9H","","null","<img src=""img/flower2.png"" style=""width:200px;border:14px solid red;"">","null","","","","","","","","",""
"","image-keyboard-response","56","60358","0.0-56.0","3AMW0RGHOEOHN4D2G6L6F5MWJU2NP8","A3UC9N3EEE6733","3I7KR83SNAZT1REYB2SRC49PCEEK9H","","152.72999999977765","img/flower6.png","74","154.54500000033295","1","0","3","1","1,0.333,0.333,0.333,1,0.333,0.333,0.333,1","1,0.333,0.333,0.333,1,0.333,0.333,0.333,1","1",""
"","html-keyboard-response","57","60660","0.0-57.0","3AMW0RGHOEOHN4D2G6L6F5MWJU2NP8","A3UC9N3EEE6733","3I7KR83SNAZT1REYB2SRC49PCEEK9H","","null","<img src=""img/flower6.png"" style=""width:200px;border:14px solid red;"">","null","","","","","","","","",""
"","image-keyboard-response","58","61001","0.0-58.0","3AMW0RGHOEOHN4D2G6L6F5MWJU2NP8","A3UC9N3EEE6733","3I7KR83SNAZT1REYB2SRC49PCEEK9H","","337.80500000010943","img/flower6.png","76","339.7850000001199","3","1","3","1","1,0.333,0.333,0.333,1,0.333,0.333,0.333,1","1,0.333,0.333,0.333,1,0.333,0.333,0.333,1","1",""
"","html-keyboard-response","59","61303","0.0-59.0","3AMW0RGHOEOHN4D2G6L6F5MWJU2NP8","A3UC9N3EEE6733","3I7KR83SNAZT1REYB2SRC49PCEEK9H","","null","<img src=""img/flower6.png"" style=""width:200px; border:14px solid green;"">","null","","","","","","","","",""
"","image-keyboard-response","60","61758","0.0-60.0","3AMW0RGHOEOHN4D2G6L6F5MWJU2NP8","A3UC9N3EEE6733","3I7KR83SNAZT1REYB2SRC49PCEEK9H","","452.5200000007171","img/flower6.png","75","454.59500000016124","2","1","3","1","1,0.333,0.333,0.333,1,0.333,0.333,0.333,1","1,0.333,0.333,0.333,1,0.333,0.333,0.333,1","1",""
"","html-keyboard-response","61","62061","0.0-61.0","3AMW0RGHOEOHN4D2G6L6F5MWJU2NP8","A3UC9N3EEE6733","3I7KR83SNAZT1REYB2SRC49PCEEK9H","","null","<img src=""img/flower6.png"" style=""width:200px; border:14px solid green;"">","null","","","","","","","","",""
"","image-keyboard-response","62","62216","0.0-62.0","3AMW0RGHOEOHN4D2G6L6F5MWJU2NP8","A3UC9N3EEE6733","3I7KR83SNAZT1REYB2SRC49PCEEK9H","","151.90999999959604","img/flower5.png","74","153.92999999949825","1","0","2","1","1,0.333,0.333,0.333,1,0.333,0.333,0.333,1","1,0.333,0.333,0.333,1,0.333,0.333,0.333,1","1",""
"","html-keyboard-response","63","62518","0.0-63.0","3AMW0RGHOEOHN4D2G6L6F5MWJU2NP8","A3UC9N3EEE6733","3I7KR83SNAZT1REYB2SRC49PCEEK9H","","null","<img src=""img/flower5.png"" style=""width:200px;border:14px solid red;"">","null","","","","","","","","",""
"","image-keyboard-response","64","63108","0.0-64.0","3AMW0RGHOEOHN4D2G6L6F5MWJU2NP8","A3UC9N3EEE6733","3I7KR83SNAZT1REYB2SRC49PCEEK9H","","586.2349999997678","img/flower5.png","74","588.9349999997648","1","1","2","1","1,0.333,0.333,0.333,1,0.333,0.333,0.333,1","1,0.333,0.333,0.333,1,0.333,0.333,0.333,1","1",""
"","html-keyboard-response","65","63410","0.0-65.0","3AMW0RGHOEOHN4D2G6L6F5MWJU2NP8","A3UC9N3EEE6733","3I7KR83SNAZT1REYB2SRC49PCEEK9H","","null","<img src=""img/flower5.png"" style=""width:200px; border:14px solid green;"">","null","","","","","","","","",""
"","image-keyboard-response","66","63635","0.0-66.0","3AMW0RGHOEOHN4D2G6L6F5MWJU2NP8","A3UC9N3EEE6733","3I7KR83SNAZT1REYB2SRC49PCEEK9H","","222.2500000006985","img/flower5.png","76","224.8899999995192","3","0","2","1","1,0.333,0.333,0.333,1,0.333,0.333,0.333,1","1,0.333,0.333,0.333,1,0.333,0.333,0.333,1","1",""
"","html-keyboard-response","67","63938","0.0-67.0","3AMW0RGHOEOHN4D2G6L6F5MWJU2NP8","A3UC9N3EEE6733","3I7KR83SNAZT1REYB2SRC49PCEEK9H","","null","<img src=""img/flower5.png"" style=""width:200px;border:14px solid red;"">","null","","","","","","","","",""
"","image-keyboard-response","68","64406","0.0-68.0","3AMW0RGHOEOHN4D2G6L6F5MWJU2NP8","A3UC9N3EEE6733","3I7KR83SNAZT1REYB2SRC49PCEEK9H","","464.8449999995064","img/flower6.png","74","471.1500000003143","1","0","3","1","1,0.333,0.333,0.333,1,0.333,0.333,0.333,1","1,0.333,0.333,0.333,1,0.333,0.333,0.333,1","1",""
"","html-keyboard-response","69","64712","0.0-69.0","3AMW0RGHOEOHN4D2G6L6F5MWJU2NP8","A3UC9N3EEE6733","3I7KR83SNAZT1REYB2SRC49PCEEK9H","","null","<img src=""img/flower6.png"" style=""width:200px;border:14px solid red;"">","null","","","","","","","","",""
"","image-keyboard-response","70","65525","0.0-70.0","3AMW0RGHOEOHN4D2G6L6F5MWJU2NP8","A3UC9N3EEE6733","3I7KR83SNAZT1REYB2SRC49PCEEK9H","","810.3099999998376","img/flower6.png","74","812.1399999999994","1","0","3","1","1,0.333,0.333,0.333,1,0.333,0.333,0.333,1","1,0.333,0.333,0.333,1,0.333,0.333,0.333,1","1",""
"","html-keyboard-response","71","65827","0.0-71.0","3AMW0RGHOEOHN4D2G6L6F5MWJU2NP8","A3UC9N3EEE6733","3I7KR83SNAZT1REYB2SRC49PCEEK9H","","null","<img src=""img/flower6.png"" style=""width:200px;border:14px solid red;"">","null","","","","","","","","",""
"","image-keyboard-response","72","66202","0.0-72.0","3AMW0RGHOEOHN4D2G6L6F5MWJU2NP8","A3UC9N3EEE6733","3I7KR83SNAZT1REYB2SRC49PCEEK9H","","372.7200000002922","img/flower5.png","74","374.47999999950116","1","1","2","1","1,0.333,0.333,0.333,1,0.333,0.333,0.333,1","1,0.333,0.333,0.333,1,0.333,0.333,0.333,1","1",""
"","html-keyboard-response","73","66505","0.0-73.0","3AMW0RGHOEOHN4D2G6L6F5MWJU2NP8","A3UC9N3EEE6733","3I7KR83SNAZT1REYB2SRC49PCEEK9H","","null","<img src=""img/flower5.png"" style=""width:200px; border:14px solid green;"">","null","","","","","","","","",""
"","image-keyboard-response","74","66659","0.0-74.0","3AMW0RGHOEOHN4D2G6L6F5MWJU2NP8","A3UC9N3EEE6733","3I7KR83SNAZT1REYB2SRC49PCEEK9H","","151.74000000025262","img/flower2.png","76","153.77999999963504","3","1","1","1","1,0.333,0.333,0.333,1,0.333,0.333,0.333,1","1,0.333,0.333,0.333,1,0.333,0.333,0.333,1","1",""
"","html-keyboard-response","75","66962","0.0-75.0","3AMW0RGHOEOHN4D2G6L6F5MWJU2NP8","A3UC9N3EEE6733","3I7KR83SNAZT1REYB2SRC49PCEEK9H","","null","<img src=""img/flower2.png"" style=""width:200px; border:14px solid green;"">","null","","","","","","","","",""
"","image-keyboard-response","76","67320","0.0-76.0","3AMW0RGHOEOHN4D2G6L6F5MWJU2NP8","A3UC9N3EEE6733","3I7KR83SNAZT1REYB2SRC49PCEEK9H","","355.4500000000262","img/flower5.png","75","357.4900000003254","2","1","2","1","1,0.333,0.333,0.333,1,0.333,0.333,0.333,1","1,0.333,0.333,0.333,1,0.333,0.333,0.333,1","1",""
"","html-keyboard-response","77","67622","0.0-77.0","3AMW0RGHOEOHN4D2G6L6F5MWJU2NP8","A3UC9N3EEE6733","3I7KR83SNAZT1REYB2SRC49PCEEK9H","","null","<img src=""img/flower5.png"" style=""width:200px; border:14px solid green;"">","null","","","","","","","","",""
"","image-keyboard-response","78","67907","0.0-78.0","3AMW0RGHOEOHN4D2G6L6F5MWJU2NP8","A3UC9N3EEE6733","3I7KR83SNAZT1REYB2SRC49PCEEK9H","","283.23999999975786","img/flower6.png","74","285.19000000051165","1","1","3","1","1,0.333,0.333,0.333,1,0.333,0.333,0.333,1","1,0.333,0.333,0.333,1,0.333,0.333,0.333,1","1",""
"","html-keyboard-response","79","68210","0.0-79.0","3AMW0RGHOEOHN4D2G6L6F5MWJU2NP8","A3UC9N3EEE6733","3I7KR83SNAZT1REYB2SRC49PCEEK9H","","null","<img src=""img/flower6.png"" style=""width:200px; border:14px solid green;"">","null","","","","","","","","",""
"","image-keyboard-response","80","68534","0.0-80.0","3AMW0RGHOEOHN4D2G6L6F5MWJU2NP8","A3UC9N3EEE6733","3I7KR83SNAZT1REYB2SRC49PCEEK9H","","321.3249999998807","img/flower5.png","74","323.43499999934284","1","0","2","1","1,0.333,0.333,0.333,1,0.333,0.333,0.333,1","1,0.333,0.333,0.333,1,0.333,0.333,0.333,1","1",""
"","html-keyboard-response","81","68836","0.0-81.0","3AMW0RGHOEOHN4D2G6L6F5MWJU2NP8","A3UC9N3EEE6733","3I7KR83SNAZT1REYB2SRC49PCEEK9H","","null","<img src=""img/flower5.png"" style=""width:200px;border:14px solid red;"">","null","","","","","","","","",""
"","image-keyboard-response","82","69130","0.0-82.0","3AMW0RGHOEOHN4D2G6L6F5MWJU2NP8","A3UC9N3EEE6733","3I7KR83SNAZT1REYB2SRC49PCEEK9H","","291.69499999989057","img/flower5.png","75","293.31499999990046","2","1","2","1","1,0.333,0.333,0.333,1,0.333,0.333,0.333,1","1,0.333,0.333,0.333,1,0.333,0.333,0.333,1","1",""
"","html-keyboard-response","83","69433","0.0-83.0","3AMW0RGHOEOHN4D2G6L6F5MWJU2NP8","A3UC9N3EEE6733","3I7KR83SNAZT1REYB2SRC49PCEEK9H","","null","<img src=""img/flower5.png"" style=""width:200px; border:14px solid green;"">","null","","","","","","","","",""
"","image-keyboard-response","84","69700","0.0-84.0","3AMW0RGHOEOHN4D2G6L6F5MWJU2NP8","A3UC9N3EEE6733","3I7KR83SNAZT1REYB2SRC49PCEEK9H","","264.3499999994674","img/flower5.png","76","266.3400000001275","3","0","2","1","1,0.333,0.333,0.333,1,0.333,0.333,0.333,1","1,0.333,0.333,0.333,1,0.333,0.333,0.333,1","1",""
"","html-keyboard-response","85","70002","0.0-85.0","3AMW0RGHOEOHN4D2G6L6F5MWJU2NP8","A3UC9N3EEE6733","3I7KR83SNAZT1REYB2SRC49PCEEK9H","","null","<img src=""img/flower5.png"" style=""width:200px;border:14px solid red;"">","null","","","","","","","","",""
"","image-keyboard-response","86","70264","0.0-86.0","3AMW0RGHOEOHN4D2G6L6F5MWJU2NP8","A3UC9N3EEE6733","3I7KR83SNAZT1REYB2SRC49PCEEK9H","","258.7149999999383","img/flower2.png","75","260.71499999944353","2","0","1","1","1,0.333,0.333,0.333,1,0.333,0.333,0.333,1","1,0.333,0.333,0.333,1,0.333,0.333,0.333,1","1",""
"","html-keyboard-response","87","70566","0.0-87.0","3AMW0RGHOEOHN4D2G6L6F5MWJU2NP8","A3UC9N3EEE6733","3I7KR83SNAZT1REYB2SRC49PCEEK9H","","null","<img src=""img/flower2.png"" style=""width:200px;border:14px solid red;"">","null","","","","","","","","",""
"","image-keyboard-response","88","70828","0.0-88.0","3AMW0RGHOEOHN4D2G6L6F5MWJU2NP8","A3UC9N3EEE6733","3I7KR83SNAZT1REYB2SRC49PCEEK9H","","259.8199999993085","img/flower6.png","74","261.854999999734","1","1","3","1","1,0.333,0.333,0.333,1,0.333,0.333,0.333,1","1,0.333,0.333,0.333,1,0.333,0.333,0.333,1","1",""
"","html-keyboard-response","89","71130","0.0-89.0","3AMW0RGHOEOHN4D2G6L6F5MWJU2NP8","A3UC9N3EEE6733","3I7KR83SNAZT1REYB2SRC49PCEEK9H","","null","<img src=""img/flower6.png"" style=""width:200px; border:14px solid green;"">","null","","","","","","","","",""
"","image-keyboard-response","90","71409","0.0-90.0","3AMW0RGHOEOHN4D2G6L6F5MWJU2NP8","A3UC9N3EEE6733","3I7KR83SNAZT1REYB2SRC49PCEEK9H","","277.2949999998673","img/flower2.png","76","278.58500000002095","3","0","1","1","1,0.333,0.333,0.333,1,0.333,0.333,0.333,1","1,0.333,0.333,0.333,1,0.333,0.333,0.333,1","1",""
"","html-keyboard-response","91","71712","0.0-91.0","3AMW0RGHOEOHN4D2G6L6F5MWJU2NP8","A3UC9N3EEE6733","3I7KR83SNAZT1REYB2SRC49PCEEK9H","","null","<img src=""img/flower2.png"" style=""width:200px;border:14px solid red;"">","null","","","","","","","","",""
"","image-keyboard-response","92","71966","0.0-92.0","3AMW0RGHOEOHN4D2G6L6F5MWJU2NP8","A3UC9N3EEE6733","3I7KR83SNAZT1REYB2SRC49PCEEK9H","","251.72999999995227","img/flower6.png","75","253.66500000018277","2","0","3","1","1,0.333,0.333,0.333,1,0.333,0.333,0.333,1","1,0.333,0.333,0.333,1,0.333,0.333,0.333,1","1",""
"","html-keyboard-response","93","72269","0.0-93.0","3AMW0RGHOEOHN4D2G6L6F5MWJU2NP8","A3UC9N3EEE6733","3I7KR83SNAZT1REYB2SRC49PCEEK9H","","null","<img src=""img/flower6.png"" style=""width:200px;border:14px solid red;"">","null","","","","","","","","",""
"","image-keyboard-response","94","72548","0.0-94.0","3AMW0RGHOEOHN4D2G6L6F5MWJU2NP8","A3UC9N3EEE6733","3I7KR83SNAZT1REYB2SRC49PCEEK9H","","276.4900000001944","img/flower6.png","74","278.36999999999534","1","0","3","1","1,0.333,0.333,0.333,1,0.333,0.333,0.333,1","1,0.333,0.333,0.333,1,0.333,0.333,0.333,1","1",""
"","html-keyboard-response","95","72850","0.0-95.0","3AMW0RGHOEOHN4D2G6L6F5MWJU2NP8","A3UC9N3EEE6733","3I7KR83SNAZT1REYB2SRC49PCEEK9H","","null","<img src=""img/flower6.png"" style=""width:200px;border:14px solid red;"">","null","","","","","","","","",""
"","image-keyboard-response","96","73074","0.0-96.0","3AMW0RGHOEOHN4D2G6L6F5MWJU2NP8","A3UC9N3EEE6733","3I7KR83SNAZT1REYB2SRC49PCEEK9H","","221.85499999977765","img/flower6.png","74","223.53000000021711","1","0","3","1","1,0.333,0.333,0.333,1,0.333,0.333,0.333,1","1,0.333,0.333,0.333,1,0.333,0.333,0.333,1","1",""
"","html-keyboard-response","97","73376","0.0-97.0","3AMW0RGHOEOHN4D2G6L6F5MWJU2NP8","A3UC9N3EEE6733","3I7KR83SNAZT1REYB2SRC49PCEEK9H","","null","<img src=""img/flower6.png"" style=""width:200px;border:14px solid red;"">","null","","","","","","","","",""
"","image-keyboard-response","98","73623","0.0-98.0","3AMW0RGHOEOHN4D2G6L6F5MWJU2NP8","A3UC9N3EEE6733","3I7KR83SNAZT1REYB2SRC49PCEEK9H","","245.06999999993423","img/flower6.png","75","246.51499999981024","2","1","3","1","1,0.333,0.333,0.333,1,0.333,0.333,0.333,1","1,0.333,0.333,0.333,1,0.333,0.333,0.333,1","1",""
"","html-keyboard-response","99","73925","0.0-99.0","3AMW0RGHOEOHN4D2G6L6F5MWJU2NP8","A3UC9N3EEE6733","3I7KR83SNAZT1REYB2SRC49PCEEK9H","","null","<img src=""img/flower6.png"" style=""width:200px; border:14px solid green;"">","null","","","","","","","","",""
"","image-keyboard-response","100","74176","0.0-100.0","3AMW0RGHOEOHN4D2G6L6F5MWJU2NP8","A3UC9N3EEE6733","3I7KR83SNAZT1REYB2SRC49PCEEK9H","","248.72500000038417","img/flower5.png","76","250.53500000013446","3","0","2","1","1,0.333,0.333,0.333,1,0.333,0.333,0.333,1","1,0.333,0.333,0.333,1,0.333,0.333,0.333,1","1",""
"","html-keyboard-response","101","74479","0.0-101.0","3AMW0RGHOEOHN4D2G6L6F5MWJU2NP8","A3UC9N3EEE6733","3I7KR83SNAZT1REYB2SRC49PCEEK9H","","null","<img src=""img/flower5.png"" style=""width:200px;border:14px solid red;"">","null","","","","","","","","",""
"","image-keyboard-response","102","74789","0.0-102.0","3AMW0RGHOEOHN4D2G6L6F5MWJU2NP8","A3UC9N3EEE6733","3I7KR83SNAZT1REYB2SRC49PCEEK9H","","308.6349999994127","img/flower6.png","75","310.59000000004016","2","1","3","1","1,0.333,0.333,0.333,1,0.333,0.333,0.333,1","1,0.333,0.333,0.333,1,0.333,0.333,0.333,1","1",""
"","html-keyboard-response","103","75092","0.0-103.0","3AMW0RGHOEOHN4D2G6L6F5MWJU2NP8","A3UC9N3EEE6733","3I7KR83SNAZT1REYB2SRC49PCEEK9H","","null","<img src=""img/flower6.png"" style=""width:200px; border:14px solid green;"">","null","","","","","","","","",""
"","image-keyboard-response","104","75250","0.0-104.0","3AMW0RGHOEOHN4D2G6L6F5MWJU2NP8","A3UC9N3EEE6733","3I7KR83SNAZT1REYB2SRC49PCEEK9H","","156.17000000018743","img/flower2.png","74","157.68499999921187","1","1","1","1","1,0.333,0.333,0.333,1,0.333,0.333,0.333,1","1,0.333,0.333,0.333,1,0.333,0.333,0.333,1","1",""
"","html-keyboard-response","105","75553","0.0-105.0","3AMW0RGHOEOHN4D2G6L6F5MWJU2NP8","A3UC9N3EEE6733","3I7KR83SNAZT1REYB2SRC49PCEEK9H","","null","<img src=""img/flower2.png"" style=""width:200px; border:14px solid green;"">","null","","","","","","","","",""
"","image-keyboard-response","106","75903","0.0-106.0","3AMW0RGHOEOHN4D2G6L6F5MWJU2NP8","A3UC9N3EEE6733","3I7KR83SNAZT1REYB2SRC49PCEEK9H","","347.8950000007899","img/flower6.png","74","349.6199999999517","1","0","3","1","1,0.333,0.333,0.333,1,0.333,0.333,0.333,1","1,0.333,0.333,0.333,1,0.333,0.333,0.333,1","1",""
"","html-keyboard-response","107","76205","0.0-107.0","3AMW0RGHOEOHN4D2G6L6F5MWJU2NP8","A3UC9N3EEE6733","3I7KR83SNAZT1REYB2SRC49PCEEK9H","","null","<img src=""img/flower6.png"" style=""width:200px;border:14px solid red;"">","null","","","","","","","","",""
"","image-keyboard-response","108","76421","0.0-108.0","3AMW0RGHOEOHN4D2G6L6F5MWJU2NP8","A3UC9N3EEE6733","3I7KR83SNAZT1REYB2SRC49PCEEK9H","","213.21999999965192","img/flower6.png","74","215.1750000002794","1","0","3","1","1,0.333,0.333,0.333,1,0.333,0.333,0.333,1","1,0.333,0.333,0.333,1,0.333,0.333,0.333,1","1",""
"","html-keyboard-response","109","76723","0.0-109.0","3AMW0RGHOEOHN4D2G6L6F5MWJU2NP8","A3UC9N3EEE6733","3I7KR83SNAZT1REYB2SRC49PCEEK9H","","null","<img src=""img/flower6.png"" style=""width:200px;border:14px solid red;"">","null","","","","","","","","",""
"","image-keyboard-response","110","77173","0.0-110.0","3AMW0RGHOEOHN4D2G6L6F5MWJU2NP8","A3UC9N3EEE6733","3I7KR83SNAZT1REYB2SRC49PCEEK9H","","448.08499999999185","img/flower5.png","74","449.7849999997852","1","1","2","1","1,0.333,0.333,0.333,1,0.333,0.333,0.333,1","1,0.333,0.333,0.333,1,0.333,0.333,0.333,1","1",""
"","html-keyboard-response","111","77476","0.0-111.0","3AMW0RGHOEOHN4D2G6L6F5MWJU2NP8","A3UC9N3EEE6733","3I7KR83SNAZT1REYB2SRC49PCEEK9H","","null","<img src=""img/flower5.png"" style=""width:200px; border:14px solid green;"">","null","","","","","","","","",""
"","image-keyboard-response","112","77857","0.0-112.0","3AMW0RGHOEOHN4D2G6L6F5MWJU2NP8","A3UC9N3EEE6733","3I7KR83SNAZT1REYB2SRC49PCEEK9H","","379.51999999949476","img/flower2.png","74","381.11999999999534","1","1","1","1","1,0.333,0.333,0.333,1,0.333,0.333,0.333,1","1,0.333,0.333,0.333,1,0.333,0.333,0.333,1","1",""
"","html-keyboard-response","113","78160","0.0-113.0","3AMW0RGHOEOHN4D2G6L6F5MWJU2NP8","A3UC9N3EEE6733","3I7KR83SNAZT1REYB2SRC49PCEEK9H","","null","<img src=""img/flower2.png"" style=""width:200px; border:14px solid green;"">","null","","","","","","","","",""
"","image-keyboard-response","114","78551","0.0-114.0","3AMW0RGHOEOHN4D2G6L6F5MWJU2NP8","A3UC9N3EEE6733","3I7KR83SNAZT1REYB2SRC49PCEEK9H","","388.9950000002573","img/flower2.png","74","390.6499999993539","1","1","1","1","1,0.333,0.333,0.333,1,0.333,0.333,0.333,1","1,0.333,0.333,0.333,1,0.333,0.333,0.333,1","1",""
"","html-keyboard-response","115","78853","0.0-115.0","3AMW0RGHOEOHN4D2G6L6F5MWJU2NP8","A3UC9N3EEE6733","3I7KR83SNAZT1REYB2SRC49PCEEK9H","","null","<img src=""img/flower2.png"" style=""width:200px; border:14px solid green;"">","null","","","","","","","","",""
"","image-keyboard-response","116","79481","0.0-116.0","3AMW0RGHOEOHN4D2G6L6F5MWJU2NP8","A3UC9N3EEE6733","3I7KR83SNAZT1REYB2SRC49PCEEK9H","","625.6300000004412","img/flower6.png","74","627.0949999998265","1","1","3","1","1,0.333,0.333,0.333,1,0.333,0.333,0.333,1","1,0.333,0.333,0.333,1,0.333,0.333,0.333,1","1",""
"","html-keyboard-response","117","79783","0.0-117.0","3AMW0RGHOEOHN4D2G6L6F5MWJU2NP8","A3UC9N3EEE6733","3I7KR83SNAZT1REYB2SRC49PCEEK9H","","null","<img src=""img/flower6.png"" style=""width:200px; border:14px solid green;"">","null","","","","","","","","",""
"","image-keyboard-response","118","80210","0.0-118.0","3AMW0RGHOEOHN4D2G6L6F5MWJU2NP8","A3UC9N3EEE6733","3I7KR83SNAZT1REYB2SRC49PCEEK9H","","425.7100000004284","img/flower5.png","75","427.2300000002433","2","1","2","1","1,0.333,0.333,0.333,1,0.333,0.333,0.333,1","1,0.333,0.333,0.333,1,0.333,0.333,0.333,1","1",""
"","html-keyboard-response","119","80513","0.0-119.0","3AMW0RGHOEOHN4D2G6L6F5MWJU2NP8","A3UC9N3EEE6733","3I7KR83SNAZT1REYB2SRC49PCEEK9H","","null","<img src=""img/flower5.png"" style=""width:200px; border:14px solid green;"">","null","","","","","","","","",""
"","image-keyboard-response","120","80803","0.0-120.0","3AMW0RGHOEOHN4D2G6L6F5MWJU2NP8","A3UC9N3EEE6733","3I7KR83SNAZT1REYB2SRC49PCEEK9H","","287.87499999998545","img/flower6.png","76","289.6999999993568","3","1","3","1","1,0.333,0.333,0.333,1,0.333,0.333,0.333,1","1,0.333,0.333,0.333,1,0.333,0.333,0.333,1","1",""
"","html-keyboard-response","121","81107","0.0-121.0","3AMW0RGHOEOHN4D2G6L6F5MWJU2NP8","A3UC9N3EEE6733","3I7KR83SNAZT1REYB2SRC49PCEEK9H","","null","<img src=""img/flower6.png"" style=""width:200px; border:14px solid green;"">","null","","","","","","","","",""
"","image-keyboard-response","122","81433","0.0-122.0","3AMW0RGHOEOHN4D2G6L6F5MWJU2NP8","A3UC9N3EEE6733","3I7KR83SNAZT1REYB2SRC49PCEEK9H","","323.66499999989173","img/flower2.png","75","325.4999999999127","2","0","1","1","1,0.333,0.333,0.333,1,0.333,0.333,0.333,1","1,0.333,0.333,0.333,1,0.333,0.333,0.333,1","1",""
"","html-keyboard-response","123","81736","0.0-123.0","3AMW0RGHOEOHN4D2G6L6F5MWJU2NP8","A3UC9N3EEE6733","3I7KR83SNAZT1REYB2SRC49PCEEK9H","","null","<img src=""img/flower2.png"" style=""width:200px;border:14px solid red;"">","null","","","","","","","","",""
"","image-keyboard-response","124","82020","0.0-124.0","3AMW0RGHOEOHN4D2G6L6F5MWJU2NP8","A3UC9N3EEE6733","3I7KR83SNAZT1REYB2SRC49PCEEK9H","","282.1300000004994","img/flower5.png","75","283.86000000046624","2","1","2","1","1,0.333,0.333,0.333,1,0.333,0.333,0.333,1","1,0.333,0.333,0.333,1,0.333,0.333,0.333,1","1",""
"","html-keyboard-response","125","82322","0.0-125.0","3AMW0RGHOEOHN4D2G6L6F5MWJU2NP8","A3UC9N3EEE6733","3I7KR83SNAZT1REYB2SRC49PCEEK9H","","null","<img src=""img/flower5.png"" style=""width:200px; border:14px solid green;"">","null","","","","","","","","",""
"","image-keyboard-response","126","82465","0.0-126.0","3AMW0RGHOEOHN4D2G6L6F5MWJU2NP8","A3UC9N3EEE6733","3I7KR83SNAZT1REYB2SRC49PCEEK9H","","140.1800000003277","img/flower2.png","74","141.9050000004063","1","1","1","1","1,0.333,0.333,0.333,1,0.333,0.333,0.333,1","1,0.333,0.333,0.333,1,0.333,0.333,0.333,1","1",""
"","html-keyboard-response","127","82767","0.0-127.0","3AMW0RGHOEOHN4D2G6L6F5MWJU2NP8","A3UC9N3EEE6733","3I7KR83SNAZT1REYB2SRC49PCEEK9H","","null","<img src=""img/flower2.png"" style=""width:200px; border:14px solid green;"">","null","","","","","","","","",""
"","image-keyboard-response","128","83173","0.0-128.0","3AMW0RGHOEOHN4D2G6L6F5MWJU2NP8","A3UC9N3EEE6733","3I7KR83SNAZT1REYB2SRC49PCEEK9H","","404.5450000003184","img/flower5.png","75","406.4500000004191","2","1","2","1","1,0.333,0.333,0.333,1,0.333,0.333,0.333,1","1,0.333,0.333,0.333,1,0.333,0.333,0.333,1","1",""
"","html-keyboard-response","129","83475","0.0-129.0","3AMW0RGHOEOHN4D2G6L6F5MWJU2NP8","A3UC9N3EEE6733","3I7KR83SNAZT1REYB2SRC49PCEEK9H","","null","<img src=""img/flower5.png"" style=""width:200px; border:14px solid green;"">","null","","","","","","","","",""
"","image-keyboard-response","130","83736","0.0-130.0","3AMW0RGHOEOHN4D2G6L6F5MWJU2NP8","A3UC9N3EEE6733","3I7KR83SNAZT1REYB2SRC49PCEEK9H","","258.8699999996461","img/flower2.png","74","260.5400000002264","1","1","1","1","1,0.333,0.333,0.333,1,0.333,0.333,0.333,1","1,0.333,0.333,0.333,1,0.333,0.333,0.333,1","1",""
"","html-keyboard-response","131","84038","0.0-131.0","3AMW0RGHOEOHN4D2G6L6F5MWJU2NP8","A3UC9N3EEE6733","3I7KR83SNAZT1REYB2SRC49PCEEK9H","","null","<img src=""img/flower2.png"" style=""width:200px; border:14px solid green;"">","null","","","","","","","","",""
"","image-keyboard-response","132","84297","0.0-132.0","3AMW0RGHOEOHN4D2G6L6F5MWJU2NP8","A3UC9N3EEE6733","3I7KR83SNAZT1REYB2SRC49PCEEK9H","","256.9000000003143","img/flower2.png","74","258.3850000000966","1","1","1","1","1,0.333,0.333,0.333,1,0.333,0.333,0.333,1","1,0.333,0.333,0.333,1,0.333,0.333,0.333,1","1",""
"","html-keyboard-response","133","84599","0.0-133.0","3AMW0RGHOEOHN4D2G6L6F5MWJU2NP8","A3UC9N3EEE6733","3I7KR83SNAZT1REYB2SRC49PCEEK9H","","null","<img src=""img/flower2.png"" style=""width:200px; border:14px solid green;"">","null","","","","","","","","",""
"","image-keyboard-response","134","84974","0.0-134.0","3AMW0RGHOEOHN4D2G6L6F5MWJU2NP8","A3UC9N3EEE6733","3I7KR83SNAZT1REYB2SRC49PCEEK9H","","372.55999999979394","img/flower2.png","74","374.37000000044645","1","1","1","1","1,0.333,0.333,0.333,1,0.333,0.333,0.333,1","1,0.333,0.333,0.333,1,0.333,0.333,0.333,1","1",""
"","html-keyboard-response","135","85276","0.0-135.0","3AMW0RGHOEOHN4D2G6L6F5MWJU2NP8","A3UC9N3EEE6733","3I7KR83SNAZT1REYB2SRC49PCEEK9H","","null","<img src=""img/flower2.png"" style=""width:200px; border:14px solid green;"">","null","","","","","","","","",""
"","image-keyboard-response","136","85581","0.0-136.0","3AMW0RGHOEOHN4D2G6L6F5MWJU2NP8","A3UC9N3EEE6733","3I7KR83SNAZT1REYB2SRC49PCEEK9H","","302.639999999883","img/flower6.png","76","304.39000000023225","3","1","3","1","1,0.333,0.333,0.333,1,0.333,0.333,0.333,1","1,0.333,0.333,0.333,1,0.333,0.333,0.333,1","1",""
"","html-keyboard-response","137","85883","0.0-137.0","3AMW0RGHOEOHN4D2G6L6F5MWJU2NP8","A3UC9N3EEE6733","3I7KR83SNAZT1REYB2SRC49PCEEK9H","","null","<img src=""img/flower6.png"" style=""width:200px; border:14px solid green;"">","null","","","","","","","","",""
"","image-keyboard-response","138","86181","0.0-138.0","3AMW0RGHOEOHN4D2G6L6F5MWJU2NP8","A3UC9N3EEE6733","3I7KR83SNAZT1REYB2SRC49PCEEK9H","","295.3249999991385","img/flower5.png","75","297.1500000003289","2","1","2","1","1,0.333,0.333,0.333,1,0.333,0.333,0.333,1","1,0.333,0.333,0.333,1,0.333,0.333,0.333,1","1",""
"","html-keyboard-response","139","86484","0.0-139.0","3AMW0RGHOEOHN4D2G6L6F5MWJU2NP8","A3UC9N3EEE6733","3I7KR83SNAZT1REYB2SRC49PCEEK9H","","null","<img src=""img/flower5.png"" style=""width:200px; border:14px solid green;"">","null","","","","","","","","",""
"","image-keyboard-response","140","86770","0.0-140.0","3AMW0RGHOEOHN4D2G6L6F5MWJU2NP8","A3UC9N3EEE6733","3I7KR83SNAZT1REYB2SRC49PCEEK9H","","283.9899999999034","img/flower6.png","74","285.8300000007148","1","0","3","1","1,0.333,0.333,0.333,1,0.333,0.333,0.333,1","1,0.333,0.333,0.333,1,0.333,0.333,0.333,1","1",""
"","html-keyboard-response","141","87072","0.0-141.0","3AMW0RGHOEOHN4D2G6L6F5MWJU2NP8","A3UC9N3EEE6733","3I7KR83SNAZT1REYB2SRC49PCEEK9H","","null","<img src=""img/flower6.png"" style=""width:200px;border:14px solid red;"">","null","","","","","","","","",""
"","image-keyboard-response","142","87478","0.0-142.0","3AMW0RGHOEOHN4D2G6L6F5MWJU2NP8","A3UC9N3EEE6733","3I7KR83SNAZT1REYB2SRC49PCEEK9H","","403.83500000007916","img/flower2.png","74","405.60499999992317","1","1","1","1","1,0.333,0.333,0.333,1,0.333,0.333,0.333,1","1,0.333,0.333,0.333,1,0.333,0.333,0.333,1","1",""
"","html-keyboard-response","143","87781","0.0-143.0","3AMW0RGHOEOHN4D2G6L6F5MWJU2NP8","A3UC9N3EEE6733","3I7KR83SNAZT1REYB2SRC49PCEEK9H","","null","<img src=""img/flower2.png"" style=""width:200px; border:14px solid green;"">","null","","","","","","","","",""
"","image-keyboard-response","144","88118","0.0-144.0","3AMW0RGHOEOHN4D2G6L6F5MWJU2NP8","A3UC9N3EEE6733","3I7KR83SNAZT1REYB2SRC49PCEEK9H","","335.78000000033353","img/flower5.png","76","337.33000000027823","3","0","2","1","1,0.333,0.333,0.333,1,0.333,0.333,0.333,1","1,0.333,0.333,0.333,1,0.333,0.333,0.333,1","1",""
"","html-keyboard-response","145","88421","0.0-145.0","3AMW0RGHOEOHN4D2G6L6F5MWJU2NP8","A3UC9N3EEE6733","3I7KR83SNAZT1REYB2SRC49PCEEK9H","","null","<img src=""img/flower5.png"" style=""width:200px;border:14px solid red;"">","null","","","","","","","","",""
"","image-keyboard-response","146","88915","0.0-146.0","3AMW0RGHOEOHN4D2G6L6F5MWJU2NP8","A3UC9N3EEE6733","3I7KR83SNAZT1REYB2SRC49PCEEK9H","","492.61000000024796","img/flower2.png","75","494.3699999994278","2","1","1","1","1,0.333,0.333,0.333,1,0.333,0.333,0.333,1","1,0.333,0.333,0.333,1,0.333,0.333,0.333,1","1",""
"","html-keyboard-response","147","89218","0.0-147.0","3AMW0RGHOEOHN4D2G6L6F5MWJU2NP8","A3UC9N3EEE6733","3I7KR83SNAZT1REYB2SRC49PCEEK9H","","null","<img src=""img/flower2.png"" style=""width:200px; border:14px solid green;"">","null","","","","","","","","",""
"","image-keyboard-response","148","89573","0.0-148.0","3AMW0RGHOEOHN4D2G6L6F5MWJU2NP8","A3UC9N3EEE6733","3I7KR83SNAZT1REYB2SRC49PCEEK9H","","353.8049999997311","img/flower6.png","74","355.58499999932246","1","0","3","1","1,0.333,0.333,0.333,1,0.333,0.333,0.333,1","1,0.333,0.333,0.333,1,0.333,0.333,0.333,1","1",""
"","html-keyboard-response","149","89876","0.0-149.0","3AMW0RGHOEOHN4D2G6L6F5MWJU2NP8","A3UC9N3EEE6733","3I7KR83SNAZT1REYB2SRC49PCEEK9H","","null","<img src=""img/flower6.png"" style=""width:200px;border:14px solid red;"">","null","","","","","","","","",""
"","image-keyboard-response","150","90199","0.0-150.0","3AMW0RGHOEOHN4D2G6L6F5MWJU2NP8","A3UC9N3EEE6733","3I7KR83SNAZT1REYB2SRC49PCEEK9H","","320.70999999996275","img/flower2.png","74","322.4950000003446","1","1","1","1","1,0.333,0.333,0.333,1,0.333,0.333,0.333,1","1,0.333,0.333,0.333,1,0.333,0.333,0.333,1","1",""
"","html-keyboard-response","151","90501","0.0-151.0","3AMW0RGHOEOHN4D2G6L6F5MWJU2NP8","A3UC9N3EEE6733","3I7KR83SNAZT1REYB2SRC49PCEEK9H","","null","<img src=""img/flower2.png"" style=""width:200px; border:14px solid green;"">","null","","","","","","","","",""
"","image-keyboard-response","152","90869","0.0-152.0","3AMW0RGHOEOHN4D2G6L6F5MWJU2NP8","A3UC9N3EEE6733","3I7KR83SNAZT1REYB2SRC49PCEEK9H","","366.45000000043365","img/flower5.png","75","368.45999999968626","2","1","2","1","1,0.333,0.333,0.333,1,0.333,0.333,0.333,1","1,0.333,0.333,0.333,1,0.333,0.333,0.333,1","1",""
"","html-keyboard-response","153","91172","0.0-153.0","3AMW0RGHOEOHN4D2G6L6F5MWJU2NP8","A3UC9N3EEE6733","3I7KR83SNAZT1REYB2SRC49PCEEK9H","","null","<img src=""img/flower5.png"" style=""width:200px; border:14px solid green;"">","null","","","","","","","","",""
"","image-keyboard-response","154","91416","0.0-154.0","3AMW0RGHOEOHN4D2G6L6F5MWJU2NP8","A3UC9N3EEE6733","3I7KR83SNAZT1REYB2SRC49PCEEK9H","","242.40999999982887","img/flower6.png","76","244.15500000031898","3","1","3","1","1,0.333,0.333,0.333,1,0.333,0.333,0.333,1","1,0.333,0.333,0.333,1,0.333,0.333,0.333,1","1",""
"","html-keyboard-response","155","91719","0.0-155.0","3AMW0RGHOEOHN4D2G6L6F5MWJU2NP8","A3UC9N3EEE6733","3I7KR83SNAZT1REYB2SRC49PCEEK9H","","null","<img src=""img/flower6.png"" style=""width:200px; border:14px solid green;"">","null","","","","","","","","",""
"","image-keyboard-response","156","91979","0.0-156.0","3AMW0RGHOEOHN4D2G6L6F5MWJU2NP8","A3UC9N3EEE6733","3I7KR83SNAZT1REYB2SRC49PCEEK9H","","258.3599999998114","img/flower2.png","75","260.00000000023283","2","1","1","1","1,0.333,0.333,0.333,1,0.333,0.333,0.333,1","1,0.333,0.333,0.333,1,0.333,0.333,0.333,1","1",""
"","html-keyboard-response","157","92282","0.0-157.0","3AMW0RGHOEOHN4D2G6L6F5MWJU2NP8","A3UC9N3EEE6733","3I7KR83SNAZT1REYB2SRC49PCEEK9H","","null","<img src=""img/flower2.png"" style=""width:200px; border:14px solid green;"">","null","","","","","","","","",""
"","image-keyboard-response","158","92474","0.0-158.0","3AMW0RGHOEOHN4D2G6L6F5MWJU2NP8","A3UC9N3EEE6733","3I7KR83SNAZT1REYB2SRC49PCEEK9H","","190.2149999996327","img/flower2.png","74","191.79499999972177","1","1","1","1","1,0.333,0.333,0.333,1,0.333,0.333,0.333,1","1,0.333,0.333,0.333,1,0.333,0.333,0.333,1","1",""
"","html-keyboard-response","159","92776","0.0-159.0","3AMW0RGHOEOHN4D2G6L6F5MWJU2NP8","A3UC9N3EEE6733","3I7KR83SNAZT1REYB2SRC49PCEEK9H","","null","<img src=""img/flower2.png"" style=""width:200px; border:14px solid green;"">","null","","","","","","","","",""
"","image-keyboard-response","160","93382","0.0-160.0","3AMW0RGHOEOHN4D2G6L6F5MWJU2NP8","A3UC9N3EEE6733","3I7KR83SNAZT1REYB2SRC49PCEEK9H","","603.4399999998568","img/flower5.png","75","605.2300000001269","2","1","2","1","1,0.333,0.333,0.333,1,0.333,0.333,0.333,1","1,0.333,0.333,0.333,1,0.333,0.333,0.333,1","1",""
"","html-keyboard-response","161","93684","0.0-161.0","3AMW0RGHOEOHN4D2G6L6F5MWJU2NP8","A3UC9N3EEE6733","3I7KR83SNAZT1REYB2SRC49PCEEK9H","","null","<img src=""img/flower5.png"" style=""width:200px; border:14px solid green;"">","null","","","","","","","","",""
"","image-keyboard-response","162","93932","0.0-162.0","3AMW0RGHOEOHN4D2G6L6F5MWJU2NP8","A3UC9N3EEE6733","3I7KR83SNAZT1REYB2SRC49PCEEK9H","","245.47499999971478","img/flower5.png","74","247.01000000005297","1","1","2","1","1,0.333,0.333,0.333,1,0.333,0.333,0.333,1","1,0.333,0.333,0.333,1,0.333,0.333,0.333,1","1",""
"","html-keyboard-response","163","94234","0.0-163.0","3AMW0RGHOEOHN4D2G6L6F5MWJU2NP8","A3UC9N3EEE6733","3I7KR83SNAZT1REYB2SRC49PCEEK9H","","null","<img src=""img/flower5.png"" style=""width:200px; border:14px solid green;"">","null","","","","","","","","",""
"","image-keyboard-response","164","94626","0.0-164.0","3AMW0RGHOEOHN4D2G6L6F5MWJU2NP8","A3UC9N3EEE6733","3I7KR83SNAZT1REYB2SRC49PCEEK9H","","390.13499999963096","img/flower5.png","74","391.82999999957974","1","0","2","1","1,0.333,0.333,0.333,1,0.333,0.333,0.333,1","1,0.333,0.333,0.333,1,0.333,0.333,0.333,1","1",""
"","html-keyboard-response","165","94928","0.0-165.0","3AMW0RGHOEOHN4D2G6L6F5MWJU2NP8","A3UC9N3EEE6733","3I7KR83SNAZT1REYB2SRC49PCEEK9H","","null","<img src=""img/flower5.png"" style=""width:200px;border:14px solid red;"">","null","","","","","","","","",""
"","image-keyboard-response","166","95150","0.0-166.0","3AMW0RGHOEOHN4D2G6L6F5MWJU2NP8","A3UC9N3EEE6733","3I7KR83SNAZT1REYB2SRC49PCEEK9H","","219.39000000020314","img/flower5.png","76","221.0700000005163","3","0","2","1","1,0.333,0.333,0.333,1,0.333,0.333,0.333,1","1,0.333,0.333,0.333,1,0.333,0.333,0.333,1","1",""
"","html-keyboard-response","167","95453","0.0-167.0","3AMW0RGHOEOHN4D2G6L6F5MWJU2NP8","A3UC9N3EEE6733","3I7KR83SNAZT1REYB2SRC49PCEEK9H","","null","<img src=""img/flower5.png"" style=""width:200px;border:14px solid red;"">","null","","","","","","","","",""
"","image-keyboard-response","168","95727","0.0-168.0","3AMW0RGHOEOHN4D2G6L6F5MWJU2NP8","A3UC9N3EEE6733","3I7KR83SNAZT1REYB2SRC49PCEEK9H","","272.305000000415","img/flower6.png","75","274.30999999979394","2","0","3","1","1,0.333,0.333,0.333,1,0.333,0.333,0.333,1","1,0.333,0.333,0.333,1,0.333,0.333,0.333,1","1",""
"","html-keyboard-response","169","96029","0.0-169.0","3AMW0RGHOEOHN4D2G6L6F5MWJU2NP8","A3UC9N3EEE6733","3I7KR83SNAZT1REYB2SRC49PCEEK9H","","null","<img src=""img/flower6.png"" style=""width:200px;border:14px solid red;"">","null","","","","","","","","",""
"","image-keyboard-response","170","96188","0.0-170.0","3AMW0RGHOEOHN4D2G6L6F5MWJU2NP8","A3UC9N3EEE6733","3I7KR83SNAZT1REYB2SRC49PCEEK9H","","156.82500000001164","img/flower2.png","74","158.6600000000617","1","1","1","1","1,0.333,0.333,0.333,1,0.333,0.333,0.333,1","1,0.333,0.333,0.333,1,0.333,0.333,0.333,1","1",""
"","html-keyboard-response","171","96490","0.0-171.0","3AMW0RGHOEOHN4D2G6L6F5MWJU2NP8","A3UC9N3EEE6733","3I7KR83SNAZT1REYB2SRC49PCEEK9H","","null","<img src=""img/flower2.png"" style=""width:200px; border:14px solid green;"">","null","","","","","","","","",""
"","image-keyboard-response","172","96689","0.0-172.0","3AMW0RGHOEOHN4D2G6L6F5MWJU2NP8","A3UC9N3EEE6733","3I7KR83SNAZT1REYB2SRC49PCEEK9H","","196.5300000001589","img/flower2.png","75","198.0900000007823","2","0","1","1","1,0.333,0.333,0.333,1,0.333,0.333,0.333,1","1,0.333,0.333,0.333,1,0.333,0.333,0.333,1","1",""
"","html-keyboard-response","173","96993","0.0-173.0","3AMW0RGHOEOHN4D2G6L6F5MWJU2NP8","A3UC9N3EEE6733","3I7KR83SNAZT1REYB2SRC49PCEEK9H","","null","<img src=""img/flower2.png"" style=""width:200px;border:14px solid red;"">","null","","","","","","","","",""
"","image-keyboard-response","174","97261","0.0-174.0","3AMW0RGHOEOHN4D2G6L6F5MWJU2NP8","A3UC9N3EEE6733","3I7KR83SNAZT1REYB2SRC49PCEEK9H","","265.78500000049826","img/flower2.png","74","267.63000000028114","1","1","1","1","1,0.333,0.333,0.333,1,0.333,0.333,0.333,1","1,0.333,0.333,0.333,1,0.333,0.333,0.333,1","1",""
"","html-keyboard-response","175","97564","0.0-175.0","3AMW0RGHOEOHN4D2G6L6F5MWJU2NP8","A3UC9N3EEE6733","3I7KR83SNAZT1REYB2SRC49PCEEK9H","","null","<img src=""img/flower2.png"" style=""width:200px; border:14px solid green;"">","null","","","","","","","","",""
"","image-keyboard-response","176","97722","0.0-176.0","3AMW0RGHOEOHN4D2G6L6F5MWJU2NP8","A3UC9N3EEE6733","3I7KR83SNAZT1REYB2SRC49PCEEK9H","","155.52000000025146","img/flower5.png","74","157.33499999987544","1","1","2","1","1,0.333,0.333,0.333,1,0.333,0.333,0.333,1","1,0.333,0.333,0.333,1,0.333,0.333,0.333,1","1",""
"","html-keyboard-response","177","98024","0.0-177.0","3AMW0RGHOEOHN4D2G6L6F5MWJU2NP8","A3UC9N3EEE6733","3I7KR83SNAZT1REYB2SRC49PCEEK9H","","null","<img src=""img/flower5.png"" style=""width:200px; border:14px solid green;"">","null","","","","","","","","",""
"","image-keyboard-response","178","98369","0.0-178.0","3AMW0RGHOEOHN4D2G6L6F5MWJU2NP8","A3UC9N3EEE6733","3I7KR83SNAZT1REYB2SRC49PCEEK9H","","343.3999999997468","img/flower5.png","76","345.12999999969907","3","1","2","1","1,0.333,0.333,0.333,1,0.333,0.333,0.333,1","1,0.333,0.333,0.333,1,0.333,0.333,0.333,1","1",""
"","html-keyboard-response","179","98671","0.0-179.0","3AMW0RGHOEOHN4D2G6L6F5MWJU2NP8","A3UC9N3EEE6733","3I7KR83SNAZT1REYB2SRC49PCEEK9H","","null","<img src=""img/flower5.png"" style=""width:200px; border:14px solid green;"">","null","","","","","","","","",""
"","image-keyboard-response","180","98868","0.0-180.0","3AMW0RGHOEOHN4D2G6L6F5MWJU2NP8","A3UC9N3EEE6733","3I7KR83SNAZT1REYB2SRC49PCEEK9H","","195.05500000013853","img/flower6.png","75","196.60000000020955","2","0","3","1","1,0.333,0.333,0.333,1,0.333,0.333,0.333,1","1,0.333,0.333,0.333,1,0.333,0.333,0.333,1","1",""
"","html-keyboard-response","181","99171","0.0-181.0","3AMW0RGHOEOHN4D2G6L6F5MWJU2NP8","A3UC9N3EEE6733","3I7KR83SNAZT1REYB2SRC49PCEEK9H","","null","<img src=""img/flower6.png"" style=""width:200px;border:14px solid red;"">","null","","","","","","","","",""
"","html-keyboard-response","182","103452","0.0-182.0","3AMW0RGHOEOHN4D2G6L6F5MWJU2NP8","A3UC9N3EEE6733","3I7KR83SNAZT1REYB2SRC49PCEEK9H","","","","","","","","","","","","",""
"","image-keyboard-response","183","104517","0.0-183.0","3AMW0RGHOEOHN4D2G6L6F5MWJU2NP8","A3UC9N3EEE6733","3I7KR83SNAZT1REYB2SRC49PCEEK9H","","1062.0200000003097","img/flower1.png","74","1064.760000000213","1","0","2","2","1,0,0,1,1,0,1,0,1","0,1,0,0,1,1,1,1,0","3",""
"","html-keyboard-response","184","104819","0.0-184.0","3AMW0RGHOEOHN4D2G6L6F5MWJU2NP8","A3UC9N3EEE6733","3I7KR83SNAZT1REYB2SRC49PCEEK9H","","null","<img src=""img/flower1.png"" style=""width:200px;border:14px solid red;"">","null","","","","","","","","",""
"","image-keyboard-response","185","105222","0.0-185.0","3AMW0RGHOEOHN4D2G6L6F5MWJU2NP8","A3UC9N3EEE6733","3I7KR83SNAZT1REYB2SRC49PCEEK9H","","400.29500000036205","img/flower4.png","75","402.3250000000262","2","1","1","2","1,0,0,1,1,0,1,0,1","0,1,0,0,1,1,1,1,0","3",""
"","html-keyboard-response","186","105524","0.0-186.0","3AMW0RGHOEOHN4D2G6L6F5MWJU2NP8","A3UC9N3EEE6733","3I7KR83SNAZT1REYB2SRC49PCEEK9H","","null","<img src=""img/flower4.png"" style=""width:200px; border:14px solid green;"">","null","","","","","","","","",""
"","image-keyboard-response","187","105873","0.0-187.0","3AMW0RGHOEOHN4D2G6L6F5MWJU2NP8","A3UC9N3EEE6733","3I7KR83SNAZT1REYB2SRC49PCEEK9H","","346.4350000003906","img/flower4.png","74","348.23499999946216","1","0","1","2","1,0,0,1,1,0,1,0,1","0,1,0,0,1,1,1,1,0","3",""
"","html-keyboard-response","188","106176","0.0-188.0","3AMW0RGHOEOHN4D2G6L6F5MWJU2NP8","A3UC9N3EEE6733","3I7KR83SNAZT1REYB2SRC49PCEEK9H","","null","<img src=""img/flower4.png"" style=""width:200px;border:14px solid red;"">","null","","","","","","","","",""
"","image-keyboard-response","189","106310","0.0-189.0","3AMW0RGHOEOHN4D2G6L6F5MWJU2NP8","A3UC9N3EEE6733","3I7KR83SNAZT1REYB2SRC49PCEEK9H","","131.23999999969965","img/flower1.png","76","133.3999999997177","3","1","2","2","1,0,0,1,1,0,1,0,1","0,1,0,0,1,1,1,1,0","3",""
"","html-keyboard-response","190","106613","0.0-190.0","3AMW0RGHOEOHN4D2G6L6F5MWJU2NP8","A3UC9N3EEE6733","3I7KR83SNAZT1REYB2SRC49PCEEK9H","","null","<img src=""img/flower1.png"" style=""width:200px; border:14px solid green;"">","null","","","","","","","","",""
"","image-keyboard-response","191","106918","0.0-191.0","3AMW0RGHOEOHN4D2G6L6F5MWJU2NP8","A3UC9N3EEE6733","3I7KR83SNAZT1REYB2SRC49PCEEK9H","","302.0249999999651","img/flower1.png","75","304.2699999996403","2","1","2","2","1,0,0,1,1,0,1,0,1","0,1,0,0,1,1,1,1,0","3",""
"","html-keyboard-response","192","107220","0.0-192.0","3AMW0RGHOEOHN4D2G6L6F5MWJU2NP8","A3UC9N3EEE6733","3I7KR83SNAZT1REYB2SRC49PCEEK9H","","null","<img src=""img/flower1.png"" style=""width:200px; border:14px solid green;"">","null","","","","","","","","",""
"","image-keyboard-response","193","107657","0.0-193.0","3AMW0RGHOEOHN4D2G6L6F5MWJU2NP8","A3UC9N3EEE6733","3I7KR83SNAZT1REYB2SRC49PCEEK9H","","433.7850000001781","img/flower4.png","76","436.684999999663","3","0","1","2","1,0,0,1,1,0,1,0,1","0,1,0,0,1,1,1,1,0","3",""
"","html-keyboard-response","194","107961","0.0-194.0","3AMW0RGHOEOHN4D2G6L6F5MWJU2NP8","A3UC9N3EEE6733","3I7KR83SNAZT1REYB2SRC49PCEEK9H","","null","<img src=""img/flower4.png"" style=""width:200px;border:14px solid red;"">","null","","","","","","","","",""
"","image-keyboard-response","195","108234","0.0-195.0","3AMW0RGHOEOHN4D2G6L6F5MWJU2NP8","A3UC9N3EEE6733","3I7KR83SNAZT1REYB2SRC49PCEEK9H","","271.0849999994098","img/flower1.png","75","275.83499999945343","2","1","2","2","1,0,0,1,1,0,1,0,1","0,1,0,0,1,1,1,1,0","3",""
"","html-keyboard-response","196","108541","0.0-196.0","3AMW0RGHOEOHN4D2G6L6F5MWJU2NP8","A3UC9N3EEE6733","3I7KR83SNAZT1REYB2SRC49PCEEK9H","","null","<img src=""img/flower1.png"" style=""width:200px; border:14px solid green;"">","null","","","","","","","","",""
"","image-keyboard-response","197","108941","0.0-197.0","3AMW0RGHOEOHN4D2G6L6F5MWJU2NP8","A3UC9N3EEE6733","3I7KR83SNAZT1REYB2SRC49PCEEK9H","","398.0949999995646","img/flower3.png","74","399.85499999966123","1","1","3","2","1,0,0,1,1,0,1,0,1","0,1,0,0,1,1,1,1,0","3",""
"","html-keyboard-response","198","109243","0.0-198.0","3AMW0RGHOEOHN4D2G6L6F5MWJU2NP8","A3UC9N3EEE6733","3I7KR83SNAZT1REYB2SRC49PCEEK9H","","null","<img src=""img/flower3.png"" style=""width:200px; border:14px solid green;"">","null","","","","","","","","",""
"","image-keyboard-response","199","109474","0.0-199.0","3AMW0RGHOEOHN4D2G6L6F5MWJU2NP8","A3UC9N3EEE6733","3I7KR83SNAZT1REYB2SRC49PCEEK9H","","228.07999999987078","img/flower4.png","76","229.93000000041502","3","0","1","2","1,0,0,1,1,0,1,0,1","0,1,0,0,1,1,1,1,0","3",""
"","html-keyboard-response","200","109776","0.0-200.0","3AMW0RGHOEOHN4D2G6L6F5MWJU2NP8","A3UC9N3EEE6733","3I7KR83SNAZT1REYB2SRC49PCEEK9H","","null","<img src=""img/flower4.png"" style=""width:200px;border:14px solid red;"">","null","","","","","","","","",""
"","image-keyboard-response","201","110135","0.0-201.0","3AMW0RGHOEOHN4D2G6L6F5MWJU2NP8","A3UC9N3EEE6733","3I7KR83SNAZT1REYB2SRC49PCEEK9H","","356.5300000000134","img/flower4.png","75","358.4750000000058","2","1","1","2","1,0,0,1,1,0,1,0,1","0,1,0,0,1,1,1,1,0","3",""
"","html-keyboard-response","202","110437","0.0-202.0","3AMW0RGHOEOHN4D2G6L6F5MWJU2NP8","A3UC9N3EEE6733","3I7KR83SNAZT1REYB2SRC49PCEEK9H","","null","<img src=""img/flower4.png"" style=""width:200px; border:14px solid green;"">","null","","","","","","","","",""
"","image-keyboard-response","203","110579","0.0-203.0","3AMW0RGHOEOHN4D2G6L6F5MWJU2NP8","A3UC9N3EEE6733","3I7KR83SNAZT1REYB2SRC49PCEEK9H","","139.8650000001071","img/flower3.png","74","141.84500000008848","1","1","3","2","1,0,0,1,1,0,1,0,1","0,1,0,0,1,1,1,1,0","3",""
"","html-keyboard-response","204","110882","0.0-204.0","3AMW0RGHOEOHN4D2G6L6F5MWJU2NP8","A3UC9N3EEE6733","3I7KR83SNAZT1REYB2SRC49PCEEK9H","","null","<img src=""img/flower3.png"" style=""width:200px; border:14px solid green;"">","null","","","","","","","","",""
"","image-keyboard-response","205","111239","0.0-205.0","3AMW0RGHOEOHN4D2G6L6F5MWJU2NP8","A3UC9N3EEE6733","3I7KR83SNAZT1REYB2SRC49PCEEK9H","","355.00500000033935","img/flower3.png","76","356.68499999973574","3","0","3","2","1,0,0,1,1,0,1,0,1","0,1,0,0,1,1,1,1,0","3",""
"","html-keyboard-response","206","111543","0.0-206.0","3AMW0RGHOEOHN4D2G6L6F5MWJU2NP8","A3UC9N3EEE6733","3I7KR83SNAZT1REYB2SRC49PCEEK9H","","null","<img src=""img/flower3.png"" style=""width:200px;border:14px solid red;"">","null","","","","","","","","",""
"","image-keyboard-response","207","111870","0.0-207.0","3AMW0RGHOEOHN4D2G6L6F5MWJU2NP8","A3UC9N3EEE6733","3I7KR83SNAZT1REYB2SRC49PCEEK9H","","324.45499999994354","img/flower1.png","75","326.14000000011583","2","1","2","2","1,0,0,1,1,0,1,0,1","0,1,0,0,1,1,1,1,0","3",""
"","html-keyboard-response","208","112172","0.0-208.0","3AMW0RGHOEOHN4D2G6L6F5MWJU2NP8","A3UC9N3EEE6733","3I7KR83SNAZT1REYB2SRC49PCEEK9H","","null","<img src=""img/flower1.png"" style=""width:200px; border:14px solid green;"">","null","","","","","","","","",""
"","image-keyboard-response","209","112294","0.0-209.0","3AMW0RGHOEOHN4D2G6L6F5MWJU2NP8","A3UC9N3EEE6733","3I7KR83SNAZT1REYB2SRC49PCEEK9H","","119.41000000025088","img/flower3.png","74","120.91500000043015","1","1","3","2","1,0,0,1,1,0,1,0,1","0,1,0,0,1,1,1,1,0","3",""
"","html-keyboard-response","210","112596","0.0-210.0","3AMW0RGHOEOHN4D2G6L6F5MWJU2NP8","A3UC9N3EEE6733","3I7KR83SNAZT1REYB2SRC49PCEEK9H","","null","<img src=""img/flower3.png"" style=""width:200px; border:14px solid green;"">","null","","","","","","","","",""
"","image-keyboard-response","211","112878","0.0-211.0","3AMW0RGHOEOHN4D2G6L6F5MWJU2NP8","A3UC9N3EEE6733","3I7KR83SNAZT1REYB2SRC49PCEEK9H","","279.5849999993079","img/flower1.png","74","281.2050000002346","1","0","2","2","1,0,0,1,1,0,1,0,1","0,1,0,0,1,1,1,1,0","3",""
"","html-keyboard-response","212","113180","0.0-212.0","3AMW0RGHOEOHN4D2G6L6F5MWJU2NP8","A3UC9N3EEE6733","3I7KR83SNAZT1REYB2SRC49PCEEK9H","","null","<img src=""img/flower1.png"" style=""width:200px;border:14px solid red;"">","null","","","","","","","","",""
"","image-keyboard-response","213","113372","0.0-213.0","3AMW0RGHOEOHN4D2G6L6F5MWJU2NP8","A3UC9N3EEE6733","3I7KR83SNAZT1REYB2SRC49PCEEK9H","","189.31499999962398","img/flower3.png","76","191.22000000061234","3","0","3","2","1,0,0,1,1,0,1,0,1","0,1,0,0,1,1,1,1,0","3",""
"","html-keyboard-response","214","113675","0.0-214.0","3AMW0RGHOEOHN4D2G6L6F5MWJU2NP8","A3UC9N3EEE6733","3I7KR83SNAZT1REYB2SRC49PCEEK9H","","null","<img src=""img/flower3.png"" style=""width:200px;border:14px solid red;"">","null","","","","","","","","",""
"","image-keyboard-response","215","113922","0.0-215.0","3AMW0RGHOEOHN4D2G6L6F5MWJU2NP8","A3UC9N3EEE6733","3I7KR83SNAZT1REYB2SRC49PCEEK9H","","245.8500000002532","img/flower4.png","75","247.3749999999127","2","1","1","2","1,0,0,1,1,0,1,0,1","0,1,0,0,1,1,1,1,0","3",""
"","html-keyboard-response","216","114225","0.0-216.0","3AMW0RGHOEOHN4D2G6L6F5MWJU2NP8","A3UC9N3EEE6733","3I7KR83SNAZT1REYB2SRC49PCEEK9H","","null","<img src=""img/flower4.png"" style=""width:200px; border:14px solid green;"">","null","","","","","","","","",""
"","image-keyboard-response","217","114633","0.0-217.0","3AMW0RGHOEOHN4D2G6L6F5MWJU2NP8","A3UC9N3EEE6733","3I7KR83SNAZT1REYB2SRC49PCEEK9H","","406.48499999952037","img/flower1.png","75","408.0999999996566","2","1","2","2","1,0,0,1,1,0,1,0,1","0,1,0,0,1,1,1,1,0","3",""
"","html-keyboard-response","218","114936","0.0-218.0","3AMW0RGHOEOHN4D2G6L6F5MWJU2NP8","A3UC9N3EEE6733","3I7KR83SNAZT1REYB2SRC49PCEEK9H","","null","<img src=""img/flower1.png"" style=""width:200px; border:14px solid green;"">","null","","","","","","","","",""
"","image-keyboard-response","219","115192","0.0-219.0","3AMW0RGHOEOHN4D2G6L6F5MWJU2NP8","A3UC9N3EEE6733","3I7KR83SNAZT1REYB2SRC49PCEEK9H","","253.17999999970198","img/flower3.png","76","255.09500000043772","3","0","3","2","1,0,0,1,1,0,1,0,1","0,1,0,0,1,1,1,1,0","3",""
"","html-keyboard-response","220","115494","0.0-220.0","3AMW0RGHOEOHN4D2G6L6F5MWJU2NP8","A3UC9N3EEE6733","3I7KR83SNAZT1REYB2SRC49PCEEK9H","","null","<img src=""img/flower3.png"" style=""width:200px;border:14px solid red;"">","null","","","","","","","","",""
"","image-keyboard-response","221","115768","0.0-221.0","3AMW0RGHOEOHN4D2G6L6F5MWJU2NP8","A3UC9N3EEE6733","3I7KR83SNAZT1REYB2SRC49PCEEK9H","","271.6950000003708","img/flower3.png","74","273.3299999999872","1","1","3","2","1,0,0,1,1,0,1,0,1","0,1,0,0,1,1,1,1,0","3",""
"","html-keyboard-response","222","116071","0.0-222.0","3AMW0RGHOEOHN4D2G6L6F5MWJU2NP8","A3UC9N3EEE6733","3I7KR83SNAZT1REYB2SRC49PCEEK9H","","null","<img src=""img/flower3.png"" style=""width:200px; border:14px solid green;"">","null","","","","","","","","",""
"","image-keyboard-response","223","116343","0.0-223.0","3AMW0RGHOEOHN4D2G6L6F5MWJU2NP8","A3UC9N3EEE6733","3I7KR83SNAZT1REYB2SRC49PCEEK9H","","269.03000000039174","img/flower4.png","75","270.9400000003516","2","1","1","2","1,0,0,1,1,0,1,0,1","0,1,0,0,1,1,1,1,0","3",""
"","html-keyboard-response","224","116645","0.0-224.0","3AMW0RGHOEOHN4D2G6L6F5MWJU2NP8","A3UC9N3EEE6733","3I7KR83SNAZT1REYB2SRC49PCEEK9H","","null","<img src=""img/flower4.png"" style=""width:200px; border:14px solid green;"">","null","","","","","","","","",""
"","image-keyboard-response","225","116881","0.0-225.0","3AMW0RGHOEOHN4D2G6L6F5MWJU2NP8","A3UC9N3EEE6733","3I7KR83SNAZT1REYB2SRC49PCEEK9H","","234.33000000022002","img/flower4.png","76","235.8349999994971","3","0","1","2","1,0,0,1,1,0,1,0,1","0,1,0,0,1,1,1,1,0","3",""
"","html-keyboard-response","226","117183","0.0-226.0","3AMW0RGHOEOHN4D2G6L6F5MWJU2NP8","A3UC9N3EEE6733","3I7KR83SNAZT1REYB2SRC49PCEEK9H","","null","<img src=""img/flower4.png"" style=""width:200px;border:14px solid red;"">","null","","","","","","","","",""
"","image-keyboard-response","227","117335","0.0-227.0","3AMW0RGHOEOHN4D2G6L6F5MWJU2NP8","A3UC9N3EEE6733","3I7KR83SNAZT1REYB2SRC49PCEEK9H","","149.42499999961","img/flower4.png","76","151.0550000002695","3","0","1","2","1,0,0,1,1,0,1,0,1","0,1,0,0,1,1,1,1,0","3",""
"","html-keyboard-response","228","117637","0.0-228.0","3AMW0RGHOEOHN4D2G6L6F5MWJU2NP8","A3UC9N3EEE6733","3I7KR83SNAZT1REYB2SRC49PCEEK9H","","null","<img src=""img/flower4.png"" style=""width:200px;border:14px solid red;"">","null","","","","","","","","",""
"","image-keyboard-response","229","117761","0.0-229.0","3AMW0RGHOEOHN4D2G6L6F5MWJU2NP8","A3UC9N3EEE6733","3I7KR83SNAZT1REYB2SRC49PCEEK9H","","122.51999999988766","img/flower3.png","75","124.02000000019325","2","1","3","2","1,0,0,1,1,0,1,0,1","0,1,0,0,1,1,1,1,0","3",""
"","html-keyboard-response","230","118063","0.0-230.0","3AMW0RGHOEOHN4D2G6L6F5MWJU2NP8","A3UC9N3EEE6733","3I7KR83SNAZT1REYB2SRC49PCEEK9H","","null","<img src=""img/flower3.png"" style=""width:200px; border:14px solid green;"">","null","","","","","","","","",""
"","image-keyboard-response","231","118238","0.0-231.0","3AMW0RGHOEOHN4D2G6L6F5MWJU2NP8","A3UC9N3EEE6733","3I7KR83SNAZT1REYB2SRC49PCEEK9H","","172.6300000000192","img/flower1.png","74","174.50499999994645","1","0","2","2","1,0,0,1,1,0,1,0,1","0,1,0,0,1,1,1,1,0","3",""
"","html-keyboard-response","232","118540","0.0-232.0","3AMW0RGHOEOHN4D2G6L6F5MWJU2NP8","A3UC9N3EEE6733","3I7KR83SNAZT1REYB2SRC49PCEEK9H","","null","<img src=""img/flower1.png"" style=""width:200px;border:14px solid red;"">","null","","","","","","","","",""
"","image-keyboard-response","233","118788","0.0-233.0","3AMW0RGHOEOHN4D2G6L6F5MWJU2NP8","A3UC9N3EEE6733","3I7KR83SNAZT1REYB2SRC49PCEEK9H","","245.4349999998085","img/flower4.png","74","246.98500000066997","1","0","1","2","1,0,0,1,1,0,1,0,1","0,1,0,0,1,1,1,1,0","3",""
"","html-keyboard-response","234","119090","0.0-234.0","3AMW0RGHOEOHN4D2G6L6F5MWJU2NP8","A3UC9N3EEE6733","3I7KR83SNAZT1REYB2SRC49PCEEK9H","","null","<img src=""img/flower4.png"" style=""width:200px;border:14px solid red;"">","null","","","","","","","","",""
"","image-keyboard-response","235","119299","0.0-235.0","3AMW0RGHOEOHN4D2G6L6F5MWJU2NP8","A3UC9N3EEE6733","3I7KR83SNAZT1REYB2SRC49PCEEK9H","","206.43000000016764","img/flower4.png","74","207.95999999972992","1","0","1","2","1,0,0,1,1,0,1,0,1","0,1,0,0,1,1,1,1,0","3",""
"","html-keyboard-response","236","119602","0.0-236.0","3AMW0RGHOEOHN4D2G6L6F5MWJU2NP8","A3UC9N3EEE6733","3I7KR83SNAZT1REYB2SRC49PCEEK9H","","null","<img src=""img/flower4.png"" style=""width:200px;border:14px solid red;"">","null","","","","","","","","",""
"","image-keyboard-response","237","119873","0.0-237.0","3AMW0RGHOEOHN4D2G6L6F5MWJU2NP8","A3UC9N3EEE6733","3I7KR83SNAZT1REYB2SRC49PCEEK9H","","269.7749999997468","img/flower4.png","75","271.3300000004965","2","1","1","2","1,0,0,1,1,0,1,0,1","0,1,0,0,1,1,1,1,0","3",""
"","html-keyboard-response","238","120175","0.0-238.0","3AMW0RGHOEOHN4D2G6L6F5MWJU2NP8","A3UC9N3EEE6733","3I7KR83SNAZT1REYB2SRC49PCEEK9H","","null","<img src=""img/flower4.png"" style=""width:200px; border:14px solid green;"">","null","","","","","","","","",""
"","image-keyboard-response","239","120500","0.0-239.0","3AMW0RGHOEOHN4D2G6L6F5MWJU2NP8","A3UC9N3EEE6733","3I7KR83SNAZT1REYB2SRC49PCEEK9H","","322.9100000007602","img/flower1.png","75","324.45000000006985","2","1","2","2","1,0,0,1,1,0,1,0,1","0,1,0,0,1,1,1,1,0","3",""
"","html-keyboard-response","240","120803","0.0-240.0","3AMW0RGHOEOHN4D2G6L6F5MWJU2NP8","A3UC9N3EEE6733","3I7KR83SNAZT1REYB2SRC49PCEEK9H","","null","<img src=""img/flower1.png"" style=""width:200px; border:14px solid green;"">","null","","","","","","","","",""
"","image-keyboard-response","241","120965","0.0-241.0","3AMW0RGHOEOHN4D2G6L6F5MWJU2NP8","A3UC9N3EEE6733","3I7KR83SNAZT1REYB2SRC49PCEEK9H","","159.66500000015367","img/flower3.png","76","161.82500000012806","3","0","3","2","1,0,0,1,1,0,1,0,1","0,1,0,0,1,1,1,1,0","3",""
"","html-keyboard-response","242","121267","0.0-242.0","3AMW0RGHOEOHN4D2G6L6F5MWJU2NP8","A3UC9N3EEE6733","3I7KR83SNAZT1REYB2SRC49PCEEK9H","","null","<img src=""img/flower3.png"" style=""width:200px;border:14px solid red;"">","null","","","","","","","","",""
"","image-keyboard-response","243","121769","0.0-243.0","3AMW0RGHOEOHN4D2G6L6F5MWJU2NP8","A3UC9N3EEE6733","3I7KR83SNAZT1REYB2SRC49PCEEK9H","","499.0250000000815","img/flower1.png","75","500.9499999996624","2","1","2","2","1,0,0,1,1,0,1,0,1","0,1,0,0,1,1,1,1,0","3",""
"","html-keyboard-response","244","122071","0.0-244.0","3AMW0RGHOEOHN4D2G6L6F5MWJU2NP8","A3UC9N3EEE6733","3I7KR83SNAZT1REYB2SRC49PCEEK9H","","null","<img src=""img/flower1.png"" style=""width:200px; border:14px solid green;"">","null","","","","","","","","",""
"","image-keyboard-response","245","122515","0.0-245.0","3AMW0RGHOEOHN4D2G6L6F5MWJU2NP8","A3UC9N3EEE6733","3I7KR83SNAZT1REYB2SRC49PCEEK9H","","441.775000000227","img/flower1.png","74","443.3549999994284","1","0","2","2","1,0,0,1,1,0,1,0,1","0,1,0,0,1,1,1,1,0","3",""
"","html-keyboard-response","246","122817","0.0-246.0","3AMW0RGHOEOHN4D2G6L6F5MWJU2NP8","A3UC9N3EEE6733","3I7KR83SNAZT1REYB2SRC49PCEEK9H","","null","<img src=""img/flower1.png"" style=""width:200px;border:14px solid red;"">","null","","","","","","","","",""
"","image-keyboard-response","247","123049","0.0-247.0","3AMW0RGHOEOHN4D2G6L6F5MWJU2NP8","A3UC9N3EEE6733","3I7KR83SNAZT1REYB2SRC49PCEEK9H","","230.18500000034692","img/flower3.png","74","231.9049999996496","1","1","3","2","1,0,0,1,1,0,1,0,1","0,1,0,0,1,1,1,1,0","3",""
"","html-keyboard-response","248","123352","0.0-248.0","3AMW0RGHOEOHN4D2G6L6F5MWJU2NP8","A3UC9N3EEE6733","3I7KR83SNAZT1REYB2SRC49PCEEK9H","","null","<img src=""img/flower3.png"" style=""width:200px; border:14px solid green;"">","null","","","","","","","","",""
"","image-keyboard-response","249","123790","0.0-249.0","3AMW0RGHOEOHN4D2G6L6F5MWJU2NP8","A3UC9N3EEE6733","3I7KR83SNAZT1REYB2SRC49PCEEK9H","","435.81999999968684","img/flower3.png","74","437.87500000052387","1","1","3","2","1,0,0,1,1,0,1,0,1","0,1,0,0,1,1,1,1,0","3",""
"","html-keyboard-response","250","124093","0.0-250.0","3AMW0RGHOEOHN4D2G6L6F5MWJU2NP8","A3UC9N3EEE6733","3I7KR83SNAZT1REYB2SRC49PCEEK9H","","null","<img src=""img/flower3.png"" style=""width:200px; border:14px solid green;"">","null","","","","","","","","",""
"","image-keyboard-response","251","124411","0.0-251.0","3AMW0RGHOEOHN4D2G6L6F5MWJU2NP8","A3UC9N3EEE6733","3I7KR83SNAZT1REYB2SRC49PCEEK9H","","317.19500000053085","img/flower4.png","75","318.6949999999197","2","1","1","2","1,0,0,1,1,0,1,0,1","0,1,0,0,1,1,1,1,0","3",""
"","html-keyboard-response","252","124714","0.0-252.0","3AMW0RGHOEOHN4D2G6L6F5MWJU2NP8","A3UC9N3EEE6733","3I7KR83SNAZT1REYB2SRC49PCEEK9H","","null","<img src=""img/flower4.png"" style=""width:200px; border:14px solid green;"">","null","","","","","","","","",""
"","image-keyboard-response","253","125065","0.0-253.0","3AMW0RGHOEOHN4D2G6L6F5MWJU2NP8","A3UC9N3EEE6733","3I7KR83SNAZT1REYB2SRC49PCEEK9H","","349.10000000035507","img/flower1.png","75","350.7900000004156","2","1","2","2","1,0,0,1,1,0,1,0,1","0,1,0,0,1,1,1,1,0","3",""
"","html-keyboard-response","254","125367","0.0-254.0","3AMW0RGHOEOHN4D2G6L6F5MWJU2NP8","A3UC9N3EEE6733","3I7KR83SNAZT1REYB2SRC49PCEEK9H","","null","<img src=""img/flower1.png"" style=""width:200px; border:14px solid green;"">","null","","","","","","","","",""
"","image-keyboard-response","255","125556","0.0-255.0","3AMW0RGHOEOHN4D2G6L6F5MWJU2NP8","A3UC9N3EEE6733","3I7KR83SNAZT1REYB2SRC49PCEEK9H","","187.10000000009313","img/flower3.png","74","188.69499999983236","1","1","3","2","1,0,0,1,1,0,1,0,1","0,1,0,0,1,1,1,1,0","3",""
"","html-keyboard-response","256","125859","0.0-256.0","3AMW0RGHOEOHN4D2G6L6F5MWJU2NP8","A3UC9N3EEE6733","3I7KR83SNAZT1REYB2SRC49PCEEK9H","","null","<img src=""img/flower3.png"" style=""width:200px; border:14px solid green;"">","null","","","","","","","","",""
"","image-keyboard-response","257","126183","0.0-257.0","3AMW0RGHOEOHN4D2G6L6F5MWJU2NP8","A3UC9N3EEE6733","3I7KR83SNAZT1REYB2SRC49PCEEK9H","","322.04000000000815","img/flower4.png","74","323.95000000085565","1","0","1","2","1,0,0,1,1,0,1,0,1","0,1,0,0,1,1,1,1,0","3",""
"","html-keyboard-response","258","126485","0.0-258.0","3AMW0RGHOEOHN4D2G6L6F5MWJU2NP8","A3UC9N3EEE6733","3I7KR83SNAZT1REYB2SRC49PCEEK9H","","null","<img src=""img/flower4.png"" style=""width:200px;border:14px solid red;"">","null","","","","","","","","",""
"","image-keyboard-response","259","126884","0.0-259.0","3AMW0RGHOEOHN4D2G6L6F5MWJU2NP8","A3UC9N3EEE6733","3I7KR83SNAZT1REYB2SRC49PCEEK9H","","396.73500000024796","img/flower3.png","74","398.46500000020023","1","1","3","2","1,0,0,1,1,0,1,0,1","0,1,0,0,1,1,1,1,0","3",""
"","html-keyboard-response","260","127187","0.0-260.0","3AMW0RGHOEOHN4D2G6L6F5MWJU2NP8","A3UC9N3EEE6733","3I7KR83SNAZT1REYB2SRC49PCEEK9H","","null","<img src=""img/flower3.png"" style=""width:200px; border:14px solid green;"">","null","","","","","","","","",""
"","image-keyboard-response","261","127716","0.0-261.0","3AMW0RGHOEOHN4D2G6L6F5MWJU2NP8","A3UC9N3EEE6733","3I7KR83SNAZT1REYB2SRC49PCEEK9H","","527.3400000005495","img/flower1.png","74","529.1950000000652","1","0","2","2","1,0,0,1,1,0,1,0,1","0,1,0,0,1,1,1,1,0","3",""
"","html-keyboard-response","262","128018","0.0-262.0","3AMW0RGHOEOHN4D2G6L6F5MWJU2NP8","A3UC9N3EEE6733","3I7KR83SNAZT1REYB2SRC49PCEEK9H","","null","<img src=""img/flower1.png"" style=""width:200px;border:14px solid red;"">","null","","","","","","","","",""
"","image-keyboard-response","263","128234","0.0-263.0","3AMW0RGHOEOHN4D2G6L6F5MWJU2NP8","A3UC9N3EEE6733","3I7KR83SNAZT1REYB2SRC49PCEEK9H","","213.49999999985448","img/flower4.png","74","215.11499999996158","1","0","1","2","1,0,0,1,1,0,1,0,1","0,1,0,0,1,1,1,1,0","3",""
"","html-keyboard-response","264","128536","0.0-264.0","3AMW0RGHOEOHN4D2G6L6F5MWJU2NP8","A3UC9N3EEE6733","3I7KR83SNAZT1REYB2SRC49PCEEK9H","","null","<img src=""img/flower4.png"" style=""width:200px;border:14px solid red;"">","null","","","","","","","","",""
"","image-keyboard-response","265","128954","0.0-265.0","3AMW0RGHOEOHN4D2G6L6F5MWJU2NP8","A3UC9N3EEE6733","3I7KR83SNAZT1REYB2SRC49PCEEK9H","","414.2149999997637","img/flower3.png","74","416.5800000000745","1","1","3","2","1,0,0,1,1,0,1,0,1","0,1,0,0,1,1,1,1,0","3",""
"","html-keyboard-response","266","129256","0.0-266.0","3AMW0RGHOEOHN4D2G6L6F5MWJU2NP8","A3UC9N3EEE6733","3I7KR83SNAZT1REYB2SRC49PCEEK9H","","null","<img src=""img/flower3.png"" style=""width:200px; border:14px solid green;"">","null","","","","","","","","",""
"","image-keyboard-response","267","129420","0.0-267.0","3AMW0RGHOEOHN4D2G6L6F5MWJU2NP8","A3UC9N3EEE6733","3I7KR83SNAZT1REYB2SRC49PCEEK9H","","160.70999999917694","img/flower4.png","75","162.89499999949476","2","1","1","2","1,0,0,1,1,0,1,0,1","0,1,0,0,1,1,1,1,0","3",""
"","html-keyboard-response","268","129722","0.0-268.0","3AMW0RGHOEOHN4D2G6L6F5MWJU2NP8","A3UC9N3EEE6733","3I7KR83SNAZT1REYB2SRC49PCEEK9H","","null","<img src=""img/flower4.png"" style=""width:200px; border:14px solid green;"">","null","","","","","","","","",""
"","image-keyboard-response","269","129988","0.0-269.0","3AMW0RGHOEOHN4D2G6L6F5MWJU2NP8","A3UC9N3EEE6733","3I7KR83SNAZT1REYB2SRC49PCEEK9H","","264.0200000005425","img/flower1.png","76","265.78500000049826","3","1","2","2","1,0,0,1,1,0,1,0,1","0,1,0,0,1,1,1,1,0","3",""
"","html-keyboard-response","270","130291","0.0-270.0","3AMW0RGHOEOHN4D2G6L6F5MWJU2NP8","A3UC9N3EEE6733","3I7KR83SNAZT1REYB2SRC49PCEEK9H","","null","<img src=""img/flower1.png"" style=""width:200px; border:14px solid green;"">","null","","","","","","","","",""
"","image-keyboard-response","271","130492","0.0-271.0","3AMW0RGHOEOHN4D2G6L6F5MWJU2NP8","A3UC9N3EEE6733","3I7KR83SNAZT1REYB2SRC49PCEEK9H","","198.3399999999383","img/flower1.png","75","200.13999999992666","2","1","2","2","1,0,0,1,1,0,1,0,1","0,1,0,0,1,1,1,1,0","3",""
"","html-keyboard-response","272","130795","0.0-272.0","3AMW0RGHOEOHN4D2G6L6F5MWJU2NP8","A3UC9N3EEE6733","3I7KR83SNAZT1REYB2SRC49PCEEK9H","","null","<img src=""img/flower1.png"" style=""width:200px; border:14px solid green;"">","null","","","","","","","","",""
"","image-keyboard-response","273","131108","0.0-273.0","3AMW0RGHOEOHN4D2G6L6F5MWJU2NP8","A3UC9N3EEE6733","3I7KR83SNAZT1REYB2SRC49PCEEK9H","","310.750000000553","img/flower4.png","74","312.75499999991735","1","0","1","2","1,0,0,1,1,0,1,0,1","0,1,0,0,1,1,1,1,0","3",""
"","html-keyboard-response","274","131410","0.0-274.0","3AMW0RGHOEOHN4D2G6L6F5MWJU2NP8","A3UC9N3EEE6733","3I7KR83SNAZT1REYB2SRC49PCEEK9H","","null","<img src=""img/flower4.png"" style=""width:200px;border:14px solid red;"">","null","","","","","","","","",""
"","image-keyboard-response","275","131636","0.0-275.0","3AMW0RGHOEOHN4D2G6L6F5MWJU2NP8","A3UC9N3EEE6733","3I7KR83SNAZT1REYB2SRC49PCEEK9H","","223.65999999965425","img/flower3.png","74","225.78500000055647","1","1","3","2","1,0,0,1,1,0,1,0,1","0,1,0,0,1,1,1,1,0","3",""
"","html-keyboard-response","276","131939","0.0-276.0","3AMW0RGHOEOHN4D2G6L6F5MWJU2NP8","A3UC9N3EEE6733","3I7KR83SNAZT1REYB2SRC49PCEEK9H","","null","<img src=""img/flower3.png"" style=""width:200px; border:14px solid green;"">","null","","","","","","","","",""
"","image-keyboard-response","277","132158","0.0-277.0","3AMW0RGHOEOHN4D2G6L6F5MWJU2NP8","A3UC9N3EEE6733","3I7KR83SNAZT1REYB2SRC49PCEEK9H","","216.65499999927124","img/flower1.png","74","218.65000000069267","1","0","2","2","1,0,0,1,1,0,1,0,1","0,1,0,0,1,1,1,1,0","3",""
"","html-keyboard-response","278","132461","0.0-278.0","3AMW0RGHOEOHN4D2G6L6F5MWJU2NP8","A3UC9N3EEE6733","3I7KR83SNAZT1REYB2SRC49PCEEK9H","","null","<img src=""img/flower1.png"" style=""width:200px;border:14px solid red;"">","null","","","","","","","","",""
"","image-keyboard-response","279","132810","0.0-279.0","3AMW0RGHOEOHN4D2G6L6F5MWJU2NP8","A3UC9N3EEE6733","3I7KR83SNAZT1REYB2SRC49PCEEK9H","","346.9949999998789","img/flower1.png","74","350.2349999998696","1","0","2","2","1,0,0,1,1,0,1,0,1","0,1,0,0,1,1,1,1,0","3",""
"","html-keyboard-response","280","133114","0.0-280.0","3AMW0RGHOEOHN4D2G6L6F5MWJU2NP8","A3UC9N3EEE6733","3I7KR83SNAZT1REYB2SRC49PCEEK9H","","null","<img src=""img/flower1.png"" style=""width:200px;border:14px solid red;"">","null","","","","","","","","",""
"","image-keyboard-response","281","133526","0.0-281.0","3AMW0RGHOEOHN4D2G6L6F5MWJU2NP8","A3UC9N3EEE6733","3I7KR83SNAZT1REYB2SRC49PCEEK9H","","409.65000000051805","img/flower1.png","76","411.4149999995716","3","1","2","2","1,0,0,1,1,0,1,0,1","0,1,0,0,1,1,1,1,0","3",""
"","html-keyboard-response","282","133829","0.0-282.0","3AMW0RGHOEOHN4D2G6L6F5MWJU2NP8","A3UC9N3EEE6733","3I7KR83SNAZT1REYB2SRC49PCEEK9H","","null","<img src=""img/flower1.png"" style=""width:200px; border:14px solid green;"">","null","","","","","","","","",""
"","image-keyboard-response","283","134111","0.0-283.0","3AMW0RGHOEOHN4D2G6L6F5MWJU2NP8","A3UC9N3EEE6733","3I7KR83SNAZT1REYB2SRC49PCEEK9H","","280.2650000003341","img/flower3.png","75","282.2200000000594","2","1","3","2","1,0,0,1,1,0,1,0,1","0,1,0,0,1,1,1,1,0","3",""
"","html-keyboard-response","284","134414","0.0-284.0","3AMW0RGHOEOHN4D2G6L6F5MWJU2NP8","A3UC9N3EEE6733","3I7KR83SNAZT1REYB2SRC49PCEEK9H","","null","<img src=""img/flower3.png"" style=""width:200px; border:14px solid green;"">","null","","","","","","","","",""
"","image-keyboard-response","285","134559","0.0-285.0","3AMW0RGHOEOHN4D2G6L6F5MWJU2NP8","A3UC9N3EEE6733","3I7KR83SNAZT1REYB2SRC49PCEEK9H","","142.1699999991688","img/flower3.png","74","144.45500000056927","1","1","3","2","1,0,0,1,1,0,1,0,1","0,1,0,0,1,1,1,1,0","3",""
"","html-keyboard-response","286","134862","0.0-286.0","3AMW0RGHOEOHN4D2G6L6F5MWJU2NP8","A3UC9N3EEE6733","3I7KR83SNAZT1REYB2SRC49PCEEK9H","","null","<img src=""img/flower3.png"" style=""width:200px; border:14px solid green;"">","null","","","","","","","","",""
"","image-keyboard-response","287","135242","0.0-287.0","3AMW0RGHOEOHN4D2G6L6F5MWJU2NP8","A3UC9N3EEE6733","3I7KR83SNAZT1REYB2SRC49PCEEK9H","","377.9300000005751","img/flower3.png","75","379.93499999991036","2","1","3","2","1,0,0,1,1,0,1,0,1","0,1,0,0,1,1,1,1,0","3",""
"","html-keyboard-response","288","135546","0.0-288.0","3AMW0RGHOEOHN4D2G6L6F5MWJU2NP8","A3UC9N3EEE6733","3I7KR83SNAZT1REYB2SRC49PCEEK9H","","null","<img src=""img/flower3.png"" style=""width:200px; border:14px solid green;"">","null","","","","","","","","",""
"","image-keyboard-response","289","135736","0.0-289.0","3AMW0RGHOEOHN4D2G6L6F5MWJU2NP8","A3UC9N3EEE6733","3I7KR83SNAZT1REYB2SRC49PCEEK9H","","188.69499999983236","img/flower3.png","74","190.48999999996158","1","1","3","2","1,0,0,1,1,0,1,0,1","0,1,0,0,1,1,1,1,0","3",""
"","html-keyboard-response","290","136039","0.0-290.0","3AMW0RGHOEOHN4D2G6L6F5MWJU2NP8","A3UC9N3EEE6733","3I7KR83SNAZT1REYB2SRC49PCEEK9H","","null","<img src=""img/flower3.png"" style=""width:200px; border:14px solid green;"">","null","","","","","","","","",""
"","image-keyboard-response","291","136361","0.0-291.0","3AMW0RGHOEOHN4D2G6L6F5MWJU2NP8","A3UC9N3EEE6733","3I7KR83SNAZT1REYB2SRC49PCEEK9H","","320.2199999996228","img/flower3.png","76","321.8400000005204","3","0","3","2","1,0,0,1,1,0,1,0,1","0,1,0,0,1,1,1,1,0","3",""
"","html-keyboard-response","292","136664","0.0-292.0","3AMW0RGHOEOHN4D2G6L6F5MWJU2NP8","A3UC9N3EEE6733","3I7KR83SNAZT1REYB2SRC49PCEEK9H","","null","<img src=""img/flower3.png"" style=""width:200px;border:14px solid red;"">","null","","","","","","","","",""
"","image-keyboard-response","293","136975","0.0-293.0","3AMW0RGHOEOHN4D2G6L6F5MWJU2NP8","A3UC9N3EEE6733","3I7KR83SNAZT1REYB2SRC49PCEEK9H","","309.26499999986845","img/flower1.png","75","311.42500000077416","2","1","2","2","1,0,0,1,1,0,1,0,1","0,1,0,0,1,1,1,1,0","3",""
"","html-keyboard-response","294","137278","0.0-294.0","3AMW0RGHOEOHN4D2G6L6F5MWJU2NP8","A3UC9N3EEE6733","3I7KR83SNAZT1REYB2SRC49PCEEK9H","","null","<img src=""img/flower1.png"" style=""width:200px; border:14px solid green;"">","null","","","","","","","","",""
"","image-keyboard-response","295","137377","0.0-295.0","3AMW0RGHOEOHN4D2G6L6F5MWJU2NP8","A3UC9N3EEE6733","3I7KR83SNAZT1REYB2SRC49PCEEK9H","","96.22000000035041","img/flower1.png","74","98.34500000035041","1","0","2","2","1,0,0,1,1,0,1,0,1","0,1,0,0,1,1,1,1,0","3",""
"","html-keyboard-response","296","137679","0.0-296.0","3AMW0RGHOEOHN4D2G6L6F5MWJU2NP8","A3UC9N3EEE6733","3I7KR83SNAZT1REYB2SRC49PCEEK9H","","null","<img src=""img/flower1.png"" style=""width:200px;border:14px solid red;"">","null","","","","","","","","",""
"","image-keyboard-response","297","137929","0.0-297.0","3AMW0RGHOEOHN4D2G6L6F5MWJU2NP8","A3UC9N3EEE6733","3I7KR83SNAZT1REYB2SRC49PCEEK9H","","247.8750000000291","img/flower4.png","75","249.61499999972875","2","1","1","2","1,0,0,1,1,0,1,0,1","0,1,0,0,1,1,1,1,0","3",""
"","html-keyboard-response","298","138232","0.0-298.0","3AMW0RGHOEOHN4D2G6L6F5MWJU2NP8","A3UC9N3EEE6733","3I7KR83SNAZT1REYB2SRC49PCEEK9H","","null","<img src=""img/flower4.png"" style=""width:200px; border:14px solid green;"">","null","","","","","","","","",""
"","image-keyboard-response","299","138273","0.0-299.0","3AMW0RGHOEOHN4D2G6L6F5MWJU2NP8","A3UC9N3EEE6733","3I7KR83SNAZT1REYB2SRC49PCEEK9H","","38.40500000023167","img/flower3.png","76","40.210000000108266","3","0","3","2","1,0,0,1,1,0,1,0,1","0,1,0,0,1,1,1,1,0","3",""
"","html-keyboard-response","300","138576","0.0-300.0","3AMW0RGHOEOHN4D2G6L6F5MWJU2NP8","A3UC9N3EEE6733","3I7KR83SNAZT1REYB2SRC49PCEEK9H","","null","<img src=""img/flower3.png"" style=""width:200px;border:14px solid red;"">","null","","","","","","","","",""
"","image-keyboard-response","301","138828","0.0-301.0","3AMW0RGHOEOHN4D2G6L6F5MWJU2NP8","A3UC9N3EEE6733","3I7KR83SNAZT1REYB2SRC49PCEEK9H","","250.18499999985215","img/flower4.png","75","252.23000000006869","2","1","1","2","1,0,0,1,1,0,1,0,1","0,1,0,0,1,1,1,1,0","3",""
"","html-keyboard-response","302","139131","0.0-302.0","3AMW0RGHOEOHN4D2G6L6F5MWJU2NP8","A3UC9N3EEE6733","3I7KR83SNAZT1REYB2SRC49PCEEK9H","","null","<img src=""img/flower4.png"" style=""width:200px; border:14px solid green;"">","null","","","","","","","","",""
"","image-keyboard-response","303","139529","0.0-303.0","3AMW0RGHOEOHN4D2G6L6F5MWJU2NP8","A3UC9N3EEE6733","3I7KR83SNAZT1REYB2SRC49PCEEK9H","","395.4100000000908","img/flower4.png","74","397.4000000007509","1","0","1","2","1,0,0,1,1,0,1,0,1","0,1,0,0,1,1,1,1,0","3",""
"","html-keyboard-response","304","139831","0.0-304.0","3AMW0RGHOEOHN4D2G6L6F5MWJU2NP8","A3UC9N3EEE6733","3I7KR83SNAZT1REYB2SRC49PCEEK9H","","null","<img src=""img/flower4.png"" style=""width:200px;border:14px solid red;"">","null","","","","","","","","",""
"","image-keyboard-response","305","140176","0.0-305.0","3AMW0RGHOEOHN4D2G6L6F5MWJU2NP8","A3UC9N3EEE6733","3I7KR83SNAZT1REYB2SRC49PCEEK9H","","342.1250000001164","img/flower4.png","74","344.18499999993946","1","0","1","2","1,0,0,1,1,0,1,0,1","0,1,0,0,1,1,1,1,0","3",""
"","html-keyboard-response","306","140479","0.0-306.0","3AMW0RGHOEOHN4D2G6L6F5MWJU2NP8","A3UC9N3EEE6733","3I7KR83SNAZT1REYB2SRC49PCEEK9H","","null","<img src=""img/flower4.png"" style=""width:200px;border:14px solid red;"">","null","","","","","","","","",""
"","image-keyboard-response","307","140588","0.0-307.0","3AMW0RGHOEOHN4D2G6L6F5MWJU2NP8","A3UC9N3EEE6733","3I7KR83SNAZT1REYB2SRC49PCEEK9H","","106.86500000066007","img/flower1.png","75","108.9000000001688","2","1","2","2","1,0,0,1,1,0,1,0,1","0,1,0,0,1,1,1,1,0","3",""
"","html-keyboard-response","308","140891","0.0-308.0","3AMW0RGHOEOHN4D2G6L6F5MWJU2NP8","A3UC9N3EEE6733","3I7KR83SNAZT1REYB2SRC49PCEEK9H","","null","<img src=""img/flower1.png"" style=""width:200px; border:14px solid green;"">","null","","","","","","","","",""
"","image-keyboard-response","309","141164","0.0-309.0","3AMW0RGHOEOHN4D2G6L6F5MWJU2NP8","A3UC9N3EEE6733","3I7KR83SNAZT1REYB2SRC49PCEEK9H","","270.78499999971245","img/flower3.png","75","273.20500000042375","2","1","3","2","1,0,0,1,1,0,1,0,1","0,1,0,0,1,1,1,1,0","3",""
"","html-keyboard-response","310","141467","0.0-310.0","3AMW0RGHOEOHN4D2G6L6F5MWJU2NP8","A3UC9N3EEE6733","3I7KR83SNAZT1REYB2SRC49PCEEK9H","","null","<img src=""img/flower3.png"" style=""width:200px; border:14px solid green;"">","null","","","","","","","","",""
"","image-keyboard-response","311","141785","0.0-311.0","3AMW0RGHOEOHN4D2G6L6F5MWJU2NP8","A3UC9N3EEE6733","3I7KR83SNAZT1REYB2SRC49PCEEK9H","","315.8249999996915","img/flower4.png","76","317.90500000078464","3","0","1","2","1,0,0,1,1,0,1,0,1","0,1,0,0,1,1,1,1,0","3",""
"","html-keyboard-response","312","142088","0.0-312.0","3AMW0RGHOEOHN4D2G6L6F5MWJU2NP8","A3UC9N3EEE6733","3I7KR83SNAZT1REYB2SRC49PCEEK9H","","null","<img src=""img/flower4.png"" style=""width:200px;border:14px solid red;"">","null","","","","","","","","",""
"","image-keyboard-response","313","142504","0.0-313.0","3AMW0RGHOEOHN4D2G6L6F5MWJU2NP8","A3UC9N3EEE6733","3I7KR83SNAZT1REYB2SRC49PCEEK9H","","414.07999999955064","img/flower4.png","75","415.8999999999651","2","1","1","2","1,0,0,1,1,0,1,0,1","0,1,0,0,1,1,1,1,0","3",""
"","html-keyboard-response","314","142806","0.0-314.0","3AMW0RGHOEOHN4D2G6L6F5MWJU2NP8","A3UC9N3EEE6733","3I7KR83SNAZT1REYB2SRC49PCEEK9H","","null","<img src=""img/flower4.png"" style=""width:200px; border:14px solid green;"">","null","","","","","","","","",""
"","image-keyboard-response","315","143051","0.0-315.0","3AMW0RGHOEOHN4D2G6L6F5MWJU2NP8","A3UC9N3EEE6733","3I7KR83SNAZT1REYB2SRC49PCEEK9H","","241.90499999985332","img/flower3.png","74","244.03499999971245","1","1","3","2","1,0,0,1,1,0,1,0,1","0,1,0,0,1,1,1,1,0","3",""
"","html-keyboard-response","316","143353","0.0-316.0","3AMW0RGHOEOHN4D2G6L6F5MWJU2NP8","A3UC9N3EEE6733","3I7KR83SNAZT1REYB2SRC49PCEEK9H","","null","<img src=""img/flower3.png"" style=""width:200px; border:14px solid green;"">","null","","","","","","","","",""
"","image-keyboard-response","317","143911","0.0-317.0","3AMW0RGHOEOHN4D2G6L6F5MWJU2NP8","A3UC9N3EEE6733","3I7KR83SNAZT1REYB2SRC49PCEEK9H","","555.2999999999884","img/flower1.png","74","557.3100000001432","1","0","2","2","1,0,0,1,1,0,1,0,1","0,1,0,0,1,1,1,1,0","3",""
"","html-keyboard-response","318","144214","0.0-318.0","3AMW0RGHOEOHN4D2G6L6F5MWJU2NP8","A3UC9N3EEE6733","3I7KR83SNAZT1REYB2SRC49PCEEK9H","","null","<img src=""img/flower1.png"" style=""width:200px;border:14px solid red;"">","null","","","","","","","","",""
"","image-keyboard-response","319","144440","0.0-319.0","3AMW0RGHOEOHN4D2G6L6F5MWJU2NP8","A3UC9N3EEE6733","3I7KR83SNAZT1REYB2SRC49PCEEK9H","","223.30000000057044","img/flower3.png","75","225.21499999950174","2","1","3","2","1,0,0,1,1,0,1,0,1","0,1,0,0,1,1,1,1,0","3",""
"","html-keyboard-response","320","144742","0.0-320.0","3AMW0RGHOEOHN4D2G6L6F5MWJU2NP8","A3UC9N3EEE6733","3I7KR83SNAZT1REYB2SRC49PCEEK9H","","null","<img src=""img/flower3.png"" style=""width:200px; border:14px solid green;"">","null","","","","","","","","",""
"","image-keyboard-response","321","145012","0.0-321.0","3AMW0RGHOEOHN4D2G6L6F5MWJU2NP8","A3UC9N3EEE6733","3I7KR83SNAZT1REYB2SRC49PCEEK9H","","267.39999999973224","img/flower1.png","75","269.2349999997532","2","1","2","2","1,0,0,1,1,0,1,0,1","0,1,0,0,1,1,1,1,0","3",""
"","html-keyboard-response","322","145315","0.0-322.0","3AMW0RGHOEOHN4D2G6L6F5MWJU2NP8","A3UC9N3EEE6733","3I7KR83SNAZT1REYB2SRC49PCEEK9H","","null","<img src=""img/flower1.png"" style=""width:200px; border:14px solid green;"">","null","","","","","","","","",""
"","image-keyboard-response","323","145329","0.0-323.0","3AMW0RGHOEOHN4D2G6L6F5MWJU2NP8","A3UC9N3EEE6733","3I7KR83SNAZT1REYB2SRC49PCEEK9H","","11.449999999982538","img/flower1.png","74","13.22999999957392","1","0","2","2","1,0,0,1,1,0,1,0,1","0,1,0,0,1,1,1,1,0","3",""
"","html-keyboard-response","324","145631","0.0-324.0","3AMW0RGHOEOHN4D2G6L6F5MWJU2NP8","A3UC9N3EEE6733","3I7KR83SNAZT1REYB2SRC49PCEEK9H","","null","<img src=""img/flower1.png"" style=""width:200px;border:14px solid red;"">","null","","","","","","","","",""
"","image-keyboard-response","325","145807","0.0-325.0","3AMW0RGHOEOHN4D2G6L6F5MWJU2NP8","A3UC9N3EEE6733","3I7KR83SNAZT1REYB2SRC49PCEEK9H","","173.4300000007206","img/flower4.png","76","175.2699999997276","3","0","1","2","1,0,0,1,1,0,1,0,1","0,1,0,0,1,1,1,1,0","3",""
"","html-keyboard-response","326","146110","0.0-326.0","3AMW0RGHOEOHN4D2G6L6F5MWJU2NP8","A3UC9N3EEE6733","3I7KR83SNAZT1REYB2SRC49PCEEK9H","","null","<img src=""img/flower4.png"" style=""width:200px;border:14px solid red;"">","null","","","","","","","","",""
"","image-keyboard-response","327","146224","0.0-327.0","3AMW0RGHOEOHN4D2G6L6F5MWJU2NP8","A3UC9N3EEE6733","3I7KR83SNAZT1REYB2SRC49PCEEK9H","","112.129999999539","img/flower1.png","74","113.98000000006869","1","0","2","2","1,0,0,1,1,0,1,0,1","0,1,0,0,1,1,1,1,0","3",""
"","html-keyboard-response","328","146528","0.0-328.0","3AMW0RGHOEOHN4D2G6L6F5MWJU2NP8","A3UC9N3EEE6733","3I7KR83SNAZT1REYB2SRC49PCEEK9H","","null","<img src=""img/flower1.png"" style=""width:200px;border:14px solid red;"">","null","","","","","","","","",""
"","image-keyboard-response","329","146886","0.0-329.0","3AMW0RGHOEOHN4D2G6L6F5MWJU2NP8","A3UC9N3EEE6733","3I7KR83SNAZT1REYB2SRC49PCEEK9H","","355.8249999996624","img/flower4.png","75","357.86000000007334","2","1","1","2","1,0,0,1,1,0,1,0,1","0,1,0,0,1,1,1,1,0","3",""
"","html-keyboard-response","330","147189","0.0-330.0","3AMW0RGHOEOHN4D2G6L6F5MWJU2NP8","A3UC9N3EEE6733","3I7KR83SNAZT1REYB2SRC49PCEEK9H","","null","<img src=""img/flower4.png"" style=""width:200px; border:14px solid green;"">","null","","","","","","","","",""
"","image-keyboard-response","331","147582","0.0-331.0","3AMW0RGHOEOHN4D2G6L6F5MWJU2NP8","A3UC9N3EEE6733","3I7KR83SNAZT1REYB2SRC49PCEEK9H","","390.9100000000908","img/flower1.png","75","392.93499999985215","2","1","2","2","1,0,0,1,1,0,1,0,1","0,1,0,0,1,1,1,1,0","3",""
"","html-keyboard-response","332","147885","0.0-332.0","3AMW0RGHOEOHN4D2G6L6F5MWJU2NP8","A3UC9N3EEE6733","3I7KR83SNAZT1REYB2SRC49PCEEK9H","","null","<img src=""img/flower1.png"" style=""width:200px; border:14px solid green;"">","null","","","","","","","","",""
"","image-keyboard-response","333","147927","0.0-333.0","3AMW0RGHOEOHN4D2G6L6F5MWJU2NP8","A3UC9N3EEE6733","3I7KR83SNAZT1REYB2SRC49PCEEK9H","","39.55499999941094","img/flower1.png","74","41.40499999994063","1","0","2","2","1,0,0,1,1,0,1,0,1","0,1,0,0,1,1,1,1,0","3",""
"","html-keyboard-response","334","148230","0.0-334.0","3AMW0RGHOEOHN4D2G6L6F5MWJU2NP8","A3UC9N3EEE6733","3I7KR83SNAZT1REYB2SRC49PCEEK9H","","null","<img src=""img/flower1.png"" style=""width:200px;border:14px solid red;"">","null","","","","","","","","",""
"","image-keyboard-response","335","148333","0.0-335.0","3AMW0RGHOEOHN4D2G6L6F5MWJU2NP8","A3UC9N3EEE6733","3I7KR83SNAZT1REYB2SRC49PCEEK9H","","100.84499999991385","img/flower3.png","74","102.61499999978696","1","1","3","2","1,0,0,1,1,0,1,0,1","0,1,0,0,1,1,1,1,0","3",""
"","html-keyboard-response","336","148635","0.0-336.0","3AMW0RGHOEOHN4D2G6L6F5MWJU2NP8","A3UC9N3EEE6733","3I7KR83SNAZT1REYB2SRC49PCEEK9H","","null","<img src=""img/flower3.png"" style=""width:200px; border:14px solid green;"">","null","","","","","","","","",""
"","image-keyboard-response","337","149029","0.0-337.0","3AMW0RGHOEOHN4D2G6L6F5MWJU2NP8","A3UC9N3EEE6733","3I7KR83SNAZT1REYB2SRC49PCEEK9H","","391.8499999999767","img/flower4.png","76","393.39500000004773","3","0","1","2","1,0,0,1,1,0,1,0,1","0,1,0,0,1,1,1,1,0","3",""
"","html-keyboard-response","338","149331","0.0-338.0","3AMW0RGHOEOHN4D2G6L6F5MWJU2NP8","A3UC9N3EEE6733","3I7KR83SNAZT1REYB2SRC49PCEEK9H","","null","<img src=""img/flower4.png"" style=""width:200px;border:14px solid red;"">","null","","","","","","","","",""
"","image-keyboard-response","339","149348","0.0-339.0","3AMW0RGHOEOHN4D2G6L6F5MWJU2NP8","A3UC9N3EEE6733","3I7KR83SNAZT1REYB2SRC49PCEEK9H","","14.665000000590226","img/flower3.png","74","16.309999999968568","1","1","3","2","1,0,0,1,1,0,1,0,1","0,1,0,0,1,1,1,1,0","3",""
"","html-keyboard-response","340","149651","0.0-340.0","3AMW0RGHOEOHN4D2G6L6F5MWJU2NP8","A3UC9N3EEE6733","3I7KR83SNAZT1REYB2SRC49PCEEK9H","","null","<img src=""img/flower3.png"" style=""width:200px; border:14px solid green;"">","null","","","","","","","","",""
"","image-keyboard-response","341","149784","0.0-341.0","3AMW0RGHOEOHN4D2G6L6F5MWJU2NP8","A3UC9N3EEE6733","3I7KR83SNAZT1REYB2SRC49PCEEK9H","","129.92500000019209","img/flower3.png","75","132.03500000055647","2","1","3","2","1,0,0,1,1,0,1,0,1","0,1,0,0,1,1,1,1,0","3",""
"","html-keyboard-response","342","150087","0.0-342.0","3AMW0RGHOEOHN4D2G6L6F5MWJU2NP8","A3UC9N3EEE6733","3I7KR83SNAZT1REYB2SRC49PCEEK9H","","null","<img src=""img/flower3.png"" style=""width:200px; border:14px solid green;"">","null","","","","","","","","",""
"","image-keyboard-response","343","150362","0.0-343.0","3AMW0RGHOEOHN4D2G6L6F5MWJU2NP8","A3UC9N3EEE6733","3I7KR83SNAZT1REYB2SRC49PCEEK9H","","272.41000000049826","img/flower1.png","74","274.5549999999348","1","0","2","2","1,0,0,1,1,0,1,0,1","0,1,0,0,1,1,1,1,0","3",""
"","html-keyboard-response","344","150664","0.0-344.0","3AMW0RGHOEOHN4D2G6L6F5MWJU2NP8","A3UC9N3EEE6733","3I7KR83SNAZT1REYB2SRC49PCEEK9H","","null","<img src=""img/flower1.png"" style=""width:200px;border:14px solid red;"">","null","","","","","","","","",""
"","image-keyboard-response","345","150954","0.0-345.0","3AMW0RGHOEOHN4D2G6L6F5MWJU2NP8","A3UC9N3EEE6733","3I7KR83SNAZT1REYB2SRC49PCEEK9H","","286.4299999991781","img/flower1.png","75","290.32999999981257","2","1","2","2","1,0,0,1,1,0,1,0,1","0,1,0,0,1,1,1,1,0","3",""
"","html-keyboard-response","346","151258","0.0-346.0","3AMW0RGHOEOHN4D2G6L6F5MWJU2NP8","A3UC9N3EEE6733","3I7KR83SNAZT1REYB2SRC49PCEEK9H","","null","<img src=""img/flower1.png"" style=""width:200px; border:14px solid green;"">","null","","","","","","","","",""
"","image-keyboard-response","347","151555","0.0-347.0","3AMW0RGHOEOHN4D2G6L6F5MWJU2NP8","A3UC9N3EEE6733","3I7KR83SNAZT1REYB2SRC49PCEEK9H","","294.6400000000722","img/flower4.png","74","296.2600000000675","1","0","1","2","1,0,0,1,1,0,1,0,1","0,1,0,0,1,1,1,1,0","3",""
"","html-keyboard-response","348","151857","0.0-348.0","3AMW0RGHOEOHN4D2G6L6F5MWJU2NP8","A3UC9N3EEE6733","3I7KR83SNAZT1REYB2SRC49PCEEK9H","","null","<img src=""img/flower4.png"" style=""width:200px;border:14px solid red;"">","null","","","","","","","","",""
"","image-keyboard-response","349","152483","0.0-349.0","3AMW0RGHOEOHN4D2G6L6F5MWJU2NP8","A3UC9N3EEE6733","3I7KR83SNAZT1REYB2SRC49PCEEK9H","","623.0049999994517","img/flower3.png","76","625.0899999995308","3","0","3","2","1,0,0,1,1,0,1,0,1","0,1,0,0,1,1,1,1,0","3",""
"","html-keyboard-response","350","152785","0.0-350.0","3AMW0RGHOEOHN4D2G6L6F5MWJU2NP8","A3UC9N3EEE6733","3I7KR83SNAZT1REYB2SRC49PCEEK9H","","null","<img src=""img/flower3.png"" style=""width:200px;border:14px solid red;"">","null","","","","","","","","",""
"","image-keyboard-response","351","152932","0.0-351.0","3AMW0RGHOEOHN4D2G6L6F5MWJU2NP8","A3UC9N3EEE6733","3I7KR83SNAZT1REYB2SRC49PCEEK9H","","144.720000000234","img/flower1.png","74","146.62999999927706","1","0","2","2","1,0,0,1,1,0,1,0,1","0,1,0,0,1,1,1,1,0","3",""
"","html-keyboard-response","352","153236","0.0-352.0","3AMW0RGHOEOHN4D2G6L6F5MWJU2NP8","A3UC9N3EEE6733","3I7KR83SNAZT1REYB2SRC49PCEEK9H","","null","<img src=""img/flower1.png"" style=""width:200px;border:14px solid red;"">","null","","","","","","","","",""
"","image-keyboard-response","353","153575","0.0-353.0","3AMW0RGHOEOHN4D2G6L6F5MWJU2NP8","A3UC9N3EEE6733","3I7KR83SNAZT1REYB2SRC49PCEEK9H","","337.0549999999639","img/flower3.png","75","339.2350000003644","2","1","3","2","1,0,0,1,1,0,1,0,1","0,1,0,0,1,1,1,1,0","3",""
"","html-keyboard-response","354","153878","0.0-354.0","3AMW0RGHOEOHN4D2G6L6F5MWJU2NP8","A3UC9N3EEE6733","3I7KR83SNAZT1REYB2SRC49PCEEK9H","","null","<img src=""img/flower3.png"" style=""width:200px; border:14px solid green;"">","null","","","","","","","","",""
"","image-keyboard-response","355","153971","0.0-355.0","3AMW0RGHOEOHN4D2G6L6F5MWJU2NP8","A3UC9N3EEE6733","3I7KR83SNAZT1REYB2SRC49PCEEK9H","","90.36999999987893","img/flower4.png","74","92.75499999965541","1","0","1","2","1,0,0,1,1,0,1,0,1","0,1,0,0,1,1,1,1,0","3",""
"","html-keyboard-response","356","154273","0.0-356.0","3AMW0RGHOEOHN4D2G6L6F5MWJU2NP8","A3UC9N3EEE6733","3I7KR83SNAZT1REYB2SRC49PCEEK9H","","null","<img src=""img/flower4.png"" style=""width:200px;border:14px solid red;"">","null","","","","","","","","",""
"","image-keyboard-response","357","154370","0.0-357.0","3AMW0RGHOEOHN4D2G6L6F5MWJU2NP8","A3UC9N3EEE6733","3I7KR83SNAZT1REYB2SRC49PCEEK9H","","94.80499999973108","img/flower3.png","74","96.63500000079512","1","1","3","2","1,0,0,1,1,0,1,0,1","0,1,0,0,1,1,1,1,0","3",""
"","html-keyboard-response","358","154673","0.0-358.0","3AMW0RGHOEOHN4D2G6L6F5MWJU2NP8","A3UC9N3EEE6733","3I7KR83SNAZT1REYB2SRC49PCEEK9H","","null","<img src=""img/flower3.png"" style=""width:200px; border:14px solid green;"">","null","","","","","","","","",""
"","image-keyboard-response","359","154794","0.0-359.0","3AMW0RGHOEOHN4D2G6L6F5MWJU2NP8","A3UC9N3EEE6733","3I7KR83SNAZT1REYB2SRC49PCEEK9H","","118.2799999996787","img/flower4.png","75","120.3100000002305","2","1","1","2","1,0,0,1,1,0,1,0,1","0,1,0,0,1,1,1,1,0","3",""
"","html-keyboard-response","360","155097","0.0-360.0","3AMW0RGHOEOHN4D2G6L6F5MWJU2NP8","A3UC9N3EEE6733","3I7KR83SNAZT1REYB2SRC49PCEEK9H","","null","<img src=""img/flower4.png"" style=""width:200px; border:14px solid green;"">","null","","","","","","","","",""
