"success","trial_type","trial_index","time_elapsed","internal_node_id","assignmentID","mturkID","hitID","view_history","rt","stimulus","key_press","reactionTime","a","r","s","cond","reward_cond","reward_cond_actual","reward_matrix_idx","responses"
"true","fullscreen","0","6013","0.0-0.0","3Y5140Z9DY2P932BJQ8EAXQFXXZPIP","A3UMFQFJ8HE82I","382GHPVPHSDM8N0F9141EAH7F0K34Z","","","","","","","","","","","","",""
"","instructions","1","15161","0.0-1.0","3Y5140Z9DY2P932BJQ8EAXQFXXZPIP","A3UMFQFJ8HE82I","382GHPVPHSDM8N0F9141EAH7F0K34Z","[{""page_index"":0,""viewing_time"":2448.0999999940395},{""page_index"":1,""viewing_time"":1105.300000011921},{""page_index"":2,""viewing_time"":1074.199999988079},{""page_index"":3,""viewing_time"":966},{""page_index"":4,""viewing_time"":783.9000000059605},{""page_index"":5,""viewing_time"":816},{""page_index"":6,""viewing_time"":1066.0999999940395},{""page_index"":7,""viewing_time"":886.3000000119209}]","9146.200000017881","","","","","","","","","","",""
"","image-keyboard-response","2","16953","0.0-2.0","3Y5140Z9DY2P932BJQ8EAXQFXXZPIP","A3UMFQFJ8HE82I","382GHPVPHSDM8N0F9141EAH7F0K34Z","","1790.0999999940395","img/flower2.png","74","1791.5","1","1","1","2","1,0,0,1,1,0,1,0,1","1,0,0,1,1,0,1,0,1","1",""
"","html-keyboard-response","3","17255","0.0-3.0","3Y5140Z9DY2P932BJQ8EAXQFXXZPIP","A3UMFQFJ8HE82I","382GHPVPHSDM8N0F9141EAH7F0K34Z","","null","<img src=""img/flower2.png"" style=""width:200px; border:14px solid green;"">","null","","","","","","","","",""
"","image-keyboard-response","4","17656","0.0-4.0","3Y5140Z9DY2P932BJQ8EAXQFXXZPIP","A3UMFQFJ8HE82I","382GHPVPHSDM8N0F9141EAH7F0K34Z","","399.7000000178814","img/flower1.png","74","400.2999999821186","1","1","2","2","1,0,0,1,1,0,1,0,1","1,0,0,1,1,0,1,0,1","1",""
"","html-keyboard-response","5","17958","0.0-5.0","3Y5140Z9DY2P932BJQ8EAXQFXXZPIP","A3UMFQFJ8HE82I","382GHPVPHSDM8N0F9141EAH7F0K34Z","","null","<img src=""img/flower1.png"" style=""width:200px; border:14px solid green;"">","null","","","","","","","","",""
"","image-keyboard-response","6","18216","0.0-6.0","3Y5140Z9DY2P932BJQ8EAXQFXXZPIP","A3UMFQFJ8HE82I","382GHPVPHSDM8N0F9141EAH7F0K34Z","","257.10000002384186","img/flower6.png","74","257.69999998807907","1","1","3","2","1,0,0,1,1,0,1,0,1","1,0,0,1,1,0,1,0,1","1",""
"","html-keyboard-response","7","18517","0.0-7.0","3Y5140Z9DY2P932BJQ8EAXQFXXZPIP","A3UMFQFJ8HE82I","382GHPVPHSDM8N0F9141EAH7F0K34Z","","null","<img src=""img/flower6.png"" style=""width:200px; border:14px solid green;"">","null","","","","","","","","",""
"","image-keyboard-response","8","18809","0.0-8.0","3Y5140Z9DY2P932BJQ8EAXQFXXZPIP","A3UMFQFJ8HE82I","382GHPVPHSDM8N0F9141EAH7F0K34Z","","291.7000000178814","img/flower6.png","74","292.40000000596046","1","1","3","2","1,0,0,1,1,0,1,0,1","1,0,0,1,1,0,1,0,1","1",""
"","html-keyboard-response","9","19112","0.0-9.0","3Y5140Z9DY2P932BJQ8EAXQFXXZPIP","A3UMFQFJ8HE82I","382GHPVPHSDM8N0F9141EAH7F0K34Z","","null","<img src=""img/flower6.png"" style=""width:200px; border:14px solid green;"">","null","","","","","","","","",""
"","image-keyboard-response","10","19688","0.0-10.0","3Y5140Z9DY2P932BJQ8EAXQFXXZPIP","A3UMFQFJ8HE82I","382GHPVPHSDM8N0F9141EAH7F0K34Z","","575.5","img/flower2.png","75","576.3000000119209","2","0","1","2","1,0,0,1,1,0,1,0,1","1,0,0,1,1,0,1,0,1","1",""
"","html-keyboard-response","11","19990","0.0-11.0","3Y5140Z9DY2P932BJQ8EAXQFXXZPIP","A3UMFQFJ8HE82I","382GHPVPHSDM8N0F9141EAH7F0K34Z","","null","<img src=""img/flower2.png"" style=""width:200px;border:14px solid red;"">","null","","","","","","","","",""
"","image-keyboard-response","12","20232","0.0-12.0","3Y5140Z9DY2P932BJQ8EAXQFXXZPIP","A3UMFQFJ8HE82I","382GHPVPHSDM8N0F9141EAH7F0K34Z","","240.10000002384186","img/flower1.png","75","241.40000000596046","2","1","2","2","1,0,0,1,1,0,1,0,1","1,0,0,1,1,0,1,0,1","1",""
"","html-keyboard-response","13","20534","0.0-13.0","3Y5140Z9DY2P932BJQ8EAXQFXXZPIP","A3UMFQFJ8HE82I","382GHPVPHSDM8N0F9141EAH7F0K34Z","","null","<img src=""img/flower1.png"" style=""width:200px; border:14px solid green;"">","null","","","","","","","","",""
"","image-keyboard-response","14","20840","0.0-14.0","3Y5140Z9DY2P932BJQ8EAXQFXXZPIP","A3UMFQFJ8HE82I","382GHPVPHSDM8N0F9141EAH7F0K34Z","","305","img/flower2.png","75","305.5","2","0","1","2","1,0,0,1,1,0,1,0,1","1,0,0,1,1,0,1,0,1","1",""
"","html-keyboard-response","15","21151","0.0-15.0","3Y5140Z9DY2P932BJQ8EAXQFXXZPIP","A3UMFQFJ8HE82I","382GHPVPHSDM8N0F9141EAH7F0K34Z","","null","<img src=""img/flower2.png"" style=""width:200px;border:14px solid red;"">","null","","","","","","","","",""
"","image-keyboard-response","16","21320","0.0-16.0","3Y5140Z9DY2P932BJQ8EAXQFXXZPIP","A3UMFQFJ8HE82I","382GHPVPHSDM8N0F9141EAH7F0K34Z","","168.40000000596046","img/flower6.png","74","169","1","1","3","2","1,0,0,1,1,0,1,0,1","1,0,0,1,1,0,1,0,1","1",""
"","html-keyboard-response","17","21621","0.0-17.0","3Y5140Z9DY2P932BJQ8EAXQFXXZPIP","A3UMFQFJ8HE82I","382GHPVPHSDM8N0F9141EAH7F0K34Z","","null","<img src=""img/flower6.png"" style=""width:200px; border:14px solid green;"">","null","","","","","","","","",""
"","image-keyboard-response","18","21928","0.0-18.0","3Y5140Z9DY2P932BJQ8EAXQFXXZPIP","A3UMFQFJ8HE82I","382GHPVPHSDM8N0F9141EAH7F0K34Z","","305.90000000596046","img/flower6.png","74","306.59999999403954","1","1","3","2","1,0,0,1,1,0,1,0,1","1,0,0,1,1,0,1,0,1","1",""
"","html-keyboard-response","19","22230","0.0-19.0","3Y5140Z9DY2P932BJQ8EAXQFXXZPIP","A3UMFQFJ8HE82I","382GHPVPHSDM8N0F9141EAH7F0K34Z","","null","<img src=""img/flower6.png"" style=""width:200px; border:14px solid green;"">","null","","","","","","","","",""
"","image-keyboard-response","20","22505","0.0-20.0","3Y5140Z9DY2P932BJQ8EAXQFXXZPIP","A3UMFQFJ8HE82I","382GHPVPHSDM8N0F9141EAH7F0K34Z","","273.40000000596046","img/flower1.png","74","274","1","1","2","2","1,0,0,1,1,0,1,0,1","1,0,0,1,1,0,1,0,1","1",""
"","html-keyboard-response","21","22807","0.0-21.0","3Y5140Z9DY2P932BJQ8EAXQFXXZPIP","A3UMFQFJ8HE82I","382GHPVPHSDM8N0F9141EAH7F0K34Z","","null","<img src=""img/flower1.png"" style=""width:200px; border:14px solid green;"">","null","","","","","","","","",""
"","image-keyboard-response","22","23080","0.0-22.0","3Y5140Z9DY2P932BJQ8EAXQFXXZPIP","A3UMFQFJ8HE82I","382GHPVPHSDM8N0F9141EAH7F0K34Z","","272.19999998807907","img/flower1.png","74","272.80000001192093","1","1","2","2","1,0,0,1,1,0,1,0,1","1,0,0,1,1,0,1,0,1","1",""
"","html-keyboard-response","23","23382","0.0-23.0","3Y5140Z9DY2P932BJQ8EAXQFXXZPIP","A3UMFQFJ8HE82I","382GHPVPHSDM8N0F9141EAH7F0K34Z","","null","<img src=""img/flower1.png"" style=""width:200px; border:14px solid green;"">","null","","","","","","","","",""
"","image-keyboard-response","24","23624","0.0-24.0","3Y5140Z9DY2P932BJQ8EAXQFXXZPIP","A3UMFQFJ8HE82I","382GHPVPHSDM8N0F9141EAH7F0K34Z","","241.19999998807907","img/flower1.png","74","241.80000001192093","1","1","2","2","1,0,0,1,1,0,1,0,1","1,0,0,1,1,0,1,0,1","1",""
"","html-keyboard-response","25","23926","0.0-25.0","3Y5140Z9DY2P932BJQ8EAXQFXXZPIP","A3UMFQFJ8HE82I","382GHPVPHSDM8N0F9141EAH7F0K34Z","","null","<img src=""img/flower1.png"" style=""width:200px; border:14px solid green;"">","null","","","","","","","","",""
"","image-keyboard-response","26","24648","0.0-26.0","3Y5140Z9DY2P932BJQ8EAXQFXXZPIP","A3UMFQFJ8HE82I","382GHPVPHSDM8N0F9141EAH7F0K34Z","","721.1000000238419","img/flower6.png","74","721.7999999821186","1","1","3","2","1,0,0,1,1,0,1,0,1","1,0,0,1,1,0,1,0,1","1",""
"","html-keyboard-response","27","24950","0.0-27.0","3Y5140Z9DY2P932BJQ8EAXQFXXZPIP","A3UMFQFJ8HE82I","382GHPVPHSDM8N0F9141EAH7F0K34Z","","null","<img src=""img/flower6.png"" style=""width:200px; border:14px solid green;"">","null","","","","","","","","",""
"","image-keyboard-response","28","25513","0.0-28.0","3Y5140Z9DY2P932BJQ8EAXQFXXZPIP","A3UMFQFJ8HE82I","382GHPVPHSDM8N0F9141EAH7F0K34Z","","562","img/flower1.png","74","562.5999999940395","1","1","2","2","1,0,0,1,1,0,1,0,1","1,0,0,1,1,0,1,0,1","1",""
"","html-keyboard-response","29","25814","0.0-29.0","3Y5140Z9DY2P932BJQ8EAXQFXXZPIP","A3UMFQFJ8HE82I","382GHPVPHSDM8N0F9141EAH7F0K34Z","","null","<img src=""img/flower1.png"" style=""width:200px; border:14px solid green;"">","null","","","","","","","","",""
"","image-keyboard-response","30","26232","0.0-30.0","3Y5140Z9DY2P932BJQ8EAXQFXXZPIP","A3UMFQFJ8HE82I","382GHPVPHSDM8N0F9141EAH7F0K34Z","","416.7999999821186","img/flower1.png","74","417.40000000596046","1","1","2","2","1,0,0,1,1,0,1,0,1","1,0,0,1,1,0,1,0,1","1",""
"","html-keyboard-response","31","26533","0.0-31.0","3Y5140Z9DY2P932BJQ8EAXQFXXZPIP","A3UMFQFJ8HE82I","382GHPVPHSDM8N0F9141EAH7F0K34Z","","null","<img src=""img/flower1.png"" style=""width:200px; border:14px solid green;"">","null","","","","","","","","",""
"","image-keyboard-response","32","27416","0.0-32.0","3Y5140Z9DY2P932BJQ8EAXQFXXZPIP","A3UMFQFJ8HE82I","382GHPVPHSDM8N0F9141EAH7F0K34Z","","882","img/flower6.png","74","882.5","1","1","3","2","1,0,0,1,1,0,1,0,1","1,0,0,1,1,0,1,0,1","1",""
"","html-keyboard-response","33","27717","0.0-33.0","3Y5140Z9DY2P932BJQ8EAXQFXXZPIP","A3UMFQFJ8HE82I","382GHPVPHSDM8N0F9141EAH7F0K34Z","","null","<img src=""img/flower6.png"" style=""width:200px; border:14px solid green;"">","null","","","","","","","","",""
"","image-keyboard-response","34","28168","0.0-34.0","3Y5140Z9DY2P932BJQ8EAXQFXXZPIP","A3UMFQFJ8HE82I","382GHPVPHSDM8N0F9141EAH7F0K34Z","","449.90000000596046","img/flower1.png","74","450.40000000596046","1","1","2","2","1,0,0,1,1,0,1,0,1","1,0,0,1,1,0,1,0,1","1",""
"","html-keyboard-response","35","28469","0.0-35.0","3Y5140Z9DY2P932BJQ8EAXQFXXZPIP","A3UMFQFJ8HE82I","382GHPVPHSDM8N0F9141EAH7F0K34Z","","null","<img src=""img/flower1.png"" style=""width:200px; border:14px solid green;"">","null","","","","","","","","",""
"","image-keyboard-response","36","28888","0.0-36.0","3Y5140Z9DY2P932BJQ8EAXQFXXZPIP","A3UMFQFJ8HE82I","382GHPVPHSDM8N0F9141EAH7F0K34Z","","417.89999997615814","img/flower2.png","74","418.40000000596046","1","1","1","2","1,0,0,1,1,0,1,0,1","1,0,0,1,1,0,1,0,1","1",""
"","html-keyboard-response","37","29189","0.0-37.0","3Y5140Z9DY2P932BJQ8EAXQFXXZPIP","A3UMFQFJ8HE82I","382GHPVPHSDM8N0F9141EAH7F0K34Z","","null","<img src=""img/flower2.png"" style=""width:200px; border:14px solid green;"">","null","","","","","","","","",""
"","image-keyboard-response","38","29496","0.0-38.0","3Y5140Z9DY2P932BJQ8EAXQFXXZPIP","A3UMFQFJ8HE82I","382GHPVPHSDM8N0F9141EAH7F0K34Z","","306.09999999403954","img/flower1.png","74","306.59999999403954","1","1","2","2","1,0,0,1,1,0,1,0,1","1,0,0,1,1,0,1,0,1","1",""
"","html-keyboard-response","39","29797","0.0-39.0","3Y5140Z9DY2P932BJQ8EAXQFXXZPIP","A3UMFQFJ8HE82I","382GHPVPHSDM8N0F9141EAH7F0K34Z","","null","<img src=""img/flower1.png"" style=""width:200px; border:14px solid green;"">","null","","","","","","","","",""
"","image-keyboard-response","40","30072","0.0-40.0","3Y5140Z9DY2P932BJQ8EAXQFXXZPIP","A3UMFQFJ8HE82I","382GHPVPHSDM8N0F9141EAH7F0K34Z","","274.19999998807907","img/flower1.png","74","274.80000001192093","1","1","2","2","1,0,0,1,1,0,1,0,1","1,0,0,1,1,0,1,0,1","1",""
"","html-keyboard-response","41","30373","0.0-41.0","3Y5140Z9DY2P932BJQ8EAXQFXXZPIP","A3UMFQFJ8HE82I","382GHPVPHSDM8N0F9141EAH7F0K34Z","","null","<img src=""img/flower1.png"" style=""width:200px; border:14px solid green;"">","null","","","","","","","","",""
"","image-keyboard-response","42","30696","0.0-42.0","3Y5140Z9DY2P932BJQ8EAXQFXXZPIP","A3UMFQFJ8HE82I","382GHPVPHSDM8N0F9141EAH7F0K34Z","","322","img/flower6.png","74","322.60000002384186","1","1","3","2","1,0,0,1,1,0,1,0,1","1,0,0,1,1,0,1,0,1","1",""
"","html-keyboard-response","43","30997","0.0-43.0","3Y5140Z9DY2P932BJQ8EAXQFXXZPIP","A3UMFQFJ8HE82I","382GHPVPHSDM8N0F9141EAH7F0K34Z","","null","<img src=""img/flower6.png"" style=""width:200px; border:14px solid green;"">","null","","","","","","","","",""
"","image-keyboard-response","44","31256","0.0-44.0","3Y5140Z9DY2P932BJQ8EAXQFXXZPIP","A3UMFQFJ8HE82I","382GHPVPHSDM8N0F9141EAH7F0K34Z","","258.09999999403954","img/flower2.png","74","258.7000000178814","1","1","1","2","1,0,0,1,1,0,1,0,1","1,0,0,1,1,0,1,0,1","1",""
"","html-keyboard-response","45","31557","0.0-45.0","3Y5140Z9DY2P932BJQ8EAXQFXXZPIP","A3UMFQFJ8HE82I","382GHPVPHSDM8N0F9141EAH7F0K34Z","","null","<img src=""img/flower2.png"" style=""width:200px; border:14px solid green;"">","null","","","","","","","","",""
"","image-keyboard-response","46","31752","0.0-46.0","3Y5140Z9DY2P932BJQ8EAXQFXXZPIP","A3UMFQFJ8HE82I","382GHPVPHSDM8N0F9141EAH7F0K34Z","","194.09999999403954","img/flower6.png","74","194.5","1","1","3","2","1,0,0,1,1,0,1,0,1","1,0,0,1,1,0,1,0,1","1",""
"","html-keyboard-response","47","32053","0.0-47.0","3Y5140Z9DY2P932BJQ8EAXQFXXZPIP","A3UMFQFJ8HE82I","382GHPVPHSDM8N0F9141EAH7F0K34Z","","null","<img src=""img/flower6.png"" style=""width:200px; border:14px solid green;"">","null","","","","","","","","",""
"","image-keyboard-response","48","32264","0.0-48.0","3Y5140Z9DY2P932BJQ8EAXQFXXZPIP","A3UMFQFJ8HE82I","382GHPVPHSDM8N0F9141EAH7F0K34Z","","209.40000000596046","img/flower1.png","74","210.2000000178814","1","1","2","2","1,0,0,1,1,0,1,0,1","1,0,0,1,1,0,1,0,1","1",""
"","html-keyboard-response","49","32565","0.0-49.0","3Y5140Z9DY2P932BJQ8EAXQFXXZPIP","A3UMFQFJ8HE82I","382GHPVPHSDM8N0F9141EAH7F0K34Z","","null","<img src=""img/flower1.png"" style=""width:200px; border:14px solid green;"">","null","","","","","","","","",""
"","image-keyboard-response","50","32808","0.0-50.0","3Y5140Z9DY2P932BJQ8EAXQFXXZPIP","A3UMFQFJ8HE82I","382GHPVPHSDM8N0F9141EAH7F0K34Z","","241.80000001192093","img/flower6.png","74","242.2999999821186","1","1","3","2","1,0,0,1,1,0,1,0,1","1,0,0,1,1,0,1,0,1","1",""
"","html-keyboard-response","51","33111","0.0-51.0","3Y5140Z9DY2P932BJQ8EAXQFXXZPIP","A3UMFQFJ8HE82I","382GHPVPHSDM8N0F9141EAH7F0K34Z","","null","<img src=""img/flower6.png"" style=""width:200px; border:14px solid green;"">","null","","","","","","","","",""
"","image-keyboard-response","52","33304","0.0-52.0","3Y5140Z9DY2P932BJQ8EAXQFXXZPIP","A3UMFQFJ8HE82I","382GHPVPHSDM8N0F9141EAH7F0K34Z","","191.90000000596046","img/flower1.png","74","192.5","1","1","2","2","1,0,0,1,1,0,1,0,1","1,0,0,1,1,0,1,0,1","1",""
"","html-keyboard-response","53","33606","0.0-53.0","3Y5140Z9DY2P932BJQ8EAXQFXXZPIP","A3UMFQFJ8HE82I","382GHPVPHSDM8N0F9141EAH7F0K34Z","","null","<img src=""img/flower1.png"" style=""width:200px; border:14px solid green;"">","null","","","","","","","","",""
"","image-keyboard-response","54","33784","0.0-54.0","3Y5140Z9DY2P932BJQ8EAXQFXXZPIP","A3UMFQFJ8HE82I","382GHPVPHSDM8N0F9141EAH7F0K34Z","","177.09999999403954","img/flower1.png","74","177.80000001192093","1","1","2","2","1,0,0,1,1,0,1,0,1","1,0,0,1,1,0,1,0,1","1",""
"","html-keyboard-response","55","34093","0.0-55.0","3Y5140Z9DY2P932BJQ8EAXQFXXZPIP","A3UMFQFJ8HE82I","382GHPVPHSDM8N0F9141EAH7F0K34Z","","null","<img src=""img/flower1.png"" style=""width:200px; border:14px solid green;"">","null","","","","","","","","",""
"","image-keyboard-response","56","34248","0.0-56.0","3Y5140Z9DY2P932BJQ8EAXQFXXZPIP","A3UMFQFJ8HE82I","382GHPVPHSDM8N0F9141EAH7F0K34Z","","154.19999998807907","img/flower1.png","74","154.69999998807907","1","1","2","2","1,0,0,1,1,0,1,0,1","1,0,0,1,1,0,1,0,1","1",""
"","html-keyboard-response","57","34550","0.0-57.0","3Y5140Z9DY2P932BJQ8EAXQFXXZPIP","A3UMFQFJ8HE82I","382GHPVPHSDM8N0F9141EAH7F0K34Z","","null","<img src=""img/flower1.png"" style=""width:200px; border:14px solid green;"">","null","","","","","","","","",""
"","image-keyboard-response","58","34712","0.0-58.0","3Y5140Z9DY2P932BJQ8EAXQFXXZPIP","A3UMFQFJ8HE82I","382GHPVPHSDM8N0F9141EAH7F0K34Z","","161.09999999403954","img/flower2.png","74","161.7999999821186","1","1","1","2","1,0,0,1,1,0,1,0,1","1,0,0,1,1,0,1,0,1","1",""
"","html-keyboard-response","59","35013","0.0-59.0","3Y5140Z9DY2P932BJQ8EAXQFXXZPIP","A3UMFQFJ8HE82I","382GHPVPHSDM8N0F9141EAH7F0K34Z","","null","<img src=""img/flower2.png"" style=""width:200px; border:14px solid green;"">","null","","","","","","","","",""
"","image-keyboard-response","60","35112","0.0-60.0","3Y5140Z9DY2P932BJQ8EAXQFXXZPIP","A3UMFQFJ8HE82I","382GHPVPHSDM8N0F9141EAH7F0K34Z","","97.5","img/flower6.png","74","98","1","1","3","2","1,0,0,1,1,0,1,0,1","1,0,0,1,1,0,1,0,1","1",""
"","html-keyboard-response","61","35413","0.0-61.0","3Y5140Z9DY2P932BJQ8EAXQFXXZPIP","A3UMFQFJ8HE82I","382GHPVPHSDM8N0F9141EAH7F0K34Z","","null","<img src=""img/flower6.png"" style=""width:200px; border:14px solid green;"">","null","","","","","","","","",""
"","image-keyboard-response","62","35592","0.0-62.0","3Y5140Z9DY2P932BJQ8EAXQFXXZPIP","A3UMFQFJ8HE82I","382GHPVPHSDM8N0F9141EAH7F0K34Z","","178.30000001192093","img/flower2.png","74","178.7000000178814","1","1","1","2","1,0,0,1,1,0,1,0,1","1,0,0,1,1,0,1,0,1","1",""
"","html-keyboard-response","63","35894","0.0-63.0","3Y5140Z9DY2P932BJQ8EAXQFXXZPIP","A3UMFQFJ8HE82I","382GHPVPHSDM8N0F9141EAH7F0K34Z","","null","<img src=""img/flower2.png"" style=""width:200px; border:14px solid green;"">","null","","","","","","","","",""
"","image-keyboard-response","64","35976","0.0-64.0","3Y5140Z9DY2P932BJQ8EAXQFXXZPIP","A3UMFQFJ8HE82I","382GHPVPHSDM8N0F9141EAH7F0K34Z","","80.80000001192093","img/flower6.png","74","81.40000000596046","1","1","3","2","1,0,0,1,1,0,1,0,1","1,0,0,1,1,0,1,0,1","1",""
"","html-keyboard-response","65","36278","0.0-65.0","3Y5140Z9DY2P932BJQ8EAXQFXXZPIP","A3UMFQFJ8HE82I","382GHPVPHSDM8N0F9141EAH7F0K34Z","","null","<img src=""img/flower6.png"" style=""width:200px; border:14px solid green;"">","null","","","","","","","","",""
"","image-keyboard-response","66","36408","0.0-66.0","3Y5140Z9DY2P932BJQ8EAXQFXXZPIP","A3UMFQFJ8HE82I","382GHPVPHSDM8N0F9141EAH7F0K34Z","","129.2999999821186","img/flower2.png","74","130","1","1","1","2","1,0,0,1,1,0,1,0,1","1,0,0,1,1,0,1,0,1","1",""
"","html-keyboard-response","67","36712","0.0-67.0","3Y5140Z9DY2P932BJQ8EAXQFXXZPIP","A3UMFQFJ8HE82I","382GHPVPHSDM8N0F9141EAH7F0K34Z","","null","<img src=""img/flower2.png"" style=""width:200px; border:14px solid green;"">","null","","","","","","","","",""
"","image-keyboard-response","68","36824","0.0-68.0","3Y5140Z9DY2P932BJQ8EAXQFXXZPIP","A3UMFQFJ8HE82I","382GHPVPHSDM8N0F9141EAH7F0K34Z","","111.5","img/flower6.png","74","112","1","1","3","2","1,0,0,1,1,0,1,0,1","1,0,0,1,1,0,1,0,1","1",""
"","html-keyboard-response","69","37126","0.0-69.0","3Y5140Z9DY2P932BJQ8EAXQFXXZPIP","A3UMFQFJ8HE82I","382GHPVPHSDM8N0F9141EAH7F0K34Z","","null","<img src=""img/flower6.png"" style=""width:200px; border:14px solid green;"">","null","","","","","","","","",""
"","image-keyboard-response","70","37224","0.0-70.0","3Y5140Z9DY2P932BJQ8EAXQFXXZPIP","A3UMFQFJ8HE82I","382GHPVPHSDM8N0F9141EAH7F0K34Z","","96.80000001192093","img/flower1.png","74","97.39999997615814","1","1","2","2","1,0,0,1,1,0,1,0,1","1,0,0,1,1,0,1,0,1","1",""
"","html-keyboard-response","71","37526","0.0-71.0","3Y5140Z9DY2P932BJQ8EAXQFXXZPIP","A3UMFQFJ8HE82I","382GHPVPHSDM8N0F9141EAH7F0K34Z","","null","<img src=""img/flower1.png"" style=""width:200px; border:14px solid green;"">","null","","","","","","","","",""
"","image-keyboard-response","72","37624","0.0-72.0","3Y5140Z9DY2P932BJQ8EAXQFXXZPIP","A3UMFQFJ8HE82I","382GHPVPHSDM8N0F9141EAH7F0K34Z","","97.09999999403954","img/flower2.png","74","97.7000000178814","1","1","1","2","1,0,0,1,1,0,1,0,1","1,0,0,1,1,0,1,0,1","1",""
"","html-keyboard-response","73","37926","0.0-73.0","3Y5140Z9DY2P932BJQ8EAXQFXXZPIP","A3UMFQFJ8HE82I","382GHPVPHSDM8N0F9141EAH7F0K34Z","","null","<img src=""img/flower2.png"" style=""width:200px; border:14px solid green;"">","null","","","","","","","","",""
"","image-keyboard-response","74","38024","0.0-74.0","3Y5140Z9DY2P932BJQ8EAXQFXXZPIP","A3UMFQFJ8HE82I","382GHPVPHSDM8N0F9141EAH7F0K34Z","","96.90000000596046","img/flower1.png","74","97.80000001192093","1","1","2","2","1,0,0,1,1,0,1,0,1","1,0,0,1,1,0,1,0,1","1",""
"","html-keyboard-response","75","38326","0.0-75.0","3Y5140Z9DY2P932BJQ8EAXQFXXZPIP","A3UMFQFJ8HE82I","382GHPVPHSDM8N0F9141EAH7F0K34Z","","null","<img src=""img/flower1.png"" style=""width:200px; border:14px solid green;"">","null","","","","","","","","",""
"","image-keyboard-response","76","38408","0.0-76.0","3Y5140Z9DY2P932BJQ8EAXQFXXZPIP","A3UMFQFJ8HE82I","382GHPVPHSDM8N0F9141EAH7F0K34Z","","80.59999999403954","img/flower6.png","74","81.39999997615814","1","1","3","2","1,0,0,1,1,0,1,0,1","1,0,0,1,1,0,1,0,1","1",""
"","html-keyboard-response","77","38709","0.0-77.0","3Y5140Z9DY2P932BJQ8EAXQFXXZPIP","A3UMFQFJ8HE82I","382GHPVPHSDM8N0F9141EAH7F0K34Z","","null","<img src=""img/flower6.png"" style=""width:200px; border:14px solid green;"">","null","","","","","","","","",""
"","image-keyboard-response","78","38824","0.0-78.0","3Y5140Z9DY2P932BJQ8EAXQFXXZPIP","A3UMFQFJ8HE82I","382GHPVPHSDM8N0F9141EAH7F0K34Z","","113.40000000596046","img/flower2.png","74","114","1","1","1","2","1,0,0,1,1,0,1,0,1","1,0,0,1,1,0,1,0,1","1",""
"","html-keyboard-response","79","39125","0.0-79.0","3Y5140Z9DY2P932BJQ8EAXQFXXZPIP","A3UMFQFJ8HE82I","382GHPVPHSDM8N0F9141EAH7F0K34Z","","null","<img src=""img/flower2.png"" style=""width:200px; border:14px solid green;"">","null","","","","","","","","",""
"","image-keyboard-response","80","39208","0.0-80.0","3Y5140Z9DY2P932BJQ8EAXQFXXZPIP","A3UMFQFJ8HE82I","382GHPVPHSDM8N0F9141EAH7F0K34Z","","82.40000000596046","img/flower6.png","74","82.90000000596046","1","1","3","2","1,0,0,1,1,0,1,0,1","1,0,0,1,1,0,1,0,1","1",""
"","html-keyboard-response","81","39510","0.0-81.0","3Y5140Z9DY2P932BJQ8EAXQFXXZPIP","A3UMFQFJ8HE82I","382GHPVPHSDM8N0F9141EAH7F0K34Z","","null","<img src=""img/flower6.png"" style=""width:200px; border:14px solid green;"">","null","","","","","","","","",""
"","image-keyboard-response","82","39592","0.0-82.0","3Y5140Z9DY2P932BJQ8EAXQFXXZPIP","A3UMFQFJ8HE82I","382GHPVPHSDM8N0F9141EAH7F0K34Z","","81.19999998807907","img/flower2.png","74","81.7999999821186","1","1","1","2","1,0,0,1,1,0,1,0,1","1,0,0,1,1,0,1,0,1","1",""
"","html-keyboard-response","83","39893","0.0-83.0","3Y5140Z9DY2P932BJQ8EAXQFXXZPIP","A3UMFQFJ8HE82I","382GHPVPHSDM8N0F9141EAH7F0K34Z","","null","<img src=""img/flower2.png"" style=""width:200px; border:14px solid green;"">","null","","","","","","","","",""
"","image-keyboard-response","84","39976","0.0-84.0","3Y5140Z9DY2P932BJQ8EAXQFXXZPIP","A3UMFQFJ8HE82I","382GHPVPHSDM8N0F9141EAH7F0K34Z","","81.7000000178814","img/flower2.png","74","82.09999999403954","1","1","1","2","1,0,0,1,1,0,1,0,1","1,0,0,1,1,0,1,0,1","1",""
"","html-keyboard-response","85","40277","0.0-85.0","3Y5140Z9DY2P932BJQ8EAXQFXXZPIP","A3UMFQFJ8HE82I","382GHPVPHSDM8N0F9141EAH7F0K34Z","","null","<img src=""img/flower2.png"" style=""width:200px; border:14px solid green;"">","null","","","","","","","","",""
"","image-keyboard-response","86","40360","0.0-86.0","3Y5140Z9DY2P932BJQ8EAXQFXXZPIP","A3UMFQFJ8HE82I","382GHPVPHSDM8N0F9141EAH7F0K34Z","","81.69999998807907","img/flower1.png","74","82.39999997615814","1","1","2","2","1,0,0,1,1,0,1,0,1","1,0,0,1,1,0,1,0,1","1",""
"","html-keyboard-response","87","40661","0.0-87.0","3Y5140Z9DY2P932BJQ8EAXQFXXZPIP","A3UMFQFJ8HE82I","382GHPVPHSDM8N0F9141EAH7F0K34Z","","null","<img src=""img/flower1.png"" style=""width:200px; border:14px solid green;"">","null","","","","","","","","",""
"","image-keyboard-response","88","40712","0.0-88.0","3Y5140Z9DY2P932BJQ8EAXQFXXZPIP","A3UMFQFJ8HE82I","382GHPVPHSDM8N0F9141EAH7F0K34Z","","50","img/flower1.png","74","50.599999994039536","1","1","2","2","1,0,0,1,1,0,1,0,1","1,0,0,1,1,0,1,0,1","1",""
"","html-keyboard-response","89","41014","0.0-89.0","3Y5140Z9DY2P932BJQ8EAXQFXXZPIP","A3UMFQFJ8HE82I","382GHPVPHSDM8N0F9141EAH7F0K34Z","","null","<img src=""img/flower1.png"" style=""width:200px; border:14px solid green;"">","null","","","","","","","","",""
"","image-keyboard-response","90","41048","0.0-90.0","3Y5140Z9DY2P932BJQ8EAXQFXXZPIP","A3UMFQFJ8HE82I","382GHPVPHSDM8N0F9141EAH7F0K34Z","","32.900000005960464","img/flower1.png","74","33.5","1","1","2","2","1,0,0,1,1,0,1,0,1","1,0,0,1,1,0,1,0,1","1",""
"","html-keyboard-response","91","41350","0.0-91.0","3Y5140Z9DY2P932BJQ8EAXQFXXZPIP","A3UMFQFJ8HE82I","382GHPVPHSDM8N0F9141EAH7F0K34Z","","null","<img src=""img/flower1.png"" style=""width:200px; border:14px solid green;"">","null","","","","","","","","",""
"","image-keyboard-response","92","41512","0.0-92.0","3Y5140Z9DY2P932BJQ8EAXQFXXZPIP","A3UMFQFJ8HE82I","382GHPVPHSDM8N0F9141EAH7F0K34Z","","161","img/flower2.png","74","161.59999999403954","1","1","1","2","1,0,0,1,1,0,1,0,1","1,0,0,1,1,0,1,0,1","1",""
"","html-keyboard-response","93","41813","0.0-93.0","3Y5140Z9DY2P932BJQ8EAXQFXXZPIP","A3UMFQFJ8HE82I","382GHPVPHSDM8N0F9141EAH7F0K34Z","","null","<img src=""img/flower2.png"" style=""width:200px; border:14px solid green;"">","null","","","","","","","","",""
"","image-keyboard-response","94","41928","0.0-94.0","3Y5140Z9DY2P932BJQ8EAXQFXXZPIP","A3UMFQFJ8HE82I","382GHPVPHSDM8N0F9141EAH7F0K34Z","","114.30000001192093","img/flower2.png","74","115","1","1","1","2","1,0,0,1,1,0,1,0,1","1,0,0,1,1,0,1,0,1","1",""
"","html-keyboard-response","95","42229","0.0-95.0","3Y5140Z9DY2P932BJQ8EAXQFXXZPIP","A3UMFQFJ8HE82I","382GHPVPHSDM8N0F9141EAH7F0K34Z","","null","<img src=""img/flower2.png"" style=""width:200px; border:14px solid green;"">","null","","","","","","","","",""
"","image-keyboard-response","96","42408","0.0-96.0","3Y5140Z9DY2P932BJQ8EAXQFXXZPIP","A3UMFQFJ8HE82I","382GHPVPHSDM8N0F9141EAH7F0K34Z","","177.7999999821186","img/flower6.png","74","178.59999999403954","1","1","3","2","1,0,0,1,1,0,1,0,1","1,0,0,1,1,0,1,0,1","1",""
"","html-keyboard-response","97","42710","0.0-97.0","3Y5140Z9DY2P932BJQ8EAXQFXXZPIP","A3UMFQFJ8HE82I","382GHPVPHSDM8N0F9141EAH7F0K34Z","","null","<img src=""img/flower6.png"" style=""width:200px; border:14px solid green;"">","null","","","","","","","","",""
"","image-keyboard-response","98","42824","0.0-98.0","3Y5140Z9DY2P932BJQ8EAXQFXXZPIP","A3UMFQFJ8HE82I","382GHPVPHSDM8N0F9141EAH7F0K34Z","","112.69999998807907","img/flower2.png","74","113.2999999821186","1","1","1","2","1,0,0,1,1,0,1,0,1","1,0,0,1,1,0,1,0,1","1",""
"","html-keyboard-response","99","43125","0.0-99.0","3Y5140Z9DY2P932BJQ8EAXQFXXZPIP","A3UMFQFJ8HE82I","382GHPVPHSDM8N0F9141EAH7F0K34Z","","null","<img src=""img/flower2.png"" style=""width:200px; border:14px solid green;"">","null","","","","","","","","",""
"","image-keyboard-response","100","43336","0.0-100.0","3Y5140Z9DY2P932BJQ8EAXQFXXZPIP","A3UMFQFJ8HE82I","382GHPVPHSDM8N0F9141EAH7F0K34Z","","210.19999998807907","img/flower1.png","74","210.69999998807907","1","1","2","2","1,0,0,1,1,0,1,0,1","1,0,0,1,1,0,1,0,1","1",""
"","html-keyboard-response","101","43637","0.0-101.0","3Y5140Z9DY2P932BJQ8EAXQFXXZPIP","A3UMFQFJ8HE82I","382GHPVPHSDM8N0F9141EAH7F0K34Z","","null","<img src=""img/flower1.png"" style=""width:200px; border:14px solid green;"">","null","","","","","","","","",""
"","image-keyboard-response","102","43864","0.0-102.0","3Y5140Z9DY2P932BJQ8EAXQFXXZPIP","A3UMFQFJ8HE82I","382GHPVPHSDM8N0F9141EAH7F0K34Z","","226.09999999403954","img/flower2.png","74","226.59999999403954","1","1","1","2","1,0,0,1,1,0,1,0,1","1,0,0,1,1,0,1,0,1","1",""
"","html-keyboard-response","103","44165","0.0-103.0","3Y5140Z9DY2P932BJQ8EAXQFXXZPIP","A3UMFQFJ8HE82I","382GHPVPHSDM8N0F9141EAH7F0K34Z","","null","<img src=""img/flower2.png"" style=""width:200px; border:14px solid green;"">","null","","","","","","","","",""
"","image-keyboard-response","104","44360","0.0-104.0","3Y5140Z9DY2P932BJQ8EAXQFXXZPIP","A3UMFQFJ8HE82I","382GHPVPHSDM8N0F9141EAH7F0K34Z","","194.09999999403954","img/flower1.png","74","194.59999999403954","1","1","2","2","1,0,0,1,1,0,1,0,1","1,0,0,1,1,0,1,0,1","1",""
"","html-keyboard-response","105","44661","0.0-105.0","3Y5140Z9DY2P932BJQ8EAXQFXXZPIP","A3UMFQFJ8HE82I","382GHPVPHSDM8N0F9141EAH7F0K34Z","","null","<img src=""img/flower1.png"" style=""width:200px; border:14px solid green;"">","null","","","","","","","","",""
"","image-keyboard-response","106","44808","0.0-106.0","3Y5140Z9DY2P932BJQ8EAXQFXXZPIP","A3UMFQFJ8HE82I","382GHPVPHSDM8N0F9141EAH7F0K34Z","","146","img/flower6.png","74","146.40000000596046","1","1","3","2","1,0,0,1,1,0,1,0,1","1,0,0,1,1,0,1,0,1","1",""
"","html-keyboard-response","107","45110","0.0-107.0","3Y5140Z9DY2P932BJQ8EAXQFXXZPIP","A3UMFQFJ8HE82I","382GHPVPHSDM8N0F9141EAH7F0K34Z","","null","<img src=""img/flower6.png"" style=""width:200px; border:14px solid green;"">","null","","","","","","","","",""
"","image-keyboard-response","108","45240","0.0-108.0","3Y5140Z9DY2P932BJQ8EAXQFXXZPIP","A3UMFQFJ8HE82I","382GHPVPHSDM8N0F9141EAH7F0K34Z","","128.80000001192093","img/flower1.png","74","129.40000000596046","1","1","2","2","1,0,0,1,1,0,1,0,1","1,0,0,1,1,0,1,0,1","1",""
"","html-keyboard-response","109","45544","0.0-109.0","3Y5140Z9DY2P932BJQ8EAXQFXXZPIP","A3UMFQFJ8HE82I","382GHPVPHSDM8N0F9141EAH7F0K34Z","","null","<img src=""img/flower1.png"" style=""width:200px; border:14px solid green;"">","null","","","","","","","","",""
"","image-keyboard-response","110","45673","0.0-110.0","3Y5140Z9DY2P932BJQ8EAXQFXXZPIP","A3UMFQFJ8HE82I","382GHPVPHSDM8N0F9141EAH7F0K34Z","","128","img/flower6.png","74","128.59999999403954","1","1","3","2","1,0,0,1,1,0,1,0,1","1,0,0,1,1,0,1,0,1","1",""
"","html-keyboard-response","111","45975","0.0-111.0","3Y5140Z9DY2P932BJQ8EAXQFXXZPIP","A3UMFQFJ8HE82I","382GHPVPHSDM8N0F9141EAH7F0K34Z","","null","<img src=""img/flower6.png"" style=""width:200px; border:14px solid green;"">","null","","","","","","","","",""
"","image-keyboard-response","112","46168","0.0-112.0","3Y5140Z9DY2P932BJQ8EAXQFXXZPIP","A3UMFQFJ8HE82I","382GHPVPHSDM8N0F9141EAH7F0K34Z","","192.59999999403954","img/flower6.png","74","193.19999998807907","1","1","3","2","1,0,0,1,1,0,1,0,1","1,0,0,1,1,0,1,0,1","1",""
"","html-keyboard-response","113","46469","0.0-113.0","3Y5140Z9DY2P932BJQ8EAXQFXXZPIP","A3UMFQFJ8HE82I","382GHPVPHSDM8N0F9141EAH7F0K34Z","","null","<img src=""img/flower6.png"" style=""width:200px; border:14px solid green;"">","null","","","","","","","","",""
"","image-keyboard-response","114","46632","0.0-114.0","3Y5140Z9DY2P932BJQ8EAXQFXXZPIP","A3UMFQFJ8HE82I","382GHPVPHSDM8N0F9141EAH7F0K34Z","","161.59999999403954","img/flower1.png","74","162.30000001192093","1","1","2","2","1,0,0,1,1,0,1,0,1","1,0,0,1,1,0,1,0,1","1",""
"","html-keyboard-response","115","46935","0.0-115.0","3Y5140Z9DY2P932BJQ8EAXQFXXZPIP","A3UMFQFJ8HE82I","382GHPVPHSDM8N0F9141EAH7F0K34Z","","null","<img src=""img/flower1.png"" style=""width:200px; border:14px solid green;"">","null","","","","","","","","",""
"","image-keyboard-response","116","47080","0.0-116.0","3Y5140Z9DY2P932BJQ8EAXQFXXZPIP","A3UMFQFJ8HE82I","382GHPVPHSDM8N0F9141EAH7F0K34Z","","144.7000000178814","img/flower2.png","74","145.5","1","1","1","2","1,0,0,1,1,0,1,0,1","1,0,0,1,1,0,1,0,1","1",""
"","html-keyboard-response","117","47381","0.0-117.0","3Y5140Z9DY2P932BJQ8EAXQFXXZPIP","A3UMFQFJ8HE82I","382GHPVPHSDM8N0F9141EAH7F0K34Z","","null","<img src=""img/flower2.png"" style=""width:200px; border:14px solid green;"">","null","","","","","","","","",""
"","image-keyboard-response","118","47544","0.0-118.0","3Y5140Z9DY2P932BJQ8EAXQFXXZPIP","A3UMFQFJ8HE82I","382GHPVPHSDM8N0F9141EAH7F0K34Z","","161.90000000596046","img/flower2.png","74","162.30000001192093","1","1","1","2","1,0,0,1,1,0,1,0,1","1,0,0,1,1,0,1,0,1","1",""
"","html-keyboard-response","119","47845","0.0-119.0","3Y5140Z9DY2P932BJQ8EAXQFXXZPIP","A3UMFQFJ8HE82I","382GHPVPHSDM8N0F9141EAH7F0K34Z","","null","<img src=""img/flower2.png"" style=""width:200px; border:14px solid green;"">","null","","","","","","","","",""
"","image-keyboard-response","120","48008","0.0-120.0","3Y5140Z9DY2P932BJQ8EAXQFXXZPIP","A3UMFQFJ8HE82I","382GHPVPHSDM8N0F9141EAH7F0K34Z","","162.2000000178814","img/flower6.png","74","163","1","1","3","2","1,0,0,1,1,0,1,0,1","1,0,0,1,1,0,1,0,1","1",""
"","html-keyboard-response","121","48309","0.0-121.0","3Y5140Z9DY2P932BJQ8EAXQFXXZPIP","A3UMFQFJ8HE82I","382GHPVPHSDM8N0F9141EAH7F0K34Z","","null","<img src=""img/flower6.png"" style=""width:200px; border:14px solid green;"">","null","","","","","","","","",""
"","image-keyboard-response","122","48440","0.0-122.0","3Y5140Z9DY2P932BJQ8EAXQFXXZPIP","A3UMFQFJ8HE82I","382GHPVPHSDM8N0F9141EAH7F0K34Z","","129.80000001192093","img/flower6.png","74","130.40000000596046","1","1","3","2","1,0,0,1,1,0,1,0,1","1,0,0,1,1,0,1,0,1","1",""
"","html-keyboard-response","123","48742","0.0-123.0","3Y5140Z9DY2P932BJQ8EAXQFXXZPIP","A3UMFQFJ8HE82I","382GHPVPHSDM8N0F9141EAH7F0K34Z","","null","<img src=""img/flower6.png"" style=""width:200px; border:14px solid green;"">","null","","","","","","","","",""
"","image-keyboard-response","124","48904","0.0-124.0","3Y5140Z9DY2P932BJQ8EAXQFXXZPIP","A3UMFQFJ8HE82I","382GHPVPHSDM8N0F9141EAH7F0K34Z","","161.30000001192093","img/flower2.png","74","162.09999999403954","1","1","1","2","1,0,0,1,1,0,1,0,1","1,0,0,1,1,0,1,0,1","1",""
"","html-keyboard-response","125","49205","0.0-125.0","3Y5140Z9DY2P932BJQ8EAXQFXXZPIP","A3UMFQFJ8HE82I","382GHPVPHSDM8N0F9141EAH7F0K34Z","","null","<img src=""img/flower2.png"" style=""width:200px; border:14px solid green;"">","null","","","","","","","","",""
"","image-keyboard-response","126","49384","0.0-126.0","3Y5140Z9DY2P932BJQ8EAXQFXXZPIP","A3UMFQFJ8HE82I","382GHPVPHSDM8N0F9141EAH7F0K34Z","","178","img/flower6.png","74","178.59999999403954","1","1","3","2","1,0,0,1,1,0,1,0,1","1,0,0,1,1,0,1,0,1","1",""
"","html-keyboard-response","127","49685","0.0-127.0","3Y5140Z9DY2P932BJQ8EAXQFXXZPIP","A3UMFQFJ8HE82I","382GHPVPHSDM8N0F9141EAH7F0K34Z","","null","<img src=""img/flower6.png"" style=""width:200px; border:14px solid green;"">","null","","","","","","","","",""
"","image-keyboard-response","128","49848","0.0-128.0","3Y5140Z9DY2P932BJQ8EAXQFXXZPIP","A3UMFQFJ8HE82I","382GHPVPHSDM8N0F9141EAH7F0K34Z","","162.2000000178814","img/flower6.png","74","162.7000000178814","1","1","3","2","1,0,0,1,1,0,1,0,1","1,0,0,1,1,0,1,0,1","1",""
"","html-keyboard-response","129","50150","0.0-129.0","3Y5140Z9DY2P932BJQ8EAXQFXXZPIP","A3UMFQFJ8HE82I","382GHPVPHSDM8N0F9141EAH7F0K34Z","","null","<img src=""img/flower6.png"" style=""width:200px; border:14px solid green;"">","null","","","","","","","","",""
"","image-keyboard-response","130","50232","0.0-130.0","3Y5140Z9DY2P932BJQ8EAXQFXXZPIP","A3UMFQFJ8HE82I","382GHPVPHSDM8N0F9141EAH7F0K34Z","","81.5","img/flower2.png","74","82","1","1","1","2","1,0,0,1,1,0,1,0,1","1,0,0,1,1,0,1,0,1","1",""
"","html-keyboard-response","131","50534","0.0-131.0","3Y5140Z9DY2P932BJQ8EAXQFXXZPIP","A3UMFQFJ8HE82I","382GHPVPHSDM8N0F9141EAH7F0K34Z","","null","<img src=""img/flower2.png"" style=""width:200px; border:14px solid green;"">","null","","","","","","","","",""
"","image-keyboard-response","132","50696","0.0-132.0","3Y5140Z9DY2P932BJQ8EAXQFXXZPIP","A3UMFQFJ8HE82I","382GHPVPHSDM8N0F9141EAH7F0K34Z","","161.2000000178814","img/flower2.png","74","161.80000001192093","1","1","1","2","1,0,0,1,1,0,1,0,1","1,0,0,1,1,0,1,0,1","1",""
"","html-keyboard-response","133","50998","0.0-133.0","3Y5140Z9DY2P932BJQ8EAXQFXXZPIP","A3UMFQFJ8HE82I","382GHPVPHSDM8N0F9141EAH7F0K34Z","","null","<img src=""img/flower2.png"" style=""width:200px; border:14px solid green;"">","null","","","","","","","","",""
"","image-keyboard-response","134","51112","0.0-134.0","3Y5140Z9DY2P932BJQ8EAXQFXXZPIP","A3UMFQFJ8HE82I","382GHPVPHSDM8N0F9141EAH7F0K34Z","","113.30000001192093","img/flower1.png","74","114.80000001192093","1","1","2","2","1,0,0,1,1,0,1,0,1","1,0,0,1,1,0,1,0,1","1",""
"","html-keyboard-response","135","51415","0.0-135.0","3Y5140Z9DY2P932BJQ8EAXQFXXZPIP","A3UMFQFJ8HE82I","382GHPVPHSDM8N0F9141EAH7F0K34Z","","null","<img src=""img/flower1.png"" style=""width:200px; border:14px solid green;"">","null","","","","","","","","",""
"","image-keyboard-response","136","51560","0.0-136.0","3Y5140Z9DY2P932BJQ8EAXQFXXZPIP","A3UMFQFJ8HE82I","382GHPVPHSDM8N0F9141EAH7F0K34Z","","144.19999998807907","img/flower6.png","74","144.80000001192093","1","1","3","2","1,0,0,1,1,0,1,0,1","1,0,0,1,1,0,1,0,1","1",""
"","html-keyboard-response","137","51872","0.0-137.0","3Y5140Z9DY2P932BJQ8EAXQFXXZPIP","A3UMFQFJ8HE82I","382GHPVPHSDM8N0F9141EAH7F0K34Z","","null","<img src=""img/flower6.png"" style=""width:200px; border:14px solid green;"">","null","","","","","","","","",""
"","image-keyboard-response","138","51992","0.0-138.0","3Y5140Z9DY2P932BJQ8EAXQFXXZPIP","A3UMFQFJ8HE82I","382GHPVPHSDM8N0F9141EAH7F0K34Z","","119.10000002384186","img/flower1.png","74","120.19999998807907","1","1","2","2","1,0,0,1,1,0,1,0,1","1,0,0,1,1,0,1,0,1","1",""
"","html-keyboard-response","139","52307","0.0-139.0","3Y5140Z9DY2P932BJQ8EAXQFXXZPIP","A3UMFQFJ8HE82I","382GHPVPHSDM8N0F9141EAH7F0K34Z","","null","<img src=""img/flower1.png"" style=""width:200px; border:14px solid green;"">","null","","","","","","","","",""
"","image-keyboard-response","140","52456","0.0-140.0","3Y5140Z9DY2P932BJQ8EAXQFXXZPIP","A3UMFQFJ8HE82I","382GHPVPHSDM8N0F9141EAH7F0K34Z","","147.89999997615814","img/flower2.png","74","148.40000000596046","1","1","1","2","1,0,0,1,1,0,1,0,1","1,0,0,1,1,0,1,0,1","1",""
"","html-keyboard-response","141","52757","0.0-141.0","3Y5140Z9DY2P932BJQ8EAXQFXXZPIP","A3UMFQFJ8HE82I","382GHPVPHSDM8N0F9141EAH7F0K34Z","","null","<img src=""img/flower2.png"" style=""width:200px; border:14px solid green;"">","null","","","","","","","","",""
"","image-keyboard-response","142","52904","0.0-142.0","3Y5140Z9DY2P932BJQ8EAXQFXXZPIP","A3UMFQFJ8HE82I","382GHPVPHSDM8N0F9141EAH7F0K34Z","","146.2000000178814","img/flower2.png","74","146.69999998807907","1","1","1","2","1,0,0,1,1,0,1,0,1","1,0,0,1,1,0,1,0,1","1",""
"","html-keyboard-response","143","53205","0.0-143.0","3Y5140Z9DY2P932BJQ8EAXQFXXZPIP","A3UMFQFJ8HE82I","382GHPVPHSDM8N0F9141EAH7F0K34Z","","null","<img src=""img/flower2.png"" style=""width:200px; border:14px solid green;"">","null","","","","","","","","",""
"","image-keyboard-response","144","53400","0.0-144.0","3Y5140Z9DY2P932BJQ8EAXQFXXZPIP","A3UMFQFJ8HE82I","382GHPVPHSDM8N0F9141EAH7F0K34Z","","193.30000001192093","img/flower1.png","74","194.5","1","1","2","2","1,0,0,1,1,0,1,0,1","1,0,0,1,1,0,1,0,1","1",""
"","html-keyboard-response","145","53702","0.0-145.0","3Y5140Z9DY2P932BJQ8EAXQFXXZPIP","A3UMFQFJ8HE82I","382GHPVPHSDM8N0F9141EAH7F0K34Z","","null","<img src=""img/flower1.png"" style=""width:200px; border:14px solid green;"">","null","","","","","","","","",""
"","image-keyboard-response","146","53816","0.0-146.0","3Y5140Z9DY2P932BJQ8EAXQFXXZPIP","A3UMFQFJ8HE82I","382GHPVPHSDM8N0F9141EAH7F0K34Z","","113.2999999821186","img/flower1.png","74","113.69999998807907","1","1","2","2","1,0,0,1,1,0,1,0,1","1,0,0,1,1,0,1,0,1","1",""
"","html-keyboard-response","147","54118","0.0-147.0","3Y5140Z9DY2P932BJQ8EAXQFXXZPIP","A3UMFQFJ8HE82I","382GHPVPHSDM8N0F9141EAH7F0K34Z","","null","<img src=""img/flower1.png"" style=""width:200px; border:14px solid green;"">","null","","","","","","","","",""
"","image-keyboard-response","148","54248","0.0-148.0","3Y5140Z9DY2P932BJQ8EAXQFXXZPIP","A3UMFQFJ8HE82I","382GHPVPHSDM8N0F9141EAH7F0K34Z","","129.2999999821186","img/flower1.png","74","130","1","1","2","2","1,0,0,1,1,0,1,0,1","1,0,0,1,1,0,1,0,1","1",""
"","html-keyboard-response","149","54549","0.0-149.0","3Y5140Z9DY2P932BJQ8EAXQFXXZPIP","A3UMFQFJ8HE82I","382GHPVPHSDM8N0F9141EAH7F0K34Z","","null","<img src=""img/flower1.png"" style=""width:200px; border:14px solid green;"">","null","","","","","","","","",""
"","image-keyboard-response","150","54696","0.0-150.0","3Y5140Z9DY2P932BJQ8EAXQFXXZPIP","A3UMFQFJ8HE82I","382GHPVPHSDM8N0F9141EAH7F0K34Z","","146.10000002384186","img/flower6.png","74","146.80000001192093","1","1","3","2","1,0,0,1,1,0,1,0,1","1,0,0,1,1,0,1,0,1","1",""
"","html-keyboard-response","151","54999","0.0-151.0","3Y5140Z9DY2P932BJQ8EAXQFXXZPIP","A3UMFQFJ8HE82I","382GHPVPHSDM8N0F9141EAH7F0K34Z","","null","<img src=""img/flower6.png"" style=""width:200px; border:14px solid green;"">","null","","","","","","","","",""
"","image-keyboard-response","152","55128","0.0-152.0","3Y5140Z9DY2P932BJQ8EAXQFXXZPIP","A3UMFQFJ8HE82I","382GHPVPHSDM8N0F9141EAH7F0K34Z","","128.2999999821186","img/flower6.png","74","129.09999999403954","1","1","3","2","1,0,0,1,1,0,1,0,1","1,0,0,1,1,0,1,0,1","1",""
"","html-keyboard-response","153","55430","0.0-153.0","3Y5140Z9DY2P932BJQ8EAXQFXXZPIP","A3UMFQFJ8HE82I","382GHPVPHSDM8N0F9141EAH7F0K34Z","","null","<img src=""img/flower6.png"" style=""width:200px; border:14px solid green;"">","null","","","","","","","","",""
"","image-keyboard-response","154","55576","0.0-154.0","3Y5140Z9DY2P932BJQ8EAXQFXXZPIP","A3UMFQFJ8HE82I","382GHPVPHSDM8N0F9141EAH7F0K34Z","","145.5","img/flower1.png","74","146.2999999821186","1","1","2","2","1,0,0,1,1,0,1,0,1","1,0,0,1,1,0,1,0,1","1",""
"","html-keyboard-response","155","55877","0.0-155.0","3Y5140Z9DY2P932BJQ8EAXQFXXZPIP","A3UMFQFJ8HE82I","382GHPVPHSDM8N0F9141EAH7F0K34Z","","null","<img src=""img/flower1.png"" style=""width:200px; border:14px solid green;"">","null","","","","","","","","",""
"","image-keyboard-response","156","56056","0.0-156.0","3Y5140Z9DY2P932BJQ8EAXQFXXZPIP","A3UMFQFJ8HE82I","382GHPVPHSDM8N0F9141EAH7F0K34Z","","178","img/flower2.png","74","178.69999998807907","1","1","1","2","1,0,0,1,1,0,1,0,1","1,0,0,1,1,0,1,0,1","1",""
"","html-keyboard-response","157","56358","0.0-157.0","3Y5140Z9DY2P932BJQ8EAXQFXXZPIP","A3UMFQFJ8HE82I","382GHPVPHSDM8N0F9141EAH7F0K34Z","","null","<img src=""img/flower2.png"" style=""width:200px; border:14px solid green;"">","null","","","","","","","","",""
"","image-keyboard-response","158","56504","0.0-158.0","3Y5140Z9DY2P932BJQ8EAXQFXXZPIP","A3UMFQFJ8HE82I","382GHPVPHSDM8N0F9141EAH7F0K34Z","","145.09999999403954","img/flower6.png","74","145.5","1","1","3","2","1,0,0,1,1,0,1,0,1","1,0,0,1,1,0,1,0,1","1",""
"","html-keyboard-response","159","56805","0.0-159.0","3Y5140Z9DY2P932BJQ8EAXQFXXZPIP","A3UMFQFJ8HE82I","382GHPVPHSDM8N0F9141EAH7F0K34Z","","null","<img src=""img/flower6.png"" style=""width:200px; border:14px solid green;"">","null","","","","","","","","",""
"","image-keyboard-response","160","56968","0.0-160.0","3Y5140Z9DY2P932BJQ8EAXQFXXZPIP","A3UMFQFJ8HE82I","382GHPVPHSDM8N0F9141EAH7F0K34Z","","161.59999999403954","img/flower6.png","74","162.2000000178814","1","1","3","2","1,0,0,1,1,0,1,0,1","1,0,0,1,1,0,1,0,1","1",""
"","html-keyboard-response","161","57269","0.0-161.0","3Y5140Z9DY2P932BJQ8EAXQFXXZPIP","A3UMFQFJ8HE82I","382GHPVPHSDM8N0F9141EAH7F0K34Z","","null","<img src=""img/flower6.png"" style=""width:200px; border:14px solid green;"">","null","","","","","","","","",""
"","image-keyboard-response","162","57384","0.0-162.0","3Y5140Z9DY2P932BJQ8EAXQFXXZPIP","A3UMFQFJ8HE82I","382GHPVPHSDM8N0F9141EAH7F0K34Z","","114.09999999403954","img/flower6.png","74","114.7000000178814","1","1","3","2","1,0,0,1,1,0,1,0,1","1,0,0,1,1,0,1,0,1","1",""
"","html-keyboard-response","163","57686","0.0-163.0","3Y5140Z9DY2P932BJQ8EAXQFXXZPIP","A3UMFQFJ8HE82I","382GHPVPHSDM8N0F9141EAH7F0K34Z","","null","<img src=""img/flower6.png"" style=""width:200px; border:14px solid green;"">","null","","","","","","","","",""
"","image-keyboard-response","164","57816","0.0-164.0","3Y5140Z9DY2P932BJQ8EAXQFXXZPIP","A3UMFQFJ8HE82I","382GHPVPHSDM8N0F9141EAH7F0K34Z","","129.19999998807907","img/flower2.png","74","130","1","1","1","2","1,0,0,1,1,0,1,0,1","1,0,0,1,1,0,1,0,1","1",""
"","html-keyboard-response","165","58119","0.0-165.0","3Y5140Z9DY2P932BJQ8EAXQFXXZPIP","A3UMFQFJ8HE82I","382GHPVPHSDM8N0F9141EAH7F0K34Z","","null","<img src=""img/flower2.png"" style=""width:200px; border:14px solid green;"">","null","","","","","","","","",""
"","image-keyboard-response","166","58200","0.0-166.0","3Y5140Z9DY2P932BJQ8EAXQFXXZPIP","A3UMFQFJ8HE82I","382GHPVPHSDM8N0F9141EAH7F0K34Z","","80.5","img/flower1.png","74","81.09999999403954","1","1","2","2","1,0,0,1,1,0,1,0,1","1,0,0,1,1,0,1,0,1","1",""
"","html-keyboard-response","167","58503","0.0-167.0","3Y5140Z9DY2P932BJQ8EAXQFXXZPIP","A3UMFQFJ8HE82I","382GHPVPHSDM8N0F9141EAH7F0K34Z","","null","<img src=""img/flower1.png"" style=""width:200px; border:14px solid green;"">","null","","","","","","","","",""
"","image-keyboard-response","168","58616","0.0-168.0","3Y5140Z9DY2P932BJQ8EAXQFXXZPIP","A3UMFQFJ8HE82I","382GHPVPHSDM8N0F9141EAH7F0K34Z","","111.90000000596046","img/flower2.png","74","112.60000002384186","1","1","1","2","1,0,0,1,1,0,1,0,1","1,0,0,1,1,0,1,0,1","1",""
"","html-keyboard-response","169","58917","0.0-169.0","3Y5140Z9DY2P932BJQ8EAXQFXXZPIP","A3UMFQFJ8HE82I","382GHPVPHSDM8N0F9141EAH7F0K34Z","","null","<img src=""img/flower2.png"" style=""width:200px; border:14px solid green;"">","null","","","","","","","","",""
"","image-keyboard-response","170","58984","0.0-170.0","3Y5140Z9DY2P932BJQ8EAXQFXXZPIP","A3UMFQFJ8HE82I","382GHPVPHSDM8N0F9141EAH7F0K34Z","","66.09999999403954","img/flower2.png","74","66.7000000178814","1","1","1","2","1,0,0,1,1,0,1,0,1","1,0,0,1,1,0,1,0,1","1",""
"","html-keyboard-response","171","59285","0.0-171.0","3Y5140Z9DY2P932BJQ8EAXQFXXZPIP","A3UMFQFJ8HE82I","382GHPVPHSDM8N0F9141EAH7F0K34Z","","null","<img src=""img/flower2.png"" style=""width:200px; border:14px solid green;"">","null","","","","","","","","",""
"","image-keyboard-response","172","59448","0.0-172.0","3Y5140Z9DY2P932BJQ8EAXQFXXZPIP","A3UMFQFJ8HE82I","382GHPVPHSDM8N0F9141EAH7F0K34Z","","162.09999999403954","img/flower2.png","74","163.59999999403954","1","1","1","2","1,0,0,1,1,0,1,0,1","1,0,0,1,1,0,1,0,1","1",""
"","html-keyboard-response","173","59750","0.0-173.0","3Y5140Z9DY2P932BJQ8EAXQFXXZPIP","A3UMFQFJ8HE82I","382GHPVPHSDM8N0F9141EAH7F0K34Z","","null","<img src=""img/flower2.png"" style=""width:200px; border:14px solid green;"">","null","","","","","","","","",""
"","image-keyboard-response","174","59960","0.0-174.0","3Y5140Z9DY2P932BJQ8EAXQFXXZPIP","A3UMFQFJ8HE82I","382GHPVPHSDM8N0F9141EAH7F0K34Z","","209.40000000596046","img/flower2.png","74","210","1","1","1","2","1,0,0,1,1,0,1,0,1","1,0,0,1,1,0,1,0,1","1",""
"","html-keyboard-response","175","60263","0.0-175.0","3Y5140Z9DY2P932BJQ8EAXQFXXZPIP","A3UMFQFJ8HE82I","382GHPVPHSDM8N0F9141EAH7F0K34Z","","null","<img src=""img/flower2.png"" style=""width:200px; border:14px solid green;"">","null","","","","","","","","",""
"","image-keyboard-response","176","60392","0.0-176.0","3Y5140Z9DY2P932BJQ8EAXQFXXZPIP","A3UMFQFJ8HE82I","382GHPVPHSDM8N0F9141EAH7F0K34Z","","127.59999999403954","img/flower6.png","74","128.30000001192093","1","1","3","2","1,0,0,1,1,0,1,0,1","1,0,0,1,1,0,1,0,1","1",""
"","html-keyboard-response","177","60693","0.0-177.0","3Y5140Z9DY2P932BJQ8EAXQFXXZPIP","A3UMFQFJ8HE82I","382GHPVPHSDM8N0F9141EAH7F0K34Z","","null","<img src=""img/flower6.png"" style=""width:200px; border:14px solid green;"">","null","","","","","","","","",""
"","image-keyboard-response","178","60888","0.0-178.0","3Y5140Z9DY2P932BJQ8EAXQFXXZPIP","A3UMFQFJ8HE82I","382GHPVPHSDM8N0F9141EAH7F0K34Z","","194","img/flower6.png","74","194.60000002384186","1","1","3","2","1,0,0,1,1,0,1,0,1","1,0,0,1,1,0,1,0,1","1",""
"","html-keyboard-response","179","61189","0.0-179.0","3Y5140Z9DY2P932BJQ8EAXQFXXZPIP","A3UMFQFJ8HE82I","382GHPVPHSDM8N0F9141EAH7F0K34Z","","null","<img src=""img/flower6.png"" style=""width:200px; border:14px solid green;"">","null","","","","","","","","",""
"","image-keyboard-response","180","61337","0.0-180.0","3Y5140Z9DY2P932BJQ8EAXQFXXZPIP","A3UMFQFJ8HE82I","382GHPVPHSDM8N0F9141EAH7F0K34Z","","146.40000000596046","img/flower2.png","74","147","1","1","1","2","1,0,0,1,1,0,1,0,1","1,0,0,1,1,0,1,0,1","1",""
"","html-keyboard-response","181","61638","0.0-181.0","3Y5140Z9DY2P932BJQ8EAXQFXXZPIP","A3UMFQFJ8HE82I","382GHPVPHSDM8N0F9141EAH7F0K34Z","","null","<img src=""img/flower2.png"" style=""width:200px; border:14px solid green;"">","null","","","","","","","","",""
"","image-keyboard-response","182","61784","0.0-182.0","3Y5140Z9DY2P932BJQ8EAXQFXXZPIP","A3UMFQFJ8HE82I","382GHPVPHSDM8N0F9141EAH7F0K34Z","","145","img/flower4.png","74","145.5","1","0","2","1","1,0.333,0.333,0.333,1,0.333,0.333,0.333,1","1,0.333,0.333,0.333,1,0.333,0.333,0.333,1","1",""
"","html-keyboard-response","183","62085","0.0-183.0","3Y5140Z9DY2P932BJQ8EAXQFXXZPIP","A3UMFQFJ8HE82I","382GHPVPHSDM8N0F9141EAH7F0K34Z","","null","<img src=""img/flower4.png"" style=""width:200px;border:14px solid red;"">","null","","","","","","","","",""
"","image-keyboard-response","184","62280","0.0-184.0","3Y5140Z9DY2P932BJQ8EAXQFXXZPIP","A3UMFQFJ8HE82I","382GHPVPHSDM8N0F9141EAH7F0K34Z","","194.09999999403954","img/flower5.png","74","194.59999999403954","1","1","1","1","1,0.333,0.333,0.333,1,0.333,0.333,0.333,1","1,0.333,0.333,0.333,1,0.333,0.333,0.333,1","1",""
"","html-keyboard-response","185","62582","0.0-185.0","3Y5140Z9DY2P932BJQ8EAXQFXXZPIP","A3UMFQFJ8HE82I","382GHPVPHSDM8N0F9141EAH7F0K34Z","","null","<img src=""img/flower5.png"" style=""width:200px; border:14px solid green;"">","null","","","","","","","","",""
"","image-keyboard-response","186","62744","0.0-186.0","3Y5140Z9DY2P932BJQ8EAXQFXXZPIP","A3UMFQFJ8HE82I","382GHPVPHSDM8N0F9141EAH7F0K34Z","","160.59999999403954","img/flower5.png","74","161.40000000596046","1","1","1","1","1,0.333,0.333,0.333,1,0.333,0.333,0.333,1","1,0.333,0.333,0.333,1,0.333,0.333,0.333,1","1",""
"","html-keyboard-response","187","63045","0.0-187.0","3Y5140Z9DY2P932BJQ8EAXQFXXZPIP","A3UMFQFJ8HE82I","382GHPVPHSDM8N0F9141EAH7F0K34Z","","null","<img src=""img/flower5.png"" style=""width:200px; border:14px solid green;"">","null","","","","","","","","",""
"","image-keyboard-response","188","63224","0.0-188.0","3Y5140Z9DY2P932BJQ8EAXQFXXZPIP","A3UMFQFJ8HE82I","382GHPVPHSDM8N0F9141EAH7F0K34Z","","178.5","img/flower3.png","74","179","1","1","3","1","1,0.333,0.333,0.333,1,0.333,0.333,0.333,1","1,0.333,0.333,0.333,1,0.333,0.333,0.333,1","1",""
"","html-keyboard-response","189","63525","0.0-189.0","3Y5140Z9DY2P932BJQ8EAXQFXXZPIP","A3UMFQFJ8HE82I","382GHPVPHSDM8N0F9141EAH7F0K34Z","","null","<img src=""img/flower3.png"" style=""width:200px; border:14px solid green;"">","null","","","","","","","","",""
"","image-keyboard-response","190","63672","0.0-190.0","3Y5140Z9DY2P932BJQ8EAXQFXXZPIP","A3UMFQFJ8HE82I","382GHPVPHSDM8N0F9141EAH7F0K34Z","","145.69999998807907","img/flower3.png","74","146.19999998807907","1","0","3","1","1,0.333,0.333,0.333,1,0.333,0.333,0.333,1","1,0.333,0.333,0.333,1,0.333,0.333,0.333,1","1",""
"","html-keyboard-response","191","63973","0.0-191.0","3Y5140Z9DY2P932BJQ8EAXQFXXZPIP","A3UMFQFJ8HE82I","382GHPVPHSDM8N0F9141EAH7F0K34Z","","null","<img src=""img/flower3.png"" style=""width:200px;border:14px solid red;"">","null","","","","","","","","",""
"","image-keyboard-response","192","64120","0.0-192.0","3Y5140Z9DY2P932BJQ8EAXQFXXZPIP","A3UMFQFJ8HE82I","382GHPVPHSDM8N0F9141EAH7F0K34Z","","146.2999999821186","img/flower3.png","74","146.7999999821186","1","0","3","1","1,0.333,0.333,0.333,1,0.333,0.333,0.333,1","1,0.333,0.333,0.333,1,0.333,0.333,0.333,1","1",""
"","html-keyboard-response","193","64421","0.0-193.0","3Y5140Z9DY2P932BJQ8EAXQFXXZPIP","A3UMFQFJ8HE82I","382GHPVPHSDM8N0F9141EAH7F0K34Z","","null","<img src=""img/flower3.png"" style=""width:200px;border:14px solid red;"">","null","","","","","","","","",""
"","image-keyboard-response","194","64616","0.0-194.0","3Y5140Z9DY2P932BJQ8EAXQFXXZPIP","A3UMFQFJ8HE82I","382GHPVPHSDM8N0F9141EAH7F0K34Z","","194.09999999403954","img/flower5.png","75","194.7000000178814","2","0","1","1","1,0.333,0.333,0.333,1,0.333,0.333,0.333,1","1,0.333,0.333,0.333,1,0.333,0.333,0.333,1","1",""
"","html-keyboard-response","195","64918","0.0-195.0","3Y5140Z9DY2P932BJQ8EAXQFXXZPIP","A3UMFQFJ8HE82I","382GHPVPHSDM8N0F9141EAH7F0K34Z","","null","<img src=""img/flower5.png"" style=""width:200px;border:14px solid red;"">","null","","","","","","","","",""
"","image-keyboard-response","196","64920","0.0-196.0","3Y5140Z9DY2P932BJQ8EAXQFXXZPIP","A3UMFQFJ8HE82I","382GHPVPHSDM8N0F9141EAH7F0K34Z","","1.4000000059604645","img/flower5.png","75","1.899999976158142","2","0","1","1","1,0.333,0.333,0.333,1,0.333,0.333,0.333,1","1,0.333,0.333,0.333,1,0.333,0.333,0.333,1","1",""
"","html-keyboard-response","197","65223","0.0-197.0","3Y5140Z9DY2P932BJQ8EAXQFXXZPIP","A3UMFQFJ8HE82I","382GHPVPHSDM8N0F9141EAH7F0K34Z","","null","<img src=""img/flower5.png"" style=""width:200px;border:14px solid red;"">","null","","","","","","","","",""
"","image-keyboard-response","198","65240","0.0-198.0","3Y5140Z9DY2P932BJQ8EAXQFXXZPIP","A3UMFQFJ8HE82I","382GHPVPHSDM8N0F9141EAH7F0K34Z","","16.400000005960464","img/flower4.png","76","16.900000005960464","3","0","2","1","1,0.333,0.333,0.333,1,0.333,0.333,0.333,1","1,0.333,0.333,0.333,1,0.333,0.333,0.333,1","1",""
"","html-keyboard-response","199","65555","0.0-199.0","3Y5140Z9DY2P932BJQ8EAXQFXXZPIP","A3UMFQFJ8HE82I","382GHPVPHSDM8N0F9141EAH7F0K34Z","","null","<img src=""img/flower4.png"" style=""width:200px;border:14px solid red;"">","null","","","","","","","","",""
"","image-keyboard-response","200","65624","0.0-200.0","3Y5140Z9DY2P932BJQ8EAXQFXXZPIP","A3UMFQFJ8HE82I","382GHPVPHSDM8N0F9141EAH7F0K34Z","","67.69999998807907","img/flower4.png","75","68.40000000596046","2","1","2","1","1,0.333,0.333,0.333,1,0.333,0.333,0.333,1","1,0.333,0.333,0.333,1,0.333,0.333,0.333,1","1",""
"","html-keyboard-response","201","65925","0.0-201.0","3Y5140Z9DY2P932BJQ8EAXQFXXZPIP","A3UMFQFJ8HE82I","382GHPVPHSDM8N0F9141EAH7F0K34Z","","null","<img src=""img/flower4.png"" style=""width:200px; border:14px solid green;"">","null","","","","","","","","",""
"","image-keyboard-response","202","66056","0.0-202.0","3Y5140Z9DY2P932BJQ8EAXQFXXZPIP","A3UMFQFJ8HE82I","382GHPVPHSDM8N0F9141EAH7F0K34Z","","130.80000001192093","img/flower5.png","75","131.40000000596046","2","0","1","1","1,0.333,0.333,0.333,1,0.333,0.333,0.333,1","1,0.333,0.333,0.333,1,0.333,0.333,0.333,1","1",""
"","html-keyboard-response","203","66358","0.0-203.0","3Y5140Z9DY2P932BJQ8EAXQFXXZPIP","A3UMFQFJ8HE82I","382GHPVPHSDM8N0F9141EAH7F0K34Z","","null","<img src=""img/flower5.png"" style=""width:200px;border:14px solid red;"">","null","","","","","","","","",""
"","image-keyboard-response","204","66664","0.0-204.0","3Y5140Z9DY2P932BJQ8EAXQFXXZPIP","A3UMFQFJ8HE82I","382GHPVPHSDM8N0F9141EAH7F0K34Z","","305.09999999403954","img/flower3.png","75","305.60000002384186","2","0","3","1","1,0.333,0.333,0.333,1,0.333,0.333,0.333,1","1,0.333,0.333,0.333,1,0.333,0.333,0.333,1","1",""
"","html-keyboard-response","205","66967","0.0-205.0","3Y5140Z9DY2P932BJQ8EAXQFXXZPIP","A3UMFQFJ8HE82I","382GHPVPHSDM8N0F9141EAH7F0K34Z","","null","<img src=""img/flower3.png"" style=""width:200px;border:14px solid red;"">","null","","","","","","","","",""
"","image-keyboard-response","206","67208","0.0-206.0","3Y5140Z9DY2P932BJQ8EAXQFXXZPIP","A3UMFQFJ8HE82I","382GHPVPHSDM8N0F9141EAH7F0K34Z","","240.30000001192093","img/flower4.png","75","241","2","1","2","1","1,0.333,0.333,0.333,1,0.333,0.333,0.333,1","1,0.333,0.333,0.333,1,0.333,0.333,0.333,1","1",""
"","html-keyboard-response","207","67510","0.0-207.0","3Y5140Z9DY2P932BJQ8EAXQFXXZPIP","A3UMFQFJ8HE82I","382GHPVPHSDM8N0F9141EAH7F0K34Z","","null","<img src=""img/flower4.png"" style=""width:200px; border:14px solid green;"">","null","","","","","","","","",""
"","image-keyboard-response","208","67640","0.0-208.0","3Y5140Z9DY2P932BJQ8EAXQFXXZPIP","A3UMFQFJ8HE82I","382GHPVPHSDM8N0F9141EAH7F0K34Z","","129.40000000596046","img/flower3.png","75","129.89999997615814","2","0","3","1","1,0.333,0.333,0.333,1,0.333,0.333,0.333,1","1,0.333,0.333,0.333,1,0.333,0.333,0.333,1","1",""
"","html-keyboard-response","209","67942","0.0-209.0","3Y5140Z9DY2P932BJQ8EAXQFXXZPIP","A3UMFQFJ8HE82I","382GHPVPHSDM8N0F9141EAH7F0K34Z","","null","<img src=""img/flower3.png"" style=""width:200px;border:14px solid red;"">","null","","","","","","","","",""
"","image-keyboard-response","210","68152","0.0-210.0","3Y5140Z9DY2P932BJQ8EAXQFXXZPIP","A3UMFQFJ8HE82I","382GHPVPHSDM8N0F9141EAH7F0K34Z","","208.19999998807907","img/flower3.png","76","208.7999999821186","3","1","3","1","1,0.333,0.333,0.333,1,0.333,0.333,0.333,1","1,0.333,0.333,0.333,1,0.333,0.333,0.333,1","1",""
"","html-keyboard-response","211","68453","0.0-211.0","3Y5140Z9DY2P932BJQ8EAXQFXXZPIP","A3UMFQFJ8HE82I","382GHPVPHSDM8N0F9141EAH7F0K34Z","","null","<img src=""img/flower3.png"" style=""width:200px; border:14px solid green;"">","null","","","","","","","","",""
"","image-keyboard-response","212","68600","0.0-212.0","3Y5140Z9DY2P932BJQ8EAXQFXXZPIP","A3UMFQFJ8HE82I","382GHPVPHSDM8N0F9141EAH7F0K34Z","","146.19999998807907","img/flower5.png","75","146.69999998807907","2","1","1","1","1,0.333,0.333,0.333,1,0.333,0.333,0.333,1","1,0.333,0.333,0.333,1,0.333,0.333,0.333,1","1",""
"","html-keyboard-response","213","68901","0.0-213.0","3Y5140Z9DY2P932BJQ8EAXQFXXZPIP","A3UMFQFJ8HE82I","382GHPVPHSDM8N0F9141EAH7F0K34Z","","null","<img src=""img/flower5.png"" style=""width:200px; border:14px solid green;"">","null","","","","","","","","",""
"","image-keyboard-response","214","68968","0.0-214.0","3Y5140Z9DY2P932BJQ8EAXQFXXZPIP","A3UMFQFJ8HE82I","382GHPVPHSDM8N0F9141EAH7F0K34Z","","65.5","img/flower4.png","75","66","2","1","2","1","1,0.333,0.333,0.333,1,0.333,0.333,0.333,1","1,0.333,0.333,0.333,1,0.333,0.333,0.333,1","1",""
"","html-keyboard-response","215","69270","0.0-215.0","3Y5140Z9DY2P932BJQ8EAXQFXXZPIP","A3UMFQFJ8HE82I","382GHPVPHSDM8N0F9141EAH7F0K34Z","","null","<img src=""img/flower4.png"" style=""width:200px; border:14px solid green;"">","null","","","","","","","","",""
"","image-keyboard-response","216","69336","0.0-216.0","3Y5140Z9DY2P932BJQ8EAXQFXXZPIP","A3UMFQFJ8HE82I","382GHPVPHSDM8N0F9141EAH7F0K34Z","","65","img/flower4.png","75","65.59999999403954","2","1","2","1","1,0.333,0.333,0.333,1,0.333,0.333,0.333,1","1,0.333,0.333,0.333,1,0.333,0.333,0.333,1","1",""
"","html-keyboard-response","217","69637","0.0-217.0","3Y5140Z9DY2P932BJQ8EAXQFXXZPIP","A3UMFQFJ8HE82I","382GHPVPHSDM8N0F9141EAH7F0K34Z","","null","<img src=""img/flower4.png"" style=""width:200px; border:14px solid green;"">","null","","","","","","","","",""
"","image-keyboard-response","218","69751","0.0-218.0","3Y5140Z9DY2P932BJQ8EAXQFXXZPIP","A3UMFQFJ8HE82I","382GHPVPHSDM8N0F9141EAH7F0K34Z","","113.40000000596046","img/flower4.png","74","114.09999999403954","1","0","2","1","1,0.333,0.333,0.333,1,0.333,0.333,0.333,1","1,0.333,0.333,0.333,1,0.333,0.333,0.333,1","1",""
"","html-keyboard-response","219","70053","0.0-219.0","3Y5140Z9DY2P932BJQ8EAXQFXXZPIP","A3UMFQFJ8HE82I","382GHPVPHSDM8N0F9141EAH7F0K34Z","","null","<img src=""img/flower4.png"" style=""width:200px;border:14px solid red;"">","null","","","","","","","","",""
"","image-keyboard-response","220","70151","0.0-220.0","3Y5140Z9DY2P932BJQ8EAXQFXXZPIP","A3UMFQFJ8HE82I","382GHPVPHSDM8N0F9141EAH7F0K34Z","","97.30000001192093","img/flower5.png","75","98","2","0","1","1","1,0.333,0.333,0.333,1,0.333,0.333,0.333,1","1,0.333,0.333,0.333,1,0.333,0.333,0.333,1","1",""
"","html-keyboard-response","221","70452","0.0-221.0","3Y5140Z9DY2P932BJQ8EAXQFXXZPIP","A3UMFQFJ8HE82I","382GHPVPHSDM8N0F9141EAH7F0K34Z","","null","<img src=""img/flower5.png"" style=""width:200px;border:14px solid red;"">","null","","","","","","","","",""
"","image-keyboard-response","222","70456","0.0-222.0","3Y5140Z9DY2P932BJQ8EAXQFXXZPIP","A3UMFQFJ8HE82I","382GHPVPHSDM8N0F9141EAH7F0K34Z","","2.5999999940395355","img/flower3.png","74","3.300000011920929","1","0","3","1","1,0.333,0.333,0.333,1,0.333,0.333,0.333,1","1,0.333,0.333,0.333,1,0.333,0.333,0.333,1","1",""
"","html-keyboard-response","223","70758","0.0-223.0","3Y5140Z9DY2P932BJQ8EAXQFXXZPIP","A3UMFQFJ8HE82I","382GHPVPHSDM8N0F9141EAH7F0K34Z","","null","<img src=""img/flower3.png"" style=""width:200px;border:14px solid red;"">","null","","","","","","","","",""
"","image-keyboard-response","224","70904","0.0-224.0","3Y5140Z9DY2P932BJQ8EAXQFXXZPIP","A3UMFQFJ8HE82I","382GHPVPHSDM8N0F9141EAH7F0K34Z","","145.59999999403954","img/flower5.png","74","146.19999998807907","1","1","1","1","1,0.333,0.333,0.333,1,0.333,0.333,0.333,1","1,0.333,0.333,0.333,1,0.333,0.333,0.333,1","1",""
"","html-keyboard-response","225","71206","0.0-225.0","3Y5140Z9DY2P932BJQ8EAXQFXXZPIP","A3UMFQFJ8HE82I","382GHPVPHSDM8N0F9141EAH7F0K34Z","","null","<img src=""img/flower5.png"" style=""width:200px; border:14px solid green;"">","null","","","","","","","","",""
"","image-keyboard-response","226","71368","0.0-226.0","3Y5140Z9DY2P932BJQ8EAXQFXXZPIP","A3UMFQFJ8HE82I","382GHPVPHSDM8N0F9141EAH7F0K34Z","","161.09999999403954","img/flower5.png","74","161.7000000178814","1","1","1","1","1,0.333,0.333,0.333,1,0.333,0.333,0.333,1","1,0.333,0.333,0.333,1,0.333,0.333,0.333,1","1",""
"","html-keyboard-response","227","71670","0.0-227.0","3Y5140Z9DY2P932BJQ8EAXQFXXZPIP","A3UMFQFJ8HE82I","382GHPVPHSDM8N0F9141EAH7F0K34Z","","null","<img src=""img/flower5.png"" style=""width:200px; border:14px solid green;"">","null","","","","","","","","",""
"","image-keyboard-response","228","71768","0.0-228.0","3Y5140Z9DY2P932BJQ8EAXQFXXZPIP","A3UMFQFJ8HE82I","382GHPVPHSDM8N0F9141EAH7F0K34Z","","97.09999999403954","img/flower3.png","74","97.59999999403954","1","1","3","1","1,0.333,0.333,0.333,1,0.333,0.333,0.333,1","1,0.333,0.333,0.333,1,0.333,0.333,0.333,1","1",""
"","html-keyboard-response","229","72069","0.0-229.0","3Y5140Z9DY2P932BJQ8EAXQFXXZPIP","A3UMFQFJ8HE82I","382GHPVPHSDM8N0F9141EAH7F0K34Z","","null","<img src=""img/flower3.png"" style=""width:200px; border:14px solid green;"">","null","","","","","","","","",""
"","image-keyboard-response","230","72199","0.0-230.0","3Y5140Z9DY2P932BJQ8EAXQFXXZPIP","A3UMFQFJ8HE82I","382GHPVPHSDM8N0F9141EAH7F0K34Z","","129.30000001192093","img/flower3.png","74","130","1","0","3","1","1,0.333,0.333,0.333,1,0.333,0.333,0.333,1","1,0.333,0.333,0.333,1,0.333,0.333,0.333,1","1",""
"","html-keyboard-response","231","72501","0.0-231.0","3Y5140Z9DY2P932BJQ8EAXQFXXZPIP","A3UMFQFJ8HE82I","382GHPVPHSDM8N0F9141EAH7F0K34Z","","null","<img src=""img/flower3.png"" style=""width:200px;border:14px solid red;"">","null","","","","","","","","",""
"","image-keyboard-response","232","72631","0.0-232.0","3Y5140Z9DY2P932BJQ8EAXQFXXZPIP","A3UMFQFJ8HE82I","382GHPVPHSDM8N0F9141EAH7F0K34Z","","129.59999999403954","img/flower4.png","74","130.09999999403954","1","1","2","1","1,0.333,0.333,0.333,1,0.333,0.333,0.333,1","1,0.333,0.333,0.333,1,0.333,0.333,0.333,1","1",""
"","html-keyboard-response","233","72933","0.0-233.0","3Y5140Z9DY2P932BJQ8EAXQFXXZPIP","A3UMFQFJ8HE82I","382GHPVPHSDM8N0F9141EAH7F0K34Z","","null","<img src=""img/flower4.png"" style=""width:200px; border:14px solid green;"">","null","","","","","","","","",""
"","image-keyboard-response","234","73288","0.0-234.0","3Y5140Z9DY2P932BJQ8EAXQFXXZPIP","A3UMFQFJ8HE82I","382GHPVPHSDM8N0F9141EAH7F0K34Z","","353.19999998807907","img/flower4.png","74","354.09999999403954","1","1","2","1","1,0.333,0.333,0.333,1,0.333,0.333,0.333,1","1,0.333,0.333,0.333,1,0.333,0.333,0.333,1","1",""
"","html-keyboard-response","235","73588","0.0-235.0","3Y5140Z9DY2P932BJQ8EAXQFXXZPIP","A3UMFQFJ8HE82I","382GHPVPHSDM8N0F9141EAH7F0K34Z","","null","<img src=""img/flower4.png"" style=""width:200px; border:14px solid green;"">","null","","","","","","","","",""
"","image-keyboard-response","236","73592","0.0-236.0","3Y5140Z9DY2P932BJQ8EAXQFXXZPIP","A3UMFQFJ8HE82I","382GHPVPHSDM8N0F9141EAH7F0K34Z","","2.5","img/flower5.png","76","3.300000011920929","3","0","1","1","1,0.333,0.333,0.333,1,0.333,0.333,0.333,1","1,0.333,0.333,0.333,1,0.333,0.333,0.333,1","1",""
"","html-keyboard-response","237","73893","0.0-237.0","3Y5140Z9DY2P932BJQ8EAXQFXXZPIP","A3UMFQFJ8HE82I","382GHPVPHSDM8N0F9141EAH7F0K34Z","","null","<img src=""img/flower5.png"" style=""width:200px;border:14px solid red;"">","null","","","","","","","","",""
"","image-keyboard-response","238","73943","0.0-238.0","3Y5140Z9DY2P932BJQ8EAXQFXXZPIP","A3UMFQFJ8HE82I","382GHPVPHSDM8N0F9141EAH7F0K34Z","","49.20000001788139","img/flower4.png","75","49.79999998211861","2","1","2","1","1,0.333,0.333,0.333,1,0.333,0.333,0.333,1","1,0.333,0.333,0.333,1,0.333,0.333,0.333,1","1",""
"","html-keyboard-response","239","74245","0.0-239.0","3Y5140Z9DY2P932BJQ8EAXQFXXZPIP","A3UMFQFJ8HE82I","382GHPVPHSDM8N0F9141EAH7F0K34Z","","null","<img src=""img/flower4.png"" style=""width:200px; border:14px solid green;"">","null","","","","","","","","",""
"","image-keyboard-response","240","74312","0.0-240.0","3Y5140Z9DY2P932BJQ8EAXQFXXZPIP","A3UMFQFJ8HE82I","382GHPVPHSDM8N0F9141EAH7F0K34Z","","65.80000001192093","img/flower5.png","74","66.5","1","1","1","1","1,0.333,0.333,0.333,1,0.333,0.333,0.333,1","1,0.333,0.333,0.333,1,0.333,0.333,0.333,1","1",""
"","html-keyboard-response","241","74613","0.0-241.0","3Y5140Z9DY2P932BJQ8EAXQFXXZPIP","A3UMFQFJ8HE82I","382GHPVPHSDM8N0F9141EAH7F0K34Z","","null","<img src=""img/flower5.png"" style=""width:200px; border:14px solid green;"">","null","","","","","","","","",""
"","image-keyboard-response","242","74871","0.0-242.0","3Y5140Z9DY2P932BJQ8EAXQFXXZPIP","A3UMFQFJ8HE82I","382GHPVPHSDM8N0F9141EAH7F0K34Z","","257.60000002384186","img/flower4.png","75","258.09999999403954","2","1","2","1","1,0.333,0.333,0.333,1,0.333,0.333,0.333,1","1,0.333,0.333,0.333,1,0.333,0.333,0.333,1","1",""
"","html-keyboard-response","243","75185","0.0-243.0","3Y5140Z9DY2P932BJQ8EAXQFXXZPIP","A3UMFQFJ8HE82I","382GHPVPHSDM8N0F9141EAH7F0K34Z","","null","<img src=""img/flower4.png"" style=""width:200px; border:14px solid green;"">","null","","","","","","","","",""
"","image-keyboard-response","244","75271","0.0-244.0","3Y5140Z9DY2P932BJQ8EAXQFXXZPIP","A3UMFQFJ8HE82I","382GHPVPHSDM8N0F9141EAH7F0K34Z","","86.10000002384186","img/flower3.png","75","86.69999998807907","2","1","3","1","1,0.333,0.333,0.333,1,0.333,0.333,0.333,1","1,0.333,0.333,0.333,1,0.333,0.333,0.333,1","1",""
"","html-keyboard-response","245","75573","0.0-245.0","3Y5140Z9DY2P932BJQ8EAXQFXXZPIP","A3UMFQFJ8HE82I","382GHPVPHSDM8N0F9141EAH7F0K34Z","","null","<img src=""img/flower3.png"" style=""width:200px; border:14px solid green;"">","null","","","","","","","","",""
"","image-keyboard-response","246","75640","0.0-246.0","3Y5140Z9DY2P932BJQ8EAXQFXXZPIP","A3UMFQFJ8HE82I","382GHPVPHSDM8N0F9141EAH7F0K34Z","","65.90000000596046","img/flower5.png","75","66.5","2","0","1","1","1,0.333,0.333,0.333,1,0.333,0.333,0.333,1","1,0.333,0.333,0.333,1,0.333,0.333,0.333,1","1",""
"","html-keyboard-response","247","75941","0.0-247.0","3Y5140Z9DY2P932BJQ8EAXQFXXZPIP","A3UMFQFJ8HE82I","382GHPVPHSDM8N0F9141EAH7F0K34Z","","null","<img src=""img/flower5.png"" style=""width:200px;border:14px solid red;"">","null","","","","","","","","",""
"","image-keyboard-response","248","76296","0.0-248.0","3Y5140Z9DY2P932BJQ8EAXQFXXZPIP","A3UMFQFJ8HE82I","382GHPVPHSDM8N0F9141EAH7F0K34Z","","354.7999999821186","img/flower3.png","74","355.40000000596046","1","0","3","1","1,0.333,0.333,0.333,1,0.333,0.333,0.333,1","1,0.333,0.333,0.333,1,0.333,0.333,0.333,1","1",""
"","html-keyboard-response","249","76599","0.0-249.0","3Y5140Z9DY2P932BJQ8EAXQFXXZPIP","A3UMFQFJ8HE82I","382GHPVPHSDM8N0F9141EAH7F0K34Z","","null","<img src=""img/flower3.png"" style=""width:200px;border:14px solid red;"">","null","","","","","","","","",""
"","image-keyboard-response","250","76680","0.0-250.0","3Y5140Z9DY2P932BJQ8EAXQFXXZPIP","A3UMFQFJ8HE82I","382GHPVPHSDM8N0F9141EAH7F0K34Z","","80.2000000178814","img/flower3.png","76","80.7999999821186","3","1","3","1","1,0.333,0.333,0.333,1,0.333,0.333,0.333,1","1,0.333,0.333,0.333,1,0.333,0.333,0.333,1","1",""
"","html-keyboard-response","251","76981","0.0-251.0","3Y5140Z9DY2P932BJQ8EAXQFXXZPIP","A3UMFQFJ8HE82I","382GHPVPHSDM8N0F9141EAH7F0K34Z","","null","<img src=""img/flower3.png"" style=""width:200px; border:14px solid green;"">","null","","","","","","","","",""
"","image-keyboard-response","252","76984","0.0-252.0","3Y5140Z9DY2P932BJQ8EAXQFXXZPIP","A3UMFQFJ8HE82I","382GHPVPHSDM8N0F9141EAH7F0K34Z","","1.300000011920929","img/flower4.png","74","1.9000000059604645","1","0","2","1","1,0.333,0.333,0.333,1,0.333,0.333,0.333,1","1,0.333,0.333,0.333,1,0.333,0.333,0.333,1","1",""
"","html-keyboard-response","253","77285","0.0-253.0","3Y5140Z9DY2P932BJQ8EAXQFXXZPIP","A3UMFQFJ8HE82I","382GHPVPHSDM8N0F9141EAH7F0K34Z","","null","<img src=""img/flower4.png"" style=""width:200px;border:14px solid red;"">","null","","","","","","","","",""
"","image-keyboard-response","254","77288","0.0-254.0","3Y5140Z9DY2P932BJQ8EAXQFXXZPIP","A3UMFQFJ8HE82I","382GHPVPHSDM8N0F9141EAH7F0K34Z","","1.800000011920929","img/flower4.png","76","2.5","3","0","2","1","1,0.333,0.333,0.333,1,0.333,0.333,0.333,1","1,0.333,0.333,0.333,1,0.333,0.333,0.333,1","1",""
"","html-keyboard-response","255","77590","0.0-255.0","3Y5140Z9DY2P932BJQ8EAXQFXXZPIP","A3UMFQFJ8HE82I","382GHPVPHSDM8N0F9141EAH7F0K34Z","","null","<img src=""img/flower4.png"" style=""width:200px;border:14px solid red;"">","null","","","","","","","","",""
"","image-keyboard-response","256","77640","0.0-256.0","3Y5140Z9DY2P932BJQ8EAXQFXXZPIP","A3UMFQFJ8HE82I","382GHPVPHSDM8N0F9141EAH7F0K34Z","","48.5","img/flower3.png","74","49","1","0","3","1","1,0.333,0.333,0.333,1,0.333,0.333,0.333,1","1,0.333,0.333,0.333,1,0.333,0.333,0.333,1","1",""
"","html-keyboard-response","257","77941","0.0-257.0","3Y5140Z9DY2P932BJQ8EAXQFXXZPIP","A3UMFQFJ8HE82I","382GHPVPHSDM8N0F9141EAH7F0K34Z","","null","<img src=""img/flower3.png"" style=""width:200px;border:14px solid red;"">","null","","","","","","","","",""
"","image-keyboard-response","258","78295","0.0-258.0","3Y5140Z9DY2P932BJQ8EAXQFXXZPIP","A3UMFQFJ8HE82I","382GHPVPHSDM8N0F9141EAH7F0K34Z","","353.59999999403954","img/flower5.png","76","354.09999999403954","3","1","1","1","1,0.333,0.333,0.333,1,0.333,0.333,0.333,1","1,0.333,0.333,0.333,1,0.333,0.333,0.333,1","1",""
"","html-keyboard-response","259","78596","0.0-259.0","3Y5140Z9DY2P932BJQ8EAXQFXXZPIP","A3UMFQFJ8HE82I","382GHPVPHSDM8N0F9141EAH7F0K34Z","","null","<img src=""img/flower5.png"" style=""width:200px; border:14px solid green;"">","null","","","","","","","","",""
"","image-keyboard-response","260","78839","0.0-260.0","3Y5140Z9DY2P932BJQ8EAXQFXXZPIP","A3UMFQFJ8HE82I","382GHPVPHSDM8N0F9141EAH7F0K34Z","","242.40000000596046","img/flower5.png","76","243","3","1","1","1","1,0.333,0.333,0.333,1,0.333,0.333,0.333,1","1,0.333,0.333,0.333,1,0.333,0.333,0.333,1","1",""
"","html-keyboard-response","261","79141","0.0-261.0","3Y5140Z9DY2P932BJQ8EAXQFXXZPIP","A3UMFQFJ8HE82I","382GHPVPHSDM8N0F9141EAH7F0K34Z","","null","<img src=""img/flower5.png"" style=""width:200px; border:14px solid green;"">","null","","","","","","","","",""
"","image-keyboard-response","262","79256","0.0-262.0","3Y5140Z9DY2P932BJQ8EAXQFXXZPIP","A3UMFQFJ8HE82I","382GHPVPHSDM8N0F9141EAH7F0K34Z","","113.5","img/flower5.png","76","114.39999997615814","3","0","1","1","1,0.333,0.333,0.333,1,0.333,0.333,0.333,1","1,0.333,0.333,0.333,1,0.333,0.333,0.333,1","1",""
"","html-keyboard-response","263","79557","0.0-263.0","3Y5140Z9DY2P932BJQ8EAXQFXXZPIP","A3UMFQFJ8HE82I","382GHPVPHSDM8N0F9141EAH7F0K34Z","","null","<img src=""img/flower5.png"" style=""width:200px;border:14px solid red;"">","null","","","","","","","","",""
"","image-keyboard-response","264","79591","0.0-264.0","3Y5140Z9DY2P932BJQ8EAXQFXXZPIP","A3UMFQFJ8HE82I","382GHPVPHSDM8N0F9141EAH7F0K34Z","","33.900000005960464","img/flower4.png","76","34.400000005960464","3","0","2","1","1,0.333,0.333,0.333,1,0.333,0.333,0.333,1","1,0.333,0.333,0.333,1,0.333,0.333,0.333,1","1",""
"","html-keyboard-response","265","79893","0.0-265.0","3Y5140Z9DY2P932BJQ8EAXQFXXZPIP","A3UMFQFJ8HE82I","382GHPVPHSDM8N0F9141EAH7F0K34Z","","null","<img src=""img/flower4.png"" style=""width:200px;border:14px solid red;"">","null","","","","","","","","",""
"","image-keyboard-response","266","79896","0.0-266.0","3Y5140Z9DY2P932BJQ8EAXQFXXZPIP","A3UMFQFJ8HE82I","382GHPVPHSDM8N0F9141EAH7F0K34Z","","1.699999988079071","img/flower3.png","75","2.300000011920929","2","1","3","1","1,0.333,0.333,0.333,1,0.333,0.333,0.333,1","1,0.333,0.333,0.333,1,0.333,0.333,0.333,1","1",""
"","html-keyboard-response","267","80197","0.0-267.0","3Y5140Z9DY2P932BJQ8EAXQFXXZPIP","A3UMFQFJ8HE82I","382GHPVPHSDM8N0F9141EAH7F0K34Z","","null","<img src=""img/flower3.png"" style=""width:200px; border:14px solid green;"">","null","","","","","","","","",""
"","image-keyboard-response","268","80279","0.0-268.0","3Y5140Z9DY2P932BJQ8EAXQFXXZPIP","A3UMFQFJ8HE82I","382GHPVPHSDM8N0F9141EAH7F0K34Z","","81.5","img/flower4.png","74","82.09999999403954","1","0","2","1","1,0.333,0.333,0.333,1,0.333,0.333,0.333,1","1,0.333,0.333,0.333,1,0.333,0.333,0.333,1","1",""
"","html-keyboard-response","269","80581","0.0-269.0","3Y5140Z9DY2P932BJQ8EAXQFXXZPIP","A3UMFQFJ8HE82I","382GHPVPHSDM8N0F9141EAH7F0K34Z","","null","<img src=""img/flower4.png"" style=""width:200px;border:14px solid red;"">","null","","","","","","","","",""
"","image-keyboard-response","270","80919","0.0-270.0","3Y5140Z9DY2P932BJQ8EAXQFXXZPIP","A3UMFQFJ8HE82I","382GHPVPHSDM8N0F9141EAH7F0K34Z","","338","img/flower4.png","74","338.5","1","0","2","1","1,0.333,0.333,0.333,1,0.333,0.333,0.333,1","1,0.333,0.333,0.333,1,0.333,0.333,0.333,1","1",""
"","html-keyboard-response","271","81221","0.0-271.0","3Y5140Z9DY2P932BJQ8EAXQFXXZPIP","A3UMFQFJ8HE82I","382GHPVPHSDM8N0F9141EAH7F0K34Z","","null","<img src=""img/flower4.png"" style=""width:200px;border:14px solid red;"">","null","","","","","","","","",""
"","image-keyboard-response","272","81591","0.0-272.0","3Y5140Z9DY2P932BJQ8EAXQFXXZPIP","A3UMFQFJ8HE82I","382GHPVPHSDM8N0F9141EAH7F0K34Z","","370.10000002384186","img/flower3.png","74","370.80000001192093","1","0","3","1","1,0.333,0.333,0.333,1,0.333,0.333,0.333,1","1,0.333,0.333,0.333,1,0.333,0.333,0.333,1","1",""
"","html-keyboard-response","273","81893","0.0-273.0","3Y5140Z9DY2P932BJQ8EAXQFXXZPIP","A3UMFQFJ8HE82I","382GHPVPHSDM8N0F9141EAH7F0K34Z","","null","<img src=""img/flower3.png"" style=""width:200px;border:14px solid red;"">","null","","","","","","","","",""
"","image-keyboard-response","274","82279","0.0-274.0","3Y5140Z9DY2P932BJQ8EAXQFXXZPIP","A3UMFQFJ8HE82I","382GHPVPHSDM8N0F9141EAH7F0K34Z","","386","img/flower4.png","75","386.59999999403954","2","1","2","1","1,0.333,0.333,0.333,1,0.333,0.333,0.333,1","1,0.333,0.333,0.333,1,0.333,0.333,0.333,1","1",""
"","html-keyboard-response","275","82581","0.0-275.0","3Y5140Z9DY2P932BJQ8EAXQFXXZPIP","A3UMFQFJ8HE82I","382GHPVPHSDM8N0F9141EAH7F0K34Z","","null","<img src=""img/flower4.png"" style=""width:200px; border:14px solid green;"">","null","","","","","","","","",""
"","image-keyboard-response","276","83079","0.0-276.0","3Y5140Z9DY2P932BJQ8EAXQFXXZPIP","A3UMFQFJ8HE82I","382GHPVPHSDM8N0F9141EAH7F0K34Z","","497.80000001192093","img/flower4.png","75","498.19999998807907","2","1","2","1","1,0.333,0.333,0.333,1,0.333,0.333,0.333,1","1,0.333,0.333,0.333,1,0.333,0.333,0.333,1","1",""
"","html-keyboard-response","277","83381","0.0-277.0","3Y5140Z9DY2P932BJQ8EAXQFXXZPIP","A3UMFQFJ8HE82I","382GHPVPHSDM8N0F9141EAH7F0K34Z","","null","<img src=""img/flower4.png"" style=""width:200px; border:14px solid green;"">","null","","","","","","","","",""
"","image-keyboard-response","278","83543","0.0-278.0","3Y5140Z9DY2P932BJQ8EAXQFXXZPIP","A3UMFQFJ8HE82I","382GHPVPHSDM8N0F9141EAH7F0K34Z","","162","img/flower5.png","75","162.59999999403954","2","0","1","1","1,0.333,0.333,0.333,1,0.333,0.333,0.333,1","1,0.333,0.333,0.333,1,0.333,0.333,0.333,1","1",""
"","html-keyboard-response","279","83845","0.0-279.0","3Y5140Z9DY2P932BJQ8EAXQFXXZPIP","A3UMFQFJ8HE82I","382GHPVPHSDM8N0F9141EAH7F0K34Z","","null","<img src=""img/flower5.png"" style=""width:200px;border:14px solid red;"">","null","","","","","","","","",""
"","image-keyboard-response","280","84087","0.0-280.0","3Y5140Z9DY2P932BJQ8EAXQFXXZPIP","A3UMFQFJ8HE82I","382GHPVPHSDM8N0F9141EAH7F0K34Z","","240.90000000596046","img/flower4.png","74","241.59999999403954","1","0","2","1","1,0.333,0.333,0.333,1,0.333,0.333,0.333,1","1,0.333,0.333,0.333,1,0.333,0.333,0.333,1","1",""
"","html-keyboard-response","281","84391","0.0-281.0","3Y5140Z9DY2P932BJQ8EAXQFXXZPIP","A3UMFQFJ8HE82I","382GHPVPHSDM8N0F9141EAH7F0K34Z","","null","<img src=""img/flower4.png"" style=""width:200px;border:14px solid red;"">","null","","","","","","","","",""
"","image-keyboard-response","282","84599","0.0-282.0","3Y5140Z9DY2P932BJQ8EAXQFXXZPIP","A3UMFQFJ8HE82I","382GHPVPHSDM8N0F9141EAH7F0K34Z","","207.5","img/flower5.png","76","208.30000001192093","3","1","1","1","1,0.333,0.333,0.333,1,0.333,0.333,0.333,1","1,0.333,0.333,0.333,1,0.333,0.333,0.333,1","1",""
"","html-keyboard-response","283","84901","0.0-283.0","3Y5140Z9DY2P932BJQ8EAXQFXXZPIP","A3UMFQFJ8HE82I","382GHPVPHSDM8N0F9141EAH7F0K34Z","","null","<img src=""img/flower5.png"" style=""width:200px; border:14px solid green;"">","null","","","","","","","","",""
"","image-keyboard-response","284","85143","0.0-284.0","3Y5140Z9DY2P932BJQ8EAXQFXXZPIP","A3UMFQFJ8HE82I","382GHPVPHSDM8N0F9141EAH7F0K34Z","","240.89999997615814","img/flower4.png","76","241.7000000178814","3","0","2","1","1,0.333,0.333,0.333,1,0.333,0.333,0.333,1","1,0.333,0.333,0.333,1,0.333,0.333,0.333,1","1",""
"","html-keyboard-response","285","85445","0.0-285.0","3Y5140Z9DY2P932BJQ8EAXQFXXZPIP","A3UMFQFJ8HE82I","382GHPVPHSDM8N0F9141EAH7F0K34Z","","null","<img src=""img/flower4.png"" style=""width:200px;border:14px solid red;"">","null","","","","","","","","",""
"","image-keyboard-response","286","85671","0.0-286.0","3Y5140Z9DY2P932BJQ8EAXQFXXZPIP","A3UMFQFJ8HE82I","382GHPVPHSDM8N0F9141EAH7F0K34Z","","225.2000000178814","img/flower3.png","74","225.80000001192093","1","1","3","1","1,0.333,0.333,0.333,1,0.333,0.333,0.333,1","1,0.333,0.333,0.333,1,0.333,0.333,0.333,1","1",""
"","html-keyboard-response","287","85974","0.0-287.0","3Y5140Z9DY2P932BJQ8EAXQFXXZPIP","A3UMFQFJ8HE82I","382GHPVPHSDM8N0F9141EAH7F0K34Z","","null","<img src=""img/flower3.png"" style=""width:200px; border:14px solid green;"">","null","","","","","","","","",""
"","image-keyboard-response","288","86456","0.0-288.0","3Y5140Z9DY2P932BJQ8EAXQFXXZPIP","A3UMFQFJ8HE82I","382GHPVPHSDM8N0F9141EAH7F0K34Z","","481.19999998807907","img/flower5.png","76","481.90000000596046","3","0","1","1","1,0.333,0.333,0.333,1,0.333,0.333,0.333,1","1,0.333,0.333,0.333,1,0.333,0.333,0.333,1","1",""
"","html-keyboard-response","289","86758","0.0-289.0","3Y5140Z9DY2P932BJQ8EAXQFXXZPIP","A3UMFQFJ8HE82I","382GHPVPHSDM8N0F9141EAH7F0K34Z","","null","<img src=""img/flower5.png"" style=""width:200px;border:14px solid red;"">","null","","","","","","","","",""
"","image-keyboard-response","290","87015","0.0-290.0","3Y5140Z9DY2P932BJQ8EAXQFXXZPIP","A3UMFQFJ8HE82I","382GHPVPHSDM8N0F9141EAH7F0K34Z","","256.90000000596046","img/flower4.png","74","257.40000000596046","1","0","2","1","1,0.333,0.333,0.333,1,0.333,0.333,0.333,1","1,0.333,0.333,0.333,1,0.333,0.333,0.333,1","1",""
"","html-keyboard-response","291","87317","0.0-291.0","3Y5140Z9DY2P932BJQ8EAXQFXXZPIP","A3UMFQFJ8HE82I","382GHPVPHSDM8N0F9141EAH7F0K34Z","","null","<img src=""img/flower4.png"" style=""width:200px;border:14px solid red;"">","null","","","","","","","","",""
"","image-keyboard-response","292","87463","0.0-292.0","3Y5140Z9DY2P932BJQ8EAXQFXXZPIP","A3UMFQFJ8HE82I","382GHPVPHSDM8N0F9141EAH7F0K34Z","","145.39999997615814","img/flower5.png","74","146","1","1","1","1","1,0.333,0.333,0.333,1,0.333,0.333,0.333,1","1,0.333,0.333,0.333,1,0.333,0.333,0.333,1","1",""
"","html-keyboard-response","293","87764","0.0-293.0","3Y5140Z9DY2P932BJQ8EAXQFXXZPIP","A3UMFQFJ8HE82I","382GHPVPHSDM8N0F9141EAH7F0K34Z","","null","<img src=""img/flower5.png"" style=""width:200px; border:14px solid green;"">","null","","","","","","","","",""
"","image-keyboard-response","294","88311","0.0-294.0","3Y5140Z9DY2P932BJQ8EAXQFXXZPIP","A3UMFQFJ8HE82I","382GHPVPHSDM8N0F9141EAH7F0K34Z","","546.2000000178814","img/flower3.png","74","546.9000000059605","1","0","3","1","1,0.333,0.333,0.333,1,0.333,0.333,0.333,1","1,0.333,0.333,0.333,1,0.333,0.333,0.333,1","1",""
"","html-keyboard-response","295","88613","0.0-295.0","3Y5140Z9DY2P932BJQ8EAXQFXXZPIP","A3UMFQFJ8HE82I","382GHPVPHSDM8N0F9141EAH7F0K34Z","","null","<img src=""img/flower3.png"" style=""width:200px;border:14px solid red;"">","null","","","","","","","","",""
"","image-keyboard-response","296","88823","0.0-296.0","3Y5140Z9DY2P932BJQ8EAXQFXXZPIP","A3UMFQFJ8HE82I","382GHPVPHSDM8N0F9141EAH7F0K34Z","","209.5","img/flower3.png","75","210.09999999403954","2","0","3","1","1,0.333,0.333,0.333,1,0.333,0.333,0.333,1","1,0.333,0.333,0.333,1,0.333,0.333,0.333,1","1",""
"","html-keyboard-response","297","89126","0.0-297.0","3Y5140Z9DY2P932BJQ8EAXQFXXZPIP","A3UMFQFJ8HE82I","382GHPVPHSDM8N0F9141EAH7F0K34Z","","null","<img src=""img/flower3.png"" style=""width:200px;border:14px solid red;"">","null","","","","","","","","",""
"","image-keyboard-response","298","89431","0.0-298.0","3Y5140Z9DY2P932BJQ8EAXQFXXZPIP","A3UMFQFJ8HE82I","382GHPVPHSDM8N0F9141EAH7F0K34Z","","305.10000002384186","img/flower5.png","76","305.69999998807907","3","1","1","1","1,0.333,0.333,0.333,1,0.333,0.333,0.333,1","1,0.333,0.333,0.333,1,0.333,0.333,0.333,1","1",""
"","html-keyboard-response","299","89733","0.0-299.0","3Y5140Z9DY2P932BJQ8EAXQFXXZPIP","A3UMFQFJ8HE82I","382GHPVPHSDM8N0F9141EAH7F0K34Z","","null","<img src=""img/flower5.png"" style=""width:200px; border:14px solid green;"">","null","","","","","","","","",""
"","image-keyboard-response","300","90039","0.0-300.0","3Y5140Z9DY2P932BJQ8EAXQFXXZPIP","A3UMFQFJ8HE82I","382GHPVPHSDM8N0F9141EAH7F0K34Z","","306","img/flower4.png","76","306.59999999403954","3","1","2","1","1,0.333,0.333,0.333,1,0.333,0.333,0.333,1","1,0.333,0.333,0.333,1,0.333,0.333,0.333,1","1",""
"","html-keyboard-response","301","90341","0.0-301.0","3Y5140Z9DY2P932BJQ8EAXQFXXZPIP","A3UMFQFJ8HE82I","382GHPVPHSDM8N0F9141EAH7F0K34Z","","null","<img src=""img/flower4.png"" style=""width:200px; border:14px solid green;"">","null","","","","","","","","",""
"","image-keyboard-response","302","90679","0.0-302.0","3Y5140Z9DY2P932BJQ8EAXQFXXZPIP","A3UMFQFJ8HE82I","382GHPVPHSDM8N0F9141EAH7F0K34Z","","337.5","img/flower4.png","76","338.30000001192093","3","0","2","1","1,0.333,0.333,0.333,1,0.333,0.333,0.333,1","1,0.333,0.333,0.333,1,0.333,0.333,0.333,1","1",""
"","html-keyboard-response","303","90990","0.0-303.0","3Y5140Z9DY2P932BJQ8EAXQFXXZPIP","A3UMFQFJ8HE82I","382GHPVPHSDM8N0F9141EAH7F0K34Z","","null","<img src=""img/flower4.png"" style=""width:200px;border:14px solid red;"">","null","","","","","","","","",""
"","image-keyboard-response","304","91303","0.0-304.0","3Y5140Z9DY2P932BJQ8EAXQFXXZPIP","A3UMFQFJ8HE82I","382GHPVPHSDM8N0F9141EAH7F0K34Z","","311.5","img/flower3.png","75","312.7999999821186","2","0","3","1","1,0.333,0.333,0.333,1,0.333,0.333,0.333,1","1,0.333,0.333,0.333,1,0.333,0.333,0.333,1","1",""
"","html-keyboard-response","305","91605","0.0-305.0","3Y5140Z9DY2P932BJQ8EAXQFXXZPIP","A3UMFQFJ8HE82I","382GHPVPHSDM8N0F9141EAH7F0K34Z","","null","<img src=""img/flower3.png"" style=""width:200px;border:14px solid red;"">","null","","","","","","","","",""
"","image-keyboard-response","306","91943","0.0-306.0","3Y5140Z9DY2P932BJQ8EAXQFXXZPIP","A3UMFQFJ8HE82I","382GHPVPHSDM8N0F9141EAH7F0K34Z","","336.90000000596046","img/flower5.png","74","337.60000002384186","1","1","1","1","1,0.333,0.333,0.333,1,0.333,0.333,0.333,1","1,0.333,0.333,0.333,1,0.333,0.333,0.333,1","1",""
"","html-keyboard-response","307","92245","0.0-307.0","3Y5140Z9DY2P932BJQ8EAXQFXXZPIP","A3UMFQFJ8HE82I","382GHPVPHSDM8N0F9141EAH7F0K34Z","","null","<img src=""img/flower5.png"" style=""width:200px; border:14px solid green;"">","null","","","","","","","","",""
"","image-keyboard-response","308","92839","0.0-308.0","3Y5140Z9DY2P932BJQ8EAXQFXXZPIP","A3UMFQFJ8HE82I","382GHPVPHSDM8N0F9141EAH7F0K34Z","","593.5999999940395","img/flower4.png","74","594.2000000178814","1","0","2","1","1,0.333,0.333,0.333,1,0.333,0.333,0.333,1","1,0.333,0.333,0.333,1,0.333,0.333,0.333,1","1",""
"","html-keyboard-response","309","93140","0.0-309.0","3Y5140Z9DY2P932BJQ8EAXQFXXZPIP","A3UMFQFJ8HE82I","382GHPVPHSDM8N0F9141EAH7F0K34Z","","null","<img src=""img/flower4.png"" style=""width:200px;border:14px solid red;"">","null","","","","","","","","",""
"","image-keyboard-response","310","94039","0.0-310.0","3Y5140Z9DY2P932BJQ8EAXQFXXZPIP","A3UMFQFJ8HE82I","382GHPVPHSDM8N0F9141EAH7F0K34Z","","898","img/flower3.png","76","898.5","3","1","3","1","1,0.333,0.333,0.333,1,0.333,0.333,0.333,1","1,0.333,0.333,0.333,1,0.333,0.333,0.333,1","1",""
"","html-keyboard-response","311","94351","0.0-311.0","3Y5140Z9DY2P932BJQ8EAXQFXXZPIP","A3UMFQFJ8HE82I","382GHPVPHSDM8N0F9141EAH7F0K34Z","","null","<img src=""img/flower3.png"" style=""width:200px; border:14px solid green;"">","null","","","","","","","","",""
"","image-keyboard-response","312","95175","0.0-312.0","3Y5140Z9DY2P932BJQ8EAXQFXXZPIP","A3UMFQFJ8HE82I","382GHPVPHSDM8N0F9141EAH7F0K34Z","","823.5","img/flower4.png","76","824.0999999940395","3","0","2","1","1,0.333,0.333,0.333,1,0.333,0.333,0.333,1","1,0.333,0.333,0.333,1,0.333,0.333,0.333,1","1",""
"","html-keyboard-response","313","95477","0.0-313.0","3Y5140Z9DY2P932BJQ8EAXQFXXZPIP","A3UMFQFJ8HE82I","382GHPVPHSDM8N0F9141EAH7F0K34Z","","null","<img src=""img/flower4.png"" style=""width:200px;border:14px solid red;"">","null","","","","","","","","",""
"","image-keyboard-response","314","95703","0.0-314.0","3Y5140Z9DY2P932BJQ8EAXQFXXZPIP","A3UMFQFJ8HE82I","382GHPVPHSDM8N0F9141EAH7F0K34Z","","225.19999998807907","img/flower5.png","74","225.80000001192093","1","1","1","1","1,0.333,0.333,0.333,1,0.333,0.333,0.333,1","1,0.333,0.333,0.333,1,0.333,0.333,0.333,1","1",""
"","html-keyboard-response","315","96005","0.0-315.0","3Y5140Z9DY2P932BJQ8EAXQFXXZPIP","A3UMFQFJ8HE82I","382GHPVPHSDM8N0F9141EAH7F0K34Z","","null","<img src=""img/flower5.png"" style=""width:200px; border:14px solid green;"">","null","","","","","","","","",""
"","image-keyboard-response","316","96584","0.0-316.0","3Y5140Z9DY2P932BJQ8EAXQFXXZPIP","A3UMFQFJ8HE82I","382GHPVPHSDM8N0F9141EAH7F0K34Z","","579","img/flower5.png","75","579.4000000059605","2","0","1","1","1,0.333,0.333,0.333,1,0.333,0.333,0.333,1","1,0.333,0.333,0.333,1,0.333,0.333,0.333,1","1",""
"","html-keyboard-response","317","96886","0.0-317.0","3Y5140Z9DY2P932BJQ8EAXQFXXZPIP","A3UMFQFJ8HE82I","382GHPVPHSDM8N0F9141EAH7F0K34Z","","null","<img src=""img/flower5.png"" style=""width:200px;border:14px solid red;"">","null","","","","","","","","",""
"","image-keyboard-response","318","97175","0.0-318.0","3Y5140Z9DY2P932BJQ8EAXQFXXZPIP","A3UMFQFJ8HE82I","382GHPVPHSDM8N0F9141EAH7F0K34Z","","288.59999999403954","img/flower4.png","76","289.09999999403954","3","1","2","1","1,0.333,0.333,0.333,1,0.333,0.333,0.333,1","1,0.333,0.333,0.333,1,0.333,0.333,0.333,1","1",""
"","html-keyboard-response","319","97478","0.0-319.0","3Y5140Z9DY2P932BJQ8EAXQFXXZPIP","A3UMFQFJ8HE82I","382GHPVPHSDM8N0F9141EAH7F0K34Z","","null","<img src=""img/flower4.png"" style=""width:200px; border:14px solid green;"">","null","","","","","","","","",""
"","image-keyboard-response","320","97895","0.0-320.0","3Y5140Z9DY2P932BJQ8EAXQFXXZPIP","A3UMFQFJ8HE82I","382GHPVPHSDM8N0F9141EAH7F0K34Z","","416.59999999403954","img/flower4.png","76","417.30000001192093","3","0","2","1","1,0.333,0.333,0.333,1,0.333,0.333,0.333,1","1,0.333,0.333,0.333,1,0.333,0.333,0.333,1","1",""
"","html-keyboard-response","321","98197","0.0-321.0","3Y5140Z9DY2P932BJQ8EAXQFXXZPIP","A3UMFQFJ8HE82I","382GHPVPHSDM8N0F9141EAH7F0K34Z","","null","<img src=""img/flower4.png"" style=""width:200px;border:14px solid red;"">","null","","","","","","","","",""
"","image-keyboard-response","322","98599","0.0-322.0","3Y5140Z9DY2P932BJQ8EAXQFXXZPIP","A3UMFQFJ8HE82I","382GHPVPHSDM8N0F9141EAH7F0K34Z","","401.59999999403954","img/flower5.png","74","402.09999999403954","1","1","1","1","1,0.333,0.333,0.333,1,0.333,0.333,0.333,1","1,0.333,0.333,0.333,1,0.333,0.333,0.333,1","1",""
"","html-keyboard-response","323","98901","0.0-323.0","3Y5140Z9DY2P932BJQ8EAXQFXXZPIP","A3UMFQFJ8HE82I","382GHPVPHSDM8N0F9141EAH7F0K34Z","","null","<img src=""img/flower5.png"" style=""width:200px; border:14px solid green;"">","null","","","","","","","","",""
"","image-keyboard-response","324","99255","0.0-324.0","3Y5140Z9DY2P932BJQ8EAXQFXXZPIP","A3UMFQFJ8HE82I","382GHPVPHSDM8N0F9141EAH7F0K34Z","","353.90000000596046","img/flower5.png","74","354.5","1","1","1","1","1,0.333,0.333,0.333,1,0.333,0.333,0.333,1","1,0.333,0.333,0.333,1,0.333,0.333,0.333,1","1",""
"","html-keyboard-response","325","99557","0.0-325.0","3Y5140Z9DY2P932BJQ8EAXQFXXZPIP","A3UMFQFJ8HE82I","382GHPVPHSDM8N0F9141EAH7F0K34Z","","null","<img src=""img/flower5.png"" style=""width:200px; border:14px solid green;"">","null","","","","","","","","",""
"","image-keyboard-response","326","100263","0.0-326.0","3Y5140Z9DY2P932BJQ8EAXQFXXZPIP","A3UMFQFJ8HE82I","382GHPVPHSDM8N0F9141EAH7F0K34Z","","705.1000000238419","img/flower3.png","74","705.6999999880791","1","1","3","1","1,0.333,0.333,0.333,1,0.333,0.333,0.333,1","1,0.333,0.333,0.333,1,0.333,0.333,0.333,1","1",""
"","html-keyboard-response","327","100565","0.0-327.0","3Y5140Z9DY2P932BJQ8EAXQFXXZPIP","A3UMFQFJ8HE82I","382GHPVPHSDM8N0F9141EAH7F0K34Z","","null","<img src=""img/flower3.png"" style=""width:200px; border:14px solid green;"">","null","","","","","","","","",""
"","image-keyboard-response","328","101047","0.0-328.0","3Y5140Z9DY2P932BJQ8EAXQFXXZPIP","A3UMFQFJ8HE82I","382GHPVPHSDM8N0F9141EAH7F0K34Z","","481.2000000178814","img/flower5.png","76","481.7999999821186","3","0","1","1","1,0.333,0.333,0.333,1,0.333,0.333,0.333,1","1,0.333,0.333,0.333,1,0.333,0.333,0.333,1","1",""
"","html-keyboard-response","329","101349","0.0-329.0","3Y5140Z9DY2P932BJQ8EAXQFXXZPIP","A3UMFQFJ8HE82I","382GHPVPHSDM8N0F9141EAH7F0K34Z","","null","<img src=""img/flower5.png"" style=""width:200px;border:14px solid red;"">","null","","","","","","","","",""
"","image-keyboard-response","330","101495","0.0-330.0","3Y5140Z9DY2P932BJQ8EAXQFXXZPIP","A3UMFQFJ8HE82I","382GHPVPHSDM8N0F9141EAH7F0K34Z","","144.89999997615814","img/flower5.png","75","145.59999999403954","2","0","1","1","1,0.333,0.333,0.333,1,0.333,0.333,0.333,1","1,0.333,0.333,0.333,1,0.333,0.333,0.333,1","1",""
"","html-keyboard-response","331","101796","0.0-331.0","3Y5140Z9DY2P932BJQ8EAXQFXXZPIP","A3UMFQFJ8HE82I","382GHPVPHSDM8N0F9141EAH7F0K34Z","","null","<img src=""img/flower5.png"" style=""width:200px;border:14px solid red;"">","null","","","","","","","","",""
"","image-keyboard-response","332","103031","0.0-332.0","3Y5140Z9DY2P932BJQ8EAXQFXXZPIP","A3UMFQFJ8HE82I","382GHPVPHSDM8N0F9141EAH7F0K34Z","","1233.0999999940395","img/flower4.png","74","1233.800000011921","1","0","2","1","1,0.333,0.333,0.333,1,0.333,0.333,0.333,1","1,0.333,0.333,0.333,1,0.333,0.333,0.333,1","1",""
"","html-keyboard-response","333","103332","0.0-333.0","3Y5140Z9DY2P932BJQ8EAXQFXXZPIP","A3UMFQFJ8HE82I","382GHPVPHSDM8N0F9141EAH7F0K34Z","","null","<img src=""img/flower4.png"" style=""width:200px;border:14px solid red;"">","null","","","","","","","","",""
"","image-keyboard-response","334","103511","0.0-334.0","3Y5140Z9DY2P932BJQ8EAXQFXXZPIP","A3UMFQFJ8HE82I","382GHPVPHSDM8N0F9141EAH7F0K34Z","","178","img/flower4.png","75","178.59999999403954","2","1","2","1","1,0.333,0.333,0.333,1,0.333,0.333,0.333,1","1,0.333,0.333,0.333,1,0.333,0.333,0.333,1","1",""
"","html-keyboard-response","335","103827","0.0-335.0","3Y5140Z9DY2P932BJQ8EAXQFXXZPIP","A3UMFQFJ8HE82I","382GHPVPHSDM8N0F9141EAH7F0K34Z","","null","<img src=""img/flower4.png"" style=""width:200px; border:14px solid green;"">","null","","","","","","","","",""
"","image-keyboard-response","336","104422","0.0-336.0","3Y5140Z9DY2P932BJQ8EAXQFXXZPIP","A3UMFQFJ8HE82I","382GHPVPHSDM8N0F9141EAH7F0K34Z","","595.4000000059605","img/flower3.png","75","596.0999999940395","2","1","3","1","1,0.333,0.333,0.333,1,0.333,0.333,0.333,1","1,0.333,0.333,0.333,1,0.333,0.333,0.333,1","1",""
"","html-keyboard-response","337","104725","0.0-337.0","3Y5140Z9DY2P932BJQ8EAXQFXXZPIP","A3UMFQFJ8HE82I","382GHPVPHSDM8N0F9141EAH7F0K34Z","","null","<img src=""img/flower3.png"" style=""width:200px; border:14px solid green;"">","null","","","","","","","","",""
"","image-keyboard-response","338","105238","0.0-338.0","3Y5140Z9DY2P932BJQ8EAXQFXXZPIP","A3UMFQFJ8HE82I","382GHPVPHSDM8N0F9141EAH7F0K34Z","","513.0999999940395","img/flower3.png","75","513.5999999940395","2","0","3","1","1,0.333,0.333,0.333,1,0.333,0.333,0.333,1","1,0.333,0.333,0.333,1,0.333,0.333,0.333,1","1",""
"","html-keyboard-response","339","105540","0.0-339.0","3Y5140Z9DY2P932BJQ8EAXQFXXZPIP","A3UMFQFJ8HE82I","382GHPVPHSDM8N0F9141EAH7F0K34Z","","null","<img src=""img/flower3.png"" style=""width:200px;border:14px solid red;"">","null","","","","","","","","",""
"","image-keyboard-response","340","105847","0.0-340.0","3Y5140Z9DY2P932BJQ8EAXQFXXZPIP","A3UMFQFJ8HE82I","382GHPVPHSDM8N0F9141EAH7F0K34Z","","305.69999998807907","img/flower3.png","74","306.40000000596046","1","1","3","1","1,0.333,0.333,0.333,1,0.333,0.333,0.333,1","1,0.333,0.333,0.333,1,0.333,0.333,0.333,1","1",""
"","html-keyboard-response","341","106149","0.0-341.0","3Y5140Z9DY2P932BJQ8EAXQFXXZPIP","A3UMFQFJ8HE82I","382GHPVPHSDM8N0F9141EAH7F0K34Z","","null","<img src=""img/flower3.png"" style=""width:200px; border:14px solid green;"">","null","","","","","","","","",""
"","image-keyboard-response","342","106454","0.0-342.0","3Y5140Z9DY2P932BJQ8EAXQFXXZPIP","A3UMFQFJ8HE82I","382GHPVPHSDM8N0F9141EAH7F0K34Z","","305.19999998807907","img/flower3.png","74","305.90000000596046","1","0","3","1","1,0.333,0.333,0.333,1,0.333,0.333,0.333,1","1,0.333,0.333,0.333,1,0.333,0.333,0.333,1","1",""
"","html-keyboard-response","343","106756","0.0-343.0","3Y5140Z9DY2P932BJQ8EAXQFXXZPIP","A3UMFQFJ8HE82I","382GHPVPHSDM8N0F9141EAH7F0K34Z","","null","<img src=""img/flower3.png"" style=""width:200px;border:14px solid red;"">","null","","","","","","","","",""
"","image-keyboard-response","344","107383","0.0-344.0","3Y5140Z9DY2P932BJQ8EAXQFXXZPIP","A3UMFQFJ8HE82I","382GHPVPHSDM8N0F9141EAH7F0K34Z","","625.9000000059605","img/flower3.png","74","626.5","1","1","3","1","1,0.333,0.333,0.333,1,0.333,0.333,0.333,1","1,0.333,0.333,0.333,1,0.333,0.333,0.333,1","1",""
"","html-keyboard-response","345","107687","0.0-345.0","3Y5140Z9DY2P932BJQ8EAXQFXXZPIP","A3UMFQFJ8HE82I","382GHPVPHSDM8N0F9141EAH7F0K34Z","","null","<img src=""img/flower3.png"" style=""width:200px; border:14px solid green;"">","null","","","","","","","","",""
"","image-keyboard-response","346","108310","0.0-346.0","3Y5140Z9DY2P932BJQ8EAXQFXXZPIP","A3UMFQFJ8HE82I","382GHPVPHSDM8N0F9141EAH7F0K34Z","","620.2999999821186","img/flower4.png","74","623","1","1","2","1","1,0.333,0.333,0.333,1,0.333,0.333,0.333,1","1,0.333,0.333,0.333,1,0.333,0.333,0.333,1","1",""
"","html-keyboard-response","347","108612","0.0-347.0","3Y5140Z9DY2P932BJQ8EAXQFXXZPIP","A3UMFQFJ8HE82I","382GHPVPHSDM8N0F9141EAH7F0K34Z","","null","<img src=""img/flower4.png"" style=""width:200px; border:14px solid green;"">","null","","","","","","","","",""
"","image-keyboard-response","348","108966","0.0-348.0","3Y5140Z9DY2P932BJQ8EAXQFXXZPIP","A3UMFQFJ8HE82I","382GHPVPHSDM8N0F9141EAH7F0K34Z","","353.7000000178814","img/flower5.png","74","354.30000001192093","1","1","1","1","1,0.333,0.333,0.333,1,0.333,0.333,0.333,1","1,0.333,0.333,0.333,1,0.333,0.333,0.333,1","1",""
"","html-keyboard-response","349","109268","0.0-349.0","3Y5140Z9DY2P932BJQ8EAXQFXXZPIP","A3UMFQFJ8HE82I","382GHPVPHSDM8N0F9141EAH7F0K34Z","","null","<img src=""img/flower5.png"" style=""width:200px; border:14px solid green;"">","null","","","","","","","","",""
"","image-keyboard-response","350","109590","0.0-350.0","3Y5140Z9DY2P932BJQ8EAXQFXXZPIP","A3UMFQFJ8HE82I","382GHPVPHSDM8N0F9141EAH7F0K34Z","","322","img/flower3.png","74","322.5","1","0","3","1","1,0.333,0.333,0.333,1,0.333,0.333,0.333,1","1,0.333,0.333,0.333,1,0.333,0.333,0.333,1","1",""
"","html-keyboard-response","351","109893","0.0-351.0","3Y5140Z9DY2P932BJQ8EAXQFXXZPIP","A3UMFQFJ8HE82I","382GHPVPHSDM8N0F9141EAH7F0K34Z","","null","<img src=""img/flower3.png"" style=""width:200px;border:14px solid red;"">","null","","","","","","","","",""
"","image-keyboard-response","352","110422","0.0-352.0","3Y5140Z9DY2P932BJQ8EAXQFXXZPIP","A3UMFQFJ8HE82I","382GHPVPHSDM8N0F9141EAH7F0K34Z","","528.5","img/flower3.png","76","529.2000000178814","3","1","3","1","1,0.333,0.333,0.333,1,0.333,0.333,0.333,1","1,0.333,0.333,0.333,1,0.333,0.333,0.333,1","1",""
"","html-keyboard-response","353","110724","0.0-353.0","3Y5140Z9DY2P932BJQ8EAXQFXXZPIP","A3UMFQFJ8HE82I","382GHPVPHSDM8N0F9141EAH7F0K34Z","","null","<img src=""img/flower3.png"" style=""width:200px; border:14px solid green;"">","null","","","","","","","","",""
"","image-keyboard-response","354","111142","0.0-354.0","3Y5140Z9DY2P932BJQ8EAXQFXXZPIP","A3UMFQFJ8HE82I","382GHPVPHSDM8N0F9141EAH7F0K34Z","","417.40000000596046","img/flower5.png","76","418","3","0","1","1","1,0.333,0.333,0.333,1,0.333,0.333,0.333,1","1,0.333,0.333,0.333,1,0.333,0.333,0.333,1","1",""
"","html-keyboard-response","355","111444","0.0-355.0","3Y5140Z9DY2P932BJQ8EAXQFXXZPIP","A3UMFQFJ8HE82I","382GHPVPHSDM8N0F9141EAH7F0K34Z","","null","<img src=""img/flower5.png"" style=""width:200px;border:14px solid red;"">","null","","","","","","","","",""
"","image-keyboard-response","356","111639","0.0-356.0","3Y5140Z9DY2P932BJQ8EAXQFXXZPIP","A3UMFQFJ8HE82I","382GHPVPHSDM8N0F9141EAH7F0K34Z","","193.90000000596046","img/flower3.png","74","194.59999999403954","1","1","3","1","1,0.333,0.333,0.333,1,0.333,0.333,0.333,1","1,0.333,0.333,0.333,1,0.333,0.333,0.333,1","1",""
"","html-keyboard-response","357","111941","0.0-357.0","3Y5140Z9DY2P932BJQ8EAXQFXXZPIP","A3UMFQFJ8HE82I","382GHPVPHSDM8N0F9141EAH7F0K34Z","","null","<img src=""img/flower3.png"" style=""width:200px; border:14px solid green;"">","null","","","","","","","","",""
"","image-keyboard-response","358","112278","0.0-358.0","3Y5140Z9DY2P932BJQ8EAXQFXXZPIP","A3UMFQFJ8HE82I","382GHPVPHSDM8N0F9141EAH7F0K34Z","","335.69999998807907","img/flower5.png","74","336.59999999403954","1","1","1","1","1,0.333,0.333,0.333,1,0.333,0.333,0.333,1","1,0.333,0.333,0.333,1,0.333,0.333,0.333,1","1",""
"","html-keyboard-response","359","112581","0.0-359.0","3Y5140Z9DY2P932BJQ8EAXQFXXZPIP","A3UMFQFJ8HE82I","382GHPVPHSDM8N0F9141EAH7F0K34Z","","null","<img src=""img/flower5.png"" style=""width:200px; border:14px solid green;"">","null","","","","","","","","",""
"","image-keyboard-response","360","112934","0.0-360.0","3Y5140Z9DY2P932BJQ8EAXQFXXZPIP","A3UMFQFJ8HE82I","382GHPVPHSDM8N0F9141EAH7F0K34Z","","352.89999997615814","img/flower3.png","74","353.5","1","0","3","1","1,0.333,0.333,0.333,1,0.333,0.333,0.333,1","1,0.333,0.333,0.333,1,0.333,0.333,0.333,1","1",""
"","html-keyboard-response","361","113237","0.0-361.0","3Y5140Z9DY2P932BJQ8EAXQFXXZPIP","A3UMFQFJ8HE82I","382GHPVPHSDM8N0F9141EAH7F0K34Z","","null","<img src=""img/flower3.png"" style=""width:200px;border:14px solid red;"">","null","","","","","","","","",""
"","html-keyboard-response","362","117396","0.0-362.0","3Y5140Z9DY2P932BJQ8EAXQFXXZPIP","A3UMFQFJ8HE82I","382GHPVPHSDM8N0F9141EAH7F0K34Z","","","","","","","","","","","","",""
"","instructions","363","122377","0.0-363.0","3Y5140Z9DY2P932BJQ8EAXQFXXZPIP","A3UMFQFJ8HE82I","382GHPVPHSDM8N0F9141EAH7F0K34Z","[{""page_index"":0,""viewing_time"":4979.5}]","4979.800000011921","","","","","","","","","","",""
"","survey-text","364","134946","0.0-364.0","3Y5140Z9DY2P932BJQ8EAXQFXXZPIP","A3UMFQFJ8HE82I","382GHPVPHSDM8N0F9141EAH7F0K34Z","","12564.300000011921","","","","","","","","","","","{""Q0"":""A3UMFQFJ8HE82I""}"
