"success","trial_type","trial_index","time_elapsed","internal_node_id","assignmentID","mturkID","hitID","view_history","rt","stimulus","key_press","reactionTime","a","r","s","cond","reward_cond","reward_cond_actual","reward_matrix_idx","responses"
"true","fullscreen","0","5435","0.0-0.0","3GNA64GUZFQYXR8BCJ49LTCKX345Q3","A3V2O71AQ29DRZ","3HUR21WDDUBEMSLDIXZW1FAIHW8YX3","","","","","","","","","","","","",""
"","instructions","1","49794","0.0-1.0","3GNA64GUZFQYXR8BCJ49LTCKX345Q3","A3V2O71AQ29DRZ","3HUR21WDDUBEMSLDIXZW1FAIHW8YX3","[{""page_index"":0,""viewing_time"":12523},{""page_index"":1,""viewing_time"":5113},{""page_index"":2,""viewing_time"":4168},{""page_index"":3,""viewing_time"":2707},{""page_index"":4,""viewing_time"":12015},{""page_index"":5,""viewing_time"":2378},{""page_index"":6,""viewing_time"":2785},{""page_index"":7,""viewing_time"":2668}]","44357","","","","","","","","","","",""
"","image-keyboard-response","2","51796","0.0-2.0","3GNA64GUZFQYXR8BCJ49LTCKX345Q3","A3V2O71AQ29DRZ","3HUR21WDDUBEMSLDIXZW1FAIHW8YX3","","","img/flower6.png","","2001","-1","0","3","1","1,0.333,0.333,0.333,1,0.333,0.333,0.333,1","1,0.333,0.333,0.333,1,0.333,0.333,0.333,1","1",""
"","html-keyboard-response","3","52099","0.0-3.0","3GNA64GUZFQYXR8BCJ49LTCKX345Q3","A3V2O71AQ29DRZ","3HUR21WDDUBEMSLDIXZW1FAIHW8YX3","","null","<img src=""img/flower6.png"" style=""width:200px;border:14px solid red;"">","null","","","","","","","","",""
"","image-keyboard-response","4","53025","0.0-4.0","3GNA64GUZFQYXR8BCJ49LTCKX345Q3","A3V2O71AQ29DRZ","3HUR21WDDUBEMSLDIXZW1FAIHW8YX3","","924","img/flower4.png","75","926","2","0","1","1","1,0.333,0.333,0.333,1,0.333,0.333,0.333,1","1,0.333,0.333,0.333,1,0.333,0.333,0.333,1","1",""
"","html-keyboard-response","5","53326","0.0-5.0","3GNA64GUZFQYXR8BCJ49LTCKX345Q3","A3V2O71AQ29DRZ","3HUR21WDDUBEMSLDIXZW1FAIHW8YX3","","null","<img src=""img/flower4.png"" style=""width:200px;border:14px solid red;"">","null","","","","","","","","",""
"","image-keyboard-response","6","53396","0.0-6.0","3GNA64GUZFQYXR8BCJ49LTCKX345Q3","A3V2O71AQ29DRZ","3HUR21WDDUBEMSLDIXZW1FAIHW8YX3","","70","img/flower4.png","76","71","3","0","1","1","1,0.333,0.333,0.333,1,0.333,0.333,0.333,1","1,0.333,0.333,0.333,1,0.333,0.333,0.333,1","1",""
"","html-keyboard-response","7","53697","0.0-7.0","3GNA64GUZFQYXR8BCJ49LTCKX345Q3","A3V2O71AQ29DRZ","3HUR21WDDUBEMSLDIXZW1FAIHW8YX3","","null","<img src=""img/flower4.png"" style=""width:200px;border:14px solid red;"">","null","","","","","","","","",""
"","image-keyboard-response","8","53709","0.0-8.0","3GNA64GUZFQYXR8BCJ49LTCKX345Q3","A3V2O71AQ29DRZ","3HUR21WDDUBEMSLDIXZW1FAIHW8YX3","","11","img/flower2.png","76","12","3","0","2","1","1,0.333,0.333,0.333,1,0.333,0.333,0.333,1","1,0.333,0.333,0.333,1,0.333,0.333,0.333,1","1",""
"","html-keyboard-response","9","54009","0.0-9.0","3GNA64GUZFQYXR8BCJ49LTCKX345Q3","A3V2O71AQ29DRZ","3HUR21WDDUBEMSLDIXZW1FAIHW8YX3","","null","<img src=""img/flower2.png"" style=""width:200px;border:14px solid red;"">","null","","","","","","","","",""
"","image-keyboard-response","10","54110","0.0-10.0","3GNA64GUZFQYXR8BCJ49LTCKX345Q3","A3V2O71AQ29DRZ","3HUR21WDDUBEMSLDIXZW1FAIHW8YX3","","100","img/flower6.png","76","101","3","1","3","1","1,0.333,0.333,0.333,1,0.333,0.333,0.333,1","1,0.333,0.333,0.333,1,0.333,0.333,0.333,1","1",""
"","html-keyboard-response","11","54434","0.0-11.0","3GNA64GUZFQYXR8BCJ49LTCKX345Q3","A3V2O71AQ29DRZ","3HUR21WDDUBEMSLDIXZW1FAIHW8YX3","","null","<img src=""img/flower6.png"" style=""width:200px; border:14px solid green;"">","null","","","","","","","","",""
"","image-keyboard-response","12","54519","0.0-12.0","3GNA64GUZFQYXR8BCJ49LTCKX345Q3","A3V2O71AQ29DRZ","3HUR21WDDUBEMSLDIXZW1FAIHW8YX3","","84","img/flower4.png","74","85","1","1","1","1","1,0.333,0.333,0.333,1,0.333,0.333,0.333,1","1,0.333,0.333,0.333,1,0.333,0.333,0.333,1","1",""
"","html-keyboard-response","13","54820","0.0-13.0","3GNA64GUZFQYXR8BCJ49LTCKX345Q3","A3V2O71AQ29DRZ","3HUR21WDDUBEMSLDIXZW1FAIHW8YX3","","null","<img src=""img/flower4.png"" style=""width:200px; border:14px solid green;"">","null","","","","","","","","",""
"","image-keyboard-response","14","54953","0.0-14.0","3GNA64GUZFQYXR8BCJ49LTCKX345Q3","A3V2O71AQ29DRZ","3HUR21WDDUBEMSLDIXZW1FAIHW8YX3","","133","img/flower4.png","75","133","2","1","1","1","1,0.333,0.333,0.333,1,0.333,0.333,0.333,1","1,0.333,0.333,0.333,1,0.333,0.333,0.333,1","1",""
"","html-keyboard-response","15","55255","0.0-15.0","3GNA64GUZFQYXR8BCJ49LTCKX345Q3","A3V2O71AQ29DRZ","3HUR21WDDUBEMSLDIXZW1FAIHW8YX3","","null","<img src=""img/flower4.png"" style=""width:200px; border:14px solid green;"">","null","","","","","","","","",""
"","image-keyboard-response","16","55287","0.0-16.0","3GNA64GUZFQYXR8BCJ49LTCKX345Q3","A3V2O71AQ29DRZ","3HUR21WDDUBEMSLDIXZW1FAIHW8YX3","","32","img/flower2.png","75","32","2","1","2","1","1,0.333,0.333,0.333,1,0.333,0.333,0.333,1","1,0.333,0.333,0.333,1,0.333,0.333,0.333,1","1",""
"","html-keyboard-response","17","55589","0.0-17.0","3GNA64GUZFQYXR8BCJ49LTCKX345Q3","A3V2O71AQ29DRZ","3HUR21WDDUBEMSLDIXZW1FAIHW8YX3","","null","<img src=""img/flower2.png"" style=""width:200px; border:14px solid green;"">","null","","","","","","","","",""
"","image-keyboard-response","18","55647","0.0-18.0","3GNA64GUZFQYXR8BCJ49LTCKX345Q3","A3V2O71AQ29DRZ","3HUR21WDDUBEMSLDIXZW1FAIHW8YX3","","58","img/flower2.png","74","58","1","0","2","1","1,0.333,0.333,0.333,1,0.333,0.333,0.333,1","1,0.333,0.333,0.333,1,0.333,0.333,0.333,1","1",""
"","html-keyboard-response","19","55949","0.0-19.0","3GNA64GUZFQYXR8BCJ49LTCKX345Q3","A3V2O71AQ29DRZ","3HUR21WDDUBEMSLDIXZW1FAIHW8YX3","","null","<img src=""img/flower2.png"" style=""width:200px;border:14px solid red;"">","null","","","","","","","","",""
"","image-keyboard-response","20","56014","0.0-20.0","3GNA64GUZFQYXR8BCJ49LTCKX345Q3","A3V2O71AQ29DRZ","3HUR21WDDUBEMSLDIXZW1FAIHW8YX3","","64","img/flower2.png","76","65","3","0","2","1","1,0.333,0.333,0.333,1,0.333,0.333,0.333,1","1,0.333,0.333,0.333,1,0.333,0.333,0.333,1","1",""
"","html-keyboard-response","21","56316","0.0-21.0","3GNA64GUZFQYXR8BCJ49LTCKX345Q3","A3V2O71AQ29DRZ","3HUR21WDDUBEMSLDIXZW1FAIHW8YX3","","null","<img src=""img/flower2.png"" style=""width:200px;border:14px solid red;"">","null","","","","","","","","",""
"","image-keyboard-response","22","56375","0.0-22.0","3GNA64GUZFQYXR8BCJ49LTCKX345Q3","A3V2O71AQ29DRZ","3HUR21WDDUBEMSLDIXZW1FAIHW8YX3","","58","img/flower6.png","75","59","2","0","3","1","1,0.333,0.333,0.333,1,0.333,0.333,0.333,1","1,0.333,0.333,0.333,1,0.333,0.333,0.333,1","1",""
"","html-keyboard-response","23","56677","0.0-23.0","3GNA64GUZFQYXR8BCJ49LTCKX345Q3","A3V2O71AQ29DRZ","3HUR21WDDUBEMSLDIXZW1FAIHW8YX3","","null","<img src=""img/flower6.png"" style=""width:200px;border:14px solid red;"">","null","","","","","","","","",""
"","image-keyboard-response","24","56721","0.0-24.0","3GNA64GUZFQYXR8BCJ49LTCKX345Q3","A3V2O71AQ29DRZ","3HUR21WDDUBEMSLDIXZW1FAIHW8YX3","","44","img/flower4.png","75","44","2","0","1","1","1,0.333,0.333,0.333,1,0.333,0.333,0.333,1","1,0.333,0.333,0.333,1,0.333,0.333,0.333,1","1",""
"","html-keyboard-response","25","57022","0.0-25.0","3GNA64GUZFQYXR8BCJ49LTCKX345Q3","A3V2O71AQ29DRZ","3HUR21WDDUBEMSLDIXZW1FAIHW8YX3","","null","<img src=""img/flower4.png"" style=""width:200px;border:14px solid red;"">","null","","","","","","","","",""
"","image-keyboard-response","26","57044","0.0-26.0","3GNA64GUZFQYXR8BCJ49LTCKX345Q3","A3V2O71AQ29DRZ","3HUR21WDDUBEMSLDIXZW1FAIHW8YX3","","21","img/flower6.png","76","22","3","1","3","1","1,0.333,0.333,0.333,1,0.333,0.333,0.333,1","1,0.333,0.333,0.333,1,0.333,0.333,0.333,1","1",""
"","html-keyboard-response","27","57346","0.0-27.0","3GNA64GUZFQYXR8BCJ49LTCKX345Q3","A3V2O71AQ29DRZ","3HUR21WDDUBEMSLDIXZW1FAIHW8YX3","","null","<img src=""img/flower6.png"" style=""width:200px; border:14px solid green;"">","null","","","","","","","","",""
"","image-keyboard-response","28","57398","0.0-28.0","3GNA64GUZFQYXR8BCJ49LTCKX345Q3","A3V2O71AQ29DRZ","3HUR21WDDUBEMSLDIXZW1FAIHW8YX3","","52","img/flower4.png","75","52","2","0","1","1","1,0.333,0.333,0.333,1,0.333,0.333,0.333,1","1,0.333,0.333,0.333,1,0.333,0.333,0.333,1","1",""
"","html-keyboard-response","29","57700","0.0-29.0","3GNA64GUZFQYXR8BCJ49LTCKX345Q3","A3V2O71AQ29DRZ","3HUR21WDDUBEMSLDIXZW1FAIHW8YX3","","null","<img src=""img/flower4.png"" style=""width:200px;border:14px solid red;"">","null","","","","","","","","",""
"","image-keyboard-response","30","57852","0.0-30.0","3GNA64GUZFQYXR8BCJ49LTCKX345Q3","A3V2O71AQ29DRZ","3HUR21WDDUBEMSLDIXZW1FAIHW8YX3","","151","img/flower6.png","74","152","1","0","3","1","1,0.333,0.333,0.333,1,0.333,0.333,0.333,1","1,0.333,0.333,0.333,1,0.333,0.333,0.333,1","1",""
"","html-keyboard-response","31","58152","0.0-31.0","3GNA64GUZFQYXR8BCJ49LTCKX345Q3","A3V2O71AQ29DRZ","3HUR21WDDUBEMSLDIXZW1FAIHW8YX3","","null","<img src=""img/flower6.png"" style=""width:200px;border:14px solid red;"">","null","","","","","","","","",""
"","image-keyboard-response","32","58213","0.0-32.0","3GNA64GUZFQYXR8BCJ49LTCKX345Q3","A3V2O71AQ29DRZ","3HUR21WDDUBEMSLDIXZW1FAIHW8YX3","","61","img/flower2.png","76","61","3","0","2","1","1,0.333,0.333,0.333,1,0.333,0.333,0.333,1","1,0.333,0.333,0.333,1,0.333,0.333,0.333,1","1",""
"","html-keyboard-response","33","58515","0.0-33.0","3GNA64GUZFQYXR8BCJ49LTCKX345Q3","A3V2O71AQ29DRZ","3HUR21WDDUBEMSLDIXZW1FAIHW8YX3","","null","<img src=""img/flower2.png"" style=""width:200px;border:14px solid red;"">","null","","","","","","","","",""
"","image-keyboard-response","34","58551","0.0-34.0","3GNA64GUZFQYXR8BCJ49LTCKX345Q3","A3V2O71AQ29DRZ","3HUR21WDDUBEMSLDIXZW1FAIHW8YX3","","35","img/flower4.png","75","36","2","0","1","1","1,0.333,0.333,0.333,1,0.333,0.333,0.333,1","1,0.333,0.333,0.333,1,0.333,0.333,0.333,1","1",""
"","html-keyboard-response","35","58852","0.0-35.0","3GNA64GUZFQYXR8BCJ49LTCKX345Q3","A3V2O71AQ29DRZ","3HUR21WDDUBEMSLDIXZW1FAIHW8YX3","","null","<img src=""img/flower4.png"" style=""width:200px;border:14px solid red;"">","null","","","","","","","","",""
"","image-keyboard-response","36","58892","0.0-36.0","3GNA64GUZFQYXR8BCJ49LTCKX345Q3","A3V2O71AQ29DRZ","3HUR21WDDUBEMSLDIXZW1FAIHW8YX3","","40","img/flower4.png","74","40","1","1","1","1","1,0.333,0.333,0.333,1,0.333,0.333,0.333,1","1,0.333,0.333,0.333,1,0.333,0.333,0.333,1","1",""
"","html-keyboard-response","37","59194","0.0-37.0","3GNA64GUZFQYXR8BCJ49LTCKX345Q3","A3V2O71AQ29DRZ","3HUR21WDDUBEMSLDIXZW1FAIHW8YX3","","null","<img src=""img/flower4.png"" style=""width:200px; border:14px solid green;"">","null","","","","","","","","",""
"","image-keyboard-response","38","59197","0.0-38.0","3GNA64GUZFQYXR8BCJ49LTCKX345Q3","A3V2O71AQ29DRZ","3HUR21WDDUBEMSLDIXZW1FAIHW8YX3","","2","img/flower4.png","75","3","2","1","1","1","1,0.333,0.333,0.333,1,0.333,0.333,0.333,1","1,0.333,0.333,0.333,1,0.333,0.333,0.333,1","1",""
"","html-keyboard-response","39","59510","0.0-39.0","3GNA64GUZFQYXR8BCJ49LTCKX345Q3","A3V2O71AQ29DRZ","3HUR21WDDUBEMSLDIXZW1FAIHW8YX3","","null","<img src=""img/flower4.png"" style=""width:200px; border:14px solid green;"">","null","","","","","","","","",""
"","image-keyboard-response","40","59542","0.0-40.0","3GNA64GUZFQYXR8BCJ49LTCKX345Q3","A3V2O71AQ29DRZ","3HUR21WDDUBEMSLDIXZW1FAIHW8YX3","","32","img/flower6.png","74","32","1","0","3","1","1,0.333,0.333,0.333,1,0.333,0.333,0.333,1","1,0.333,0.333,0.333,1,0.333,0.333,0.333,1","1",""
"","html-keyboard-response","41","59843","0.0-41.0","3GNA64GUZFQYXR8BCJ49LTCKX345Q3","A3V2O71AQ29DRZ","3HUR21WDDUBEMSLDIXZW1FAIHW8YX3","","null","<img src=""img/flower6.png"" style=""width:200px;border:14px solid red;"">","null","","","","","","","","",""
"","image-keyboard-response","42","59869","0.0-42.0","3GNA64GUZFQYXR8BCJ49LTCKX345Q3","A3V2O71AQ29DRZ","3HUR21WDDUBEMSLDIXZW1FAIHW8YX3","","26","img/flower6.png","76","26","3","1","3","1","1,0.333,0.333,0.333,1,0.333,0.333,0.333,1","1,0.333,0.333,0.333,1,0.333,0.333,0.333,1","1",""
"","html-keyboard-response","43","60171","0.0-43.0","3GNA64GUZFQYXR8BCJ49LTCKX345Q3","A3V2O71AQ29DRZ","3HUR21WDDUBEMSLDIXZW1FAIHW8YX3","","null","<img src=""img/flower6.png"" style=""width:200px; border:14px solid green;"">","null","","","","","","","","",""
"","image-keyboard-response","44","60239","0.0-44.0","3GNA64GUZFQYXR8BCJ49LTCKX345Q3","A3V2O71AQ29DRZ","3HUR21WDDUBEMSLDIXZW1FAIHW8YX3","","68","img/flower4.png","76","69","3","0","1","1","1,0.333,0.333,0.333,1,0.333,0.333,0.333,1","1,0.333,0.333,0.333,1,0.333,0.333,0.333,1","1",""
"","html-keyboard-response","45","60541","0.0-45.0","3GNA64GUZFQYXR8BCJ49LTCKX345Q3","A3V2O71AQ29DRZ","3HUR21WDDUBEMSLDIXZW1FAIHW8YX3","","null","<img src=""img/flower4.png"" style=""width:200px;border:14px solid red;"">","null","","","","","","","","",""
"","image-keyboard-response","46","60550","0.0-46.0","3GNA64GUZFQYXR8BCJ49LTCKX345Q3","A3V2O71AQ29DRZ","3HUR21WDDUBEMSLDIXZW1FAIHW8YX3","","9","img/flower6.png","74","9","1","0","3","1","1,0.333,0.333,0.333,1,0.333,0.333,0.333,1","1,0.333,0.333,0.333,1,0.333,0.333,0.333,1","1",""
"","html-keyboard-response","47","60851","0.0-47.0","3GNA64GUZFQYXR8BCJ49LTCKX345Q3","A3V2O71AQ29DRZ","3HUR21WDDUBEMSLDIXZW1FAIHW8YX3","","null","<img src=""img/flower6.png"" style=""width:200px;border:14px solid red;"">","null","","","","","","","","",""
"","image-keyboard-response","48","60891","0.0-48.0","3GNA64GUZFQYXR8BCJ49LTCKX345Q3","A3V2O71AQ29DRZ","3HUR21WDDUBEMSLDIXZW1FAIHW8YX3","","40","img/flower6.png","74","41","1","0","3","1","1,0.333,0.333,0.333,1,0.333,0.333,0.333,1","1,0.333,0.333,0.333,1,0.333,0.333,0.333,1","1",""
"","html-keyboard-response","49","61192","0.0-49.0","3GNA64GUZFQYXR8BCJ49LTCKX345Q3","A3V2O71AQ29DRZ","3HUR21WDDUBEMSLDIXZW1FAIHW8YX3","","null","<img src=""img/flower6.png"" style=""width:200px;border:14px solid red;"">","null","","","","","","","","",""
"","image-keyboard-response","50","61361","0.0-50.0","3GNA64GUZFQYXR8BCJ49LTCKX345Q3","A3V2O71AQ29DRZ","3HUR21WDDUBEMSLDIXZW1FAIHW8YX3","","169","img/flower2.png","76","169","3","1","2","1","1,0.333,0.333,0.333,1,0.333,0.333,0.333,1","1,0.333,0.333,0.333,1,0.333,0.333,0.333,1","1",""
"","html-keyboard-response","51","61663","0.0-51.0","3GNA64GUZFQYXR8BCJ49LTCKX345Q3","A3V2O71AQ29DRZ","3HUR21WDDUBEMSLDIXZW1FAIHW8YX3","","null","<img src=""img/flower2.png"" style=""width:200px; border:14px solid green;"">","null","","","","","","","","",""
"","image-keyboard-response","52","61770","0.0-52.0","3GNA64GUZFQYXR8BCJ49LTCKX345Q3","A3V2O71AQ29DRZ","3HUR21WDDUBEMSLDIXZW1FAIHW8YX3","","106","img/flower2.png","75","107","2","1","2","1","1,0.333,0.333,0.333,1,0.333,0.333,0.333,1","1,0.333,0.333,0.333,1,0.333,0.333,0.333,1","1",""
"","html-keyboard-response","53","62070","0.0-53.0","3GNA64GUZFQYXR8BCJ49LTCKX345Q3","A3V2O71AQ29DRZ","3HUR21WDDUBEMSLDIXZW1FAIHW8YX3","","null","<img src=""img/flower2.png"" style=""width:200px; border:14px solid green;"">","null","","","","","","","","",""
"","image-keyboard-response","54","62272","0.0-54.0","3GNA64GUZFQYXR8BCJ49LTCKX345Q3","A3V2O71AQ29DRZ","3HUR21WDDUBEMSLDIXZW1FAIHW8YX3","","202","img/flower2.png","74","202","1","0","2","1","1,0.333,0.333,0.333,1,0.333,0.333,0.333,1","1,0.333,0.333,0.333,1,0.333,0.333,0.333,1","1",""
"","html-keyboard-response","55","62573","0.0-55.0","3GNA64GUZFQYXR8BCJ49LTCKX345Q3","A3V2O71AQ29DRZ","3HUR21WDDUBEMSLDIXZW1FAIHW8YX3","","null","<img src=""img/flower2.png"" style=""width:200px;border:14px solid red;"">","null","","","","","","","","",""
"","image-keyboard-response","56","62728","0.0-56.0","3GNA64GUZFQYXR8BCJ49LTCKX345Q3","A3V2O71AQ29DRZ","3HUR21WDDUBEMSLDIXZW1FAIHW8YX3","","155","img/flower6.png","75","156","2","1","3","1","1,0.333,0.333,0.333,1,0.333,0.333,0.333,1","1,0.333,0.333,0.333,1,0.333,0.333,0.333,1","1",""
"","html-keyboard-response","57","63030","0.0-57.0","3GNA64GUZFQYXR8BCJ49LTCKX345Q3","A3V2O71AQ29DRZ","3HUR21WDDUBEMSLDIXZW1FAIHW8YX3","","null","<img src=""img/flower6.png"" style=""width:200px; border:14px solid green;"">","null","","","","","","","","",""
"","image-keyboard-response","58","63128","0.0-58.0","3GNA64GUZFQYXR8BCJ49LTCKX345Q3","A3V2O71AQ29DRZ","3HUR21WDDUBEMSLDIXZW1FAIHW8YX3","","97","img/flower6.png","75","98","2","0","3","1","1,0.333,0.333,0.333,1,0.333,0.333,0.333,1","1,0.333,0.333,0.333,1,0.333,0.333,0.333,1","1",""
"","html-keyboard-response","59","63429","0.0-59.0","3GNA64GUZFQYXR8BCJ49LTCKX345Q3","A3V2O71AQ29DRZ","3HUR21WDDUBEMSLDIXZW1FAIHW8YX3","","null","<img src=""img/flower6.png"" style=""width:200px;border:14px solid red;"">","null","","","","","","","","",""
"","image-keyboard-response","60","63500","0.0-60.0","3GNA64GUZFQYXR8BCJ49LTCKX345Q3","A3V2O71AQ29DRZ","3HUR21WDDUBEMSLDIXZW1FAIHW8YX3","","70","img/flower2.png","76","71","3","0","2","1","1,0.333,0.333,0.333,1,0.333,0.333,0.333,1","1,0.333,0.333,0.333,1,0.333,0.333,0.333,1","1",""
"","html-keyboard-response","61","63802","0.0-61.0","3GNA64GUZFQYXR8BCJ49LTCKX345Q3","A3V2O71AQ29DRZ","3HUR21WDDUBEMSLDIXZW1FAIHW8YX3","","null","<img src=""img/flower2.png"" style=""width:200px;border:14px solid red;"">","null","","","","","","","","",""
"","image-keyboard-response","62","63872","0.0-62.0","3GNA64GUZFQYXR8BCJ49LTCKX345Q3","A3V2O71AQ29DRZ","3HUR21WDDUBEMSLDIXZW1FAIHW8YX3","","70","img/flower2.png","76","70","3","0","2","1","1,0.333,0.333,0.333,1,0.333,0.333,0.333,1","1,0.333,0.333,0.333,1,0.333,0.333,0.333,1","1",""
"","html-keyboard-response","63","64174","0.0-63.0","3GNA64GUZFQYXR8BCJ49LTCKX345Q3","A3V2O71AQ29DRZ","3HUR21WDDUBEMSLDIXZW1FAIHW8YX3","","null","<img src=""img/flower2.png"" style=""width:200px;border:14px solid red;"">","null","","","","","","","","",""
"","image-keyboard-response","64","64229","0.0-64.0","3GNA64GUZFQYXR8BCJ49LTCKX345Q3","A3V2O71AQ29DRZ","3HUR21WDDUBEMSLDIXZW1FAIHW8YX3","","55","img/flower6.png","74","55","1","1","3","1","1,0.333,0.333,0.333,1,0.333,0.333,0.333,1","1,0.333,0.333,0.333,1,0.333,0.333,0.333,1","1",""
"","html-keyboard-response","65","64530","0.0-65.0","3GNA64GUZFQYXR8BCJ49LTCKX345Q3","A3V2O71AQ29DRZ","3HUR21WDDUBEMSLDIXZW1FAIHW8YX3","","null","<img src=""img/flower6.png"" style=""width:200px; border:14px solid green;"">","null","","","","","","","","",""
"","image-keyboard-response","66","64620","0.0-66.0","3GNA64GUZFQYXR8BCJ49LTCKX345Q3","A3V2O71AQ29DRZ","3HUR21WDDUBEMSLDIXZW1FAIHW8YX3","","90","img/flower2.png","76","90","3","0","2","1","1,0.333,0.333,0.333,1,0.333,0.333,0.333,1","1,0.333,0.333,0.333,1,0.333,0.333,0.333,1","1",""
"","html-keyboard-response","67","64921","0.0-67.0","3GNA64GUZFQYXR8BCJ49LTCKX345Q3","A3V2O71AQ29DRZ","3HUR21WDDUBEMSLDIXZW1FAIHW8YX3","","null","<img src=""img/flower2.png"" style=""width:200px;border:14px solid red;"">","null","","","","","","","","",""
"","image-keyboard-response","68","65016","0.0-68.0","3GNA64GUZFQYXR8BCJ49LTCKX345Q3","A3V2O71AQ29DRZ","3HUR21WDDUBEMSLDIXZW1FAIHW8YX3","","95","img/flower4.png","76","95","3","0","1","1","1,0.333,0.333,0.333,1,0.333,0.333,0.333,1","1,0.333,0.333,0.333,1,0.333,0.333,0.333,1","1",""
"","html-keyboard-response","69","65317","0.0-69.0","3GNA64GUZFQYXR8BCJ49LTCKX345Q3","A3V2O71AQ29DRZ","3HUR21WDDUBEMSLDIXZW1FAIHW8YX3","","null","<img src=""img/flower4.png"" style=""width:200px;border:14px solid red;"">","null","","","","","","","","",""
"","image-keyboard-response","70","65412","0.0-70.0","3GNA64GUZFQYXR8BCJ49LTCKX345Q3","A3V2O71AQ29DRZ","3HUR21WDDUBEMSLDIXZW1FAIHW8YX3","","95","img/flower2.png","76","95","3","1","2","1","1,0.333,0.333,0.333,1,0.333,0.333,0.333,1","1,0.333,0.333,0.333,1,0.333,0.333,0.333,1","1",""
"","html-keyboard-response","71","65713","0.0-71.0","3GNA64GUZFQYXR8BCJ49LTCKX345Q3","A3V2O71AQ29DRZ","3HUR21WDDUBEMSLDIXZW1FAIHW8YX3","","null","<img src=""img/flower2.png"" style=""width:200px; border:14px solid green;"">","null","","","","","","","","",""
"","image-keyboard-response","72","65791","0.0-72.0","3GNA64GUZFQYXR8BCJ49LTCKX345Q3","A3V2O71AQ29DRZ","3HUR21WDDUBEMSLDIXZW1FAIHW8YX3","","78","img/flower4.png","76","78","3","0","1","1","1,0.333,0.333,0.333,1,0.333,0.333,0.333,1","1,0.333,0.333,0.333,1,0.333,0.333,0.333,1","1",""
"","html-keyboard-response","73","66092","0.0-73.0","3GNA64GUZFQYXR8BCJ49LTCKX345Q3","A3V2O71AQ29DRZ","3HUR21WDDUBEMSLDIXZW1FAIHW8YX3","","null","<img src=""img/flower4.png"" style=""width:200px;border:14px solid red;"">","null","","","","","","","","",""
"","image-keyboard-response","74","66175","0.0-74.0","3GNA64GUZFQYXR8BCJ49LTCKX345Q3","A3V2O71AQ29DRZ","3HUR21WDDUBEMSLDIXZW1FAIHW8YX3","","81","img/flower4.png","75","83","2","0","1","1","1,0.333,0.333,0.333,1,0.333,0.333,0.333,1","1,0.333,0.333,0.333,1,0.333,0.333,0.333,1","1",""
"","html-keyboard-response","75","66476","0.0-75.0","3GNA64GUZFQYXR8BCJ49LTCKX345Q3","A3V2O71AQ29DRZ","3HUR21WDDUBEMSLDIXZW1FAIHW8YX3","","null","<img src=""img/flower4.png"" style=""width:200px;border:14px solid red;"">","null","","","","","","","","",""
"","image-keyboard-response","76","66561","0.0-76.0","3GNA64GUZFQYXR8BCJ49LTCKX345Q3","A3V2O71AQ29DRZ","3HUR21WDDUBEMSLDIXZW1FAIHW8YX3","","84","img/flower4.png","74","85","1","1","1","1","1,0.333,0.333,0.333,1,0.333,0.333,0.333,1","1,0.333,0.333,0.333,1,0.333,0.333,0.333,1","1",""
"","html-keyboard-response","77","66861","0.0-77.0","3GNA64GUZFQYXR8BCJ49LTCKX345Q3","A3V2O71AQ29DRZ","3HUR21WDDUBEMSLDIXZW1FAIHW8YX3","","null","<img src=""img/flower4.png"" style=""width:200px; border:14px solid green;"">","null","","","","","","","","",""
"","image-keyboard-response","78","66938","0.0-78.0","3GNA64GUZFQYXR8BCJ49LTCKX345Q3","A3V2O71AQ29DRZ","3HUR21WDDUBEMSLDIXZW1FAIHW8YX3","","76","img/flower6.png","74","77","1","1","3","1","1,0.333,0.333,0.333,1,0.333,0.333,0.333,1","1,0.333,0.333,0.333,1,0.333,0.333,0.333,1","1",""
"","html-keyboard-response","79","67239","0.0-79.0","3GNA64GUZFQYXR8BCJ49LTCKX345Q3","A3V2O71AQ29DRZ","3HUR21WDDUBEMSLDIXZW1FAIHW8YX3","","null","<img src=""img/flower6.png"" style=""width:200px; border:14px solid green;"">","null","","","","","","","","",""
"","image-keyboard-response","80","67305","0.0-80.0","3GNA64GUZFQYXR8BCJ49LTCKX345Q3","A3V2O71AQ29DRZ","3HUR21WDDUBEMSLDIXZW1FAIHW8YX3","","66","img/flower4.png","74","66","1","1","1","1","1,0.333,0.333,0.333,1,0.333,0.333,0.333,1","1,0.333,0.333,0.333,1,0.333,0.333,0.333,1","1",""
"","html-keyboard-response","81","67607","0.0-81.0","3GNA64GUZFQYXR8BCJ49LTCKX345Q3","A3V2O71AQ29DRZ","3HUR21WDDUBEMSLDIXZW1FAIHW8YX3","","null","<img src=""img/flower4.png"" style=""width:200px; border:14px solid green;"">","null","","","","","","","","",""
"","image-keyboard-response","82","67654","0.0-82.0","3GNA64GUZFQYXR8BCJ49LTCKX345Q3","A3V2O71AQ29DRZ","3HUR21WDDUBEMSLDIXZW1FAIHW8YX3","","46","img/flower6.png","74","47","1","0","3","1","1,0.333,0.333,0.333,1,0.333,0.333,0.333,1","1,0.333,0.333,0.333,1,0.333,0.333,0.333,1","1",""
"","html-keyboard-response","83","67956","0.0-83.0","3GNA64GUZFQYXR8BCJ49LTCKX345Q3","A3V2O71AQ29DRZ","3HUR21WDDUBEMSLDIXZW1FAIHW8YX3","","null","<img src=""img/flower6.png"" style=""width:200px;border:14px solid red;"">","null","","","","","","","","",""
"","image-keyboard-response","84","68035","0.0-84.0","3GNA64GUZFQYXR8BCJ49LTCKX345Q3","A3V2O71AQ29DRZ","3HUR21WDDUBEMSLDIXZW1FAIHW8YX3","","79","img/flower2.png","76","79","3","0","2","1","1,0.333,0.333,0.333,1,0.333,0.333,0.333,1","1,0.333,0.333,0.333,1,0.333,0.333,0.333,1","1",""
"","html-keyboard-response","85","68335","0.0-85.0","3GNA64GUZFQYXR8BCJ49LTCKX345Q3","A3V2O71AQ29DRZ","3HUR21WDDUBEMSLDIXZW1FAIHW8YX3","","null","<img src=""img/flower2.png"" style=""width:200px;border:14px solid red;"">","null","","","","","","","","",""
"","image-keyboard-response","86","68408","0.0-86.0","3GNA64GUZFQYXR8BCJ49LTCKX345Q3","A3V2O71AQ29DRZ","3HUR21WDDUBEMSLDIXZW1FAIHW8YX3","","73","img/flower2.png","74","73","1","0","2","1","1,0.333,0.333,0.333,1,0.333,0.333,0.333,1","1,0.333,0.333,0.333,1,0.333,0.333,0.333,1","1",""
"","html-keyboard-response","87","68709","0.0-87.0","3GNA64GUZFQYXR8BCJ49LTCKX345Q3","A3V2O71AQ29DRZ","3HUR21WDDUBEMSLDIXZW1FAIHW8YX3","","null","<img src=""img/flower2.png"" style=""width:200px;border:14px solid red;"">","null","","","","","","","","",""
"","image-keyboard-response","88","68799","0.0-88.0","3GNA64GUZFQYXR8BCJ49LTCKX345Q3","A3V2O71AQ29DRZ","3HUR21WDDUBEMSLDIXZW1FAIHW8YX3","","90","img/flower4.png","75","90","2","1","1","1","1,0.333,0.333,0.333,1,0.333,0.333,0.333,1","1,0.333,0.333,0.333,1,0.333,0.333,0.333,1","1",""
"","html-keyboard-response","89","69101","0.0-89.0","3GNA64GUZFQYXR8BCJ49LTCKX345Q3","A3V2O71AQ29DRZ","3HUR21WDDUBEMSLDIXZW1FAIHW8YX3","","null","<img src=""img/flower4.png"" style=""width:200px; border:14px solid green;"">","null","","","","","","","","",""
"","image-keyboard-response","90","69174","0.0-90.0","3GNA64GUZFQYXR8BCJ49LTCKX345Q3","A3V2O71AQ29DRZ","3HUR21WDDUBEMSLDIXZW1FAIHW8YX3","","73","img/flower6.png","75","73","2","0","3","1","1,0.333,0.333,0.333,1,0.333,0.333,0.333,1","1,0.333,0.333,0.333,1,0.333,0.333,0.333,1","1",""
"","html-keyboard-response","91","69475","0.0-91.0","3GNA64GUZFQYXR8BCJ49LTCKX345Q3","A3V2O71AQ29DRZ","3HUR21WDDUBEMSLDIXZW1FAIHW8YX3","","null","<img src=""img/flower6.png"" style=""width:200px;border:14px solid red;"">","null","","","","","","","","",""
"","image-keyboard-response","92","69580","0.0-92.0","3GNA64GUZFQYXR8BCJ49LTCKX345Q3","A3V2O71AQ29DRZ","3HUR21WDDUBEMSLDIXZW1FAIHW8YX3","","104","img/flower6.png","75","104","2","0","3","1","1,0.333,0.333,0.333,1,0.333,0.333,0.333,1","1,0.333,0.333,0.333,1,0.333,0.333,0.333,1","1",""
"","html-keyboard-response","93","69881","0.0-93.0","3GNA64GUZFQYXR8BCJ49LTCKX345Q3","A3V2O71AQ29DRZ","3HUR21WDDUBEMSLDIXZW1FAIHW8YX3","","null","<img src=""img/flower6.png"" style=""width:200px;border:14px solid red;"">","null","","","","","","","","",""
"","image-keyboard-response","94","69944","0.0-94.0","3GNA64GUZFQYXR8BCJ49LTCKX345Q3","A3V2O71AQ29DRZ","3HUR21WDDUBEMSLDIXZW1FAIHW8YX3","","63","img/flower2.png","74","63","1","0","2","1","1,0.333,0.333,0.333,1,0.333,0.333,0.333,1","1,0.333,0.333,0.333,1,0.333,0.333,0.333,1","1",""
"","html-keyboard-response","95","70279","0.0-95.0","3GNA64GUZFQYXR8BCJ49LTCKX345Q3","A3V2O71AQ29DRZ","3HUR21WDDUBEMSLDIXZW1FAIHW8YX3","","null","<img src=""img/flower2.png"" style=""width:200px;border:14px solid red;"">","null","","","","","","","","",""
"","image-keyboard-response","96","70317","0.0-96.0","3GNA64GUZFQYXR8BCJ49LTCKX345Q3","A3V2O71AQ29DRZ","3HUR21WDDUBEMSLDIXZW1FAIHW8YX3","","37","img/flower6.png","76","38","3","1","3","1","1,0.333,0.333,0.333,1,0.333,0.333,0.333,1","1,0.333,0.333,0.333,1,0.333,0.333,0.333,1","1",""
"","html-keyboard-response","97","70618","0.0-97.0","3GNA64GUZFQYXR8BCJ49LTCKX345Q3","A3V2O71AQ29DRZ","3HUR21WDDUBEMSLDIXZW1FAIHW8YX3","","null","<img src=""img/flower6.png"" style=""width:200px; border:14px solid green;"">","null","","","","","","","","",""
"","image-keyboard-response","98","70626","0.0-98.0","3GNA64GUZFQYXR8BCJ49LTCKX345Q3","A3V2O71AQ29DRZ","3HUR21WDDUBEMSLDIXZW1FAIHW8YX3","","6","img/flower4.png","75","8","2","0","1","1","1,0.333,0.333,0.333,1,0.333,0.333,0.333,1","1,0.333,0.333,0.333,1,0.333,0.333,0.333,1","1",""
"","html-keyboard-response","99","70927","0.0-99.0","3GNA64GUZFQYXR8BCJ49LTCKX345Q3","A3V2O71AQ29DRZ","3HUR21WDDUBEMSLDIXZW1FAIHW8YX3","","null","<img src=""img/flower4.png"" style=""width:200px;border:14px solid red;"">","null","","","","","","","","",""
"","image-keyboard-response","100","71023","0.0-100.0","3GNA64GUZFQYXR8BCJ49LTCKX345Q3","A3V2O71AQ29DRZ","3HUR21WDDUBEMSLDIXZW1FAIHW8YX3","","96","img/flower2.png","76","96","3","0","2","1","1,0.333,0.333,0.333,1,0.333,0.333,0.333,1","1,0.333,0.333,0.333,1,0.333,0.333,0.333,1","1",""
"","html-keyboard-response","101","71324","0.0-101.0","3GNA64GUZFQYXR8BCJ49LTCKX345Q3","A3V2O71AQ29DRZ","3HUR21WDDUBEMSLDIXZW1FAIHW8YX3","","null","<img src=""img/flower2.png"" style=""width:200px;border:14px solid red;"">","null","","","","","","","","",""
"","image-keyboard-response","102","71352","0.0-102.0","3GNA64GUZFQYXR8BCJ49LTCKX345Q3","A3V2O71AQ29DRZ","3HUR21WDDUBEMSLDIXZW1FAIHW8YX3","","28","img/flower6.png","75","28","2","0","3","1","1,0.333,0.333,0.333,1,0.333,0.333,0.333,1","1,0.333,0.333,0.333,1,0.333,0.333,0.333,1","1",""
"","html-keyboard-response","103","71653","0.0-103.0","3GNA64GUZFQYXR8BCJ49LTCKX345Q3","A3V2O71AQ29DRZ","3HUR21WDDUBEMSLDIXZW1FAIHW8YX3","","null","<img src=""img/flower6.png"" style=""width:200px;border:14px solid red;"">","null","","","","","","","","",""
"","image-keyboard-response","104","71670","0.0-104.0","3GNA64GUZFQYXR8BCJ49LTCKX345Q3","A3V2O71AQ29DRZ","3HUR21WDDUBEMSLDIXZW1FAIHW8YX3","","17","img/flower2.png","74","17","1","0","2","1","1,0.333,0.333,0.333,1,0.333,0.333,0.333,1","1,0.333,0.333,0.333,1,0.333,0.333,0.333,1","1",""
"","html-keyboard-response","105","71971","0.0-105.0","3GNA64GUZFQYXR8BCJ49LTCKX345Q3","A3V2O71AQ29DRZ","3HUR21WDDUBEMSLDIXZW1FAIHW8YX3","","null","<img src=""img/flower2.png"" style=""width:200px;border:14px solid red;"">","null","","","","","","","","",""
"","image-keyboard-response","106","72099","0.0-106.0","3GNA64GUZFQYXR8BCJ49LTCKX345Q3","A3V2O71AQ29DRZ","3HUR21WDDUBEMSLDIXZW1FAIHW8YX3","","126","img/flower4.png","75","127","2","0","1","1","1,0.333,0.333,0.333,1,0.333,0.333,0.333,1","1,0.333,0.333,0.333,1,0.333,0.333,0.333,1","1",""
"","html-keyboard-response","107","72399","0.0-107.0","3GNA64GUZFQYXR8BCJ49LTCKX345Q3","A3V2O71AQ29DRZ","3HUR21WDDUBEMSLDIXZW1FAIHW8YX3","","null","<img src=""img/flower4.png"" style=""width:200px;border:14px solid red;"">","null","","","","","","","","",""
"","image-keyboard-response","108","72514","0.0-108.0","3GNA64GUZFQYXR8BCJ49LTCKX345Q3","A3V2O71AQ29DRZ","3HUR21WDDUBEMSLDIXZW1FAIHW8YX3","","115","img/flower4.png","76","115","3","1","1","1","1,0.333,0.333,0.333,1,0.333,0.333,0.333,1","1,0.333,0.333,0.333,1,0.333,0.333,0.333,1","1",""
"","html-keyboard-response","109","72815","0.0-109.0","3GNA64GUZFQYXR8BCJ49LTCKX345Q3","A3V2O71AQ29DRZ","3HUR21WDDUBEMSLDIXZW1FAIHW8YX3","","null","<img src=""img/flower4.png"" style=""width:200px; border:14px solid green;"">","null","","","","","","","","",""
"","image-keyboard-response","110","72818","0.0-110.0","3GNA64GUZFQYXR8BCJ49LTCKX345Q3","A3V2O71AQ29DRZ","3HUR21WDDUBEMSLDIXZW1FAIHW8YX3","","2","img/flower6.png","75","3","2","0","3","1","1,0.333,0.333,0.333,1,0.333,0.333,0.333,1","1,0.333,0.333,0.333,1,0.333,0.333,0.333,1","1",""
"","html-keyboard-response","111","73119","0.0-111.0","3GNA64GUZFQYXR8BCJ49LTCKX345Q3","A3V2O71AQ29DRZ","3HUR21WDDUBEMSLDIXZW1FAIHW8YX3","","null","<img src=""img/flower6.png"" style=""width:200px;border:14px solid red;"">","null","","","","","","","","",""
"","image-keyboard-response","112","73172","0.0-112.0","3GNA64GUZFQYXR8BCJ49LTCKX345Q3","A3V2O71AQ29DRZ","3HUR21WDDUBEMSLDIXZW1FAIHW8YX3","","53","img/flower2.png","74","53","1","0","2","1","1,0.333,0.333,0.333,1,0.333,0.333,0.333,1","1,0.333,0.333,0.333,1,0.333,0.333,0.333,1","1",""
"","html-keyboard-response","113","73474","0.0-113.0","3GNA64GUZFQYXR8BCJ49LTCKX345Q3","A3V2O71AQ29DRZ","3HUR21WDDUBEMSLDIXZW1FAIHW8YX3","","null","<img src=""img/flower2.png"" style=""width:200px;border:14px solid red;"">","null","","","","","","","","",""
"","image-keyboard-response","114","73580","0.0-114.0","3GNA64GUZFQYXR8BCJ49LTCKX345Q3","A3V2O71AQ29DRZ","3HUR21WDDUBEMSLDIXZW1FAIHW8YX3","","105","img/flower2.png","76","106","3","0","2","1","1,0.333,0.333,0.333,1,0.333,0.333,0.333,1","1,0.333,0.333,0.333,1,0.333,0.333,0.333,1","1",""
"","html-keyboard-response","115","73881","0.0-115.0","3GNA64GUZFQYXR8BCJ49LTCKX345Q3","A3V2O71AQ29DRZ","3HUR21WDDUBEMSLDIXZW1FAIHW8YX3","","null","<img src=""img/flower2.png"" style=""width:200px;border:14px solid red;"">","null","","","","","","","","",""
"","image-keyboard-response","116","73921","0.0-116.0","3GNA64GUZFQYXR8BCJ49LTCKX345Q3","A3V2O71AQ29DRZ","3HUR21WDDUBEMSLDIXZW1FAIHW8YX3","","39","img/flower4.png","74","40","1","1","1","1","1,0.333,0.333,0.333,1,0.333,0.333,0.333,1","1,0.333,0.333,0.333,1,0.333,0.333,0.333,1","1",""
"","html-keyboard-response","117","74222","0.0-117.0","3GNA64GUZFQYXR8BCJ49LTCKX345Q3","A3V2O71AQ29DRZ","3HUR21WDDUBEMSLDIXZW1FAIHW8YX3","","null","<img src=""img/flower4.png"" style=""width:200px; border:14px solid green;"">","null","","","","","","","","",""
"","image-keyboard-response","118","74421","0.0-118.0","3GNA64GUZFQYXR8BCJ49LTCKX345Q3","A3V2O71AQ29DRZ","3HUR21WDDUBEMSLDIXZW1FAIHW8YX3","","198","img/flower4.png","75","198","2","0","1","1","1,0.333,0.333,0.333,1,0.333,0.333,0.333,1","1,0.333,0.333,0.333,1,0.333,0.333,0.333,1","1",""
"","html-keyboard-response","119","74723","0.0-119.0","3GNA64GUZFQYXR8BCJ49LTCKX345Q3","A3V2O71AQ29DRZ","3HUR21WDDUBEMSLDIXZW1FAIHW8YX3","","null","<img src=""img/flower4.png"" style=""width:200px;border:14px solid red;"">","null","","","","","","","","",""
"","image-keyboard-response","120","74753","0.0-120.0","3GNA64GUZFQYXR8BCJ49LTCKX345Q3","A3V2O71AQ29DRZ","3HUR21WDDUBEMSLDIXZW1FAIHW8YX3","","29","img/flower6.png","75","30","2","0","3","1","1,0.333,0.333,0.333,1,0.333,0.333,0.333,1","1,0.333,0.333,0.333,1,0.333,0.333,0.333,1","1",""
"","html-keyboard-response","121","75053","0.0-121.0","3GNA64GUZFQYXR8BCJ49LTCKX345Q3","A3V2O71AQ29DRZ","3HUR21WDDUBEMSLDIXZW1FAIHW8YX3","","null","<img src=""img/flower6.png"" style=""width:200px;border:14px solid red;"">","null","","","","","","","","",""
"","image-keyboard-response","122","75059","0.0-122.0","3GNA64GUZFQYXR8BCJ49LTCKX345Q3","A3V2O71AQ29DRZ","3HUR21WDDUBEMSLDIXZW1FAIHW8YX3","","5","img/flower6.png","75","6","2","0","3","1","1,0.333,0.333,0.333,1,0.333,0.333,0.333,1","1,0.333,0.333,0.333,1,0.333,0.333,0.333,1","1",""
"","html-keyboard-response","123","75361","0.0-123.0","3GNA64GUZFQYXR8BCJ49LTCKX345Q3","A3V2O71AQ29DRZ","3HUR21WDDUBEMSLDIXZW1FAIHW8YX3","","null","<img src=""img/flower6.png"" style=""width:200px;border:14px solid red;"">","null","","","","","","","","",""
"","image-keyboard-response","124","75488","0.0-124.0","3GNA64GUZFQYXR8BCJ49LTCKX345Q3","A3V2O71AQ29DRZ","3HUR21WDDUBEMSLDIXZW1FAIHW8YX3","","127","img/flower4.png","76","127","3","1","1","1","1,0.333,0.333,0.333,1,0.333,0.333,0.333,1","1,0.333,0.333,0.333,1,0.333,0.333,0.333,1","1",""
"","html-keyboard-response","125","75790","0.0-125.0","3GNA64GUZFQYXR8BCJ49LTCKX345Q3","A3V2O71AQ29DRZ","3HUR21WDDUBEMSLDIXZW1FAIHW8YX3","","null","<img src=""img/flower4.png"" style=""width:200px; border:14px solid green;"">","null","","","","","","","","",""
"","image-keyboard-response","126","75835","0.0-126.0","3GNA64GUZFQYXR8BCJ49LTCKX345Q3","A3V2O71AQ29DRZ","3HUR21WDDUBEMSLDIXZW1FAIHW8YX3","","45","img/flower2.png","74","45","1","0","2","1","1,0.333,0.333,0.333,1,0.333,0.333,0.333,1","1,0.333,0.333,0.333,1,0.333,0.333,0.333,1","1",""
"","html-keyboard-response","127","76137","0.0-127.0","3GNA64GUZFQYXR8BCJ49LTCKX345Q3","A3V2O71AQ29DRZ","3HUR21WDDUBEMSLDIXZW1FAIHW8YX3","","null","<img src=""img/flower2.png"" style=""width:200px;border:14px solid red;"">","null","","","","","","","","",""
"","image-keyboard-response","128","76361","0.0-128.0","3GNA64GUZFQYXR8BCJ49LTCKX345Q3","A3V2O71AQ29DRZ","3HUR21WDDUBEMSLDIXZW1FAIHW8YX3","","223","img/flower4.png","76","224","3","1","1","1","1,0.333,0.333,0.333,1,0.333,0.333,0.333,1","1,0.333,0.333,0.333,1,0.333,0.333,0.333,1","1",""
"","html-keyboard-response","129","76662","0.0-129.0","3GNA64GUZFQYXR8BCJ49LTCKX345Q3","A3V2O71AQ29DRZ","3HUR21WDDUBEMSLDIXZW1FAIHW8YX3","","null","<img src=""img/flower4.png"" style=""width:200px; border:14px solid green;"">","null","","","","","","","","",""
"","image-keyboard-response","130","76739","0.0-130.0","3GNA64GUZFQYXR8BCJ49LTCKX345Q3","A3V2O71AQ29DRZ","3HUR21WDDUBEMSLDIXZW1FAIHW8YX3","","77","img/flower6.png","76","77","3","1","3","1","1,0.333,0.333,0.333,1,0.333,0.333,0.333,1","1,0.333,0.333,0.333,1,0.333,0.333,0.333,1","1",""
"","html-keyboard-response","131","77040","0.0-131.0","3GNA64GUZFQYXR8BCJ49LTCKX345Q3","A3V2O71AQ29DRZ","3HUR21WDDUBEMSLDIXZW1FAIHW8YX3","","null","<img src=""img/flower6.png"" style=""width:200px; border:14px solid green;"">","null","","","","","","","","",""
"","image-keyboard-response","132","77094","0.0-132.0","3GNA64GUZFQYXR8BCJ49LTCKX345Q3","A3V2O71AQ29DRZ","3HUR21WDDUBEMSLDIXZW1FAIHW8YX3","","54","img/flower6.png","76","54","3","1","3","1","1,0.333,0.333,0.333,1,0.333,0.333,0.333,1","1,0.333,0.333,0.333,1,0.333,0.333,0.333,1","1",""
"","html-keyboard-response","133","77397","0.0-133.0","3GNA64GUZFQYXR8BCJ49LTCKX345Q3","A3V2O71AQ29DRZ","3HUR21WDDUBEMSLDIXZW1FAIHW8YX3","","null","<img src=""img/flower6.png"" style=""width:200px; border:14px solid green;"">","null","","","","","","","","",""
"","image-keyboard-response","134","77445","0.0-134.0","3GNA64GUZFQYXR8BCJ49LTCKX345Q3","A3V2O71AQ29DRZ","3HUR21WDDUBEMSLDIXZW1FAIHW8YX3","","47","img/flower2.png","74","48","1","0","2","1","1,0.333,0.333,0.333,1,0.333,0.333,0.333,1","1,0.333,0.333,0.333,1,0.333,0.333,0.333,1","1",""
"","html-keyboard-response","135","77745","0.0-135.0","3GNA64GUZFQYXR8BCJ49LTCKX345Q3","A3V2O71AQ29DRZ","3HUR21WDDUBEMSLDIXZW1FAIHW8YX3","","null","<img src=""img/flower2.png"" style=""width:200px;border:14px solid red;"">","null","","","","","","","","",""
"","image-keyboard-response","136","77811","0.0-136.0","3GNA64GUZFQYXR8BCJ49LTCKX345Q3","A3V2O71AQ29DRZ","3HUR21WDDUBEMSLDIXZW1FAIHW8YX3","","66","img/flower6.png","75","66","2","0","3","1","1,0.333,0.333,0.333,1,0.333,0.333,0.333,1","1,0.333,0.333,0.333,1,0.333,0.333,0.333,1","1",""
"","html-keyboard-response","137","78112","0.0-137.0","3GNA64GUZFQYXR8BCJ49LTCKX345Q3","A3V2O71AQ29DRZ","3HUR21WDDUBEMSLDIXZW1FAIHW8YX3","","null","<img src=""img/flower6.png"" style=""width:200px;border:14px solid red;"">","null","","","","","","","","",""
"","image-keyboard-response","138","78137","0.0-138.0","3GNA64GUZFQYXR8BCJ49LTCKX345Q3","A3V2O71AQ29DRZ","3HUR21WDDUBEMSLDIXZW1FAIHW8YX3","","24","img/flower2.png","76","25","3","0","2","1","1,0.333,0.333,0.333,1,0.333,0.333,0.333,1","1,0.333,0.333,0.333,1,0.333,0.333,0.333,1","1",""
"","html-keyboard-response","139","78438","0.0-139.0","3GNA64GUZFQYXR8BCJ49LTCKX345Q3","A3V2O71AQ29DRZ","3HUR21WDDUBEMSLDIXZW1FAIHW8YX3","","null","<img src=""img/flower2.png"" style=""width:200px;border:14px solid red;"">","null","","","","","","","","",""
"","image-keyboard-response","140","78504","0.0-140.0","3GNA64GUZFQYXR8BCJ49LTCKX345Q3","A3V2O71AQ29DRZ","3HUR21WDDUBEMSLDIXZW1FAIHW8YX3","","65","img/flower4.png","74","67","1","1","1","1","1,0.333,0.333,0.333,1,0.333,0.333,0.333,1","1,0.333,0.333,0.333,1,0.333,0.333,0.333,1","1",""
"","html-keyboard-response","141","78806","0.0-141.0","3GNA64GUZFQYXR8BCJ49LTCKX345Q3","A3V2O71AQ29DRZ","3HUR21WDDUBEMSLDIXZW1FAIHW8YX3","","null","<img src=""img/flower4.png"" style=""width:200px; border:14px solid green;"">","null","","","","","","","","",""
"","image-keyboard-response","142","78840","0.0-142.0","3GNA64GUZFQYXR8BCJ49LTCKX345Q3","A3V2O71AQ29DRZ","3HUR21WDDUBEMSLDIXZW1FAIHW8YX3","","33","img/flower6.png","76","34","3","1","3","1","1,0.333,0.333,0.333,1,0.333,0.333,0.333,1","1,0.333,0.333,0.333,1,0.333,0.333,0.333,1","1",""
"","html-keyboard-response","143","79142","0.0-143.0","3GNA64GUZFQYXR8BCJ49LTCKX345Q3","A3V2O71AQ29DRZ","3HUR21WDDUBEMSLDIXZW1FAIHW8YX3","","null","<img src=""img/flower6.png"" style=""width:200px; border:14px solid green;"">","null","","","","","","","","",""
"","image-keyboard-response","144","79204","0.0-144.0","3GNA64GUZFQYXR8BCJ49LTCKX345Q3","A3V2O71AQ29DRZ","3HUR21WDDUBEMSLDIXZW1FAIHW8YX3","","60","img/flower6.png","76","62","3","1","3","1","1,0.333,0.333,0.333,1,0.333,0.333,0.333,1","1,0.333,0.333,0.333,1,0.333,0.333,0.333,1","1",""
"","html-keyboard-response","145","79504","0.0-145.0","3GNA64GUZFQYXR8BCJ49LTCKX345Q3","A3V2O71AQ29DRZ","3HUR21WDDUBEMSLDIXZW1FAIHW8YX3","","null","<img src=""img/flower6.png"" style=""width:200px; border:14px solid green;"">","null","","","","","","","","",""
"","image-keyboard-response","146","79568","0.0-146.0","3GNA64GUZFQYXR8BCJ49LTCKX345Q3","A3V2O71AQ29DRZ","3HUR21WDDUBEMSLDIXZW1FAIHW8YX3","","64","img/flower2.png","74","64","1","0","2","1","1,0.333,0.333,0.333,1,0.333,0.333,0.333,1","1,0.333,0.333,0.333,1,0.333,0.333,0.333,1","1",""
"","html-keyboard-response","147","79869","0.0-147.0","3GNA64GUZFQYXR8BCJ49LTCKX345Q3","A3V2O71AQ29DRZ","3HUR21WDDUBEMSLDIXZW1FAIHW8YX3","","null","<img src=""img/flower2.png"" style=""width:200px;border:14px solid red;"">","null","","","","","","","","",""
"","image-keyboard-response","148","79911","0.0-148.0","3GNA64GUZFQYXR8BCJ49LTCKX345Q3","A3V2O71AQ29DRZ","3HUR21WDDUBEMSLDIXZW1FAIHW8YX3","","41","img/flower4.png","76","42","3","1","1","1","1,0.333,0.333,0.333,1,0.333,0.333,0.333,1","1,0.333,0.333,0.333,1,0.333,0.333,0.333,1","1",""
"","html-keyboard-response","149","80222","0.0-149.0","3GNA64GUZFQYXR8BCJ49LTCKX345Q3","A3V2O71AQ29DRZ","3HUR21WDDUBEMSLDIXZW1FAIHW8YX3","","null","<img src=""img/flower4.png"" style=""width:200px; border:14px solid green;"">","null","","","","","","","","",""
"","image-keyboard-response","150","80272","0.0-150.0","3GNA64GUZFQYXR8BCJ49LTCKX345Q3","A3V2O71AQ29DRZ","3HUR21WDDUBEMSLDIXZW1FAIHW8YX3","","48","img/flower2.png","76","50","3","0","2","1","1,0.333,0.333,0.333,1,0.333,0.333,0.333,1","1,0.333,0.333,0.333,1,0.333,0.333,0.333,1","1",""
"","html-keyboard-response","151","80572","0.0-151.0","3GNA64GUZFQYXR8BCJ49LTCKX345Q3","A3V2O71AQ29DRZ","3HUR21WDDUBEMSLDIXZW1FAIHW8YX3","","null","<img src=""img/flower2.png"" style=""width:200px;border:14px solid red;"">","null","","","","","","","","",""
"","image-keyboard-response","152","80634","0.0-152.0","3GNA64GUZFQYXR8BCJ49LTCKX345Q3","A3V2O71AQ29DRZ","3HUR21WDDUBEMSLDIXZW1FAIHW8YX3","","61","img/flower2.png","74","62","1","1","2","1","1,0.333,0.333,0.333,1,0.333,0.333,0.333,1","1,0.333,0.333,0.333,1,0.333,0.333,0.333,1","1",""
"","html-keyboard-response","153","80935","0.0-153.0","3GNA64GUZFQYXR8BCJ49LTCKX345Q3","A3V2O71AQ29DRZ","3HUR21WDDUBEMSLDIXZW1FAIHW8YX3","","null","<img src=""img/flower2.png"" style=""width:200px; border:14px solid green;"">","null","","","","","","","","",""
"","image-keyboard-response","154","80978","0.0-154.0","3GNA64GUZFQYXR8BCJ49LTCKX345Q3","A3V2O71AQ29DRZ","3HUR21WDDUBEMSLDIXZW1FAIHW8YX3","","42","img/flower4.png","76","43","3","0","1","1","1,0.333,0.333,0.333,1,0.333,0.333,0.333,1","1,0.333,0.333,0.333,1,0.333,0.333,0.333,1","1",""
"","html-keyboard-response","155","81278","0.0-155.0","3GNA64GUZFQYXR8BCJ49LTCKX345Q3","A3V2O71AQ29DRZ","3HUR21WDDUBEMSLDIXZW1FAIHW8YX3","","null","<img src=""img/flower4.png"" style=""width:200px;border:14px solid red;"">","null","","","","","","","","",""
"","image-keyboard-response","156","81344","0.0-156.0","3GNA64GUZFQYXR8BCJ49LTCKX345Q3","A3V2O71AQ29DRZ","3HUR21WDDUBEMSLDIXZW1FAIHW8YX3","","65","img/flower6.png","76","66","3","1","3","1","1,0.333,0.333,0.333,1,0.333,0.333,0.333,1","1,0.333,0.333,0.333,1,0.333,0.333,0.333,1","1",""
"","html-keyboard-response","157","81644","0.0-157.0","3GNA64GUZFQYXR8BCJ49LTCKX345Q3","A3V2O71AQ29DRZ","3HUR21WDDUBEMSLDIXZW1FAIHW8YX3","","null","<img src=""img/flower6.png"" style=""width:200px; border:14px solid green;"">","null","","","","","","","","",""
"","image-keyboard-response","158","81713","0.0-158.0","3GNA64GUZFQYXR8BCJ49LTCKX345Q3","A3V2O71AQ29DRZ","3HUR21WDDUBEMSLDIXZW1FAIHW8YX3","","68","img/flower2.png","75","69","2","1","2","1","1,0.333,0.333,0.333,1,0.333,0.333,0.333,1","1,0.333,0.333,0.333,1,0.333,0.333,0.333,1","1",""
"","html-keyboard-response","159","82014","0.0-159.0","3GNA64GUZFQYXR8BCJ49LTCKX345Q3","A3V2O71AQ29DRZ","3HUR21WDDUBEMSLDIXZW1FAIHW8YX3","","null","<img src=""img/flower2.png"" style=""width:200px; border:14px solid green;"">","null","","","","","","","","",""
"","image-keyboard-response","160","82076","0.0-160.0","3GNA64GUZFQYXR8BCJ49LTCKX345Q3","A3V2O71AQ29DRZ","3HUR21WDDUBEMSLDIXZW1FAIHW8YX3","","62","img/flower6.png","74","62","1","0","3","1","1,0.333,0.333,0.333,1,0.333,0.333,0.333,1","1,0.333,0.333,0.333,1,0.333,0.333,0.333,1","1",""
"","html-keyboard-response","161","82377","0.0-161.0","3GNA64GUZFQYXR8BCJ49LTCKX345Q3","A3V2O71AQ29DRZ","3HUR21WDDUBEMSLDIXZW1FAIHW8YX3","","null","<img src=""img/flower6.png"" style=""width:200px;border:14px solid red;"">","null","","","","","","","","",""
"","image-keyboard-response","162","82438","0.0-162.0","3GNA64GUZFQYXR8BCJ49LTCKX345Q3","A3V2O71AQ29DRZ","3HUR21WDDUBEMSLDIXZW1FAIHW8YX3","","61","img/flower2.png","74","61","1","1","2","1","1,0.333,0.333,0.333,1,0.333,0.333,0.333,1","1,0.333,0.333,0.333,1,0.333,0.333,0.333,1","1",""
"","html-keyboard-response","163","82740","0.0-163.0","3GNA64GUZFQYXR8BCJ49LTCKX345Q3","A3V2O71AQ29DRZ","3HUR21WDDUBEMSLDIXZW1FAIHW8YX3","","null","<img src=""img/flower2.png"" style=""width:200px; border:14px solid green;"">","null","","","","","","","","",""
"","image-keyboard-response","164","82814","0.0-164.0","3GNA64GUZFQYXR8BCJ49LTCKX345Q3","A3V2O71AQ29DRZ","3HUR21WDDUBEMSLDIXZW1FAIHW8YX3","","74","img/flower2.png","74","74","1","1","2","1","1,0.333,0.333,0.333,1,0.333,0.333,0.333,1","1,0.333,0.333,0.333,1,0.333,0.333,0.333,1","1",""
"","html-keyboard-response","165","83116","0.0-165.0","3GNA64GUZFQYXR8BCJ49LTCKX345Q3","A3V2O71AQ29DRZ","3HUR21WDDUBEMSLDIXZW1FAIHW8YX3","","null","<img src=""img/flower2.png"" style=""width:200px; border:14px solid green;"">","null","","","","","","","","",""
"","image-keyboard-response","166","83213","0.0-166.0","3GNA64GUZFQYXR8BCJ49LTCKX345Q3","A3V2O71AQ29DRZ","3HUR21WDDUBEMSLDIXZW1FAIHW8YX3","","96","img/flower4.png","74","100","1","1","1","1","1,0.333,0.333,0.333,1,0.333,0.333,0.333,1","1,0.333,0.333,0.333,1,0.333,0.333,0.333,1","1",""
"","html-keyboard-response","167","83517","0.0-167.0","3GNA64GUZFQYXR8BCJ49LTCKX345Q3","A3V2O71AQ29DRZ","3HUR21WDDUBEMSLDIXZW1FAIHW8YX3","","null","<img src=""img/flower4.png"" style=""width:200px; border:14px solid green;"">","null","","","","","","","","",""
"","image-keyboard-response","168","83593","0.0-168.0","3GNA64GUZFQYXR8BCJ49LTCKX345Q3","A3V2O71AQ29DRZ","3HUR21WDDUBEMSLDIXZW1FAIHW8YX3","","75","img/flower2.png","76","76","3","0","2","1","1,0.333,0.333,0.333,1,0.333,0.333,0.333,1","1,0.333,0.333,0.333,1,0.333,0.333,0.333,1","1",""
"","html-keyboard-response","169","83895","0.0-169.0","3GNA64GUZFQYXR8BCJ49LTCKX345Q3","A3V2O71AQ29DRZ","3HUR21WDDUBEMSLDIXZW1FAIHW8YX3","","null","<img src=""img/flower2.png"" style=""width:200px;border:14px solid red;"">","null","","","","","","","","",""
"","image-keyboard-response","170","83944","0.0-170.0","3GNA64GUZFQYXR8BCJ49LTCKX345Q3","A3V2O71AQ29DRZ","3HUR21WDDUBEMSLDIXZW1FAIHW8YX3","","49","img/flower4.png","74","49","1","1","1","1","1,0.333,0.333,0.333,1,0.333,0.333,0.333,1","1,0.333,0.333,0.333,1,0.333,0.333,0.333,1","1",""
"","html-keyboard-response","171","84246","0.0-171.0","3GNA64GUZFQYXR8BCJ49LTCKX345Q3","A3V2O71AQ29DRZ","3HUR21WDDUBEMSLDIXZW1FAIHW8YX3","","null","<img src=""img/flower4.png"" style=""width:200px; border:14px solid green;"">","null","","","","","","","","",""
"","image-keyboard-response","172","84352","0.0-172.0","3GNA64GUZFQYXR8BCJ49LTCKX345Q3","A3V2O71AQ29DRZ","3HUR21WDDUBEMSLDIXZW1FAIHW8YX3","","106","img/flower4.png","76","106","3","1","1","1","1,0.333,0.333,0.333,1,0.333,0.333,0.333,1","1,0.333,0.333,0.333,1,0.333,0.333,0.333,1","1",""
"","html-keyboard-response","173","84654","0.0-173.0","3GNA64GUZFQYXR8BCJ49LTCKX345Q3","A3V2O71AQ29DRZ","3HUR21WDDUBEMSLDIXZW1FAIHW8YX3","","null","<img src=""img/flower4.png"" style=""width:200px; border:14px solid green;"">","null","","","","","","","","",""
"","image-keyboard-response","174","84731","0.0-174.0","3GNA64GUZFQYXR8BCJ49LTCKX345Q3","A3V2O71AQ29DRZ","3HUR21WDDUBEMSLDIXZW1FAIHW8YX3","","77","img/flower6.png","76","77","3","1","3","1","1,0.333,0.333,0.333,1,0.333,0.333,0.333,1","1,0.333,0.333,0.333,1,0.333,0.333,0.333,1","1",""
"","html-keyboard-response","175","85032","0.0-175.0","3GNA64GUZFQYXR8BCJ49LTCKX345Q3","A3V2O71AQ29DRZ","3HUR21WDDUBEMSLDIXZW1FAIHW8YX3","","null","<img src=""img/flower6.png"" style=""width:200px; border:14px solid green;"">","null","","","","","","","","",""
"","image-keyboard-response","176","85102","0.0-176.0","3GNA64GUZFQYXR8BCJ49LTCKX345Q3","A3V2O71AQ29DRZ","3HUR21WDDUBEMSLDIXZW1FAIHW8YX3","","70","img/flower2.png","74","70","1","0","2","1","1,0.333,0.333,0.333,1,0.333,0.333,0.333,1","1,0.333,0.333,0.333,1,0.333,0.333,0.333,1","1",""
"","html-keyboard-response","177","85404","0.0-177.0","3GNA64GUZFQYXR8BCJ49LTCKX345Q3","A3V2O71AQ29DRZ","3HUR21WDDUBEMSLDIXZW1FAIHW8YX3","","null","<img src=""img/flower2.png"" style=""width:200px;border:14px solid red;"">","null","","","","","","","","",""
"","image-keyboard-response","178","85509","0.0-178.0","3GNA64GUZFQYXR8BCJ49LTCKX345Q3","A3V2O71AQ29DRZ","3HUR21WDDUBEMSLDIXZW1FAIHW8YX3","","105","img/flower4.png","74","105","1","1","1","1","1,0.333,0.333,0.333,1,0.333,0.333,0.333,1","1,0.333,0.333,0.333,1,0.333,0.333,0.333,1","1",""
"","html-keyboard-response","179","85811","0.0-179.0","3GNA64GUZFQYXR8BCJ49LTCKX345Q3","A3V2O71AQ29DRZ","3HUR21WDDUBEMSLDIXZW1FAIHW8YX3","","null","<img src=""img/flower4.png"" style=""width:200px; border:14px solid green;"">","null","","","","","","","","",""
"","image-keyboard-response","180","85927","0.0-180.0","3GNA64GUZFQYXR8BCJ49LTCKX345Q3","A3V2O71AQ29DRZ","3HUR21WDDUBEMSLDIXZW1FAIHW8YX3","","116","img/flower6.png","76","116","3","1","3","1","1,0.333,0.333,0.333,1,0.333,0.333,0.333,1","1,0.333,0.333,0.333,1,0.333,0.333,0.333,1","1",""
"","html-keyboard-response","181","86232","0.0-181.0","3GNA64GUZFQYXR8BCJ49LTCKX345Q3","A3V2O71AQ29DRZ","3HUR21WDDUBEMSLDIXZW1FAIHW8YX3","","null","<img src=""img/flower6.png"" style=""width:200px; border:14px solid green;"">","null","","","","","","","","",""
"","html-keyboard-response","182","101119","0.0-182.0","3GNA64GUZFQYXR8BCJ49LTCKX345Q3","A3V2O71AQ29DRZ","3HUR21WDDUBEMSLDIXZW1FAIHW8YX3","","","","","","","","","","","","",""
"","image-keyboard-response","183","103163","0.0-183.0","3GNA64GUZFQYXR8BCJ49LTCKX345Q3","A3V2O71AQ29DRZ","3HUR21WDDUBEMSLDIXZW1FAIHW8YX3","","","img/flower1.png","","2044","-1","0","2","2","1,0,0,1,1,0,1,0,1","0,1,0,0,1,1,1,1,0","3",""
"","html-keyboard-response","184","103465","0.0-184.0","3GNA64GUZFQYXR8BCJ49LTCKX345Q3","A3V2O71AQ29DRZ","3HUR21WDDUBEMSLDIXZW1FAIHW8YX3","","null","<img src=""img/flower1.png"" style=""width:200px;border:14px solid red;"">","null","","","","","","","","",""
"","image-keyboard-response","185","103773","0.0-185.0","3GNA64GUZFQYXR8BCJ49LTCKX345Q3","A3V2O71AQ29DRZ","3HUR21WDDUBEMSLDIXZW1FAIHW8YX3","","308","img/flower1.png","74","308","1","0","2","2","1,0,0,1,1,0,1,0,1","0,1,0,0,1,1,1,1,0","3",""
"","html-keyboard-response","186","104077","0.0-186.0","3GNA64GUZFQYXR8BCJ49LTCKX345Q3","A3V2O71AQ29DRZ","3HUR21WDDUBEMSLDIXZW1FAIHW8YX3","","null","<img src=""img/flower1.png"" style=""width:200px;border:14px solid red;"">","null","","","","","","","","",""
"","image-keyboard-response","187","104289","0.0-187.0","3GNA64GUZFQYXR8BCJ49LTCKX345Q3","A3V2O71AQ29DRZ","3HUR21WDDUBEMSLDIXZW1FAIHW8YX3","","209","img/flower5.png","75","210","2","1","1","2","1,0,0,1,1,0,1,0,1","0,1,0,0,1,1,1,1,0","3",""
"","html-keyboard-response","188","104590","0.0-188.0","3GNA64GUZFQYXR8BCJ49LTCKX345Q3","A3V2O71AQ29DRZ","3HUR21WDDUBEMSLDIXZW1FAIHW8YX3","","null","<img src=""img/flower5.png"" style=""width:200px; border:14px solid green;"">","null","","","","","","","","",""
"","image-keyboard-response","189","104642","0.0-189.0","3GNA64GUZFQYXR8BCJ49LTCKX345Q3","A3V2O71AQ29DRZ","3HUR21WDDUBEMSLDIXZW1FAIHW8YX3","","52","img/flower5.png","74","53","1","0","1","2","1,0,0,1,1,0,1,0,1","0,1,0,0,1,1,1,1,0","3",""
"","html-keyboard-response","190","104943","0.0-190.0","3GNA64GUZFQYXR8BCJ49LTCKX345Q3","A3V2O71AQ29DRZ","3HUR21WDDUBEMSLDIXZW1FAIHW8YX3","","null","<img src=""img/flower5.png"" style=""width:200px;border:14px solid red;"">","null","","","","","","","","",""
"","image-keyboard-response","191","105244","0.0-191.0","3GNA64GUZFQYXR8BCJ49LTCKX345Q3","A3V2O71AQ29DRZ","3HUR21WDDUBEMSLDIXZW1FAIHW8YX3","","301","img/flower1.png","74","302","1","0","2","2","1,0,0,1,1,0,1,0,1","0,1,0,0,1,1,1,1,0","3",""
"","html-keyboard-response","192","105546","0.0-192.0","3GNA64GUZFQYXR8BCJ49LTCKX345Q3","A3V2O71AQ29DRZ","3HUR21WDDUBEMSLDIXZW1FAIHW8YX3","","null","<img src=""img/flower1.png"" style=""width:200px;border:14px solid red;"">","null","","","","","","","","",""
"","image-keyboard-response","193","105657","0.0-193.0","3GNA64GUZFQYXR8BCJ49LTCKX345Q3","A3V2O71AQ29DRZ","3HUR21WDDUBEMSLDIXZW1FAIHW8YX3","","110","img/flower3.png","75","111","2","1","3","2","1,0,0,1,1,0,1,0,1","0,1,0,0,1,1,1,1,0","3",""
"","html-keyboard-response","194","105957","0.0-194.0","3GNA64GUZFQYXR8BCJ49LTCKX345Q3","A3V2O71AQ29DRZ","3HUR21WDDUBEMSLDIXZW1FAIHW8YX3","","null","<img src=""img/flower3.png"" style=""width:200px; border:14px solid green;"">","null","","","","","","","","",""
"","image-keyboard-response","195","106075","0.0-195.0","3GNA64GUZFQYXR8BCJ49LTCKX345Q3","A3V2O71AQ29DRZ","3HUR21WDDUBEMSLDIXZW1FAIHW8YX3","","118","img/flower3.png","75","118","2","1","3","2","1,0,0,1,1,0,1,0,1","0,1,0,0,1,1,1,1,0","3",""
"","html-keyboard-response","196","106376","0.0-196.0","3GNA64GUZFQYXR8BCJ49LTCKX345Q3","A3V2O71AQ29DRZ","3HUR21WDDUBEMSLDIXZW1FAIHW8YX3","","null","<img src=""img/flower3.png"" style=""width:200px; border:14px solid green;"">","null","","","","","","","","",""
"","image-keyboard-response","197","106401","0.0-197.0","3GNA64GUZFQYXR8BCJ49LTCKX345Q3","A3V2O71AQ29DRZ","3HUR21WDDUBEMSLDIXZW1FAIHW8YX3","","25","img/flower1.png","75","25","2","1","2","2","1,0,0,1,1,0,1,0,1","0,1,0,0,1,1,1,1,0","3",""
"","html-keyboard-response","198","106703","0.0-198.0","3GNA64GUZFQYXR8BCJ49LTCKX345Q3","A3V2O71AQ29DRZ","3HUR21WDDUBEMSLDIXZW1FAIHW8YX3","","null","<img src=""img/flower1.png"" style=""width:200px; border:14px solid green;"">","null","","","","","","","","",""
"","image-keyboard-response","199","106863","0.0-199.0","3GNA64GUZFQYXR8BCJ49LTCKX345Q3","A3V2O71AQ29DRZ","3HUR21WDDUBEMSLDIXZW1FAIHW8YX3","","159","img/flower3.png","74","160","1","1","3","2","1,0,0,1,1,0,1,0,1","0,1,0,0,1,1,1,1,0","3",""
"","html-keyboard-response","200","107165","0.0-200.0","3GNA64GUZFQYXR8BCJ49LTCKX345Q3","A3V2O71AQ29DRZ","3HUR21WDDUBEMSLDIXZW1FAIHW8YX3","","null","<img src=""img/flower3.png"" style=""width:200px; border:14px solid green;"">","null","","","","","","","","",""
"","image-keyboard-response","201","107388","0.0-201.0","3GNA64GUZFQYXR8BCJ49LTCKX345Q3","A3V2O71AQ29DRZ","3HUR21WDDUBEMSLDIXZW1FAIHW8YX3","","223","img/flower1.png","76","223","3","1","2","2","1,0,0,1,1,0,1,0,1","0,1,0,0,1,1,1,1,0","3",""
"","html-keyboard-response","202","107690","0.0-202.0","3GNA64GUZFQYXR8BCJ49LTCKX345Q3","A3V2O71AQ29DRZ","3HUR21WDDUBEMSLDIXZW1FAIHW8YX3","","null","<img src=""img/flower1.png"" style=""width:200px; border:14px solid green;"">","null","","","","","","","","",""
"","image-keyboard-response","203","107828","0.0-203.0","3GNA64GUZFQYXR8BCJ49LTCKX345Q3","A3V2O71AQ29DRZ","3HUR21WDDUBEMSLDIXZW1FAIHW8YX3","","137","img/flower5.png","75","138","2","1","1","2","1,0,0,1,1,0,1,0,1","0,1,0,0,1,1,1,1,0","3",""
"","html-keyboard-response","204","108129","0.0-204.0","3GNA64GUZFQYXR8BCJ49LTCKX345Q3","A3V2O71AQ29DRZ","3HUR21WDDUBEMSLDIXZW1FAIHW8YX3","","null","<img src=""img/flower5.png"" style=""width:200px; border:14px solid green;"">","null","","","","","","","","",""
"","image-keyboard-response","205","108402","0.0-205.0","3GNA64GUZFQYXR8BCJ49LTCKX345Q3","A3V2O71AQ29DRZ","3HUR21WDDUBEMSLDIXZW1FAIHW8YX3","","271","img/flower1.png","75","273","2","1","2","2","1,0,0,1,1,0,1,0,1","0,1,0,0,1,1,1,1,0","3",""
"","html-keyboard-response","206","108703","0.0-206.0","3GNA64GUZFQYXR8BCJ49LTCKX345Q3","A3V2O71AQ29DRZ","3HUR21WDDUBEMSLDIXZW1FAIHW8YX3","","null","<img src=""img/flower1.png"" style=""width:200px; border:14px solid green;"">","null","","","","","","","","",""
"","image-keyboard-response","207","108810","0.0-207.0","3GNA64GUZFQYXR8BCJ49LTCKX345Q3","A3V2O71AQ29DRZ","3HUR21WDDUBEMSLDIXZW1FAIHW8YX3","","107","img/flower1.png","74","107","1","0","2","2","1,0,0,1,1,0,1,0,1","0,1,0,0,1,1,1,1,0","3",""
"","html-keyboard-response","208","109111","0.0-208.0","3GNA64GUZFQYXR8BCJ49LTCKX345Q3","A3V2O71AQ29DRZ","3HUR21WDDUBEMSLDIXZW1FAIHW8YX3","","null","<img src=""img/flower1.png"" style=""width:200px;border:14px solid red;"">","null","","","","","","","","",""
"","image-keyboard-response","209","109168","0.0-209.0","3GNA64GUZFQYXR8BCJ49LTCKX345Q3","A3V2O71AQ29DRZ","3HUR21WDDUBEMSLDIXZW1FAIHW8YX3","","57","img/flower1.png","76","57","3","1","2","2","1,0,0,1,1,0,1,0,1","0,1,0,0,1,1,1,1,0","3",""
"","html-keyboard-response","210","109469","0.0-210.0","3GNA64GUZFQYXR8BCJ49LTCKX345Q3","A3V2O71AQ29DRZ","3HUR21WDDUBEMSLDIXZW1FAIHW8YX3","","null","<img src=""img/flower1.png"" style=""width:200px; border:14px solid green;"">","null","","","","","","","","",""
"","image-keyboard-response","211","109500","0.0-211.0","3GNA64GUZFQYXR8BCJ49LTCKX345Q3","A3V2O71AQ29DRZ","3HUR21WDDUBEMSLDIXZW1FAIHW8YX3","","31","img/flower3.png","75","31","2","1","3","2","1,0,0,1,1,0,1,0,1","0,1,0,0,1,1,1,1,0","3",""
"","html-keyboard-response","212","109801","0.0-212.0","3GNA64GUZFQYXR8BCJ49LTCKX345Q3","A3V2O71AQ29DRZ","3HUR21WDDUBEMSLDIXZW1FAIHW8YX3","","null","<img src=""img/flower3.png"" style=""width:200px; border:14px solid green;"">","null","","","","","","","","",""
"","image-keyboard-response","213","109829","0.0-213.0","3GNA64GUZFQYXR8BCJ49LTCKX345Q3","A3V2O71AQ29DRZ","3HUR21WDDUBEMSLDIXZW1FAIHW8YX3","","28","img/flower3.png","76","28","3","0","3","2","1,0,0,1,1,0,1,0,1","0,1,0,0,1,1,1,1,0","3",""
"","html-keyboard-response","214","110131","0.0-214.0","3GNA64GUZFQYXR8BCJ49LTCKX345Q3","A3V2O71AQ29DRZ","3HUR21WDDUBEMSLDIXZW1FAIHW8YX3","","null","<img src=""img/flower3.png"" style=""width:200px;border:14px solid red;"">","null","","","","","","","","",""
"","image-keyboard-response","215","110173","0.0-215.0","3GNA64GUZFQYXR8BCJ49LTCKX345Q3","A3V2O71AQ29DRZ","3HUR21WDDUBEMSLDIXZW1FAIHW8YX3","","40","img/flower1.png","75","42","2","1","2","2","1,0,0,1,1,0,1,0,1","0,1,0,0,1,1,1,1,0","3",""
"","html-keyboard-response","216","110475","0.0-216.0","3GNA64GUZFQYXR8BCJ49LTCKX345Q3","A3V2O71AQ29DRZ","3HUR21WDDUBEMSLDIXZW1FAIHW8YX3","","null","<img src=""img/flower1.png"" style=""width:200px; border:14px solid green;"">","null","","","","","","","","",""
"","image-keyboard-response","217","110553","0.0-217.0","3GNA64GUZFQYXR8BCJ49LTCKX345Q3","A3V2O71AQ29DRZ","3HUR21WDDUBEMSLDIXZW1FAIHW8YX3","","78","img/flower5.png","74","78","1","0","1","2","1,0,0,1,1,0,1,0,1","0,1,0,0,1,1,1,1,0","3",""
"","html-keyboard-response","218","110854","0.0-218.0","3GNA64GUZFQYXR8BCJ49LTCKX345Q3","A3V2O71AQ29DRZ","3HUR21WDDUBEMSLDIXZW1FAIHW8YX3","","null","<img src=""img/flower5.png"" style=""width:200px;border:14px solid red;"">","null","","","","","","","","",""
"","image-keyboard-response","219","111010","0.0-219.0","3GNA64GUZFQYXR8BCJ49LTCKX345Q3","A3V2O71AQ29DRZ","3HUR21WDDUBEMSLDIXZW1FAIHW8YX3","","155","img/flower3.png","76","155","3","0","3","2","1,0,0,1,1,0,1,0,1","0,1,0,0,1,1,1,1,0","3",""
"","html-keyboard-response","220","111314","0.0-220.0","3GNA64GUZFQYXR8BCJ49LTCKX345Q3","A3V2O71AQ29DRZ","3HUR21WDDUBEMSLDIXZW1FAIHW8YX3","","null","<img src=""img/flower3.png"" style=""width:200px;border:14px solid red;"">","null","","","","","","","","",""
"","image-keyboard-response","221","111362","0.0-221.0","3GNA64GUZFQYXR8BCJ49LTCKX345Q3","A3V2O71AQ29DRZ","3HUR21WDDUBEMSLDIXZW1FAIHW8YX3","","47","img/flower5.png","75","48","2","1","1","2","1,0,0,1,1,0,1,0,1","0,1,0,0,1,1,1,1,0","3",""
"","html-keyboard-response","222","111706","0.0-222.0","3GNA64GUZFQYXR8BCJ49LTCKX345Q3","A3V2O71AQ29DRZ","3HUR21WDDUBEMSLDIXZW1FAIHW8YX3","","null","<img src=""img/flower5.png"" style=""width:200px; border:14px solid green;"">","null","","","","","","","","",""
"","image-keyboard-response","223","111721","0.0-223.0","3GNA64GUZFQYXR8BCJ49LTCKX345Q3","A3V2O71AQ29DRZ","3HUR21WDDUBEMSLDIXZW1FAIHW8YX3","","14","img/flower3.png","74","14","1","1","3","2","1,0,0,1,1,0,1,0,1","0,1,0,0,1,1,1,1,0","3",""
"","html-keyboard-response","224","112022","0.0-224.0","3GNA64GUZFQYXR8BCJ49LTCKX345Q3","A3V2O71AQ29DRZ","3HUR21WDDUBEMSLDIXZW1FAIHW8YX3","","null","<img src=""img/flower3.png"" style=""width:200px; border:14px solid green;"">","null","","","","","","","","",""
"","image-keyboard-response","225","112064","0.0-225.0","3GNA64GUZFQYXR8BCJ49LTCKX345Q3","A3V2O71AQ29DRZ","3HUR21WDDUBEMSLDIXZW1FAIHW8YX3","","40","img/flower1.png","76","42","3","1","2","2","1,0,0,1,1,0,1,0,1","0,1,0,0,1,1,1,1,0","3",""
"","html-keyboard-response","226","112365","0.0-226.0","3GNA64GUZFQYXR8BCJ49LTCKX345Q3","A3V2O71AQ29DRZ","3HUR21WDDUBEMSLDIXZW1FAIHW8YX3","","null","<img src=""img/flower1.png"" style=""width:200px; border:14px solid green;"">","null","","","","","","","","",""
"","image-keyboard-response","227","112427","0.0-227.0","3GNA64GUZFQYXR8BCJ49LTCKX345Q3","A3V2O71AQ29DRZ","3HUR21WDDUBEMSLDIXZW1FAIHW8YX3","","61","img/flower5.png","75","62","2","1","1","2","1,0,0,1,1,0,1,0,1","0,1,0,0,1,1,1,1,0","3",""
"","html-keyboard-response","228","112728","0.0-228.0","3GNA64GUZFQYXR8BCJ49LTCKX345Q3","A3V2O71AQ29DRZ","3HUR21WDDUBEMSLDIXZW1FAIHW8YX3","","null","<img src=""img/flower5.png"" style=""width:200px; border:14px solid green;"">","null","","","","","","","","",""
"","image-keyboard-response","229","112802","0.0-229.0","3GNA64GUZFQYXR8BCJ49LTCKX345Q3","A3V2O71AQ29DRZ","3HUR21WDDUBEMSLDIXZW1FAIHW8YX3","","74","img/flower3.png","75","74","2","1","3","2","1,0,0,1,1,0,1,0,1","0,1,0,0,1,1,1,1,0","3",""
"","html-keyboard-response","230","113102","0.0-230.0","3GNA64GUZFQYXR8BCJ49LTCKX345Q3","A3V2O71AQ29DRZ","3HUR21WDDUBEMSLDIXZW1FAIHW8YX3","","null","<img src=""img/flower3.png"" style=""width:200px; border:14px solid green;"">","null","","","","","","","","",""
"","image-keyboard-response","231","113208","0.0-231.0","3GNA64GUZFQYXR8BCJ49LTCKX345Q3","A3V2O71AQ29DRZ","3HUR21WDDUBEMSLDIXZW1FAIHW8YX3","","105","img/flower5.png","75","106","2","1","1","2","1,0,0,1,1,0,1,0,1","0,1,0,0,1,1,1,1,0","3",""
"","html-keyboard-response","232","113509","0.0-232.0","3GNA64GUZFQYXR8BCJ49LTCKX345Q3","A3V2O71AQ29DRZ","3HUR21WDDUBEMSLDIXZW1FAIHW8YX3","","null","<img src=""img/flower5.png"" style=""width:200px; border:14px solid green;"">","null","","","","","","","","",""
"","image-keyboard-response","233","113550","0.0-233.0","3GNA64GUZFQYXR8BCJ49LTCKX345Q3","A3V2O71AQ29DRZ","3HUR21WDDUBEMSLDIXZW1FAIHW8YX3","","40","img/flower5.png","74","41","1","0","1","2","1,0,0,1,1,0,1,0,1","0,1,0,0,1,1,1,1,0","3",""
"","html-keyboard-response","234","113851","0.0-234.0","3GNA64GUZFQYXR8BCJ49LTCKX345Q3","A3V2O71AQ29DRZ","3HUR21WDDUBEMSLDIXZW1FAIHW8YX3","","null","<img src=""img/flower5.png"" style=""width:200px;border:14px solid red;"">","null","","","","","","","","",""
"","image-keyboard-response","235","113950","0.0-235.0","3GNA64GUZFQYXR8BCJ49LTCKX345Q3","A3V2O71AQ29DRZ","3HUR21WDDUBEMSLDIXZW1FAIHW8YX3","","99","img/flower3.png","76","99","3","0","3","2","1,0,0,1,1,0,1,0,1","0,1,0,0,1,1,1,1,0","3",""
"","html-keyboard-response","236","114251","0.0-236.0","3GNA64GUZFQYXR8BCJ49LTCKX345Q3","A3V2O71AQ29DRZ","3HUR21WDDUBEMSLDIXZW1FAIHW8YX3","","null","<img src=""img/flower3.png"" style=""width:200px;border:14px solid red;"">","null","","","","","","","","",""
"","image-keyboard-response","237","114287","0.0-237.0","3GNA64GUZFQYXR8BCJ49LTCKX345Q3","A3V2O71AQ29DRZ","3HUR21WDDUBEMSLDIXZW1FAIHW8YX3","","36","img/flower1.png","75","37","2","1","2","2","1,0,0,1,1,0,1,0,1","0,1,0,0,1,1,1,1,0","3",""
"","html-keyboard-response","238","114589","0.0-238.0","3GNA64GUZFQYXR8BCJ49LTCKX345Q3","A3V2O71AQ29DRZ","3HUR21WDDUBEMSLDIXZW1FAIHW8YX3","","null","<img src=""img/flower1.png"" style=""width:200px; border:14px solid green;"">","null","","","","","","","","",""
"","image-keyboard-response","239","114651","0.0-239.0","3GNA64GUZFQYXR8BCJ49LTCKX345Q3","A3V2O71AQ29DRZ","3HUR21WDDUBEMSLDIXZW1FAIHW8YX3","","61","img/flower3.png","76","62","3","0","3","2","1,0,0,1,1,0,1,0,1","0,1,0,0,1,1,1,1,0","3",""
"","html-keyboard-response","240","114953","0.0-240.0","3GNA64GUZFQYXR8BCJ49LTCKX345Q3","A3V2O71AQ29DRZ","3HUR21WDDUBEMSLDIXZW1FAIHW8YX3","","null","<img src=""img/flower3.png"" style=""width:200px;border:14px solid red;"">","null","","","","","","","","",""
"","image-keyboard-response","241","115018","0.0-241.0","3GNA64GUZFQYXR8BCJ49LTCKX345Q3","A3V2O71AQ29DRZ","3HUR21WDDUBEMSLDIXZW1FAIHW8YX3","","64","img/flower5.png","75","64","2","1","1","2","1,0,0,1,1,0,1,0,1","0,1,0,0,1,1,1,1,0","3",""
"","html-keyboard-response","242","115318","0.0-242.0","3GNA64GUZFQYXR8BCJ49LTCKX345Q3","A3V2O71AQ29DRZ","3HUR21WDDUBEMSLDIXZW1FAIHW8YX3","","null","<img src=""img/flower5.png"" style=""width:200px; border:14px solid green;"">","null","","","","","","","","",""
"","image-keyboard-response","243","115361","0.0-243.0","3GNA64GUZFQYXR8BCJ49LTCKX345Q3","A3V2O71AQ29DRZ","3HUR21WDDUBEMSLDIXZW1FAIHW8YX3","","43","img/flower5.png","76","44","3","0","1","2","1,0,0,1,1,0,1,0,1","0,1,0,0,1,1,1,1,0","3",""
"","html-keyboard-response","244","115663","0.0-244.0","3GNA64GUZFQYXR8BCJ49LTCKX345Q3","A3V2O71AQ29DRZ","3HUR21WDDUBEMSLDIXZW1FAIHW8YX3","","null","<img src=""img/flower5.png"" style=""width:200px;border:14px solid red;"">","null","","","","","","","","",""
"","image-keyboard-response","245","115853","0.0-245.0","3GNA64GUZFQYXR8BCJ49LTCKX345Q3","A3V2O71AQ29DRZ","3HUR21WDDUBEMSLDIXZW1FAIHW8YX3","","189","img/flower1.png","74","190","1","0","2","2","1,0,0,1,1,0,1,0,1","0,1,0,0,1,1,1,1,0","3",""
"","html-keyboard-response","246","116154","0.0-246.0","3GNA64GUZFQYXR8BCJ49LTCKX345Q3","A3V2O71AQ29DRZ","3HUR21WDDUBEMSLDIXZW1FAIHW8YX3","","null","<img src=""img/flower1.png"" style=""width:200px;border:14px solid red;"">","null","","","","","","","","",""
"","image-keyboard-response","247","116240","0.0-247.0","3GNA64GUZFQYXR8BCJ49LTCKX345Q3","A3V2O71AQ29DRZ","3HUR21WDDUBEMSLDIXZW1FAIHW8YX3","","86","img/flower1.png","76","86","3","1","2","2","1,0,0,1,1,0,1,0,1","0,1,0,0,1,1,1,1,0","3",""
"","html-keyboard-response","248","116541","0.0-248.0","3GNA64GUZFQYXR8BCJ49LTCKX345Q3","A3V2O71AQ29DRZ","3HUR21WDDUBEMSLDIXZW1FAIHW8YX3","","null","<img src=""img/flower1.png"" style=""width:200px; border:14px solid green;"">","null","","","","","","","","",""
"","image-keyboard-response","249","116636","0.0-249.0","3GNA64GUZFQYXR8BCJ49LTCKX345Q3","A3V2O71AQ29DRZ","3HUR21WDDUBEMSLDIXZW1FAIHW8YX3","","94","img/flower1.png","76","95","3","1","2","2","1,0,0,1,1,0,1,0,1","0,1,0,0,1,1,1,1,0","3",""
"","html-keyboard-response","250","116937","0.0-250.0","3GNA64GUZFQYXR8BCJ49LTCKX345Q3","A3V2O71AQ29DRZ","3HUR21WDDUBEMSLDIXZW1FAIHW8YX3","","null","<img src=""img/flower1.png"" style=""width:200px; border:14px solid green;"">","null","","","","","","","","",""
"","image-keyboard-response","251","116969","0.0-251.0","3GNA64GUZFQYXR8BCJ49LTCKX345Q3","A3V2O71AQ29DRZ","3HUR21WDDUBEMSLDIXZW1FAIHW8YX3","","31","img/flower3.png","74","32","1","1","3","2","1,0,0,1,1,0,1,0,1","0,1,0,0,1,1,1,1,0","3",""
"","html-keyboard-response","252","117269","0.0-252.0","3GNA64GUZFQYXR8BCJ49LTCKX345Q3","A3V2O71AQ29DRZ","3HUR21WDDUBEMSLDIXZW1FAIHW8YX3","","null","<img src=""img/flower3.png"" style=""width:200px; border:14px solid green;"">","null","","","","","","","","",""
"","image-keyboard-response","253","117280","0.0-253.0","3GNA64GUZFQYXR8BCJ49LTCKX345Q3","A3V2O71AQ29DRZ","3HUR21WDDUBEMSLDIXZW1FAIHW8YX3","","9","img/flower1.png","74","11","1","0","2","2","1,0,0,1,1,0,1,0,1","0,1,0,0,1,1,1,1,0","3",""
"","html-keyboard-response","254","117580","0.0-254.0","3GNA64GUZFQYXR8BCJ49LTCKX345Q3","A3V2O71AQ29DRZ","3HUR21WDDUBEMSLDIXZW1FAIHW8YX3","","null","<img src=""img/flower1.png"" style=""width:200px;border:14px solid red;"">","null","","","","","","","","",""
"","image-keyboard-response","255","117732","0.0-255.0","3GNA64GUZFQYXR8BCJ49LTCKX345Q3","A3V2O71AQ29DRZ","3HUR21WDDUBEMSLDIXZW1FAIHW8YX3","","151","img/flower1.png","76","152","3","1","2","2","1,0,0,1,1,0,1,0,1","0,1,0,0,1,1,1,1,0","3",""
"","html-keyboard-response","256","118032","0.0-256.0","3GNA64GUZFQYXR8BCJ49LTCKX345Q3","A3V2O71AQ29DRZ","3HUR21WDDUBEMSLDIXZW1FAIHW8YX3","","null","<img src=""img/flower1.png"" style=""width:200px; border:14px solid green;"">","null","","","","","","","","",""
"","image-keyboard-response","257","118119","0.0-257.0","3GNA64GUZFQYXR8BCJ49LTCKX345Q3","A3V2O71AQ29DRZ","3HUR21WDDUBEMSLDIXZW1FAIHW8YX3","","86","img/flower1.png","75","87","2","1","2","2","1,0,0,1,1,0,1,0,1","0,1,0,0,1,1,1,1,0","3",""
"","html-keyboard-response","258","118420","0.0-258.0","3GNA64GUZFQYXR8BCJ49LTCKX345Q3","A3V2O71AQ29DRZ","3HUR21WDDUBEMSLDIXZW1FAIHW8YX3","","null","<img src=""img/flower1.png"" style=""width:200px; border:14px solid green;"">","null","","","","","","","","",""
"","image-keyboard-response","259","118425","0.0-259.0","3GNA64GUZFQYXR8BCJ49LTCKX345Q3","A3V2O71AQ29DRZ","3HUR21WDDUBEMSLDIXZW1FAIHW8YX3","","4","img/flower5.png","75","5","2","1","1","2","1,0,0,1,1,0,1,0,1","0,1,0,0,1,1,1,1,0","3",""
"","html-keyboard-response","260","118726","0.0-260.0","3GNA64GUZFQYXR8BCJ49LTCKX345Q3","A3V2O71AQ29DRZ","3HUR21WDDUBEMSLDIXZW1FAIHW8YX3","","null","<img src=""img/flower5.png"" style=""width:200px; border:14px solid green;"">","null","","","","","","","","",""
"","image-keyboard-response","261","118736","0.0-261.0","3GNA64GUZFQYXR8BCJ49LTCKX345Q3","A3V2O71AQ29DRZ","3HUR21WDDUBEMSLDIXZW1FAIHW8YX3","","8","img/flower5.png","76","10","3","0","1","2","1,0,0,1,1,0,1,0,1","0,1,0,0,1,1,1,1,0","3",""
"","html-keyboard-response","262","119037","0.0-262.0","3GNA64GUZFQYXR8BCJ49LTCKX345Q3","A3V2O71AQ29DRZ","3HUR21WDDUBEMSLDIXZW1FAIHW8YX3","","null","<img src=""img/flower5.png"" style=""width:200px;border:14px solid red;"">","null","","","","","","","","",""
"","image-keyboard-response","263","119121","0.0-263.0","3GNA64GUZFQYXR8BCJ49LTCKX345Q3","A3V2O71AQ29DRZ","3HUR21WDDUBEMSLDIXZW1FAIHW8YX3","","82","img/flower5.png","74","84","1","0","1","2","1,0,0,1,1,0,1,0,1","0,1,0,0,1,1,1,1,0","3",""
"","html-keyboard-response","264","119422","0.0-264.0","3GNA64GUZFQYXR8BCJ49LTCKX345Q3","A3V2O71AQ29DRZ","3HUR21WDDUBEMSLDIXZW1FAIHW8YX3","","null","<img src=""img/flower5.png"" style=""width:200px;border:14px solid red;"">","null","","","","","","","","",""
"","image-keyboard-response","265","119537","0.0-265.0","3GNA64GUZFQYXR8BCJ49LTCKX345Q3","A3V2O71AQ29DRZ","3HUR21WDDUBEMSLDIXZW1FAIHW8YX3","","114","img/flower3.png","76","115","3","0","3","2","1,0,0,1,1,0,1,0,1","0,1,0,0,1,1,1,1,0","3",""
"","html-keyboard-response","266","119837","0.0-266.0","3GNA64GUZFQYXR8BCJ49LTCKX345Q3","A3V2O71AQ29DRZ","3HUR21WDDUBEMSLDIXZW1FAIHW8YX3","","null","<img src=""img/flower3.png"" style=""width:200px;border:14px solid red;"">","null","","","","","","","","",""
"","image-keyboard-response","267","119988","0.0-267.0","3GNA64GUZFQYXR8BCJ49LTCKX345Q3","A3V2O71AQ29DRZ","3HUR21WDDUBEMSLDIXZW1FAIHW8YX3","","151","img/flower5.png","76","151","3","0","1","2","1,0,0,1,1,0,1,0,1","0,1,0,0,1,1,1,1,0","3",""
"","html-keyboard-response","268","120312","0.0-268.0","3GNA64GUZFQYXR8BCJ49LTCKX345Q3","A3V2O71AQ29DRZ","3HUR21WDDUBEMSLDIXZW1FAIHW8YX3","","null","<img src=""img/flower5.png"" style=""width:200px;border:14px solid red;"">","null","","","","","","","","",""
"","image-keyboard-response","269","120353","0.0-269.0","3GNA64GUZFQYXR8BCJ49LTCKX345Q3","A3V2O71AQ29DRZ","3HUR21WDDUBEMSLDIXZW1FAIHW8YX3","","37","img/flower3.png","76","38","3","0","3","2","1,0,0,1,1,0,1,0,1","0,1,0,0,1,1,1,1,0","3",""
"","html-keyboard-response","270","120654","0.0-270.0","3GNA64GUZFQYXR8BCJ49LTCKX345Q3","A3V2O71AQ29DRZ","3HUR21WDDUBEMSLDIXZW1FAIHW8YX3","","null","<img src=""img/flower3.png"" style=""width:200px;border:14px solid red;"">","null","","","","","","","","",""
"","image-keyboard-response","271","120661","0.0-271.0","3GNA64GUZFQYXR8BCJ49LTCKX345Q3","A3V2O71AQ29DRZ","3HUR21WDDUBEMSLDIXZW1FAIHW8YX3","","7","img/flower5.png","76","7","3","0","1","2","1,0,0,1,1,0,1,0,1","0,1,0,0,1,1,1,1,0","3",""
"","html-keyboard-response","272","120962","0.0-272.0","3GNA64GUZFQYXR8BCJ49LTCKX345Q3","A3V2O71AQ29DRZ","3HUR21WDDUBEMSLDIXZW1FAIHW8YX3","","null","<img src=""img/flower5.png"" style=""width:200px;border:14px solid red;"">","null","","","","","","","","",""
"","image-keyboard-response","273","120970","0.0-273.0","3GNA64GUZFQYXR8BCJ49LTCKX345Q3","A3V2O71AQ29DRZ","3HUR21WDDUBEMSLDIXZW1FAIHW8YX3","","7","img/flower1.png","76","8","3","1","2","2","1,0,0,1,1,0,1,0,1","0,1,0,0,1,1,1,1,0","3",""
"","html-keyboard-response","274","121272","0.0-274.0","3GNA64GUZFQYXR8BCJ49LTCKX345Q3","A3V2O71AQ29DRZ","3HUR21WDDUBEMSLDIXZW1FAIHW8YX3","","null","<img src=""img/flower1.png"" style=""width:200px; border:14px solid green;"">","null","","","","","","","","",""
"","image-keyboard-response","275","121290","0.0-275.0","3GNA64GUZFQYXR8BCJ49LTCKX345Q3","A3V2O71AQ29DRZ","3HUR21WDDUBEMSLDIXZW1FAIHW8YX3","","18","img/flower5.png","75","18","2","1","1","2","1,0,0,1,1,0,1,0,1","0,1,0,0,1,1,1,1,0","3",""
"","html-keyboard-response","276","121590","0.0-276.0","3GNA64GUZFQYXR8BCJ49LTCKX345Q3","A3V2O71AQ29DRZ","3HUR21WDDUBEMSLDIXZW1FAIHW8YX3","","null","<img src=""img/flower5.png"" style=""width:200px; border:14px solid green;"">","null","","","","","","","","",""
"","image-keyboard-response","277","121615","0.0-277.0","3GNA64GUZFQYXR8BCJ49LTCKX345Q3","A3V2O71AQ29DRZ","3HUR21WDDUBEMSLDIXZW1FAIHW8YX3","","24","img/flower5.png","75","25","2","1","1","2","1,0,0,1,1,0,1,0,1","0,1,0,0,1,1,1,1,0","3",""
"","html-keyboard-response","278","121947","0.0-278.0","3GNA64GUZFQYXR8BCJ49LTCKX345Q3","A3V2O71AQ29DRZ","3HUR21WDDUBEMSLDIXZW1FAIHW8YX3","","null","<img src=""img/flower5.png"" style=""width:200px; border:14px solid green;"">","null","","","","","","","","",""
"","image-keyboard-response","279","122051","0.0-279.0","3GNA64GUZFQYXR8BCJ49LTCKX345Q3","A3V2O71AQ29DRZ","3HUR21WDDUBEMSLDIXZW1FAIHW8YX3","","102","img/flower5.png","74","104","1","0","1","2","1,0,0,1,1,0,1,0,1","0,1,0,0,1,1,1,1,0","3",""
"","html-keyboard-response","280","122351","0.0-280.0","3GNA64GUZFQYXR8BCJ49LTCKX345Q3","A3V2O71AQ29DRZ","3HUR21WDDUBEMSLDIXZW1FAIHW8YX3","","null","<img src=""img/flower5.png"" style=""width:200px;border:14px solid red;"">","null","","","","","","","","",""
"","image-keyboard-response","281","122396","0.0-281.0","3GNA64GUZFQYXR8BCJ49LTCKX345Q3","A3V2O71AQ29DRZ","3HUR21WDDUBEMSLDIXZW1FAIHW8YX3","","44","img/flower5.png","74","45","1","0","1","2","1,0,0,1,1,0,1,0,1","0,1,0,0,1,1,1,1,0","3",""
"","html-keyboard-response","282","122697","0.0-282.0","3GNA64GUZFQYXR8BCJ49LTCKX345Q3","A3V2O71AQ29DRZ","3HUR21WDDUBEMSLDIXZW1FAIHW8YX3","","null","<img src=""img/flower5.png"" style=""width:200px;border:14px solid red;"">","null","","","","","","","","",""
"","image-keyboard-response","283","122844","0.0-283.0","3GNA64GUZFQYXR8BCJ49LTCKX345Q3","A3V2O71AQ29DRZ","3HUR21WDDUBEMSLDIXZW1FAIHW8YX3","","146","img/flower1.png","76","146","3","1","2","2","1,0,0,1,1,0,1,0,1","0,1,0,0,1,1,1,1,0","3",""
"","html-keyboard-response","284","123145","0.0-284.0","3GNA64GUZFQYXR8BCJ49LTCKX345Q3","A3V2O71AQ29DRZ","3HUR21WDDUBEMSLDIXZW1FAIHW8YX3","","null","<img src=""img/flower1.png"" style=""width:200px; border:14px solid green;"">","null","","","","","","","","",""
"","image-keyboard-response","285","123248","0.0-285.0","3GNA64GUZFQYXR8BCJ49LTCKX345Q3","A3V2O71AQ29DRZ","3HUR21WDDUBEMSLDIXZW1FAIHW8YX3","","102","img/flower3.png","74","104","1","1","3","2","1,0,0,1,1,0,1,0,1","0,1,0,0,1,1,1,1,0","3",""
"","html-keyboard-response","286","123550","0.0-286.0","3GNA64GUZFQYXR8BCJ49LTCKX345Q3","A3V2O71AQ29DRZ","3HUR21WDDUBEMSLDIXZW1FAIHW8YX3","","null","<img src=""img/flower3.png"" style=""width:200px; border:14px solid green;"">","null","","","","","","","","",""
"","image-keyboard-response","287","123619","0.0-287.0","3GNA64GUZFQYXR8BCJ49LTCKX345Q3","A3V2O71AQ29DRZ","3HUR21WDDUBEMSLDIXZW1FAIHW8YX3","","68","img/flower3.png","76","69","3","0","3","2","1,0,0,1,1,0,1,0,1","0,1,0,0,1,1,1,1,0","3",""
"","html-keyboard-response","288","123926","0.0-288.0","3GNA64GUZFQYXR8BCJ49LTCKX345Q3","A3V2O71AQ29DRZ","3HUR21WDDUBEMSLDIXZW1FAIHW8YX3","","null","<img src=""img/flower3.png"" style=""width:200px;border:14px solid red;"">","null","","","","","","","","",""
"","image-keyboard-response","289","123950","0.0-289.0","3GNA64GUZFQYXR8BCJ49LTCKX345Q3","A3V2O71AQ29DRZ","3HUR21WDDUBEMSLDIXZW1FAIHW8YX3","","20","img/flower1.png","74","20","1","0","2","2","1,0,0,1,1,0,1,0,1","0,1,0,0,1,1,1,1,0","3",""
"","html-keyboard-response","290","124251","0.0-290.0","3GNA64GUZFQYXR8BCJ49LTCKX345Q3","A3V2O71AQ29DRZ","3HUR21WDDUBEMSLDIXZW1FAIHW8YX3","","null","<img src=""img/flower1.png"" style=""width:200px;border:14px solid red;"">","null","","","","","","","","",""
"","image-keyboard-response","291","124258","0.0-291.0","3GNA64GUZFQYXR8BCJ49LTCKX345Q3","A3V2O71AQ29DRZ","3HUR21WDDUBEMSLDIXZW1FAIHW8YX3","","6","img/flower3.png","74","7","1","1","3","2","1,0,0,1,1,0,1,0,1","0,1,0,0,1,1,1,1,0","3",""
"","html-keyboard-response","292","124559","0.0-292.0","3GNA64GUZFQYXR8BCJ49LTCKX345Q3","A3V2O71AQ29DRZ","3HUR21WDDUBEMSLDIXZW1FAIHW8YX3","","null","<img src=""img/flower3.png"" style=""width:200px; border:14px solid green;"">","null","","","","","","","","",""
"","image-keyboard-response","293","124592","0.0-293.0","3GNA64GUZFQYXR8BCJ49LTCKX345Q3","A3V2O71AQ29DRZ","3HUR21WDDUBEMSLDIXZW1FAIHW8YX3","","32","img/flower3.png","74","33","1","1","3","2","1,0,0,1,1,0,1,0,1","0,1,0,0,1,1,1,1,0","3",""
"","html-keyboard-response","294","124893","0.0-294.0","3GNA64GUZFQYXR8BCJ49LTCKX345Q3","A3V2O71AQ29DRZ","3HUR21WDDUBEMSLDIXZW1FAIHW8YX3","","null","<img src=""img/flower3.png"" style=""width:200px; border:14px solid green;"">","null","","","","","","","","",""
"","image-keyboard-response","295","125079","0.0-295.0","3GNA64GUZFQYXR8BCJ49LTCKX345Q3","A3V2O71AQ29DRZ","3HUR21WDDUBEMSLDIXZW1FAIHW8YX3","","186","img/flower1.png","76","186","3","1","2","2","1,0,0,1,1,0,1,0,1","0,1,0,0,1,1,1,1,0","3",""
"","html-keyboard-response","296","125380","0.0-296.0","3GNA64GUZFQYXR8BCJ49LTCKX345Q3","A3V2O71AQ29DRZ","3HUR21WDDUBEMSLDIXZW1FAIHW8YX3","","null","<img src=""img/flower1.png"" style=""width:200px; border:14px solid green;"">","null","","","","","","","","",""
"","image-keyboard-response","297","125395","0.0-297.0","3GNA64GUZFQYXR8BCJ49LTCKX345Q3","A3V2O71AQ29DRZ","3HUR21WDDUBEMSLDIXZW1FAIHW8YX3","","14","img/flower3.png","76","15","3","0","3","2","1,0,0,1,1,0,1,0,1","0,1,0,0,1,1,1,1,0","3",""
"","html-keyboard-response","298","125696","0.0-298.0","3GNA64GUZFQYXR8BCJ49LTCKX345Q3","A3V2O71AQ29DRZ","3HUR21WDDUBEMSLDIXZW1FAIHW8YX3","","null","<img src=""img/flower3.png"" style=""width:200px;border:14px solid red;"">","null","","","","","","","","",""
"","image-keyboard-response","299","125713","0.0-299.0","3GNA64GUZFQYXR8BCJ49LTCKX345Q3","A3V2O71AQ29DRZ","3HUR21WDDUBEMSLDIXZW1FAIHW8YX3","","17","img/flower1.png","75","17","2","1","2","2","1,0,0,1,1,0,1,0,1","0,1,0,0,1,1,1,1,0","3",""
"","html-keyboard-response","300","126014","0.0-300.0","3GNA64GUZFQYXR8BCJ49LTCKX345Q3","A3V2O71AQ29DRZ","3HUR21WDDUBEMSLDIXZW1FAIHW8YX3","","null","<img src=""img/flower1.png"" style=""width:200px; border:14px solid green;"">","null","","","","","","","","",""
"","image-keyboard-response","301","126117","0.0-301.0","3GNA64GUZFQYXR8BCJ49LTCKX345Q3","A3V2O71AQ29DRZ","3HUR21WDDUBEMSLDIXZW1FAIHW8YX3","","103","img/flower5.png","76","103","3","0","1","2","1,0,0,1,1,0,1,0,1","0,1,0,0,1,1,1,1,0","3",""
"","html-keyboard-response","302","126419","0.0-302.0","3GNA64GUZFQYXR8BCJ49LTCKX345Q3","A3V2O71AQ29DRZ","3HUR21WDDUBEMSLDIXZW1FAIHW8YX3","","null","<img src=""img/flower5.png"" style=""width:200px;border:14px solid red;"">","null","","","","","","","","",""
"","image-keyboard-response","303","126428","0.0-303.0","3GNA64GUZFQYXR8BCJ49LTCKX345Q3","A3V2O71AQ29DRZ","3HUR21WDDUBEMSLDIXZW1FAIHW8YX3","","9","img/flower3.png","75","9","2","1","3","2","1,0,0,1,1,0,1,0,1","0,1,0,0,1,1,1,1,0","3",""
"","html-keyboard-response","304","126730","0.0-304.0","3GNA64GUZFQYXR8BCJ49LTCKX345Q3","A3V2O71AQ29DRZ","3HUR21WDDUBEMSLDIXZW1FAIHW8YX3","","null","<img src=""img/flower3.png"" style=""width:200px; border:14px solid green;"">","null","","","","","","","","",""
"","image-keyboard-response","305","126749","0.0-305.0","3GNA64GUZFQYXR8BCJ49LTCKX345Q3","A3V2O71AQ29DRZ","3HUR21WDDUBEMSLDIXZW1FAIHW8YX3","","18","img/flower5.png","76","19","3","0","1","2","1,0,0,1,1,0,1,0,1","0,1,0,0,1,1,1,1,0","3",""
"","html-keyboard-response","306","127050","0.0-306.0","3GNA64GUZFQYXR8BCJ49LTCKX345Q3","A3V2O71AQ29DRZ","3HUR21WDDUBEMSLDIXZW1FAIHW8YX3","","null","<img src=""img/flower5.png"" style=""width:200px;border:14px solid red;"">","null","","","","","","","","",""
"","image-keyboard-response","307","127061","0.0-307.0","3GNA64GUZFQYXR8BCJ49LTCKX345Q3","A3V2O71AQ29DRZ","3HUR21WDDUBEMSLDIXZW1FAIHW8YX3","","11","img/flower5.png","75","11","2","1","1","2","1,0,0,1,1,0,1,0,1","0,1,0,0,1,1,1,1,0","3",""
"","html-keyboard-response","308","127362","0.0-308.0","3GNA64GUZFQYXR8BCJ49LTCKX345Q3","A3V2O71AQ29DRZ","3HUR21WDDUBEMSLDIXZW1FAIHW8YX3","","null","<img src=""img/flower5.png"" style=""width:200px; border:14px solid green;"">","null","","","","","","","","",""
"","image-keyboard-response","309","127503","0.0-309.0","3GNA64GUZFQYXR8BCJ49LTCKX345Q3","A3V2O71AQ29DRZ","3HUR21WDDUBEMSLDIXZW1FAIHW8YX3","","140","img/flower5.png","74","142","1","0","1","2","1,0,0,1,1,0,1,0,1","0,1,0,0,1,1,1,1,0","3",""
"","html-keyboard-response","310","127805","0.0-310.0","3GNA64GUZFQYXR8BCJ49LTCKX345Q3","A3V2O71AQ29DRZ","3HUR21WDDUBEMSLDIXZW1FAIHW8YX3","","null","<img src=""img/flower5.png"" style=""width:200px;border:14px solid red;"">","null","","","","","","","","",""
"","image-keyboard-response","311","127825","0.0-311.0","3GNA64GUZFQYXR8BCJ49LTCKX345Q3","A3V2O71AQ29DRZ","3HUR21WDDUBEMSLDIXZW1FAIHW8YX3","","19","img/flower3.png","75","20","2","1","3","2","1,0,0,1,1,0,1,0,1","0,1,0,0,1,1,1,1,0","3",""
"","html-keyboard-response","312","128126","0.0-312.0","3GNA64GUZFQYXR8BCJ49LTCKX345Q3","A3V2O71AQ29DRZ","3HUR21WDDUBEMSLDIXZW1FAIHW8YX3","","null","<img src=""img/flower3.png"" style=""width:200px; border:14px solid green;"">","null","","","","","","","","",""
"","image-keyboard-response","313","128155","0.0-313.0","3GNA64GUZFQYXR8BCJ49LTCKX345Q3","A3V2O71AQ29DRZ","3HUR21WDDUBEMSLDIXZW1FAIHW8YX3","","29","img/flower5.png","75","29","2","1","1","2","1,0,0,1,1,0,1,0,1","0,1,0,0,1,1,1,1,0","3",""
"","html-keyboard-response","314","128493","0.0-314.0","3GNA64GUZFQYXR8BCJ49LTCKX345Q3","A3V2O71AQ29DRZ","3HUR21WDDUBEMSLDIXZW1FAIHW8YX3","","null","<img src=""img/flower5.png"" style=""width:200px; border:14px solid green;"">","null","","","","","","","","",""
"","image-keyboard-response","315","128550","0.0-315.0","3GNA64GUZFQYXR8BCJ49LTCKX345Q3","A3V2O71AQ29DRZ","3HUR21WDDUBEMSLDIXZW1FAIHW8YX3","","56","img/flower5.png","76","57","3","0","1","2","1,0,0,1,1,0,1,0,1","0,1,0,0,1,1,1,1,0","3",""
"","html-keyboard-response","316","128851","0.0-316.0","3GNA64GUZFQYXR8BCJ49LTCKX345Q3","A3V2O71AQ29DRZ","3HUR21WDDUBEMSLDIXZW1FAIHW8YX3","","null","<img src=""img/flower5.png"" style=""width:200px;border:14px solid red;"">","null","","","","","","","","",""
"","image-keyboard-response","317","128883","0.0-317.0","3GNA64GUZFQYXR8BCJ49LTCKX345Q3","A3V2O71AQ29DRZ","3HUR21WDDUBEMSLDIXZW1FAIHW8YX3","","31","img/flower1.png","76","32","3","1","2","2","1,0,0,1,1,0,1,0,1","0,1,0,0,1,1,1,1,0","3",""
"","html-keyboard-response","318","129185","0.0-318.0","3GNA64GUZFQYXR8BCJ49LTCKX345Q3","A3V2O71AQ29DRZ","3HUR21WDDUBEMSLDIXZW1FAIHW8YX3","","null","<img src=""img/flower1.png"" style=""width:200px; border:14px solid green;"">","null","","","","","","","","",""
"","image-keyboard-response","319","129384","0.0-319.0","3GNA64GUZFQYXR8BCJ49LTCKX345Q3","A3V2O71AQ29DRZ","3HUR21WDDUBEMSLDIXZW1FAIHW8YX3","","198","img/flower1.png","74","199","1","0","2","2","1,0,0,1,1,0,1,0,1","0,1,0,0,1,1,1,1,0","3",""
"","html-keyboard-response","320","129686","0.0-320.0","3GNA64GUZFQYXR8BCJ49LTCKX345Q3","A3V2O71AQ29DRZ","3HUR21WDDUBEMSLDIXZW1FAIHW8YX3","","null","<img src=""img/flower1.png"" style=""width:200px;border:14px solid red;"">","null","","","","","","","","",""
"","image-keyboard-response","321","129754","0.0-321.0","3GNA64GUZFQYXR8BCJ49LTCKX345Q3","A3V2O71AQ29DRZ","3HUR21WDDUBEMSLDIXZW1FAIHW8YX3","","68","img/flower3.png","74","68","1","1","3","2","1,0,0,1,1,0,1,0,1","0,1,0,0,1,1,1,1,0","3",""
"","html-keyboard-response","322","130056","0.0-322.0","3GNA64GUZFQYXR8BCJ49LTCKX345Q3","A3V2O71AQ29DRZ","3HUR21WDDUBEMSLDIXZW1FAIHW8YX3","","null","<img src=""img/flower3.png"" style=""width:200px; border:14px solid green;"">","null","","","","","","","","",""
"","image-keyboard-response","323","130177","0.0-323.0","3GNA64GUZFQYXR8BCJ49LTCKX345Q3","A3V2O71AQ29DRZ","3HUR21WDDUBEMSLDIXZW1FAIHW8YX3","","120","img/flower3.png","75","121","2","1","3","2","1,0,0,1,1,0,1,0,1","0,1,0,0,1,1,1,1,0","3",""
"","html-keyboard-response","324","130478","0.0-324.0","3GNA64GUZFQYXR8BCJ49LTCKX345Q3","A3V2O71AQ29DRZ","3HUR21WDDUBEMSLDIXZW1FAIHW8YX3","","null","<img src=""img/flower3.png"" style=""width:200px; border:14px solid green;"">","null","","","","","","","","",""
"","image-keyboard-response","325","130559","0.0-325.0","3GNA64GUZFQYXR8BCJ49LTCKX345Q3","A3V2O71AQ29DRZ","3HUR21WDDUBEMSLDIXZW1FAIHW8YX3","","80","img/flower3.png","74","81","1","1","3","2","1,0,0,1,1,0,1,0,1","0,1,0,0,1,1,1,1,0","3",""
"","html-keyboard-response","326","130865","0.0-326.0","3GNA64GUZFQYXR8BCJ49LTCKX345Q3","A3V2O71AQ29DRZ","3HUR21WDDUBEMSLDIXZW1FAIHW8YX3","","null","<img src=""img/flower3.png"" style=""width:200px; border:14px solid green;"">","null","","","","","","","","",""
"","image-keyboard-response","327","130929","0.0-327.0","3GNA64GUZFQYXR8BCJ49LTCKX345Q3","A3V2O71AQ29DRZ","3HUR21WDDUBEMSLDIXZW1FAIHW8YX3","","64","img/flower3.png","76","64","3","0","3","2","1,0,0,1,1,0,1,0,1","0,1,0,0,1,1,1,1,0","3",""
"","html-keyboard-response","328","131230","0.0-328.0","3GNA64GUZFQYXR8BCJ49LTCKX345Q3","A3V2O71AQ29DRZ","3HUR21WDDUBEMSLDIXZW1FAIHW8YX3","","null","<img src=""img/flower3.png"" style=""width:200px;border:14px solid red;"">","null","","","","","","","","",""
"","image-keyboard-response","329","131422","0.0-329.0","3GNA64GUZFQYXR8BCJ49LTCKX345Q3","A3V2O71AQ29DRZ","3HUR21WDDUBEMSLDIXZW1FAIHW8YX3","","191","img/flower3.png","76","192","3","0","3","2","1,0,0,1,1,0,1,0,1","0,1,0,0,1,1,1,1,0","3",""
"","html-keyboard-response","330","131722","0.0-330.0","3GNA64GUZFQYXR8BCJ49LTCKX345Q3","A3V2O71AQ29DRZ","3HUR21WDDUBEMSLDIXZW1FAIHW8YX3","","null","<img src=""img/flower3.png"" style=""width:200px;border:14px solid red;"">","null","","","","","","","","",""
"","image-keyboard-response","331","131764","0.0-331.0","3GNA64GUZFQYXR8BCJ49LTCKX345Q3","A3V2O71AQ29DRZ","3HUR21WDDUBEMSLDIXZW1FAIHW8YX3","","41","img/flower5.png","75","41","2","1","1","2","1,0,0,1,1,0,1,0,1","0,1,0,0,1,1,1,1,0","3",""
"","html-keyboard-response","332","132066","0.0-332.0","3GNA64GUZFQYXR8BCJ49LTCKX345Q3","A3V2O71AQ29DRZ","3HUR21WDDUBEMSLDIXZW1FAIHW8YX3","","null","<img src=""img/flower5.png"" style=""width:200px; border:14px solid green;"">","null","","","","","","","","",""
"","image-keyboard-response","333","132071","0.0-333.0","3GNA64GUZFQYXR8BCJ49LTCKX345Q3","A3V2O71AQ29DRZ","3HUR21WDDUBEMSLDIXZW1FAIHW8YX3","","5","img/flower1.png","75","5","2","1","2","2","1,0,0,1,1,0,1,0,1","0,1,0,0,1,1,1,1,0","3",""
"","html-keyboard-response","334","132415","0.0-334.0","3GNA64GUZFQYXR8BCJ49LTCKX345Q3","A3V2O71AQ29DRZ","3HUR21WDDUBEMSLDIXZW1FAIHW8YX3","","null","<img src=""img/flower1.png"" style=""width:200px; border:14px solid green;"">","null","","","","","","","","",""
"","image-keyboard-response","335","132444","0.0-335.0","3GNA64GUZFQYXR8BCJ49LTCKX345Q3","A3V2O71AQ29DRZ","3HUR21WDDUBEMSLDIXZW1FAIHW8YX3","","28","img/flower3.png","75","28","2","1","3","2","1,0,0,1,1,0,1,0,1","0,1,0,0,1,1,1,1,0","3",""
"","html-keyboard-response","336","132746","0.0-336.0","3GNA64GUZFQYXR8BCJ49LTCKX345Q3","A3V2O71AQ29DRZ","3HUR21WDDUBEMSLDIXZW1FAIHW8YX3","","null","<img src=""img/flower3.png"" style=""width:200px; border:14px solid green;"">","null","","","","","","","","",""
"","image-keyboard-response","337","132848","0.0-337.0","3GNA64GUZFQYXR8BCJ49LTCKX345Q3","A3V2O71AQ29DRZ","3HUR21WDDUBEMSLDIXZW1FAIHW8YX3","","101","img/flower5.png","75","102","2","1","1","2","1,0,0,1,1,0,1,0,1","0,1,0,0,1,1,1,1,0","3",""
"","html-keyboard-response","338","133149","0.0-338.0","3GNA64GUZFQYXR8BCJ49LTCKX345Q3","A3V2O71AQ29DRZ","3HUR21WDDUBEMSLDIXZW1FAIHW8YX3","","null","<img src=""img/flower5.png"" style=""width:200px; border:14px solid green;"">","null","","","","","","","","",""
"","image-keyboard-response","339","133185","0.0-339.0","3GNA64GUZFQYXR8BCJ49LTCKX345Q3","A3V2O71AQ29DRZ","3HUR21WDDUBEMSLDIXZW1FAIHW8YX3","","35","img/flower1.png","75","36","2","1","2","2","1,0,0,1,1,0,1,0,1","0,1,0,0,1,1,1,1,0","3",""
"","html-keyboard-response","340","133487","0.0-340.0","3GNA64GUZFQYXR8BCJ49LTCKX345Q3","A3V2O71AQ29DRZ","3HUR21WDDUBEMSLDIXZW1FAIHW8YX3","","null","<img src=""img/flower1.png"" style=""width:200px; border:14px solid green;"">","null","","","","","","","","",""
"","image-keyboard-response","341","133492","0.0-341.0","3GNA64GUZFQYXR8BCJ49LTCKX345Q3","A3V2O71AQ29DRZ","3HUR21WDDUBEMSLDIXZW1FAIHW8YX3","","3","img/flower3.png","75","5","2","1","3","2","1,0,0,1,1,0,1,0,1","0,1,0,0,1,1,1,1,0","3",""
"","html-keyboard-response","342","133792","0.0-342.0","3GNA64GUZFQYXR8BCJ49LTCKX345Q3","A3V2O71AQ29DRZ","3HUR21WDDUBEMSLDIXZW1FAIHW8YX3","","null","<img src=""img/flower3.png"" style=""width:200px; border:14px solid green;"">","null","","","","","","","","",""
"","image-keyboard-response","343","133923","0.0-343.0","3GNA64GUZFQYXR8BCJ49LTCKX345Q3","A3V2O71AQ29DRZ","3HUR21WDDUBEMSLDIXZW1FAIHW8YX3","","131","img/flower3.png","74","131","1","1","3","2","1,0,0,1,1,0,1,0,1","0,1,0,0,1,1,1,1,0","3",""
"","html-keyboard-response","344","134225","0.0-344.0","3GNA64GUZFQYXR8BCJ49LTCKX345Q3","A3V2O71AQ29DRZ","3HUR21WDDUBEMSLDIXZW1FAIHW8YX3","","null","<img src=""img/flower3.png"" style=""width:200px; border:14px solid green;"">","null","","","","","","","","",""
"","image-keyboard-response","345","134327","0.0-345.0","3GNA64GUZFQYXR8BCJ49LTCKX345Q3","A3V2O71AQ29DRZ","3HUR21WDDUBEMSLDIXZW1FAIHW8YX3","","101","img/flower1.png","75","102","2","1","2","2","1,0,0,1,1,0,1,0,1","0,1,0,0,1,1,1,1,0","3",""
"","html-keyboard-response","346","134629","0.0-346.0","3GNA64GUZFQYXR8BCJ49LTCKX345Q3","A3V2O71AQ29DRZ","3HUR21WDDUBEMSLDIXZW1FAIHW8YX3","","null","<img src=""img/flower1.png"" style=""width:200px; border:14px solid green;"">","null","","","","","","","","",""
"","image-keyboard-response","347","134653","0.0-347.0","3GNA64GUZFQYXR8BCJ49LTCKX345Q3","A3V2O71AQ29DRZ","3HUR21WDDUBEMSLDIXZW1FAIHW8YX3","","23","img/flower5.png","74","24","1","0","1","2","1,0,0,1,1,0,1,0,1","0,1,0,0,1,1,1,1,0","3",""
"","html-keyboard-response","348","134954","0.0-348.0","3GNA64GUZFQYXR8BCJ49LTCKX345Q3","A3V2O71AQ29DRZ","3HUR21WDDUBEMSLDIXZW1FAIHW8YX3","","null","<img src=""img/flower5.png"" style=""width:200px;border:14px solid red;"">","null","","","","","","","","",""
"","image-keyboard-response","349","135092","0.0-349.0","3GNA64GUZFQYXR8BCJ49LTCKX345Q3","A3V2O71AQ29DRZ","3HUR21WDDUBEMSLDIXZW1FAIHW8YX3","","138","img/flower3.png","74","138","1","1","3","2","1,0,0,1,1,0,1,0,1","0,1,0,0,1,1,1,1,0","3",""
"","html-keyboard-response","350","135392","0.0-350.0","3GNA64GUZFQYXR8BCJ49LTCKX345Q3","A3V2O71AQ29DRZ","3HUR21WDDUBEMSLDIXZW1FAIHW8YX3","","null","<img src=""img/flower3.png"" style=""width:200px; border:14px solid green;"">","null","","","","","","","","",""
"","image-keyboard-response","351","135518","0.0-351.0","3GNA64GUZFQYXR8BCJ49LTCKX345Q3","A3V2O71AQ29DRZ","3HUR21WDDUBEMSLDIXZW1FAIHW8YX3","","125","img/flower1.png","74","126","1","0","2","2","1,0,0,1,1,0,1,0,1","0,1,0,0,1,1,1,1,0","3",""
"","html-keyboard-response","352","135820","0.0-352.0","3GNA64GUZFQYXR8BCJ49LTCKX345Q3","A3V2O71AQ29DRZ","3HUR21WDDUBEMSLDIXZW1FAIHW8YX3","","null","<img src=""img/flower1.png"" style=""width:200px;border:14px solid red;"">","null","","","","","","","","",""
"","image-keyboard-response","353","136006","0.0-353.0","3GNA64GUZFQYXR8BCJ49LTCKX345Q3","A3V2O71AQ29DRZ","3HUR21WDDUBEMSLDIXZW1FAIHW8YX3","","185","img/flower5.png","76","186","3","0","1","2","1,0,0,1,1,0,1,0,1","0,1,0,0,1,1,1,1,0","3",""
"","html-keyboard-response","354","136306","0.0-354.0","3GNA64GUZFQYXR8BCJ49LTCKX345Q3","A3V2O71AQ29DRZ","3HUR21WDDUBEMSLDIXZW1FAIHW8YX3","","null","<img src=""img/flower5.png"" style=""width:200px;border:14px solid red;"">","null","","","","","","","","",""
"","image-keyboard-response","355","136344","0.0-355.0","3GNA64GUZFQYXR8BCJ49LTCKX345Q3","A3V2O71AQ29DRZ","3HUR21WDDUBEMSLDIXZW1FAIHW8YX3","","36","img/flower3.png","75","38","2","1","3","2","1,0,0,1,1,0,1,0,1","0,1,0,0,1,1,1,1,0","3",""
"","html-keyboard-response","356","136646","0.0-356.0","3GNA64GUZFQYXR8BCJ49LTCKX345Q3","A3V2O71AQ29DRZ","3HUR21WDDUBEMSLDIXZW1FAIHW8YX3","","null","<img src=""img/flower3.png"" style=""width:200px; border:14px solid green;"">","null","","","","","","","","",""
"","image-keyboard-response","357","137179","0.0-357.0","3GNA64GUZFQYXR8BCJ49LTCKX345Q3","A3V2O71AQ29DRZ","3HUR21WDDUBEMSLDIXZW1FAIHW8YX3","","533","img/flower5.png","76","533","3","0","1","2","1,0,0,1,1,0,1,0,1","0,1,0,0,1,1,1,1,0","3",""
"","html-keyboard-response","358","137480","0.0-358.0","3GNA64GUZFQYXR8BCJ49LTCKX345Q3","A3V2O71AQ29DRZ","3HUR21WDDUBEMSLDIXZW1FAIHW8YX3","","null","<img src=""img/flower5.png"" style=""width:200px;border:14px solid red;"">","null","","","","","","","","",""
"","image-keyboard-response","359","137495","0.0-359.0","3GNA64GUZFQYXR8BCJ49LTCKX345Q3","A3V2O71AQ29DRZ","3HUR21WDDUBEMSLDIXZW1FAIHW8YX3","","14","img/flower1.png","76","16","3","1","2","2","1,0,0,1,1,0,1,0,1","0,1,0,0,1,1,1,1,0","3",""
"","html-keyboard-response","360","137796","0.0-360.0","3GNA64GUZFQYXR8BCJ49LTCKX345Q3","A3V2O71AQ29DRZ","3HUR21WDDUBEMSLDIXZW1FAIHW8YX3","","null","<img src=""img/flower1.png"" style=""width:200px; border:14px solid green;"">","null","","","","","","","","",""
"","image-keyboard-response","361","137837","0.0-361.0","3GNA64GUZFQYXR8BCJ49LTCKX345Q3","A3V2O71AQ29DRZ","3HUR21WDDUBEMSLDIXZW1FAIHW8YX3","","40","img/flower1.png","74","41","1","0","2","2","1,0,0,1,1,0,1,0,1","0,1,0,0,1,1,1,1,0","3",""
"","html-keyboard-response","362","138140","0.0-362.0","3GNA64GUZFQYXR8BCJ49LTCKX345Q3","A3V2O71AQ29DRZ","3HUR21WDDUBEMSLDIXZW1FAIHW8YX3","","null","<img src=""img/flower1.png"" style=""width:200px;border:14px solid red;"">","null","","","","","","","","",""
"","instructions","363","142357","0.0-363.0","3GNA64GUZFQYXR8BCJ49LTCKX345Q3","A3V2O71AQ29DRZ","3HUR21WDDUBEMSLDIXZW1FAIHW8YX3","[{""page_index"":0,""viewing_time"":4216}]","4216","","","","","","","","","","",""
"","survey-text","364","147953","0.0-364.0","3GNA64GUZFQYXR8BCJ49LTCKX345Q3","A3V2O71AQ29DRZ","3HUR21WDDUBEMSLDIXZW1FAIHW8YX3","","5588","","","","","","","","","","","{""Q0"":""A3V2O71AQ29DRZ""}"
