"rt","url","trial_type","trial_index","time_elapsed","internal_node_id","assignmentID","mturkID","hitID","success","view_history","stimulus","key_press","reactionTime","a","r","s","reward_cond","responses"
"10264.400000035763","consent.html","external-html","0","10570","0.0-0.0","31QTRG6Q2UZBZ3HGN8UHWLK3JZ9YPE","A3VDG4N48AVYGQ","379OL9DBSS0OLW3FFHTILCO0AJC9Y6","","","","","","","","","",""
"","","fullscreen","1","15964","0.0-1.0","31QTRG6Q2UZBZ3HGN8UHWLK3JZ9YPE","A3VDG4N48AVYGQ","379OL9DBSS0OLW3FFHTILCO0AJC9Y6","true","","","","","","","","",""
"55507.59999996424","","instructions","2","71473","0.0-2.0","31QTRG6Q2UZBZ3HGN8UHWLK3JZ9YPE","A3VDG4N48AVYGQ","379OL9DBSS0OLW3FFHTILCO0AJC9Y6","","[{""page_index"":0,""viewing_time"":7496.399999976158},{""page_index"":1,""viewing_time"":4804.300000011921},{""page_index"":2,""viewing_time"":5999},{""page_index"":3,""viewing_time"":6768},{""page_index"":4,""viewing_time"":6496},{""page_index"":5,""viewing_time"":16144},{""page_index"":6,""viewing_time"":7799}]","","","","","","","",""
"5857.800000011921","","instructions","3","77331","0.0-3.0","31QTRG6Q2UZBZ3HGN8UHWLK3JZ9YPE","A3VDG4N48AVYGQ","379OL9DBSS0OLW3FFHTILCO0AJC9Y6","","[{""page_index"":0,""viewing_time"":5857.600000023842}]","","","","","","","",""
"6194.600000023842","","image-keyboard-response","4","83529","0.0-4.0","31QTRG6Q2UZBZ3HGN8UHWLK3JZ9YPE","A3VDG4N48AVYGQ","379OL9DBSS0OLW3FFHTILCO0AJC9Y6","","","img/flower5.png","75","6196.899999976158","2","1","2","",""
"null","","html-keyboard-response","5","83835","0.0-5.0","31QTRG6Q2UZBZ3HGN8UHWLK3JZ9YPE","A3VDG4N48AVYGQ","379OL9DBSS0OLW3FFHTILCO0AJC9Y6","","","<img src=""img/flower5.png"" style=""width:200px; border:14px solid green;"">","null","","","","","",""
"3691.400000035763","","image-keyboard-response","6","87528","0.0-6.0","31QTRG6Q2UZBZ3HGN8UHWLK3JZ9YPE","A3VDG4N48AVYGQ","379OL9DBSS0OLW3FFHTILCO0AJC9Y6","","","img/flower6.png","75","3692.699999988079","2","0","3","",""
"null","","html-keyboard-response","7","87834","0.0-7.0","31QTRG6Q2UZBZ3HGN8UHWLK3JZ9YPE","A3VDG4N48AVYGQ","379OL9DBSS0OLW3FFHTILCO0AJC9Y6","","","<img src=""img/flower6.png"" style=""width:200px;border:14px solid red;"">","null","","","","","",""
"2409","","image-keyboard-response","8","90245","0.0-8.0","31QTRG6Q2UZBZ3HGN8UHWLK3JZ9YPE","A3VDG4N48AVYGQ","379OL9DBSS0OLW3FFHTILCO0AJC9Y6","","","img/flower4.png","76","2410.100000023842","3","0","1","",""
"null","","html-keyboard-response","9","90555","0.0-9.0","31QTRG6Q2UZBZ3HGN8UHWLK3JZ9YPE","A3VDG4N48AVYGQ","379OL9DBSS0OLW3FFHTILCO0AJC9Y6","","","<img src=""img/flower4.png"" style=""width:200px;border:14px solid red;"">","null","","","","","",""
"1700.1000000238419","","image-keyboard-response","10","92256","0.0-10.0","31QTRG6Q2UZBZ3HGN8UHWLK3JZ9YPE","A3VDG4N48AVYGQ","379OL9DBSS0OLW3FFHTILCO0AJC9Y6","","","img/flower4.png","75","1701.0999999642372","2","0","1","",""
"null","","html-keyboard-response","11","92572","0.0-11.0","31QTRG6Q2UZBZ3HGN8UHWLK3JZ9YPE","A3VDG4N48AVYGQ","379OL9DBSS0OLW3FFHTILCO0AJC9Y6","","","<img src=""img/flower4.png"" style=""width:200px;border:14px solid red;"">","null","","","","","",""
"1242.7999999523163","","image-keyboard-response","12","93816","0.0-12.0","31QTRG6Q2UZBZ3HGN8UHWLK3JZ9YPE","A3VDG4N48AVYGQ","379OL9DBSS0OLW3FFHTILCO0AJC9Y6","","","img/flower4.png","74","1243.699999988079","1","0","1","",""
"null","","html-keyboard-response","13","94126","0.0-13.0","31QTRG6Q2UZBZ3HGN8UHWLK3JZ9YPE","A3VDG4N48AVYGQ","379OL9DBSS0OLW3FFHTILCO0AJC9Y6","","","<img src=""img/flower4.png"" style=""width:200px;border:14px solid red;"">","null","","","","","",""
"1191.800000011921","","image-keyboard-response","14","95320","0.0-14.0","31QTRG6Q2UZBZ3HGN8UHWLK3JZ9YPE","A3VDG4N48AVYGQ","379OL9DBSS0OLW3FFHTILCO0AJC9Y6","","","img/flower6.png","76","1193.199999988079","3","1","3","",""
"null","","html-keyboard-response","15","95633","0.0-15.0","31QTRG6Q2UZBZ3HGN8UHWLK3JZ9YPE","A3VDG4N48AVYGQ","379OL9DBSS0OLW3FFHTILCO0AJC9Y6","","","<img src=""img/flower6.png"" style=""width:200px; border:14px solid green;"">","null","","","","","",""
"1341.3999999761581","","image-keyboard-response","16","96976","0.0-16.0","31QTRG6Q2UZBZ3HGN8UHWLK3JZ9YPE","A3VDG4N48AVYGQ","379OL9DBSS0OLW3FFHTILCO0AJC9Y6","","","img/flower6.png","76","1342.800000011921","3","0","3","",""
"null","","html-keyboard-response","17","97289","0.0-17.0","31QTRG6Q2UZBZ3HGN8UHWLK3JZ9YPE","A3VDG4N48AVYGQ","379OL9DBSS0OLW3FFHTILCO0AJC9Y6","","","<img src=""img/flower6.png"" style=""width:200px;border:14px solid red;"">","null","","","","","",""
"4870.400000035763","","image-keyboard-response","18","102161","0.0-18.0","31QTRG6Q2UZBZ3HGN8UHWLK3JZ9YPE","A3VDG4N48AVYGQ","379OL9DBSS0OLW3FFHTILCO0AJC9Y6","","","img/flower5.png","75","4871.800000011921","2","1","2","",""
"null","","html-keyboard-response","19","102475","0.0-19.0","31QTRG6Q2UZBZ3HGN8UHWLK3JZ9YPE","A3VDG4N48AVYGQ","379OL9DBSS0OLW3FFHTILCO0AJC9Y6","","","<img src=""img/flower5.png"" style=""width:200px; border:14px solid green;"">","null","","","","","",""
"1058","","image-keyboard-response","20","103536","0.0-20.0","31QTRG6Q2UZBZ3HGN8UHWLK3JZ9YPE","A3VDG4N48AVYGQ","379OL9DBSS0OLW3FFHTILCO0AJC9Y6","","","img/flower4.png","74","1059.9000000357628","1","1","1","",""
"null","","html-keyboard-response","21","103846","0.0-21.0","31QTRG6Q2UZBZ3HGN8UHWLK3JZ9YPE","A3VDG4N48AVYGQ","379OL9DBSS0OLW3FFHTILCO0AJC9Y6","","","<img src=""img/flower4.png"" style=""width:200px; border:14px solid green;"">","null","","","","","",""
"729.4000000357628","","image-keyboard-response","22","104577","0.0-22.0","31QTRG6Q2UZBZ3HGN8UHWLK3JZ9YPE","A3VDG4N48AVYGQ","379OL9DBSS0OLW3FFHTILCO0AJC9Y6","","","img/flower5.png","75","730.6000000238419","2","1","2","",""
"null","","html-keyboard-response","23","104883","0.0-23.0","31QTRG6Q2UZBZ3HGN8UHWLK3JZ9YPE","A3VDG4N48AVYGQ","379OL9DBSS0OLW3FFHTILCO0AJC9Y6","","","<img src=""img/flower5.png"" style=""width:200px; border:14px solid green;"">","null","","","","","",""
"678.5999999642372","","image-keyboard-response","24","105564","0.0-24.0","31QTRG6Q2UZBZ3HGN8UHWLK3JZ9YPE","A3VDG4N48AVYGQ","379OL9DBSS0OLW3FFHTILCO0AJC9Y6","","","img/flower6.png","76","679.8000000119209","3","1","3","",""
"null","","html-keyboard-response","25","105874","0.0-25.0","31QTRG6Q2UZBZ3HGN8UHWLK3JZ9YPE","A3VDG4N48AVYGQ","379OL9DBSS0OLW3FFHTILCO0AJC9Y6","","","<img src=""img/flower6.png"" style=""width:200px; border:14px solid green;"">","null","","","","","",""
"701","","image-keyboard-response","26","106577","0.0-26.0","31QTRG6Q2UZBZ3HGN8UHWLK3JZ9YPE","A3VDG4N48AVYGQ","379OL9DBSS0OLW3FFHTILCO0AJC9Y6","","","img/flower5.png","75","702.0999999642372","2","1","2","",""
"null","","html-keyboard-response","27","106892","0.0-27.0","31QTRG6Q2UZBZ3HGN8UHWLK3JZ9YPE","A3VDG4N48AVYGQ","379OL9DBSS0OLW3FFHTILCO0AJC9Y6","","","<img src=""img/flower5.png"" style=""width:200px; border:14px solid green;"">","null","","","","","",""
"494","","image-keyboard-response","28","107388","0.0-28.0","31QTRG6Q2UZBZ3HGN8UHWLK3JZ9YPE","A3VDG4N48AVYGQ","379OL9DBSS0OLW3FFHTILCO0AJC9Y6","","","img/flower6.png","74","495.30000001192093","1","0","3","",""
"null","","html-keyboard-response","29","107698","0.0-29.0","31QTRG6Q2UZBZ3HGN8UHWLK3JZ9YPE","A3VDG4N48AVYGQ","379OL9DBSS0OLW3FFHTILCO0AJC9Y6","","","<img src=""img/flower6.png"" style=""width:200px;border:14px solid red;"">","null","","","","","",""
"1544.8999999761581","","image-keyboard-response","30","109244","0.0-30.0","31QTRG6Q2UZBZ3HGN8UHWLK3JZ9YPE","A3VDG4N48AVYGQ","379OL9DBSS0OLW3FFHTILCO0AJC9Y6","","","img/flower5.png","75","1546.2000000476837","2","1","2","",""
"null","","html-keyboard-response","31","109552","0.0-31.0","31QTRG6Q2UZBZ3HGN8UHWLK3JZ9YPE","A3VDG4N48AVYGQ","379OL9DBSS0OLW3FFHTILCO0AJC9Y6","","","<img src=""img/flower5.png"" style=""width:200px; border:14px solid green;"">","null","","","","","",""
"1218.4000000357628","","image-keyboard-response","32","110772","0.0-32.0","31QTRG6Q2UZBZ3HGN8UHWLK3JZ9YPE","A3VDG4N48AVYGQ","379OL9DBSS0OLW3FFHTILCO0AJC9Y6","","","img/flower6.png","76","1219.5999999642372","3","1","3","",""
"null","","html-keyboard-response","33","111079","0.0-33.0","31QTRG6Q2UZBZ3HGN8UHWLK3JZ9YPE","A3VDG4N48AVYGQ","379OL9DBSS0OLW3FFHTILCO0AJC9Y6","","","<img src=""img/flower6.png"" style=""width:200px; border:14px solid green;"">","null","","","","","",""
"1267.5","","image-keyboard-response","34","112348","0.0-34.0","31QTRG6Q2UZBZ3HGN8UHWLK3JZ9YPE","A3VDG4N48AVYGQ","379OL9DBSS0OLW3FFHTILCO0AJC9Y6","","","img/flower6.png","76","1268.9000000357628","3","1","3","",""
"null","","html-keyboard-response","35","112653","0.0-35.0","31QTRG6Q2UZBZ3HGN8UHWLK3JZ9YPE","A3VDG4N48AVYGQ","379OL9DBSS0OLW3FFHTILCO0AJC9Y6","","","<img src=""img/flower6.png"" style=""width:200px; border:14px solid green;"">","null","","","","","",""
"805.3000000119209","","image-keyboard-response","36","113460","0.0-36.0","31QTRG6Q2UZBZ3HGN8UHWLK3JZ9YPE","A3VDG4N48AVYGQ","379OL9DBSS0OLW3FFHTILCO0AJC9Y6","","","img/flower5.png","75","806.8000000119209","2","1","2","",""
"null","","html-keyboard-response","37","113770","0.0-37.0","31QTRG6Q2UZBZ3HGN8UHWLK3JZ9YPE","A3VDG4N48AVYGQ","379OL9DBSS0OLW3FFHTILCO0AJC9Y6","","","<img src=""img/flower5.png"" style=""width:200px; border:14px solid green;"">","null","","","","","",""
"829.0999999642372","","image-keyboard-response","38","114601","0.0-38.0","31QTRG6Q2UZBZ3HGN8UHWLK3JZ9YPE","A3VDG4N48AVYGQ","379OL9DBSS0OLW3FFHTILCO0AJC9Y6","","","img/flower4.png","74","830.0999999642372","1","1","1","",""
"null","","html-keyboard-response","39","114917","0.0-39.0","31QTRG6Q2UZBZ3HGN8UHWLK3JZ9YPE","A3VDG4N48AVYGQ","379OL9DBSS0OLW3FFHTILCO0AJC9Y6","","","<img src=""img/flower4.png"" style=""width:200px; border:14px solid green;"">","null","","","","","",""
"685","","image-keyboard-response","40","115604","0.0-40.0","31QTRG6Q2UZBZ3HGN8UHWLK3JZ9YPE","A3VDG4N48AVYGQ","379OL9DBSS0OLW3FFHTILCO0AJC9Y6","","","img/flower4.png","74","686.5","1","1","1","",""
"null","","html-keyboard-response","41","115919","0.0-41.0","31QTRG6Q2UZBZ3HGN8UHWLK3JZ9YPE","A3VDG4N48AVYGQ","379OL9DBSS0OLW3FFHTILCO0AJC9Y6","","","<img src=""img/flower4.png"" style=""width:200px; border:14px solid green;"">","null","","","","","",""
"697.6999999880791","","image-keyboard-response","42","116619","0.0-42.0","31QTRG6Q2UZBZ3HGN8UHWLK3JZ9YPE","A3VDG4N48AVYGQ","379OL9DBSS0OLW3FFHTILCO0AJC9Y6","","","img/flower5.png","75","698.8999999761581","2","1","2","",""
"null","","html-keyboard-response","43","116928","0.0-43.0","31QTRG6Q2UZBZ3HGN8UHWLK3JZ9YPE","A3VDG4N48AVYGQ","379OL9DBSS0OLW3FFHTILCO0AJC9Y6","","","<img src=""img/flower5.png"" style=""width:200px; border:14px solid green;"">","null","","","","","",""
"922","","image-keyboard-response","44","117851","0.0-44.0","31QTRG6Q2UZBZ3HGN8UHWLK3JZ9YPE","A3VDG4N48AVYGQ","379OL9DBSS0OLW3FFHTILCO0AJC9Y6","","","img/flower6.png","76","923.3000000119209","3","1","3","",""
"null","","html-keyboard-response","45","118155","0.0-45.0","31QTRG6Q2UZBZ3HGN8UHWLK3JZ9YPE","A3VDG4N48AVYGQ","379OL9DBSS0OLW3FFHTILCO0AJC9Y6","","","<img src=""img/flower6.png"" style=""width:200px; border:14px solid green;"">","null","","","","","",""
"1095.3999999761581","","image-keyboard-response","46","119252","0.0-46.0","31QTRG6Q2UZBZ3HGN8UHWLK3JZ9YPE","A3VDG4N48AVYGQ","379OL9DBSS0OLW3FFHTILCO0AJC9Y6","","","img/flower4.png","74","1096.800000011921","1","1","1","",""
"null","","html-keyboard-response","47","119566","0.0-47.0","31QTRG6Q2UZBZ3HGN8UHWLK3JZ9YPE","A3VDG4N48AVYGQ","379OL9DBSS0OLW3FFHTILCO0AJC9Y6","","","<img src=""img/flower4.png"" style=""width:200px; border:14px solid green;"">","null","","","","","",""
"684.1999999880791","","image-keyboard-response","48","120252","0.0-48.0","31QTRG6Q2UZBZ3HGN8UHWLK3JZ9YPE","A3VDG4N48AVYGQ","379OL9DBSS0OLW3FFHTILCO0AJC9Y6","","","img/flower5.png","75","685.6000000238419","2","1","2","",""
"null","","html-keyboard-response","49","120556","0.0-49.0","31QTRG6Q2UZBZ3HGN8UHWLK3JZ9YPE","A3VDG4N48AVYGQ","379OL9DBSS0OLW3FFHTILCO0AJC9Y6","","","<img src=""img/flower5.png"" style=""width:200px; border:14px solid green;"">","null","","","","","",""
"510.5","","image-keyboard-response","50","121068","0.0-50.0","31QTRG6Q2UZBZ3HGN8UHWLK3JZ9YPE","A3VDG4N48AVYGQ","379OL9DBSS0OLW3FFHTILCO0AJC9Y6","","","img/flower6.png","76","511.30000001192093","3","0","3","",""
"null","","html-keyboard-response","51","121372","0.0-51.0","31QTRG6Q2UZBZ3HGN8UHWLK3JZ9YPE","A3VDG4N48AVYGQ","379OL9DBSS0OLW3FFHTILCO0AJC9Y6","","","<img src=""img/flower6.png"" style=""width:200px;border:14px solid red;"">","null","","","","","",""
"807.5999999642372","","image-keyboard-response","52","122181","0.0-52.0","31QTRG6Q2UZBZ3HGN8UHWLK3JZ9YPE","A3VDG4N48AVYGQ","379OL9DBSS0OLW3FFHTILCO0AJC9Y6","","","img/flower6.png","74","808.8000000119209","1","0","3","",""
"null","","html-keyboard-response","53","122492","0.0-53.0","31QTRG6Q2UZBZ3HGN8UHWLK3JZ9YPE","A3VDG4N48AVYGQ","379OL9DBSS0OLW3FFHTILCO0AJC9Y6","","","<img src=""img/flower6.png"" style=""width:200px;border:14px solid red;"">","null","","","","","",""
"198.0999999642372","","image-keyboard-response","54","122692","0.0-54.0","31QTRG6Q2UZBZ3HGN8UHWLK3JZ9YPE","A3VDG4N48AVYGQ","379OL9DBSS0OLW3FFHTILCO0AJC9Y6","","","img/flower5.png","75","199.70000004768372","2","1","2","",""
"null","","html-keyboard-response","55","123001","0.0-55.0","31QTRG6Q2UZBZ3HGN8UHWLK3JZ9YPE","A3VDG4N48AVYGQ","379OL9DBSS0OLW3FFHTILCO0AJC9Y6","","","<img src=""img/flower5.png"" style=""width:200px; border:14px solid green;"">","null","","","","","",""
"1065.1000000238419","","image-keyboard-response","56","124068","0.0-56.0","31QTRG6Q2UZBZ3HGN8UHWLK3JZ9YPE","A3VDG4N48AVYGQ","379OL9DBSS0OLW3FFHTILCO0AJC9Y6","","","img/flower4.png","74","1066.5","1","1","1","",""
"null","","html-keyboard-response","57","124383","0.0-57.0","31QTRG6Q2UZBZ3HGN8UHWLK3JZ9YPE","A3VDG4N48AVYGQ","379OL9DBSS0OLW3FFHTILCO0AJC9Y6","","","<img src=""img/flower4.png"" style=""width:200px; border:14px solid green;"">","null","","","","","",""
"731.1999999880791","","image-keyboard-response","58","125116","0.0-58.0","31QTRG6Q2UZBZ3HGN8UHWLK3JZ9YPE","A3VDG4N48AVYGQ","379OL9DBSS0OLW3FFHTILCO0AJC9Y6","","","img/flower5.png","75","732.3999999761581","2","1","2","",""
"null","","html-keyboard-response","59","125424","0.0-59.0","31QTRG6Q2UZBZ3HGN8UHWLK3JZ9YPE","A3VDG4N48AVYGQ","379OL9DBSS0OLW3FFHTILCO0AJC9Y6","","","<img src=""img/flower5.png"" style=""width:200px; border:14px solid green;"">","null","","","","","",""
"785.8999999761581","","image-keyboard-response","60","126212","0.0-60.0","31QTRG6Q2UZBZ3HGN8UHWLK3JZ9YPE","A3VDG4N48AVYGQ","379OL9DBSS0OLW3FFHTILCO0AJC9Y6","","","img/flower4.png","74","787.3000000119209","1","1","1","",""
"null","","html-keyboard-response","61","126524","0.0-61.0","31QTRG6Q2UZBZ3HGN8UHWLK3JZ9YPE","A3VDG4N48AVYGQ","379OL9DBSS0OLW3FFHTILCO0AJC9Y6","","","<img src=""img/flower4.png"" style=""width:200px; border:14px solid green;"">","null","","","","","",""
"994.1000000238419","","image-keyboard-response","62","127520","0.0-62.0","31QTRG6Q2UZBZ3HGN8UHWLK3JZ9YPE","A3VDG4N48AVYGQ","379OL9DBSS0OLW3FFHTILCO0AJC9Y6","","","img/flower4.png","74","995.3999999761581","1","1","1","",""
"null","","html-keyboard-response","63","127829","0.0-63.0","31QTRG6Q2UZBZ3HGN8UHWLK3JZ9YPE","A3VDG4N48AVYGQ","379OL9DBSS0OLW3FFHTILCO0AJC9Y6","","","<img src=""img/flower4.png"" style=""width:200px; border:14px solid green;"">","null","","","","","",""
"11609.899999976158","","instructions","64","139440","0.0-64.0","31QTRG6Q2UZBZ3HGN8UHWLK3JZ9YPE","A3VDG4N48AVYGQ","379OL9DBSS0OLW3FFHTILCO0AJC9Y6","","[{""page_index"":0,""viewing_time"":8079.699999988079},{""page_index"":1,""viewing_time"":3529.899999976158}]","","","","","","","",""
"3179.399999976158","","image-keyboard-response","65","142621","0.0-65.0","31QTRG6Q2UZBZ3HGN8UHWLK3JZ9YPE","A3VDG4N48AVYGQ","379OL9DBSS0OLW3FFHTILCO0AJC9Y6","","","img/flower4.png","74","3180.600000023842","1","1","1","",""
"null","","html-keyboard-response","66","142925","0.0-66.0","31QTRG6Q2UZBZ3HGN8UHWLK3JZ9YPE","A3VDG4N48AVYGQ","379OL9DBSS0OLW3FFHTILCO0AJC9Y6","","","<img src=""img/flower4.png"" style=""width:200px; border:14px solid green;"">","null","","","","","",""
"914.6000000238419","","image-keyboard-response","67","143841","0.0-67.0","31QTRG6Q2UZBZ3HGN8UHWLK3JZ9YPE","A3VDG4N48AVYGQ","379OL9DBSS0OLW3FFHTILCO0AJC9Y6","","","img/flower5.png","75","916","2","1","2","",""
"null","","html-keyboard-response","68","144155","0.0-68.0","31QTRG6Q2UZBZ3HGN8UHWLK3JZ9YPE","A3VDG4N48AVYGQ","379OL9DBSS0OLW3FFHTILCO0AJC9Y6","","","<img src=""img/flower5.png"" style=""width:200px; border:14px solid green;"">","null","","","","","",""
"635.8000000119209","","image-keyboard-response","69","144792","0.0-69.0","31QTRG6Q2UZBZ3HGN8UHWLK3JZ9YPE","A3VDG4N48AVYGQ","379OL9DBSS0OLW3FFHTILCO0AJC9Y6","","","img/flower6.png","76","637","3","1","3","",""
"null","","html-keyboard-response","70","145098","0.0-70.0","31QTRG6Q2UZBZ3HGN8UHWLK3JZ9YPE","A3VDG4N48AVYGQ","379OL9DBSS0OLW3FFHTILCO0AJC9Y6","","","<img src=""img/flower6.png"" style=""width:200px; border:14px solid green;"">","null","","","","","",""
"772.1000000238419","","image-keyboard-response","71","145872","0.0-71.0","31QTRG6Q2UZBZ3HGN8UHWLK3JZ9YPE","A3VDG4N48AVYGQ","379OL9DBSS0OLW3FFHTILCO0AJC9Y6","","","img/flower4.png","74","773.3999999761581","1","0","1","",""
"null","","html-keyboard-response","72","146182","0.0-72.0","31QTRG6Q2UZBZ3HGN8UHWLK3JZ9YPE","A3VDG4N48AVYGQ","379OL9DBSS0OLW3FFHTILCO0AJC9Y6","","","<img src=""img/flower4.png"" style=""width:200px;border:14px solid red;"">","null","","","","","",""
"808.1000000238419","","image-keyboard-response","73","146992","0.0-73.0","31QTRG6Q2UZBZ3HGN8UHWLK3JZ9YPE","A3VDG4N48AVYGQ","379OL9DBSS0OLW3FFHTILCO0AJC9Y6","","","img/flower4.png","75","809.3999999761581","2","1","1","",""
"null","","html-keyboard-response","74","147303","0.0-74.0","31QTRG6Q2UZBZ3HGN8UHWLK3JZ9YPE","A3VDG4N48AVYGQ","379OL9DBSS0OLW3FFHTILCO0AJC9Y6","","","<img src=""img/flower4.png"" style=""width:200px; border:14px solid green;"">","null","","","","","",""
"925.5","","image-keyboard-response","75","148231","0.0-75.0","31QTRG6Q2UZBZ3HGN8UHWLK3JZ9YPE","A3VDG4N48AVYGQ","379OL9DBSS0OLW3FFHTILCO0AJC9Y6","","","img/flower4.png","75","926.8000000119209","2","1","1","",""
"null","","html-keyboard-response","76","148547","0.0-76.0","31QTRG6Q2UZBZ3HGN8UHWLK3JZ9YPE","A3VDG4N48AVYGQ","379OL9DBSS0OLW3FFHTILCO0AJC9Y6","","","<img src=""img/flower4.png"" style=""width:200px; border:14px solid green;"">","null","","","","","",""
"723.8999999761581","","image-keyboard-response","77","149272","0.0-77.0","31QTRG6Q2UZBZ3HGN8UHWLK3JZ9YPE","A3VDG4N48AVYGQ","379OL9DBSS0OLW3FFHTILCO0AJC9Y6","","","img/flower4.png","75","724.6999999880791","2","1","1","",""
"null","","html-keyboard-response","78","149574","0.0-78.0","31QTRG6Q2UZBZ3HGN8UHWLK3JZ9YPE","A3VDG4N48AVYGQ","379OL9DBSS0OLW3FFHTILCO0AJC9Y6","","","<img src=""img/flower4.png"" style=""width:200px; border:14px solid green;"">","null","","","","","",""
"893.1999999880791","","image-keyboard-response","79","150468","0.0-79.0","31QTRG6Q2UZBZ3HGN8UHWLK3JZ9YPE","A3VDG4N48AVYGQ","379OL9DBSS0OLW3FFHTILCO0AJC9Y6","","","img/flower6.png","76","894.3000000119209","3","0","3","",""
"null","","html-keyboard-response","80","150780","0.0-80.0","31QTRG6Q2UZBZ3HGN8UHWLK3JZ9YPE","A3VDG4N48AVYGQ","379OL9DBSS0OLW3FFHTILCO0AJC9Y6","","","<img src=""img/flower6.png"" style=""width:200px;border:14px solid red;"">","null","","","","","",""
"1705.2000000476837","","image-keyboard-response","81","152486","0.0-81.0","31QTRG6Q2UZBZ3HGN8UHWLK3JZ9YPE","A3VDG4N48AVYGQ","379OL9DBSS0OLW3FFHTILCO0AJC9Y6","","","img/flower5.png","74","1706","1","0","2","",""
"null","","html-keyboard-response","82","152796","0.0-82.0","31QTRG6Q2UZBZ3HGN8UHWLK3JZ9YPE","A3VDG4N48AVYGQ","379OL9DBSS0OLW3FFHTILCO0AJC9Y6","","","<img src=""img/flower5.png"" style=""width:200px;border:14px solid red;"">","null","","","","","",""
"666.1999999880791","","image-keyboard-response","83","153463","0.0-83.0","31QTRG6Q2UZBZ3HGN8UHWLK3JZ9YPE","A3VDG4N48AVYGQ","379OL9DBSS0OLW3FFHTILCO0AJC9Y6","","","img/flower4.png","75","667.6000000238419","2","1","1","",""
"null","","html-keyboard-response","84","153775","0.0-84.0","31QTRG6Q2UZBZ3HGN8UHWLK3JZ9YPE","A3VDG4N48AVYGQ","379OL9DBSS0OLW3FFHTILCO0AJC9Y6","","","<img src=""img/flower4.png"" style=""width:200px; border:14px solid green;"">","null","","","","","",""
"382.30000001192093","","image-keyboard-response","85","154159","0.0-85.0","31QTRG6Q2UZBZ3HGN8UHWLK3JZ9YPE","A3VDG4N48AVYGQ","379OL9DBSS0OLW3FFHTILCO0AJC9Y6","","","img/flower4.png","75","383.69999998807907","2","1","1","",""
"null","","html-keyboard-response","86","154469","0.0-86.0","31QTRG6Q2UZBZ3HGN8UHWLK3JZ9YPE","A3VDG4N48AVYGQ","379OL9DBSS0OLW3FFHTILCO0AJC9Y6","","","<img src=""img/flower4.png"" style=""width:200px; border:14px solid green;"">","null","","","","","",""
"752.8000000119209","","image-keyboard-response","87","155224","0.0-87.0","31QTRG6Q2UZBZ3HGN8UHWLK3JZ9YPE","A3VDG4N48AVYGQ","379OL9DBSS0OLW3FFHTILCO0AJC9Y6","","","img/flower5.png","75","754.4000000357628","2","1","2","",""
"null","","html-keyboard-response","88","155534","0.0-88.0","31QTRG6Q2UZBZ3HGN8UHWLK3JZ9YPE","A3VDG4N48AVYGQ","379OL9DBSS0OLW3FFHTILCO0AJC9Y6","","","<img src=""img/flower5.png"" style=""width:200px; border:14px solid green;"">","null","","","","","",""
"863.4000000357628","","image-keyboard-response","89","156399","0.0-89.0","31QTRG6Q2UZBZ3HGN8UHWLK3JZ9YPE","A3VDG4N48AVYGQ","379OL9DBSS0OLW3FFHTILCO0AJC9Y6","","","img/flower5.png","75","864.6999999880791","2","1","2","",""
"null","","html-keyboard-response","90","156710","0.0-90.0","31QTRG6Q2UZBZ3HGN8UHWLK3JZ9YPE","A3VDG4N48AVYGQ","379OL9DBSS0OLW3FFHTILCO0AJC9Y6","","","<img src=""img/flower5.png"" style=""width:200px; border:14px solid green;"">","null","","","","","",""
"887.1999999880791","","image-keyboard-response","91","157599","0.0-91.0","31QTRG6Q2UZBZ3HGN8UHWLK3JZ9YPE","A3VDG4N48AVYGQ","379OL9DBSS0OLW3FFHTILCO0AJC9Y6","","","img/flower6.png","74","888.6000000238419","1","1","3","",""
"null","","html-keyboard-response","92","157909","0.0-92.0","31QTRG6Q2UZBZ3HGN8UHWLK3JZ9YPE","A3VDG4N48AVYGQ","379OL9DBSS0OLW3FFHTILCO0AJC9Y6","","","<img src=""img/flower6.png"" style=""width:200px; border:14px solid green;"">","null","","","","","",""
"583.1999999880791","","image-keyboard-response","93","158494","0.0-93.0","31QTRG6Q2UZBZ3HGN8UHWLK3JZ9YPE","A3VDG4N48AVYGQ","379OL9DBSS0OLW3FFHTILCO0AJC9Y6","","","img/flower6.png","74","584.5","1","1","3","",""
"null","","html-keyboard-response","94","158803","0.0-94.0","31QTRG6Q2UZBZ3HGN8UHWLK3JZ9YPE","A3VDG4N48AVYGQ","379OL9DBSS0OLW3FFHTILCO0AJC9Y6","","","<img src=""img/flower6.png"" style=""width:200px; border:14px solid green;"">","null","","","","","",""
"609.4000000357628","","image-keyboard-response","95","159414","0.0-95.0","31QTRG6Q2UZBZ3HGN8UHWLK3JZ9YPE","A3VDG4N48AVYGQ","379OL9DBSS0OLW3FFHTILCO0AJC9Y6","","","img/flower5.png","75","610.6999999880791","2","1","2","",""
"null","","html-keyboard-response","96","159732","0.0-96.0","31QTRG6Q2UZBZ3HGN8UHWLK3JZ9YPE","A3VDG4N48AVYGQ","379OL9DBSS0OLW3FFHTILCO0AJC9Y6","","","<img src=""img/flower5.png"" style=""width:200px; border:14px solid green;"">","null","","","","","",""
"666.5999999642372","","image-keyboard-response","97","160400","0.0-97.0","31QTRG6Q2UZBZ3HGN8UHWLK3JZ9YPE","A3VDG4N48AVYGQ","379OL9DBSS0OLW3FFHTILCO0AJC9Y6","","","img/flower6.png","74","667.8999999761581","1","0","3","",""
"null","","html-keyboard-response","98","160707","0.0-98.0","31QTRG6Q2UZBZ3HGN8UHWLK3JZ9YPE","A3VDG4N48AVYGQ","379OL9DBSS0OLW3FFHTILCO0AJC9Y6","","","<img src=""img/flower6.png"" style=""width:200px;border:14px solid red;"">","null","","","","","",""
"1491.5","","image-keyboard-response","99","162200","0.0-99.0","31QTRG6Q2UZBZ3HGN8UHWLK3JZ9YPE","A3VDG4N48AVYGQ","379OL9DBSS0OLW3FFHTILCO0AJC9Y6","","","img/flower6.png","76","1492.800000011921","3","0","3","",""
"null","","html-keyboard-response","100","162505","0.0-100.0","31QTRG6Q2UZBZ3HGN8UHWLK3JZ9YPE","A3VDG4N48AVYGQ","379OL9DBSS0OLW3FFHTILCO0AJC9Y6","","","<img src=""img/flower6.png"" style=""width:200px;border:14px solid red;"">","null","","","","","",""
"325.89999997615814","","image-keyboard-response","101","162832","0.0-101.0","31QTRG6Q2UZBZ3HGN8UHWLK3JZ9YPE","A3VDG4N48AVYGQ","379OL9DBSS0OLW3FFHTILCO0AJC9Y6","","","img/flower6.png","75","326.80000001192093","2","0","3","",""
"null","","html-keyboard-response","102","163141","0.0-102.0","31QTRG6Q2UZBZ3HGN8UHWLK3JZ9YPE","A3VDG4N48AVYGQ","379OL9DBSS0OLW3FFHTILCO0AJC9Y6","","","<img src=""img/flower6.png"" style=""width:200px;border:14px solid red;"">","null","","","","","",""
"2592.2000000476837","","image-keyboard-response","103","165735","0.0-103.0","31QTRG6Q2UZBZ3HGN8UHWLK3JZ9YPE","A3VDG4N48AVYGQ","379OL9DBSS0OLW3FFHTILCO0AJC9Y6","","","img/flower4.png","75","2593.399999976158","2","1","1","",""
"null","","html-keyboard-response","104","166051","0.0-104.0","31QTRG6Q2UZBZ3HGN8UHWLK3JZ9YPE","A3VDG4N48AVYGQ","379OL9DBSS0OLW3FFHTILCO0AJC9Y6","","","<img src=""img/flower4.png"" style=""width:200px; border:14px solid green;"">","null","","","","","",""
"624.6999999880791","","image-keyboard-response","105","166677","0.0-105.0","31QTRG6Q2UZBZ3HGN8UHWLK3JZ9YPE","A3VDG4N48AVYGQ","379OL9DBSS0OLW3FFHTILCO0AJC9Y6","","","img/flower6.png","74","625.8000000119209","1","1","3","",""
"null","","html-keyboard-response","106","166985","0.0-106.0","31QTRG6Q2UZBZ3HGN8UHWLK3JZ9YPE","A3VDG4N48AVYGQ","379OL9DBSS0OLW3FFHTILCO0AJC9Y6","","","<img src=""img/flower6.png"" style=""width:200px; border:14px solid green;"">","null","","","","","",""
"501.2000000476837","","image-keyboard-response","107","167488","0.0-107.0","31QTRG6Q2UZBZ3HGN8UHWLK3JZ9YPE","A3VDG4N48AVYGQ","379OL9DBSS0OLW3FFHTILCO0AJC9Y6","","","img/flower4.png","75","502.39999997615814","2","1","1","",""
"null","","html-keyboard-response","108","167803","0.0-108.0","31QTRG6Q2UZBZ3HGN8UHWLK3JZ9YPE","A3VDG4N48AVYGQ","379OL9DBSS0OLW3FFHTILCO0AJC9Y6","","","<img src=""img/flower4.png"" style=""width:200px; border:14px solid green;"">","null","","","","","",""
"742.9000000357628","","image-keyboard-response","109","168547","0.0-109.0","31QTRG6Q2UZBZ3HGN8UHWLK3JZ9YPE","A3VDG4N48AVYGQ","379OL9DBSS0OLW3FFHTILCO0AJC9Y6","","","img/flower5.png","75","744.1999999880791","2","1","2","",""
"null","","html-keyboard-response","110","168858","0.0-110.0","31QTRG6Q2UZBZ3HGN8UHWLK3JZ9YPE","A3VDG4N48AVYGQ","379OL9DBSS0OLW3FFHTILCO0AJC9Y6","","","<img src=""img/flower5.png"" style=""width:200px; border:14px solid green;"">","null","","","","","",""
"642.8000000119209","","image-keyboard-response","111","169503","0.0-111.0","31QTRG6Q2UZBZ3HGN8UHWLK3JZ9YPE","A3VDG4N48AVYGQ","379OL9DBSS0OLW3FFHTILCO0AJC9Y6","","","img/flower6.png","74","644.1000000238419","1","1","3","",""
"null","","html-keyboard-response","112","169811","0.0-112.0","31QTRG6Q2UZBZ3HGN8UHWLK3JZ9YPE","A3VDG4N48AVYGQ","379OL9DBSS0OLW3FFHTILCO0AJC9Y6","","","<img src=""img/flower6.png"" style=""width:200px; border:14px solid green;"">","null","","","","","",""
"475.39999997615814","","image-keyboard-response","113","170288","0.0-113.0","31QTRG6Q2UZBZ3HGN8UHWLK3JZ9YPE","A3VDG4N48AVYGQ","379OL9DBSS0OLW3FFHTILCO0AJC9Y6","","","img/flower5.png","75","476.80000001192093","2","1","2","",""
"null","","html-keyboard-response","114","170598","0.0-114.0","31QTRG6Q2UZBZ3HGN8UHWLK3JZ9YPE","A3VDG4N48AVYGQ","379OL9DBSS0OLW3FFHTILCO0AJC9Y6","","","<img src=""img/flower5.png"" style=""width:200px; border:14px solid green;"">","null","","","","","",""
"560.8000000119209","","image-keyboard-response","115","171159","0.0-115.0","31QTRG6Q2UZBZ3HGN8UHWLK3JZ9YPE","A3VDG4N48AVYGQ","379OL9DBSS0OLW3FFHTILCO0AJC9Y6","","","img/flower6.png","75","561.6000000238419","2","0","3","",""
"null","","html-keyboard-response","116","171464","0.0-116.0","31QTRG6Q2UZBZ3HGN8UHWLK3JZ9YPE","A3VDG4N48AVYGQ","379OL9DBSS0OLW3FFHTILCO0AJC9Y6","","","<img src=""img/flower6.png"" style=""width:200px;border:14px solid red;"">","null","","","","","",""
"737.3999999761581","","image-keyboard-response","117","172204","0.0-117.0","31QTRG6Q2UZBZ3HGN8UHWLK3JZ9YPE","A3VDG4N48AVYGQ","379OL9DBSS0OLW3FFHTILCO0AJC9Y6","","","img/flower5.png","75","739","2","1","2","",""
"null","","html-keyboard-response","118","172509","0.0-118.0","31QTRG6Q2UZBZ3HGN8UHWLK3JZ9YPE","A3VDG4N48AVYGQ","379OL9DBSS0OLW3FFHTILCO0AJC9Y6","","","<img src=""img/flower5.png"" style=""width:200px; border:14px solid green;"">","null","","","","","",""
"800.3000000119209","","image-keyboard-response","119","173311","0.0-119.0","31QTRG6Q2UZBZ3HGN8UHWLK3JZ9YPE","A3VDG4N48AVYGQ","379OL9DBSS0OLW3FFHTILCO0AJC9Y6","","","img/flower4.png","75","801.6000000238419","2","1","1","",""
"null","","html-keyboard-response","120","173619","0.0-120.0","31QTRG6Q2UZBZ3HGN8UHWLK3JZ9YPE","A3VDG4N48AVYGQ","379OL9DBSS0OLW3FFHTILCO0AJC9Y6","","","<img src=""img/flower4.png"" style=""width:200px; border:14px solid green;"">","null","","","","","",""
"526.6000000238419","","image-keyboard-response","121","174148","0.0-121.0","31QTRG6Q2UZBZ3HGN8UHWLK3JZ9YPE","A3VDG4N48AVYGQ","379OL9DBSS0OLW3FFHTILCO0AJC9Y6","","","img/flower5.png","75","528","2","1","2","",""
"null","","html-keyboard-response","122","174457","0.0-122.0","31QTRG6Q2UZBZ3HGN8UHWLK3JZ9YPE","A3VDG4N48AVYGQ","379OL9DBSS0OLW3FFHTILCO0AJC9Y6","","","<img src=""img/flower5.png"" style=""width:200px; border:14px solid green;"">","null","","","","","",""
"508.39999997615814","","image-keyboard-response","123","174967","0.0-123.0","31QTRG6Q2UZBZ3HGN8UHWLK3JZ9YPE","A3VDG4N48AVYGQ","379OL9DBSS0OLW3FFHTILCO0AJC9Y6","","","img/flower5.png","75","509.69999998807907","2","1","2","",""
"null","","html-keyboard-response","124","175273","0.0-124.0","31QTRG6Q2UZBZ3HGN8UHWLK3JZ9YPE","A3VDG4N48AVYGQ","379OL9DBSS0OLW3FFHTILCO0AJC9Y6","","","<img src=""img/flower5.png"" style=""width:200px; border:14px solid green;"">","null","","","","","",""
"7235.100000023842","","instructions","125","182509","0.0-125.0","31QTRG6Q2UZBZ3HGN8UHWLK3JZ9YPE","A3VDG4N48AVYGQ","379OL9DBSS0OLW3FFHTILCO0AJC9Y6","","[{""page_index"":0,""viewing_time"":7234.800000011921}]","","","","","","","",""
"1748.2999999523163","","image-keyboard-response","126","184259","0.0-126.0","31QTRG6Q2UZBZ3HGN8UHWLK3JZ9YPE","A3VDG4N48AVYGQ","379OL9DBSS0OLW3FFHTILCO0AJC9Y6","","","img/flower9.png","75","1749.9000000357628","2","0","3","0.8,0.2,0.2,0.2,0.8,0.2,0.2,0.2,0.8",""
"null","","html-keyboard-response","127","184577","0.0-127.0","31QTRG6Q2UZBZ3HGN8UHWLK3JZ9YPE","A3VDG4N48AVYGQ","379OL9DBSS0OLW3FFHTILCO0AJC9Y6","","","<img src=""img/flower9.png"" style=""width:200px;border:14px solid red;"">","null","","","","","",""
"809.4000000357628","","image-keyboard-response","128","185388","0.0-128.0","31QTRG6Q2UZBZ3HGN8UHWLK3JZ9YPE","A3VDG4N48AVYGQ","379OL9DBSS0OLW3FFHTILCO0AJC9Y6","","","img/flower9.png","76","810.1000000238419","3","1","3","0.8,0.2,0.2,0.2,0.8,0.2,0.2,0.2,0.8",""
"null","","html-keyboard-response","129","185694","0.0-129.0","31QTRG6Q2UZBZ3HGN8UHWLK3JZ9YPE","A3VDG4N48AVYGQ","379OL9DBSS0OLW3FFHTILCO0AJC9Y6","","","<img src=""img/flower9.png"" style=""width:200px; border:14px solid green;"">","null","","","","","",""
"1139.6000000238419","","image-keyboard-response","130","186836","0.0-130.0","31QTRG6Q2UZBZ3HGN8UHWLK3JZ9YPE","A3VDG4N48AVYGQ","379OL9DBSS0OLW3FFHTILCO0AJC9Y6","","","img/flower6.png","75","1140.7999999523163","2","1","2","0.8,0.2,0.2,0.2,0.8,0.2,0.2,0.2,0.8",""
"null","","html-keyboard-response","131","187140","0.0-131.0","31QTRG6Q2UZBZ3HGN8UHWLK3JZ9YPE","A3VDG4N48AVYGQ","379OL9DBSS0OLW3FFHTILCO0AJC9Y6","","","<img src=""img/flower6.png"" style=""width:200px; border:14px solid green;"">","null","","","","","",""
"2005.300000011921","","image-keyboard-response","132","189147","0.0-132.0","31QTRG6Q2UZBZ3HGN8UHWLK3JZ9YPE","A3VDG4N48AVYGQ","379OL9DBSS0OLW3FFHTILCO0AJC9Y6","","","img/flower1.png","74","2006.699999988079","1","1","1","0.8,0.2,0.2,0.2,0.8,0.2,0.2,0.2,0.8",""
"null","","html-keyboard-response","133","189455","0.0-133.0","31QTRG6Q2UZBZ3HGN8UHWLK3JZ9YPE","A3VDG4N48AVYGQ","379OL9DBSS0OLW3FFHTILCO0AJC9Y6","","","<img src=""img/flower1.png"" style=""width:200px; border:14px solid green;"">","null","","","","","",""
"786.8999999761581","","image-keyboard-response","134","190244","0.0-134.0","31QTRG6Q2UZBZ3HGN8UHWLK3JZ9YPE","A3VDG4N48AVYGQ","379OL9DBSS0OLW3FFHTILCO0AJC9Y6","","","img/flower6.png","75","788.0999999642372","2","1","2","0.8,0.2,0.2,0.2,0.8,0.2,0.2,0.2,0.8",""
"null","","html-keyboard-response","135","190557","0.0-135.0","31QTRG6Q2UZBZ3HGN8UHWLK3JZ9YPE","A3VDG4N48AVYGQ","379OL9DBSS0OLW3FFHTILCO0AJC9Y6","","","<img src=""img/flower6.png"" style=""width:200px; border:14px solid green;"">","null","","","","","",""
"701.9000000357628","","image-keyboard-response","136","191260","0.0-136.0","31QTRG6Q2UZBZ3HGN8UHWLK3JZ9YPE","A3VDG4N48AVYGQ","379OL9DBSS0OLW3FFHTILCO0AJC9Y6","","","img/flower9.png","76","704.1999999880791","3","1","3","0.8,0.2,0.2,0.2,0.8,0.2,0.2,0.2,0.8",""
"null","","html-keyboard-response","137","191578","0.0-137.0","31QTRG6Q2UZBZ3HGN8UHWLK3JZ9YPE","A3VDG4N48AVYGQ","379OL9DBSS0OLW3FFHTILCO0AJC9Y6","","","<img src=""img/flower9.png"" style=""width:200px; border:14px solid green;"">","null","","","","","",""
"568.1999999880791","","image-keyboard-response","138","192148","0.0-138.0","31QTRG6Q2UZBZ3HGN8UHWLK3JZ9YPE","A3VDG4N48AVYGQ","379OL9DBSS0OLW3FFHTILCO0AJC9Y6","","","img/flower9.png","76","569.6000000238419","3","1","3","0.8,0.2,0.2,0.2,0.8,0.2,0.2,0.2,0.8",""
"null","","html-keyboard-response","139","192458","0.0-139.0","31QTRG6Q2UZBZ3HGN8UHWLK3JZ9YPE","A3VDG4N48AVYGQ","379OL9DBSS0OLW3FFHTILCO0AJC9Y6","","","<img src=""img/flower9.png"" style=""width:200px; border:14px solid green;"">","null","","","","","",""
"584","","image-keyboard-response","140","193045","0.0-140.0","31QTRG6Q2UZBZ3HGN8UHWLK3JZ9YPE","A3VDG4N48AVYGQ","379OL9DBSS0OLW3FFHTILCO0AJC9Y6","","","img/flower1.png","74","585.5","1","1","1","0.8,0.2,0.2,0.2,0.8,0.2,0.2,0.2,0.8",""
"null","","html-keyboard-response","141","193356","0.0-141.0","31QTRG6Q2UZBZ3HGN8UHWLK3JZ9YPE","A3VDG4N48AVYGQ","379OL9DBSS0OLW3FFHTILCO0AJC9Y6","","","<img src=""img/flower1.png"" style=""width:200px; border:14px solid green;"">","null","","","","","",""
"550.1000000238419","","image-keyboard-response","142","193908","0.0-142.0","31QTRG6Q2UZBZ3HGN8UHWLK3JZ9YPE","A3VDG4N48AVYGQ","379OL9DBSS0OLW3FFHTILCO0AJC9Y6","","","img/flower1.png","74","551.2999999523163","1","1","1","0.8,0.2,0.2,0.2,0.8,0.2,0.2,0.2,0.8",""
"null","","html-keyboard-response","143","194222","0.0-143.0","31QTRG6Q2UZBZ3HGN8UHWLK3JZ9YPE","A3VDG4N48AVYGQ","379OL9DBSS0OLW3FFHTILCO0AJC9Y6","","","<img src=""img/flower1.png"" style=""width:200px; border:14px solid green;"">","null","","","","","",""
"571.5","","image-keyboard-response","144","194795","0.0-144.0","31QTRG6Q2UZBZ3HGN8UHWLK3JZ9YPE","A3VDG4N48AVYGQ","379OL9DBSS0OLW3FFHTILCO0AJC9Y6","","","img/flower6.png","75","572.6999999880791","2","1","2","0.8,0.2,0.2,0.2,0.8,0.2,0.2,0.2,0.8",""
"null","","html-keyboard-response","145","195105","0.0-145.0","31QTRG6Q2UZBZ3HGN8UHWLK3JZ9YPE","A3VDG4N48AVYGQ","379OL9DBSS0OLW3FFHTILCO0AJC9Y6","","","<img src=""img/flower6.png"" style=""width:200px; border:14px solid green;"">","null","","","","","",""
"488.39999997615814","","image-keyboard-response","146","195596","0.0-146.0","31QTRG6Q2UZBZ3HGN8UHWLK3JZ9YPE","A3VDG4N48AVYGQ","379OL9DBSS0OLW3FFHTILCO0AJC9Y6","","","img/flower6.png","75","489.80000001192093","2","1","2","0.8,0.2,0.2,0.2,0.8,0.2,0.2,0.2,0.8",""
"null","","html-keyboard-response","147","195910","0.0-147.0","31QTRG6Q2UZBZ3HGN8UHWLK3JZ9YPE","A3VDG4N48AVYGQ","379OL9DBSS0OLW3FFHTILCO0AJC9Y6","","","<img src=""img/flower6.png"" style=""width:200px; border:14px solid green;"">","null","","","","","",""
"811","","image-keyboard-response","148","196723","0.0-148.0","31QTRG6Q2UZBZ3HGN8UHWLK3JZ9YPE","A3VDG4N48AVYGQ","379OL9DBSS0OLW3FFHTILCO0AJC9Y6","","","img/flower1.png","74","812.6000000238419","1","1","1","0.8,0.2,0.2,0.2,0.8,0.2,0.2,0.2,0.8",""
"null","","html-keyboard-response","149","197039","0.0-149.0","31QTRG6Q2UZBZ3HGN8UHWLK3JZ9YPE","A3VDG4N48AVYGQ","379OL9DBSS0OLW3FFHTILCO0AJC9Y6","","","<img src=""img/flower1.png"" style=""width:200px; border:14px solid green;"">","null","","","","","",""
"681.3000000119209","","image-keyboard-response","150","197722","0.0-150.0","31QTRG6Q2UZBZ3HGN8UHWLK3JZ9YPE","A3VDG4N48AVYGQ","379OL9DBSS0OLW3FFHTILCO0AJC9Y6","","","img/flower9.png","76","682.5","3","1","3","0.8,0.2,0.2,0.2,0.8,0.2,0.2,0.2,0.8",""
"null","","html-keyboard-response","151","198033","0.0-151.0","31QTRG6Q2UZBZ3HGN8UHWLK3JZ9YPE","A3VDG4N48AVYGQ","379OL9DBSS0OLW3FFHTILCO0AJC9Y6","","","<img src=""img/flower9.png"" style=""width:200px; border:14px solid green;"">","null","","","","","",""
"524.3999999761581","","image-keyboard-response","152","198559","0.0-152.0","31QTRG6Q2UZBZ3HGN8UHWLK3JZ9YPE","A3VDG4N48AVYGQ","379OL9DBSS0OLW3FFHTILCO0AJC9Y6","","","img/flower9.png","76","525.6000000238419","3","1","3","0.8,0.2,0.2,0.2,0.8,0.2,0.2,0.2,0.8",""
"null","","html-keyboard-response","153","198875","0.0-153.0","31QTRG6Q2UZBZ3HGN8UHWLK3JZ9YPE","A3VDG4N48AVYGQ","379OL9DBSS0OLW3FFHTILCO0AJC9Y6","","","<img src=""img/flower9.png"" style=""width:200px; border:14px solid green;"">","null","","","","","",""
"822.6000000238419","","image-keyboard-response","154","199700","0.0-154.0","31QTRG6Q2UZBZ3HGN8UHWLK3JZ9YPE","A3VDG4N48AVYGQ","379OL9DBSS0OLW3FFHTILCO0AJC9Y6","","","img/flower1.png","74","824","1","1","1","0.8,0.2,0.2,0.2,0.8,0.2,0.2,0.2,0.8",""
"null","","html-keyboard-response","155","200008","0.0-155.0","31QTRG6Q2UZBZ3HGN8UHWLK3JZ9YPE","A3VDG4N48AVYGQ","379OL9DBSS0OLW3FFHTILCO0AJC9Y6","","","<img src=""img/flower1.png"" style=""width:200px; border:14px solid green;"">","null","","","","","",""
"510.89999997615814","","image-keyboard-response","156","200520","0.0-156.0","31QTRG6Q2UZBZ3HGN8UHWLK3JZ9YPE","A3VDG4N48AVYGQ","379OL9DBSS0OLW3FFHTILCO0AJC9Y6","","","img/flower1.png","74","511.9000000357628","1","1","1","0.8,0.2,0.2,0.2,0.8,0.2,0.2,0.2,0.8",""
"null","","html-keyboard-response","157","200823","0.0-157.0","31QTRG6Q2UZBZ3HGN8UHWLK3JZ9YPE","A3VDG4N48AVYGQ","379OL9DBSS0OLW3FFHTILCO0AJC9Y6","","","<img src=""img/flower1.png"" style=""width:200px; border:14px solid green;"">","null","","","","","",""
"658.6999999880791","","image-keyboard-response","158","201483","0.0-158.0","31QTRG6Q2UZBZ3HGN8UHWLK3JZ9YPE","A3VDG4N48AVYGQ","379OL9DBSS0OLW3FFHTILCO0AJC9Y6","","","img/flower9.png","76","659.9000000357628","3","1","3","0.8,0.2,0.2,0.2,0.8,0.2,0.2,0.2,0.8",""
"null","","html-keyboard-response","159","201788","0.0-159.0","31QTRG6Q2UZBZ3HGN8UHWLK3JZ9YPE","A3VDG4N48AVYGQ","379OL9DBSS0OLW3FFHTILCO0AJC9Y6","","","<img src=""img/flower9.png"" style=""width:200px; border:14px solid green;"">","null","","","","","",""
"677.2000000476837","","image-keyboard-response","160","202467","0.0-160.0","31QTRG6Q2UZBZ3HGN8UHWLK3JZ9YPE","A3VDG4N48AVYGQ","379OL9DBSS0OLW3FFHTILCO0AJC9Y6","","","img/flower6.png","75","678.5999999642372","2","1","2","0.8,0.2,0.2,0.2,0.8,0.2,0.2,0.2,0.8",""
"null","","html-keyboard-response","161","202782","0.0-161.0","31QTRG6Q2UZBZ3HGN8UHWLK3JZ9YPE","A3VDG4N48AVYGQ","379OL9DBSS0OLW3FFHTILCO0AJC9Y6","","","<img src=""img/flower6.png"" style=""width:200px; border:14px solid green;"">","null","","","","","",""
"955.9000000357628","","image-keyboard-response","162","203740","0.0-162.0","31QTRG6Q2UZBZ3HGN8UHWLK3JZ9YPE","A3VDG4N48AVYGQ","379OL9DBSS0OLW3FFHTILCO0AJC9Y6","","","img/flower1.png","74","957.1000000238419","1","1","1","0.8,0.2,0.2,0.2,0.8,0.2,0.2,0.2,0.8",""
"null","","html-keyboard-response","163","204055","0.0-163.0","31QTRG6Q2UZBZ3HGN8UHWLK3JZ9YPE","A3VDG4N48AVYGQ","379OL9DBSS0OLW3FFHTILCO0AJC9Y6","","","<img src=""img/flower1.png"" style=""width:200px; border:14px solid green;"">","null","","","","","",""
"643.6999999880791","","image-keyboard-response","164","204700","0.0-164.0","31QTRG6Q2UZBZ3HGN8UHWLK3JZ9YPE","A3VDG4N48AVYGQ","379OL9DBSS0OLW3FFHTILCO0AJC9Y6","","","img/flower9.png","76","645","3","1","3","0.8,0.2,0.2,0.2,0.8,0.2,0.2,0.2,0.8",""
"null","","html-keyboard-response","165","205012","0.0-165.0","31QTRG6Q2UZBZ3HGN8UHWLK3JZ9YPE","A3VDG4N48AVYGQ","379OL9DBSS0OLW3FFHTILCO0AJC9Y6","","","<img src=""img/flower9.png"" style=""width:200px; border:14px solid green;"">","null","","","","","",""
"681.8999999761581","","image-keyboard-response","166","205696","0.0-166.0","31QTRG6Q2UZBZ3HGN8UHWLK3JZ9YPE","A3VDG4N48AVYGQ","379OL9DBSS0OLW3FFHTILCO0AJC9Y6","","","img/flower1.png","74","683.3000000119209","1","1","1","0.8,0.2,0.2,0.2,0.8,0.2,0.2,0.2,0.8",""
"null","","html-keyboard-response","167","206004","0.0-167.0","31QTRG6Q2UZBZ3HGN8UHWLK3JZ9YPE","A3VDG4N48AVYGQ","379OL9DBSS0OLW3FFHTILCO0AJC9Y6","","","<img src=""img/flower1.png"" style=""width:200px; border:14px solid green;"">","null","","","","","",""
"710.2000000476837","","image-keyboard-response","168","206716","0.0-168.0","31QTRG6Q2UZBZ3HGN8UHWLK3JZ9YPE","A3VDG4N48AVYGQ","379OL9DBSS0OLW3FFHTILCO0AJC9Y6","","","img/flower9.png","76","711.5","3","1","3","0.8,0.2,0.2,0.2,0.8,0.2,0.2,0.2,0.8",""
"null","","html-keyboard-response","169","207027","0.0-169.0","31QTRG6Q2UZBZ3HGN8UHWLK3JZ9YPE","A3VDG4N48AVYGQ","379OL9DBSS0OLW3FFHTILCO0AJC9Y6","","","<img src=""img/flower9.png"" style=""width:200px; border:14px solid green;"">","null","","","","","",""
"543.8999999761581","","image-keyboard-response","170","207573","0.0-170.0","31QTRG6Q2UZBZ3HGN8UHWLK3JZ9YPE","A3VDG4N48AVYGQ","379OL9DBSS0OLW3FFHTILCO0AJC9Y6","","","img/flower1.png","74","545","1","1","1","0.8,0.2,0.2,0.2,0.8,0.2,0.2,0.2,0.8",""
"null","","html-keyboard-response","171","207874","0.0-171.0","31QTRG6Q2UZBZ3HGN8UHWLK3JZ9YPE","A3VDG4N48AVYGQ","379OL9DBSS0OLW3FFHTILCO0AJC9Y6","","","<img src=""img/flower1.png"" style=""width:200px; border:14px solid green;"">","null","","","","","",""
"499.5","","image-keyboard-response","172","208376","0.0-172.0","31QTRG6Q2UZBZ3HGN8UHWLK3JZ9YPE","A3VDG4N48AVYGQ","379OL9DBSS0OLW3FFHTILCO0AJC9Y6","","","img/flower1.png","74","500.9000000357628","1","1","1","0.8,0.2,0.2,0.2,0.8,0.2,0.2,0.2,0.8",""
"null","","html-keyboard-response","173","208687","0.0-173.0","31QTRG6Q2UZBZ3HGN8UHWLK3JZ9YPE","A3VDG4N48AVYGQ","379OL9DBSS0OLW3FFHTILCO0AJC9Y6","","","<img src=""img/flower1.png"" style=""width:200px; border:14px solid green;"">","null","","","","","",""
"503.39999997615814","","image-keyboard-response","174","209192","0.0-174.0","31QTRG6Q2UZBZ3HGN8UHWLK3JZ9YPE","A3VDG4N48AVYGQ","379OL9DBSS0OLW3FFHTILCO0AJC9Y6","","","img/flower1.png","74","504.7999999523163","1","0","1","0.8,0.2,0.2,0.2,0.8,0.2,0.2,0.2,0.8",""
"null","","html-keyboard-response","175","209508","0.0-175.0","31QTRG6Q2UZBZ3HGN8UHWLK3JZ9YPE","A3VDG4N48AVYGQ","379OL9DBSS0OLW3FFHTILCO0AJC9Y6","","","<img src=""img/flower1.png"" style=""width:200px;border:14px solid red;"">","null","","","","","",""
"2010.4000000357628","","image-keyboard-response","176","211520","0.0-176.0","31QTRG6Q2UZBZ3HGN8UHWLK3JZ9YPE","A3VDG4N48AVYGQ","379OL9DBSS0OLW3FFHTILCO0AJC9Y6","","","img/flower1.png","74","2011.6000000238419","1","1","1","0.8,0.2,0.2,0.2,0.8,0.2,0.2,0.2,0.8",""
"null","","html-keyboard-response","177","211828","0.0-177.0","31QTRG6Q2UZBZ3HGN8UHWLK3JZ9YPE","A3VDG4N48AVYGQ","379OL9DBSS0OLW3FFHTILCO0AJC9Y6","","","<img src=""img/flower1.png"" style=""width:200px; border:14px solid green;"">","null","","","","","",""
"587.3999999761581","","image-keyboard-response","178","212417","0.0-178.0","31QTRG6Q2UZBZ3HGN8UHWLK3JZ9YPE","A3VDG4N48AVYGQ","379OL9DBSS0OLW3FFHTILCO0AJC9Y6","","","img/flower6.png","75","588.6999999880791","2","1","2","0.8,0.2,0.2,0.2,0.8,0.2,0.2,0.2,0.8",""
"null","","html-keyboard-response","179","212726","0.0-179.0","31QTRG6Q2UZBZ3HGN8UHWLK3JZ9YPE","A3VDG4N48AVYGQ","379OL9DBSS0OLW3FFHTILCO0AJC9Y6","","","<img src=""img/flower6.png"" style=""width:200px; border:14px solid green;"">","null","","","","","",""
"623.8999999761581","","image-keyboard-response","180","213352","0.0-180.0","31QTRG6Q2UZBZ3HGN8UHWLK3JZ9YPE","A3VDG4N48AVYGQ","379OL9DBSS0OLW3FFHTILCO0AJC9Y6","","","img/flower9.png","76","625.2000000476837","3","1","3","0.8,0.2,0.2,0.2,0.8,0.2,0.2,0.2,0.8",""
"null","","html-keyboard-response","181","213655","0.0-181.0","31QTRG6Q2UZBZ3HGN8UHWLK3JZ9YPE","A3VDG4N48AVYGQ","379OL9DBSS0OLW3FFHTILCO0AJC9Y6","","","<img src=""img/flower9.png"" style=""width:200px; border:14px solid green;"">","null","","","","","",""
"805.7000000476837","","image-keyboard-response","182","214462","0.0-182.0","31QTRG6Q2UZBZ3HGN8UHWLK3JZ9YPE","A3VDG4N48AVYGQ","379OL9DBSS0OLW3FFHTILCO0AJC9Y6","","","img/flower1.png","74","807.0999999642372","1","1","1","0.8,0.2,0.2,0.2,0.8,0.2,0.2,0.2,0.8",""
"null","","html-keyboard-response","183","214769","0.0-183.0","31QTRG6Q2UZBZ3HGN8UHWLK3JZ9YPE","A3VDG4N48AVYGQ","379OL9DBSS0OLW3FFHTILCO0AJC9Y6","","","<img src=""img/flower1.png"" style=""width:200px; border:14px solid green;"">","null","","","","","",""
"693.7000000476837","","image-keyboard-response","184","215464","0.0-184.0","31QTRG6Q2UZBZ3HGN8UHWLK3JZ9YPE","A3VDG4N48AVYGQ","379OL9DBSS0OLW3FFHTILCO0AJC9Y6","","","img/flower6.png","75","695.0999999642372","2","1","2","0.8,0.2,0.2,0.2,0.8,0.2,0.2,0.2,0.8",""
"null","","html-keyboard-response","185","215777","0.0-185.0","31QTRG6Q2UZBZ3HGN8UHWLK3JZ9YPE","A3VDG4N48AVYGQ","379OL9DBSS0OLW3FFHTILCO0AJC9Y6","","","<img src=""img/flower6.png"" style=""width:200px; border:14px solid green;"">","null","","","","","",""
"443.80000001192093","","image-keyboard-response","186","216223","0.0-186.0","31QTRG6Q2UZBZ3HGN8UHWLK3JZ9YPE","A3VDG4N48AVYGQ","379OL9DBSS0OLW3FFHTILCO0AJC9Y6","","","img/flower6.png","75","445.30000001192093","2","1","2","0.8,0.2,0.2,0.2,0.8,0.2,0.2,0.2,0.8",""
"null","","html-keyboard-response","187","216526","0.0-187.0","31QTRG6Q2UZBZ3HGN8UHWLK3JZ9YPE","A3VDG4N48AVYGQ","379OL9DBSS0OLW3FFHTILCO0AJC9Y6","","","<img src=""img/flower6.png"" style=""width:200px; border:14px solid green;"">","null","","","","","",""
"721.0999999642372","","image-keyboard-response","188","217248","0.0-188.0","31QTRG6Q2UZBZ3HGN8UHWLK3JZ9YPE","A3VDG4N48AVYGQ","379OL9DBSS0OLW3FFHTILCO0AJC9Y6","","","img/flower9.png","76","722","3","0","3","0.8,0.2,0.2,0.2,0.8,0.2,0.2,0.2,0.8",""
"null","","html-keyboard-response","189","217556","0.0-189.0","31QTRG6Q2UZBZ3HGN8UHWLK3JZ9YPE","A3VDG4N48AVYGQ","379OL9DBSS0OLW3FFHTILCO0AJC9Y6","","","<img src=""img/flower9.png"" style=""width:200px;border:14px solid red;"">","null","","","","","",""
"402.60000002384186","","image-keyboard-response","190","217960","0.0-190.0","31QTRG6Q2UZBZ3HGN8UHWLK3JZ9YPE","A3VDG4N48AVYGQ","379OL9DBSS0OLW3FFHTILCO0AJC9Y6","","","img/flower9.png","76","403.39999997615814","3","1","3","0.8,0.2,0.2,0.2,0.8,0.2,0.2,0.2,0.8",""
"null","","html-keyboard-response","191","218265","0.0-191.0","31QTRG6Q2UZBZ3HGN8UHWLK3JZ9YPE","A3VDG4N48AVYGQ","379OL9DBSS0OLW3FFHTILCO0AJC9Y6","","","<img src=""img/flower9.png"" style=""width:200px; border:14px solid green;"">","null","","","","","",""
"505.10000002384186","","image-keyboard-response","192","218772","0.0-192.0","31QTRG6Q2UZBZ3HGN8UHWLK3JZ9YPE","A3VDG4N48AVYGQ","379OL9DBSS0OLW3FFHTILCO0AJC9Y6","","","img/flower1.png","74","506.39999997615814","1","1","1","0.8,0.2,0.2,0.2,0.8,0.2,0.2,0.2,0.8",""
"null","","html-keyboard-response","193","219079","0.0-193.0","31QTRG6Q2UZBZ3HGN8UHWLK3JZ9YPE","A3VDG4N48AVYGQ","379OL9DBSS0OLW3FFHTILCO0AJC9Y6","","","<img src=""img/flower1.png"" style=""width:200px; border:14px solid green;"">","null","","","","","",""
"650.8999999761581","","image-keyboard-response","194","219732","0.0-194.0","31QTRG6Q2UZBZ3HGN8UHWLK3JZ9YPE","A3VDG4N48AVYGQ","379OL9DBSS0OLW3FFHTILCO0AJC9Y6","","","img/flower9.png","75","652.0999999642372","2","0","3","0.8,0.2,0.2,0.2,0.8,0.2,0.2,0.2,0.8",""
"null","","html-keyboard-response","195","220037","0.0-195.0","31QTRG6Q2UZBZ3HGN8UHWLK3JZ9YPE","A3VDG4N48AVYGQ","379OL9DBSS0OLW3FFHTILCO0AJC9Y6","","","<img src=""img/flower9.png"" style=""width:200px;border:14px solid red;"">","null","","","","","",""
"693.6999999880791","","image-keyboard-response","196","220732","0.0-196.0","31QTRG6Q2UZBZ3HGN8UHWLK3JZ9YPE","A3VDG4N48AVYGQ","379OL9DBSS0OLW3FFHTILCO0AJC9Y6","","","img/flower6.png","75","695","2","1","2","0.8,0.2,0.2,0.2,0.8,0.2,0.2,0.2,0.8",""
"null","","html-keyboard-response","197","221046","0.0-197.0","31QTRG6Q2UZBZ3HGN8UHWLK3JZ9YPE","A3VDG4N48AVYGQ","379OL9DBSS0OLW3FFHTILCO0AJC9Y6","","","<img src=""img/flower6.png"" style=""width:200px; border:14px solid green;"">","null","","","","","",""
"419.4000000357628","","image-keyboard-response","198","221467","0.0-198.0","31QTRG6Q2UZBZ3HGN8UHWLK3JZ9YPE","A3VDG4N48AVYGQ","379OL9DBSS0OLW3FFHTILCO0AJC9Y6","","","img/flower6.png","75","420.69999998807907","2","0","2","0.8,0.2,0.2,0.2,0.8,0.2,0.2,0.2,0.8",""
"null","","html-keyboard-response","199","221771","0.0-199.0","31QTRG6Q2UZBZ3HGN8UHWLK3JZ9YPE","A3VDG4N48AVYGQ","379OL9DBSS0OLW3FFHTILCO0AJC9Y6","","","<img src=""img/flower6.png"" style=""width:200px;border:14px solid red;"">","null","","","","","",""
"2880.899999976158","","image-keyboard-response","200","224653","0.0-200.0","31QTRG6Q2UZBZ3HGN8UHWLK3JZ9YPE","A3VDG4N48AVYGQ","379OL9DBSS0OLW3FFHTILCO0AJC9Y6","","","img/flower9.png","76","2882.100000023842","3","0","3","0.8,0.2,0.2,0.2,0.8,0.2,0.2,0.2,0.8",""
"null","","html-keyboard-response","201","224968","0.0-201.0","31QTRG6Q2UZBZ3HGN8UHWLK3JZ9YPE","A3VDG4N48AVYGQ","379OL9DBSS0OLW3FFHTILCO0AJC9Y6","","","<img src=""img/flower9.png"" style=""width:200px;border:14px solid red;"">","null","","","","","",""
"1861.3999999761581","","image-keyboard-response","202","226831","0.0-202.0","31QTRG6Q2UZBZ3HGN8UHWLK3JZ9YPE","A3VDG4N48AVYGQ","379OL9DBSS0OLW3FFHTILCO0AJC9Y6","","","img/flower1.png","74","1862.5999999642372","1","1","1","0.8,0.2,0.2,0.2,0.8,0.2,0.2,0.2,0.8",""
"null","","html-keyboard-response","203","227140","0.0-203.0","31QTRG6Q2UZBZ3HGN8UHWLK3JZ9YPE","A3VDG4N48AVYGQ","379OL9DBSS0OLW3FFHTILCO0AJC9Y6","","","<img src=""img/flower1.png"" style=""width:200px; border:14px solid green;"">","null","","","","","",""
"586.8999999761581","","image-keyboard-response","204","227729","0.0-204.0","31QTRG6Q2UZBZ3HGN8UHWLK3JZ9YPE","A3VDG4N48AVYGQ","379OL9DBSS0OLW3FFHTILCO0AJC9Y6","","","img/flower1.png","74","588.2999999523163","1","1","1","0.8,0.2,0.2,0.2,0.8,0.2,0.2,0.2,0.8",""
"null","","html-keyboard-response","205","228038","0.0-205.0","31QTRG6Q2UZBZ3HGN8UHWLK3JZ9YPE","A3VDG4N48AVYGQ","379OL9DBSS0OLW3FFHTILCO0AJC9Y6","","","<img src=""img/flower1.png"" style=""width:200px; border:14px solid green;"">","null","","","","","",""
"769.3000000119209","","image-keyboard-response","206","228809","0.0-206.0","31QTRG6Q2UZBZ3HGN8UHWLK3JZ9YPE","A3VDG4N48AVYGQ","379OL9DBSS0OLW3FFHTILCO0AJC9Y6","","","img/flower9.png","76","770.6999999880791","3","1","3","0.8,0.2,0.2,0.2,0.8,0.2,0.2,0.2,0.8",""
"null","","html-keyboard-response","207","229117","0.0-207.0","31QTRG6Q2UZBZ3HGN8UHWLK3JZ9YPE","A3VDG4N48AVYGQ","379OL9DBSS0OLW3FFHTILCO0AJC9Y6","","","<img src=""img/flower9.png"" style=""width:200px; border:14px solid green;"">","null","","","","","",""
"1057.7000000476837","","image-keyboard-response","208","230176","0.0-208.0","31QTRG6Q2UZBZ3HGN8UHWLK3JZ9YPE","A3VDG4N48AVYGQ","379OL9DBSS0OLW3FFHTILCO0AJC9Y6","","","img/flower6.png","75","1059","2","1","2","0.8,0.2,0.2,0.2,0.8,0.2,0.2,0.2,0.8",""
"null","","html-keyboard-response","209","230488","0.0-209.0","31QTRG6Q2UZBZ3HGN8UHWLK3JZ9YPE","A3VDG4N48AVYGQ","379OL9DBSS0OLW3FFHTILCO0AJC9Y6","","","<img src=""img/flower6.png"" style=""width:200px; border:14px solid green;"">","null","","","","","",""
"405.30000001192093","","image-keyboard-response","210","230896","0.0-210.0","31QTRG6Q2UZBZ3HGN8UHWLK3JZ9YPE","A3VDG4N48AVYGQ","379OL9DBSS0OLW3FFHTILCO0AJC9Y6","","","img/flower6.png","75","406.89999997615814","2","1","2","0.8,0.2,0.2,0.2,0.8,0.2,0.2,0.2,0.8",""
"null","","html-keyboard-response","211","231213","0.0-211.0","31QTRG6Q2UZBZ3HGN8UHWLK3JZ9YPE","A3VDG4N48AVYGQ","379OL9DBSS0OLW3FFHTILCO0AJC9Y6","","","<img src=""img/flower6.png"" style=""width:200px; border:14px solid green;"">","null","","","","","",""
"649","","image-keyboard-response","212","231864","0.0-212.0","31QTRG6Q2UZBZ3HGN8UHWLK3JZ9YPE","A3VDG4N48AVYGQ","379OL9DBSS0OLW3FFHTILCO0AJC9Y6","","","img/flower1.png","74","650.3000000119209","1","0","1","0.8,0.2,0.2,0.2,0.8,0.2,0.2,0.2,0.8",""
"null","","html-keyboard-response","213","232173","0.0-213.0","31QTRG6Q2UZBZ3HGN8UHWLK3JZ9YPE","A3VDG4N48AVYGQ","379OL9DBSS0OLW3FFHTILCO0AJC9Y6","","","<img src=""img/flower1.png"" style=""width:200px;border:14px solid red;"">","null","","","","","",""
"1384.2999999523163","","image-keyboard-response","214","233559","0.0-214.0","31QTRG6Q2UZBZ3HGN8UHWLK3JZ9YPE","A3VDG4N48AVYGQ","379OL9DBSS0OLW3FFHTILCO0AJC9Y6","","","img/flower6.png","75","1385.6000000238419","2","1","2","0.8,0.2,0.2,0.2,0.8,0.2,0.2,0.2,0.8",""
"null","","html-keyboard-response","215","233875","0.0-215.0","31QTRG6Q2UZBZ3HGN8UHWLK3JZ9YPE","A3VDG4N48AVYGQ","379OL9DBSS0OLW3FFHTILCO0AJC9Y6","","","<img src=""img/flower6.png"" style=""width:200px; border:14px solid green;"">","null","","","","","",""
"418.4000000357628","","image-keyboard-response","216","234295","0.0-216.0","31QTRG6Q2UZBZ3HGN8UHWLK3JZ9YPE","A3VDG4N48AVYGQ","379OL9DBSS0OLW3FFHTILCO0AJC9Y6","","","img/flower6.png","75","419.7000000476837","2","0","2","0.8,0.2,0.2,0.2,0.8,0.2,0.2,0.2,0.8",""
"null","","html-keyboard-response","217","234598","0.0-217.0","31QTRG6Q2UZBZ3HGN8UHWLK3JZ9YPE","A3VDG4N48AVYGQ","379OL9DBSS0OLW3FFHTILCO0AJC9Y6","","","<img src=""img/flower6.png"" style=""width:200px;border:14px solid red;"">","null","","","","","",""
"1417.300000011921","","image-keyboard-response","218","236017","0.0-218.0","31QTRG6Q2UZBZ3HGN8UHWLK3JZ9YPE","A3VDG4N48AVYGQ","379OL9DBSS0OLW3FFHTILCO0AJC9Y6","","","img/flower6.png","75","1418.0999999642372","2","1","2","0.8,0.2,0.2,0.2,0.8,0.2,0.2,0.2,0.8",""
"null","","html-keyboard-response","219","236329","0.0-219.0","31QTRG6Q2UZBZ3HGN8UHWLK3JZ9YPE","A3VDG4N48AVYGQ","379OL9DBSS0OLW3FFHTILCO0AJC9Y6","","","<img src=""img/flower6.png"" style=""width:200px; border:14px solid green;"">","null","","","","","",""
"780.1000000238419","","image-keyboard-response","220","237111","0.0-220.0","31QTRG6Q2UZBZ3HGN8UHWLK3JZ9YPE","A3VDG4N48AVYGQ","379OL9DBSS0OLW3FFHTILCO0AJC9Y6","","","img/flower9.png","76","781.3999999761581","3","0","3","0.8,0.2,0.2,0.2,0.8,0.2,0.2,0.2,0.8",""
"null","","html-keyboard-response","221","237415","0.0-221.0","31QTRG6Q2UZBZ3HGN8UHWLK3JZ9YPE","A3VDG4N48AVYGQ","379OL9DBSS0OLW3FFHTILCO0AJC9Y6","","","<img src=""img/flower9.png"" style=""width:200px;border:14px solid red;"">","null","","","","","",""
"1902.800000011921","","image-keyboard-response","222","239320","0.0-222.0","31QTRG6Q2UZBZ3HGN8UHWLK3JZ9YPE","A3VDG4N48AVYGQ","379OL9DBSS0OLW3FFHTILCO0AJC9Y6","","","img/flower1.png","74","1904.0999999642372","1","1","1","0.8,0.2,0.2,0.2,0.8,0.2,0.2,0.2,0.8",""
"null","","html-keyboard-response","223","239627","0.0-223.0","31QTRG6Q2UZBZ3HGN8UHWLK3JZ9YPE","A3VDG4N48AVYGQ","379OL9DBSS0OLW3FFHTILCO0AJC9Y6","","","<img src=""img/flower1.png"" style=""width:200px; border:14px solid green;"">","null","","","","","",""
"676.3000000119209","","image-keyboard-response","224","240304","0.0-224.0","31QTRG6Q2UZBZ3HGN8UHWLK3JZ9YPE","A3VDG4N48AVYGQ","379OL9DBSS0OLW3FFHTILCO0AJC9Y6","","","img/flower9.png","76","677.1999999880791","3","1","3","0.8,0.2,0.2,0.2,0.8,0.2,0.2,0.2,0.8",""
"null","","html-keyboard-response","225","240621","0.0-225.0","31QTRG6Q2UZBZ3HGN8UHWLK3JZ9YPE","A3VDG4N48AVYGQ","379OL9DBSS0OLW3FFHTILCO0AJC9Y6","","","<img src=""img/flower9.png"" style=""width:200px; border:14px solid green;"">","null","","","","","",""
"465.80000001192093","","image-keyboard-response","226","241088","0.0-226.0","31QTRG6Q2UZBZ3HGN8UHWLK3JZ9YPE","A3VDG4N48AVYGQ","379OL9DBSS0OLW3FFHTILCO0AJC9Y6","","","img/flower9.png","76","467","3","1","3","0.8,0.2,0.2,0.2,0.8,0.2,0.2,0.2,0.8",""
"null","","html-keyboard-response","227","241399","0.0-227.0","31QTRG6Q2UZBZ3HGN8UHWLK3JZ9YPE","A3VDG4N48AVYGQ","379OL9DBSS0OLW3FFHTILCO0AJC9Y6","","","<img src=""img/flower9.png"" style=""width:200px; border:14px solid green;"">","null","","","","","",""
"479.30000001192093","","image-keyboard-response","228","241880","0.0-228.0","31QTRG6Q2UZBZ3HGN8UHWLK3JZ9YPE","A3VDG4N48AVYGQ","379OL9DBSS0OLW3FFHTILCO0AJC9Y6","","","img/flower9.png","76","480.5","3","1","3","0.8,0.2,0.2,0.2,0.8,0.2,0.2,0.2,0.8",""
"null","","html-keyboard-response","229","242187","0.0-229.0","31QTRG6Q2UZBZ3HGN8UHWLK3JZ9YPE","A3VDG4N48AVYGQ","379OL9DBSS0OLW3FFHTILCO0AJC9Y6","","","<img src=""img/flower9.png"" style=""width:200px; border:14px solid green;"">","null","","","","","",""
"602.9000000357628","","image-keyboard-response","230","242792","0.0-230.0","31QTRG6Q2UZBZ3HGN8UHWLK3JZ9YPE","A3VDG4N48AVYGQ","379OL9DBSS0OLW3FFHTILCO0AJC9Y6","","","img/flower1.png","74","604.3000000119209","1","1","1","0.8,0.2,0.2,0.2,0.8,0.2,0.2,0.2,0.8",""
"null","","html-keyboard-response","231","243098","0.0-231.0","31QTRG6Q2UZBZ3HGN8UHWLK3JZ9YPE","A3VDG4N48AVYGQ","379OL9DBSS0OLW3FFHTILCO0AJC9Y6","","","<img src=""img/flower1.png"" style=""width:200px; border:14px solid green;"">","null","","","","","",""
"492","","image-keyboard-response","232","243592","0.0-232.0","31QTRG6Q2UZBZ3HGN8UHWLK3JZ9YPE","A3VDG4N48AVYGQ","379OL9DBSS0OLW3FFHTILCO0AJC9Y6","","","img/flower1.png","74","493.19999998807907","1","1","1","0.8,0.2,0.2,0.2,0.8,0.2,0.2,0.2,0.8",""
"null","","html-keyboard-response","233","243900","0.0-233.0","31QTRG6Q2UZBZ3HGN8UHWLK3JZ9YPE","A3VDG4N48AVYGQ","379OL9DBSS0OLW3FFHTILCO0AJC9Y6","","","<img src=""img/flower1.png"" style=""width:200px; border:14px solid green;"">","null","","","","","",""
"607.8999999761581","","image-keyboard-response","234","244509","0.0-234.0","31QTRG6Q2UZBZ3HGN8UHWLK3JZ9YPE","A3VDG4N48AVYGQ","379OL9DBSS0OLW3FFHTILCO0AJC9Y6","","","img/flower6.png","75","609.4000000357628","2","1","2","0.8,0.2,0.2,0.2,0.8,0.2,0.2,0.2,0.8",""
"null","","html-keyboard-response","235","244825","0.0-235.0","31QTRG6Q2UZBZ3HGN8UHWLK3JZ9YPE","A3VDG4N48AVYGQ","379OL9DBSS0OLW3FFHTILCO0AJC9Y6","","","<img src=""img/flower6.png"" style=""width:200px; border:14px solid green;"">","null","","","","","",""
"605.7000000476837","","image-keyboard-response","236","245432","0.0-236.0","31QTRG6Q2UZBZ3HGN8UHWLK3JZ9YPE","A3VDG4N48AVYGQ","379OL9DBSS0OLW3FFHTILCO0AJC9Y6","","","img/flower1.png","74","606.8000000119209","1","1","1","0.8,0.2,0.2,0.2,0.8,0.2,0.2,0.2,0.8",""
"null","","html-keyboard-response","237","245739","0.0-237.0","31QTRG6Q2UZBZ3HGN8UHWLK3JZ9YPE","A3VDG4N48AVYGQ","379OL9DBSS0OLW3FFHTILCO0AJC9Y6","","","<img src=""img/flower1.png"" style=""width:200px; border:14px solid green;"">","null","","","","","",""
"532","","image-keyboard-response","238","246272","0.0-238.0","31QTRG6Q2UZBZ3HGN8UHWLK3JZ9YPE","A3VDG4N48AVYGQ","379OL9DBSS0OLW3FFHTILCO0AJC9Y6","","","img/flower1.png","74","533.2999999523163","1","1","1","0.8,0.2,0.2,0.2,0.8,0.2,0.2,0.2,0.8",""
"null","","html-keyboard-response","239","246587","0.0-239.0","31QTRG6Q2UZBZ3HGN8UHWLK3JZ9YPE","A3VDG4N48AVYGQ","379OL9DBSS0OLW3FFHTILCO0AJC9Y6","","","<img src=""img/flower1.png"" style=""width:200px; border:14px solid green;"">","null","","","","","",""
"459.30000001192093","","image-keyboard-response","240","247048","0.0-240.0","31QTRG6Q2UZBZ3HGN8UHWLK3JZ9YPE","A3VDG4N48AVYGQ","379OL9DBSS0OLW3FFHTILCO0AJC9Y6","","","img/flower1.png","74","460.5","1","0","1","0.8,0.2,0.2,0.2,0.8,0.2,0.2,0.2,0.8",""
"null","","html-keyboard-response","241","247355","0.0-241.0","31QTRG6Q2UZBZ3HGN8UHWLK3JZ9YPE","A3VDG4N48AVYGQ","379OL9DBSS0OLW3FFHTILCO0AJC9Y6","","","<img src=""img/flower1.png"" style=""width:200px;border:14px solid red;"">","null","","","","","",""
"819.8000000119209","","image-keyboard-response","242","248176","0.0-242.0","31QTRG6Q2UZBZ3HGN8UHWLK3JZ9YPE","A3VDG4N48AVYGQ","379OL9DBSS0OLW3FFHTILCO0AJC9Y6","","","img/flower9.png","76","820.6999999880791","3","1","3","0.8,0.2,0.2,0.2,0.8,0.2,0.2,0.2,0.8",""
"null","","html-keyboard-response","243","248493","0.0-243.0","31QTRG6Q2UZBZ3HGN8UHWLK3JZ9YPE","A3VDG4N48AVYGQ","379OL9DBSS0OLW3FFHTILCO0AJC9Y6","","","<img src=""img/flower9.png"" style=""width:200px; border:14px solid green;"">","null","","","","","",""
"352.89999997615814","","image-keyboard-response","244","248848","0.0-244.0","31QTRG6Q2UZBZ3HGN8UHWLK3JZ9YPE","A3VDG4N48AVYGQ","379OL9DBSS0OLW3FFHTILCO0AJC9Y6","","","img/flower9.png","76","354.69999998807907","3","1","3","0.8,0.2,0.2,0.2,0.8,0.2,0.2,0.2,0.8",""
"null","","html-keyboard-response","245","249154","0.0-245.0","31QTRG6Q2UZBZ3HGN8UHWLK3JZ9YPE","A3VDG4N48AVYGQ","379OL9DBSS0OLW3FFHTILCO0AJC9Y6","","","<img src=""img/flower9.png"" style=""width:200px; border:14px solid green;"">","null","","","","","",""
"556.5","","image-keyboard-response","246","249712","0.0-246.0","31QTRG6Q2UZBZ3HGN8UHWLK3JZ9YPE","A3VDG4N48AVYGQ","379OL9DBSS0OLW3FFHTILCO0AJC9Y6","","","img/flower9.png","76","557.8000000119209","3","0","3","0.8,0.2,0.2,0.2,0.8,0.2,0.2,0.2,0.8",""
"null","","html-keyboard-response","247","250019","0.0-247.0","31QTRG6Q2UZBZ3HGN8UHWLK3JZ9YPE","A3VDG4N48AVYGQ","379OL9DBSS0OLW3FFHTILCO0AJC9Y6","","","<img src=""img/flower9.png"" style=""width:200px;border:14px solid red;"">","null","","","","","",""
"756","","image-keyboard-response","248","250776","0.0-248.0","31QTRG6Q2UZBZ3HGN8UHWLK3JZ9YPE","A3VDG4N48AVYGQ","379OL9DBSS0OLW3FFHTILCO0AJC9Y6","","","img/flower6.png","75","757.1999999880791","2","1","2","0.8,0.2,0.2,0.2,0.8,0.2,0.2,0.2,0.8",""
"null","","html-keyboard-response","249","251091","0.0-249.0","31QTRG6Q2UZBZ3HGN8UHWLK3JZ9YPE","A3VDG4N48AVYGQ","379OL9DBSS0OLW3FFHTILCO0AJC9Y6","","","<img src=""img/flower6.png"" style=""width:200px; border:14px solid green;"">","null","","","","","",""
"762.8999999761581","","image-keyboard-response","250","251855","0.0-250.0","31QTRG6Q2UZBZ3HGN8UHWLK3JZ9YPE","A3VDG4N48AVYGQ","379OL9DBSS0OLW3FFHTILCO0AJC9Y6","","","img/flower1.png","74","764.1999999880791","1","1","1","0.8,0.2,0.2,0.2,0.8,0.2,0.2,0.2,0.8",""
"null","","html-keyboard-response","251","252161","0.0-251.0","31QTRG6Q2UZBZ3HGN8UHWLK3JZ9YPE","A3VDG4N48AVYGQ","379OL9DBSS0OLW3FFHTILCO0AJC9Y6","","","<img src=""img/flower1.png"" style=""width:200px; border:14px solid green;"">","null","","","","","",""
"521.5","","image-keyboard-response","252","252684","0.0-252.0","31QTRG6Q2UZBZ3HGN8UHWLK3JZ9YPE","A3VDG4N48AVYGQ","379OL9DBSS0OLW3FFHTILCO0AJC9Y6","","","img/flower1.png","74","522.6999999880791","1","1","1","0.8,0.2,0.2,0.2,0.8,0.2,0.2,0.2,0.8",""
"null","","html-keyboard-response","253","252994","0.0-253.0","31QTRG6Q2UZBZ3HGN8UHWLK3JZ9YPE","A3VDG4N48AVYGQ","379OL9DBSS0OLW3FFHTILCO0AJC9Y6","","","<img src=""img/flower1.png"" style=""width:200px; border:14px solid green;"">","null","","","","","",""
"688","","image-keyboard-response","254","253684","0.0-254.0","31QTRG6Q2UZBZ3HGN8UHWLK3JZ9YPE","A3VDG4N48AVYGQ","379OL9DBSS0OLW3FFHTILCO0AJC9Y6","","","img/flower6.png","75","689.3999999761581","2","0","2","0.8,0.2,0.2,0.2,0.8,0.2,0.2,0.2,0.8",""
"null","","html-keyboard-response","255","254000","0.0-255.0","31QTRG6Q2UZBZ3HGN8UHWLK3JZ9YPE","A3VDG4N48AVYGQ","379OL9DBSS0OLW3FFHTILCO0AJC9Y6","","","<img src=""img/flower6.png"" style=""width:200px;border:14px solid red;"">","null","","","","","",""
"500.89999997615814","","image-keyboard-response","256","254502","0.0-256.0","31QTRG6Q2UZBZ3HGN8UHWLK3JZ9YPE","A3VDG4N48AVYGQ","379OL9DBSS0OLW3FFHTILCO0AJC9Y6","","","img/flower6.png","75","502.10000002384186","2","1","2","0.8,0.2,0.2,0.2,0.8,0.2,0.2,0.2,0.8",""
"null","","html-keyboard-response","257","254814","0.0-257.0","31QTRG6Q2UZBZ3HGN8UHWLK3JZ9YPE","A3VDG4N48AVYGQ","379OL9DBSS0OLW3FFHTILCO0AJC9Y6","","","<img src=""img/flower6.png"" style=""width:200px; border:14px solid green;"">","null","","","","","",""
"719.1999999880791","","image-keyboard-response","258","255535","0.0-258.0","31QTRG6Q2UZBZ3HGN8UHWLK3JZ9YPE","A3VDG4N48AVYGQ","379OL9DBSS0OLW3FFHTILCO0AJC9Y6","","","img/flower1.png","74","720.6000000238419","1","1","1","0.8,0.2,0.2,0.2,0.8,0.2,0.2,0.2,0.8",""
"null","","html-keyboard-response","259","255853","0.0-259.0","31QTRG6Q2UZBZ3HGN8UHWLK3JZ9YPE","A3VDG4N48AVYGQ","379OL9DBSS0OLW3FFHTILCO0AJC9Y6","","","<img src=""img/flower1.png"" style=""width:200px; border:14px solid green;"">","null","","","","","",""
"629.4000000357628","","image-keyboard-response","260","256484","0.0-260.0","31QTRG6Q2UZBZ3HGN8UHWLK3JZ9YPE","A3VDG4N48AVYGQ","379OL9DBSS0OLW3FFHTILCO0AJC9Y6","","","img/flower6.png","76","630.7999999523163","3","0","2","0.8,0.2,0.2,0.2,0.8,0.2,0.2,0.2,0.8",""
"null","","html-keyboard-response","261","256801","0.0-261.0","31QTRG6Q2UZBZ3HGN8UHWLK3JZ9YPE","A3VDG4N48AVYGQ","379OL9DBSS0OLW3FFHTILCO0AJC9Y6","","","<img src=""img/flower6.png"" style=""width:200px;border:14px solid red;"">","null","","","","","",""
"1433.4000000357628","","image-keyboard-response","262","258236","0.0-262.0","31QTRG6Q2UZBZ3HGN8UHWLK3JZ9YPE","A3VDG4N48AVYGQ","379OL9DBSS0OLW3FFHTILCO0AJC9Y6","","","img/flower1.png","74","1434.699999988079","1","1","1","0.8,0.2,0.2,0.2,0.8,0.2,0.2,0.2,0.8",""
"null","","html-keyboard-response","263","258539","0.0-263.0","31QTRG6Q2UZBZ3HGN8UHWLK3JZ9YPE","A3VDG4N48AVYGQ","379OL9DBSS0OLW3FFHTILCO0AJC9Y6","","","<img src=""img/flower1.png"" style=""width:200px; border:14px solid green;"">","null","","","","","",""
"735.1000000238419","","image-keyboard-response","264","259275","0.0-264.0","31QTRG6Q2UZBZ3HGN8UHWLK3JZ9YPE","A3VDG4N48AVYGQ","379OL9DBSS0OLW3FFHTILCO0AJC9Y6","","","img/flower9.png","76","736.3000000119209","3","1","3","0.8,0.2,0.2,0.2,0.8,0.2,0.2,0.2,0.8",""
"null","","html-keyboard-response","265","259578","0.0-265.0","31QTRG6Q2UZBZ3HGN8UHWLK3JZ9YPE","A3VDG4N48AVYGQ","379OL9DBSS0OLW3FFHTILCO0AJC9Y6","","","<img src=""img/flower9.png"" style=""width:200px; border:14px solid green;"">","null","","","","","",""
"2137.600000023842","","image-keyboard-response","266","261716","0.0-266.0","31QTRG6Q2UZBZ3HGN8UHWLK3JZ9YPE","A3VDG4N48AVYGQ","379OL9DBSS0OLW3FFHTILCO0AJC9Y6","","","img/flower1.png","74","2138.400000035763","1","0","1","0.8,0.2,0.2,0.2,0.8,0.2,0.2,0.2,0.8",""
"null","","html-keyboard-response","267","262019","0.0-267.0","31QTRG6Q2UZBZ3HGN8UHWLK3JZ9YPE","A3VDG4N48AVYGQ","379OL9DBSS0OLW3FFHTILCO0AJC9Y6","","","<img src=""img/flower1.png"" style=""width:200px;border:14px solid red;"">","null","","","","","",""
"475.5","","image-keyboard-response","268","262496","0.0-268.0","31QTRG6Q2UZBZ3HGN8UHWLK3JZ9YPE","A3VDG4N48AVYGQ","379OL9DBSS0OLW3FFHTILCO0AJC9Y6","","","img/flower1.png","74","476.69999998807907","1","1","1","0.8,0.2,0.2,0.2,0.8,0.2,0.2,0.2,0.8",""
"null","","html-keyboard-response","269","262807","0.0-269.0","31QTRG6Q2UZBZ3HGN8UHWLK3JZ9YPE","A3VDG4N48AVYGQ","379OL9DBSS0OLW3FFHTILCO0AJC9Y6","","","<img src=""img/flower1.png"" style=""width:200px; border:14px solid green;"">","null","","","","","",""
"694.5","","image-keyboard-response","270","263503","0.0-270.0","31QTRG6Q2UZBZ3HGN8UHWLK3JZ9YPE","A3VDG4N48AVYGQ","379OL9DBSS0OLW3FFHTILCO0AJC9Y6","","","img/flower6.png","75","695.6999999880791","2","1","2","0.8,0.2,0.2,0.2,0.8,0.2,0.2,0.2,0.8",""
"null","","html-keyboard-response","271","263813","0.0-271.0","31QTRG6Q2UZBZ3HGN8UHWLK3JZ9YPE","A3VDG4N48AVYGQ","379OL9DBSS0OLW3FFHTILCO0AJC9Y6","","","<img src=""img/flower6.png"" style=""width:200px; border:14px solid green;"">","null","","","","","",""
"604.8000000119209","","image-keyboard-response","272","264420","0.0-272.0","31QTRG6Q2UZBZ3HGN8UHWLK3JZ9YPE","A3VDG4N48AVYGQ","379OL9DBSS0OLW3FFHTILCO0AJC9Y6","","","img/flower9.png","76","606.1000000238419","3","1","3","0.8,0.2,0.2,0.2,0.8,0.2,0.2,0.2,0.8",""
"null","","html-keyboard-response","273","264722","0.0-273.0","31QTRG6Q2UZBZ3HGN8UHWLK3JZ9YPE","A3VDG4N48AVYGQ","379OL9DBSS0OLW3FFHTILCO0AJC9Y6","","","<img src=""img/flower9.png"" style=""width:200px; border:14px solid green;"">","null","","","","","",""
"663.6999999880791","","image-keyboard-response","274","265388","0.0-274.0","31QTRG6Q2UZBZ3HGN8UHWLK3JZ9YPE","A3VDG4N48AVYGQ","379OL9DBSS0OLW3FFHTILCO0AJC9Y6","","","img/flower6.png","75","665","2","0","2","0.8,0.2,0.2,0.2,0.8,0.2,0.2,0.2,0.8",""
"null","","html-keyboard-response","275","265695","0.0-275.0","31QTRG6Q2UZBZ3HGN8UHWLK3JZ9YPE","A3VDG4N48AVYGQ","379OL9DBSS0OLW3FFHTILCO0AJC9Y6","","","<img src=""img/flower6.png"" style=""width:200px;border:14px solid red;"">","null","","","","","",""
"395.60000002384186","","image-keyboard-response","276","266092","0.0-276.0","31QTRG6Q2UZBZ3HGN8UHWLK3JZ9YPE","A3VDG4N48AVYGQ","379OL9DBSS0OLW3FFHTILCO0AJC9Y6","","","img/flower6.png","75","397","2","1","2","0.8,0.2,0.2,0.2,0.8,0.2,0.2,0.2,0.8",""
"null","","html-keyboard-response","277","266403","0.0-277.0","31QTRG6Q2UZBZ3HGN8UHWLK3JZ9YPE","A3VDG4N48AVYGQ","379OL9DBSS0OLW3FFHTILCO0AJC9Y6","","","<img src=""img/flower6.png"" style=""width:200px; border:14px solid green;"">","null","","","","","",""
"391.60000002384186","","image-keyboard-response","278","266796","0.0-278.0","31QTRG6Q2UZBZ3HGN8UHWLK3JZ9YPE","A3VDG4N48AVYGQ","379OL9DBSS0OLW3FFHTILCO0AJC9Y6","","","img/flower6.png","75","393","2","0","2","0.8,0.2,0.2,0.2,0.8,0.2,0.2,0.2,0.8",""
"null","","html-keyboard-response","279","267108","0.0-279.0","31QTRG6Q2UZBZ3HGN8UHWLK3JZ9YPE","A3VDG4N48AVYGQ","379OL9DBSS0OLW3FFHTILCO0AJC9Y6","","","<img src=""img/flower6.png"" style=""width:200px;border:14px solid red;"">","null","","","","","",""
"405.5","","image-keyboard-response","280","267516","0.0-280.0","31QTRG6Q2UZBZ3HGN8UHWLK3JZ9YPE","A3VDG4N48AVYGQ","379OL9DBSS0OLW3FFHTILCO0AJC9Y6","","","img/flower6.png","75","407","2","1","2","0.8,0.2,0.2,0.2,0.8,0.2,0.2,0.2,0.8",""
"null","","html-keyboard-response","281","267819","0.0-281.0","31QTRG6Q2UZBZ3HGN8UHWLK3JZ9YPE","A3VDG4N48AVYGQ","379OL9DBSS0OLW3FFHTILCO0AJC9Y6","","","<img src=""img/flower6.png"" style=""width:200px; border:14px solid green;"">","null","","","","","",""
"732","","image-keyboard-response","282","268552","0.0-282.0","31QTRG6Q2UZBZ3HGN8UHWLK3JZ9YPE","A3VDG4N48AVYGQ","379OL9DBSS0OLW3FFHTILCO0AJC9Y6","","","img/flower1.png","74","733","1","1","1","0.8,0.2,0.2,0.2,0.8,0.2,0.2,0.2,0.8",""
"null","","html-keyboard-response","283","268857","0.0-283.0","31QTRG6Q2UZBZ3HGN8UHWLK3JZ9YPE","A3VDG4N48AVYGQ","379OL9DBSS0OLW3FFHTILCO0AJC9Y6","","","<img src=""img/flower1.png"" style=""width:200px; border:14px solid green;"">","null","","","","","",""
"641.0999999642372","","image-keyboard-response","284","269500","0.0-284.0","31QTRG6Q2UZBZ3HGN8UHWLK3JZ9YPE","A3VDG4N48AVYGQ","379OL9DBSS0OLW3FFHTILCO0AJC9Y6","","","img/flower6.png","75","642.5","2","1","2","0.8,0.2,0.2,0.2,0.8,0.2,0.2,0.2,0.8",""
"null","","html-keyboard-response","285","269813","0.0-285.0","31QTRG6Q2UZBZ3HGN8UHWLK3JZ9YPE","A3VDG4N48AVYGQ","379OL9DBSS0OLW3FFHTILCO0AJC9Y6","","","<img src=""img/flower6.png"" style=""width:200px; border:14px solid green;"">","null","","","","","",""
"675.1999999880791","","image-keyboard-response","286","270490","0.0-286.0","31QTRG6Q2UZBZ3HGN8UHWLK3JZ9YPE","A3VDG4N48AVYGQ","379OL9DBSS0OLW3FFHTILCO0AJC9Y6","","","img/flower9.png","76","676.7999999523163","3","1","3","0.8,0.2,0.2,0.2,0.8,0.2,0.2,0.2,0.8",""
"null","","html-keyboard-response","287","270804","0.0-287.0","31QTRG6Q2UZBZ3HGN8UHWLK3JZ9YPE","A3VDG4N48AVYGQ","379OL9DBSS0OLW3FFHTILCO0AJC9Y6","","","<img src=""img/flower9.png"" style=""width:200px; border:14px solid green;"">","null","","","","","",""
"572.0999999642372","","image-keyboard-response","288","271377","0.0-288.0","31QTRG6Q2UZBZ3HGN8UHWLK3JZ9YPE","A3VDG4N48AVYGQ","379OL9DBSS0OLW3FFHTILCO0AJC9Y6","","","img/flower6.png","75","573.1999999880791","2","1","2","0.8,0.2,0.2,0.2,0.8,0.2,0.2,0.2,0.8",""
"null","","html-keyboard-response","289","271689","0.0-289.0","31QTRG6Q2UZBZ3HGN8UHWLK3JZ9YPE","A3VDG4N48AVYGQ","379OL9DBSS0OLW3FFHTILCO0AJC9Y6","","","<img src=""img/flower6.png"" style=""width:200px; border:14px solid green;"">","null","","","","","",""
"769","","image-keyboard-response","290","272460","0.0-290.0","31QTRG6Q2UZBZ3HGN8UHWLK3JZ9YPE","A3VDG4N48AVYGQ","379OL9DBSS0OLW3FFHTILCO0AJC9Y6","","","img/flower9.png","76","770.5","3","0","3","0.8,0.2,0.2,0.2,0.8,0.2,0.2,0.2,0.8",""
"null","","html-keyboard-response","291","272762","0.0-291.0","31QTRG6Q2UZBZ3HGN8UHWLK3JZ9YPE","A3VDG4N48AVYGQ","379OL9DBSS0OLW3FFHTILCO0AJC9Y6","","","<img src=""img/flower9.png"" style=""width:200px;border:14px solid red;"">","null","","","","","",""
"504.30000001192093","","image-keyboard-response","292","273268","0.0-292.0","31QTRG6Q2UZBZ3HGN8UHWLK3JZ9YPE","A3VDG4N48AVYGQ","379OL9DBSS0OLW3FFHTILCO0AJC9Y6","","","img/flower6.png","75","505.5","2","1","2","0.8,0.2,0.2,0.2,0.8,0.2,0.2,0.2,0.8",""
"null","","html-keyboard-response","293","273583","0.0-293.0","31QTRG6Q2UZBZ3HGN8UHWLK3JZ9YPE","A3VDG4N48AVYGQ","379OL9DBSS0OLW3FFHTILCO0AJC9Y6","","","<img src=""img/flower6.png"" style=""width:200px; border:14px solid green;"">","null","","","","","",""
"498.69999998807907","","image-keyboard-response","294","274084","0.0-294.0","31QTRG6Q2UZBZ3HGN8UHWLK3JZ9YPE","A3VDG4N48AVYGQ","379OL9DBSS0OLW3FFHTILCO0AJC9Y6","","","img/flower6.png","75","500.10000002384186","2","1","2","0.8,0.2,0.2,0.2,0.8,0.2,0.2,0.2,0.8",""
"null","","html-keyboard-response","295","274399","0.0-295.0","31QTRG6Q2UZBZ3HGN8UHWLK3JZ9YPE","A3VDG4N48AVYGQ","379OL9DBSS0OLW3FFHTILCO0AJC9Y6","","","<img src=""img/flower6.png"" style=""width:200px; border:14px solid green;"">","null","","","","","",""
"570.6999999880791","","image-keyboard-response","296","274971","0.0-296.0","31QTRG6Q2UZBZ3HGN8UHWLK3JZ9YPE","A3VDG4N48AVYGQ","379OL9DBSS0OLW3FFHTILCO0AJC9Y6","","","img/flower9.png","76","572","3","1","3","0.8,0.2,0.2,0.2,0.8,0.2,0.2,0.2,0.8",""
"null","","html-keyboard-response","297","275277","0.0-297.0","31QTRG6Q2UZBZ3HGN8UHWLK3JZ9YPE","A3VDG4N48AVYGQ","379OL9DBSS0OLW3FFHTILCO0AJC9Y6","","","<img src=""img/flower9.png"" style=""width:200px; border:14px solid green;"">","null","","","","","",""
"341.7999999523163","","image-keyboard-response","298","275620","0.0-298.0","31QTRG6Q2UZBZ3HGN8UHWLK3JZ9YPE","A3VDG4N48AVYGQ","379OL9DBSS0OLW3FFHTILCO0AJC9Y6","","","img/flower9.png","76","343.19999998807907","3","0","3","0.8,0.2,0.2,0.2,0.8,0.2,0.2,0.2,0.8",""
"null","","html-keyboard-response","299","275923","0.0-299.0","31QTRG6Q2UZBZ3HGN8UHWLK3JZ9YPE","A3VDG4N48AVYGQ","379OL9DBSS0OLW3FFHTILCO0AJC9Y6","","","<img src=""img/flower9.png"" style=""width:200px;border:14px solid red;"">","null","","","","","",""
"831.3000000119209","","image-keyboard-response","300","276756","0.0-300.0","31QTRG6Q2UZBZ3HGN8UHWLK3JZ9YPE","A3VDG4N48AVYGQ","379OL9DBSS0OLW3FFHTILCO0AJC9Y6","","","img/flower6.png","75","832.6000000238419","2","0","2","0.8,0.2,0.2,0.2,0.8,0.2,0.2,0.2,0.8",""
"null","","html-keyboard-response","301","277058","0.0-301.0","31QTRG6Q2UZBZ3HGN8UHWLK3JZ9YPE","A3VDG4N48AVYGQ","379OL9DBSS0OLW3FFHTILCO0AJC9Y6","","","<img src=""img/flower6.png"" style=""width:200px;border:14px solid red;"">","null","","","","","",""
"240.80000001192093","","image-keyboard-response","302","277301","0.0-302.0","31QTRG6Q2UZBZ3HGN8UHWLK3JZ9YPE","A3VDG4N48AVYGQ","379OL9DBSS0OLW3FFHTILCO0AJC9Y6","","","img/flower9.png","75","242.0999999642372","2","0","3","0.8,0.2,0.2,0.2,0.8,0.2,0.2,0.2,0.8",""
"null","","html-keyboard-response","303","277609","0.0-303.0","31QTRG6Q2UZBZ3HGN8UHWLK3JZ9YPE","A3VDG4N48AVYGQ","379OL9DBSS0OLW3FFHTILCO0AJC9Y6","","","<img src=""img/flower9.png"" style=""width:200px;border:14px solid red;"">","null","","","","","",""
"657.3999999761581","","image-keyboard-response","304","278268","0.0-304.0","31QTRG6Q2UZBZ3HGN8UHWLK3JZ9YPE","A3VDG4N48AVYGQ","379OL9DBSS0OLW3FFHTILCO0AJC9Y6","","","img/flower9.png","76","658.7000000476837","3","1","3","0.8,0.2,0.2,0.2,0.8,0.2,0.2,0.2,0.8",""
"null","","html-keyboard-response","305","278571","0.0-305.0","31QTRG6Q2UZBZ3HGN8UHWLK3JZ9YPE","A3VDG4N48AVYGQ","379OL9DBSS0OLW3FFHTILCO0AJC9Y6","","","<img src=""img/flower9.png"" style=""width:200px; border:14px solid green;"">","null","","","","","",""
"","","html-keyboard-response","306","289465","0.0-306.0","31QTRG6Q2UZBZ3HGN8UHWLK3JZ9YPE","A3VDG4N48AVYGQ","379OL9DBSS0OLW3FFHTILCO0AJC9Y6","","","","","","","","","",""
"1746.300000011921","","image-keyboard-response","307","291213","0.0-307.0","31QTRG6Q2UZBZ3HGN8UHWLK3JZ9YPE","A3VDG4N48AVYGQ","379OL9DBSS0OLW3FFHTILCO0AJC9Y6","","","img/flower8.png","76","1747.5","3","1","3","0.8,0.8,0.2,0.2,0.8,0.8,0.8,0.2,0.8",""
"null","","html-keyboard-response","308","291526","0.0-308.0","31QTRG6Q2UZBZ3HGN8UHWLK3JZ9YPE","A3VDG4N48AVYGQ","379OL9DBSS0OLW3FFHTILCO0AJC9Y6","","","<img src=""img/flower8.png"" style=""width:200px; border:14px solid green;"">","null","","","","","",""
"2488.900000035763","","image-keyboard-response","309","294016","0.0-309.0","31QTRG6Q2UZBZ3HGN8UHWLK3JZ9YPE","A3VDG4N48AVYGQ","379OL9DBSS0OLW3FFHTILCO0AJC9Y6","","","img/flower4.png","75","2490.300000011921","2","1","1","0.8,0.8,0.2,0.2,0.8,0.8,0.8,0.2,0.8",""
"null","","html-keyboard-response","310","294325","0.0-310.0","31QTRG6Q2UZBZ3HGN8UHWLK3JZ9YPE","A3VDG4N48AVYGQ","379OL9DBSS0OLW3FFHTILCO0AJC9Y6","","","<img src=""img/flower4.png"" style=""width:200px; border:14px solid green;"">","null","","","","","",""
"1121","","image-keyboard-response","311","295447","0.0-311.0","31QTRG6Q2UZBZ3HGN8UHWLK3JZ9YPE","A3VDG4N48AVYGQ","379OL9DBSS0OLW3FFHTILCO0AJC9Y6","","","img/flower4.png","75","1122.2999999523163","2","1","1","0.8,0.8,0.2,0.2,0.8,0.8,0.8,0.2,0.8",""
"null","","html-keyboard-response","312","295761","0.0-312.0","31QTRG6Q2UZBZ3HGN8UHWLK3JZ9YPE","A3VDG4N48AVYGQ","379OL9DBSS0OLW3FFHTILCO0AJC9Y6","","","<img src=""img/flower4.png"" style=""width:200px; border:14px solid green;"">","null","","","","","",""
"677.3000000119209","","image-keyboard-response","313","296440","0.0-313.0","31QTRG6Q2UZBZ3HGN8UHWLK3JZ9YPE","A3VDG4N48AVYGQ","379OL9DBSS0OLW3FFHTILCO0AJC9Y6","","","img/flower7.png","74","678.6000000238419","1","0","2","0.8,0.8,0.2,0.2,0.8,0.8,0.8,0.2,0.8",""
"null","","html-keyboard-response","314","296745","0.0-314.0","31QTRG6Q2UZBZ3HGN8UHWLK3JZ9YPE","A3VDG4N48AVYGQ","379OL9DBSS0OLW3FFHTILCO0AJC9Y6","","","<img src=""img/flower7.png"" style=""width:200px;border:14px solid red;"">","null","","","","","",""
"1141.300000011921","","image-keyboard-response","315","297888","0.0-315.0","31QTRG6Q2UZBZ3HGN8UHWLK3JZ9YPE","A3VDG4N48AVYGQ","379OL9DBSS0OLW3FFHTILCO0AJC9Y6","","","img/flower8.png","76","1142.5","3","1","3","0.8,0.8,0.2,0.2,0.8,0.8,0.8,0.2,0.8",""
"null","","html-keyboard-response","316","298206","0.0-316.0","31QTRG6Q2UZBZ3HGN8UHWLK3JZ9YPE","A3VDG4N48AVYGQ","379OL9DBSS0OLW3FFHTILCO0AJC9Y6","","","<img src=""img/flower8.png"" style=""width:200px; border:14px solid green;"">","null","","","","","",""
"872.9000000357628","","image-keyboard-response","317","299080","0.0-317.0","31QTRG6Q2UZBZ3HGN8UHWLK3JZ9YPE","A3VDG4N48AVYGQ","379OL9DBSS0OLW3FFHTILCO0AJC9Y6","","","img/flower7.png","76","874.3000000119209","3","1","2","0.8,0.8,0.2,0.2,0.8,0.8,0.8,0.2,0.8",""
"null","","html-keyboard-response","318","299394","0.0-318.0","31QTRG6Q2UZBZ3HGN8UHWLK3JZ9YPE","A3VDG4N48AVYGQ","379OL9DBSS0OLW3FFHTILCO0AJC9Y6","","","<img src=""img/flower7.png"" style=""width:200px; border:14px solid green;"">","null","","","","","",""
"796.8000000119209","","image-keyboard-response","319","300192","0.0-319.0","31QTRG6Q2UZBZ3HGN8UHWLK3JZ9YPE","A3VDG4N48AVYGQ","379OL9DBSS0OLW3FFHTILCO0AJC9Y6","","","img/flower7.png","76","798.1999999880791","3","0","2","0.8,0.8,0.2,0.2,0.8,0.8,0.8,0.2,0.8",""
"null","","html-keyboard-response","320","300494","0.0-320.0","31QTRG6Q2UZBZ3HGN8UHWLK3JZ9YPE","A3VDG4N48AVYGQ","379OL9DBSS0OLW3FFHTILCO0AJC9Y6","","","<img src=""img/flower7.png"" style=""width:200px;border:14px solid red;"">","null","","","","","",""
"657.5","","image-keyboard-response","321","301153","0.0-321.0","31QTRG6Q2UZBZ3HGN8UHWLK3JZ9YPE","A3VDG4N48AVYGQ","379OL9DBSS0OLW3FFHTILCO0AJC9Y6","","","img/flower8.png","76","658.5","3","0","3","0.8,0.8,0.2,0.2,0.8,0.8,0.8,0.2,0.8",""
"null","","html-keyboard-response","322","301471","0.0-322.0","31QTRG6Q2UZBZ3HGN8UHWLK3JZ9YPE","A3VDG4N48AVYGQ","379OL9DBSS0OLW3FFHTILCO0AJC9Y6","","","<img src=""img/flower8.png"" style=""width:200px;border:14px solid red;"">","null","","","","","",""
"1663.5","","image-keyboard-response","323","303136","0.0-323.0","31QTRG6Q2UZBZ3HGN8UHWLK3JZ9YPE","A3VDG4N48AVYGQ","379OL9DBSS0OLW3FFHTILCO0AJC9Y6","","","img/flower4.png","75","1665","2","1","1","0.8,0.8,0.2,0.2,0.8,0.8,0.8,0.2,0.8",""
"null","","html-keyboard-response","324","303451","0.0-324.0","31QTRG6Q2UZBZ3HGN8UHWLK3JZ9YPE","A3VDG4N48AVYGQ","379OL9DBSS0OLW3FFHTILCO0AJC9Y6","","","<img src=""img/flower4.png"" style=""width:200px; border:14px solid green;"">","null","","","","","",""
"763.1000000238419","","image-keyboard-response","325","304216","0.0-325.0","31QTRG6Q2UZBZ3HGN8UHWLK3JZ9YPE","A3VDG4N48AVYGQ","379OL9DBSS0OLW3FFHTILCO0AJC9Y6","","","img/flower7.png","76","764.5","3","1","2","0.8,0.8,0.2,0.2,0.8,0.8,0.8,0.2,0.8",""
"null","","html-keyboard-response","326","304521","0.0-326.0","31QTRG6Q2UZBZ3HGN8UHWLK3JZ9YPE","A3VDG4N48AVYGQ","379OL9DBSS0OLW3FFHTILCO0AJC9Y6","","","<img src=""img/flower7.png"" style=""width:200px; border:14px solid green;"">","null","","","","","",""
"645.3000000119209","","image-keyboard-response","327","305168","0.0-327.0","31QTRG6Q2UZBZ3HGN8UHWLK3JZ9YPE","A3VDG4N48AVYGQ","379OL9DBSS0OLW3FFHTILCO0AJC9Y6","","","img/flower4.png","75","646.5","2","1","1","0.8,0.8,0.2,0.2,0.8,0.8,0.8,0.2,0.8",""
"null","","html-keyboard-response","328","305483","0.0-328.0","31QTRG6Q2UZBZ3HGN8UHWLK3JZ9YPE","A3VDG4N48AVYGQ","379OL9DBSS0OLW3FFHTILCO0AJC9Y6","","","<img src=""img/flower4.png"" style=""width:200px; border:14px solid green;"">","null","","","","","",""
"611.3000000119209","","image-keyboard-response","329","306096","0.0-329.0","31QTRG6Q2UZBZ3HGN8UHWLK3JZ9YPE","A3VDG4N48AVYGQ","379OL9DBSS0OLW3FFHTILCO0AJC9Y6","","","img/flower8.png","76","612.6999999880791","3","1","3","0.8,0.8,0.2,0.2,0.8,0.8,0.8,0.2,0.8",""
"null","","html-keyboard-response","330","306406","0.0-330.0","31QTRG6Q2UZBZ3HGN8UHWLK3JZ9YPE","A3VDG4N48AVYGQ","379OL9DBSS0OLW3FFHTILCO0AJC9Y6","","","<img src=""img/flower8.png"" style=""width:200px; border:14px solid green;"">","null","","","","","",""
"424.30000001192093","","image-keyboard-response","331","306832","0.0-331.0","31QTRG6Q2UZBZ3HGN8UHWLK3JZ9YPE","A3VDG4N48AVYGQ","379OL9DBSS0OLW3FFHTILCO0AJC9Y6","","","img/flower7.png","76","425.60000002384186","3","1","2","0.8,0.8,0.2,0.2,0.8,0.8,0.8,0.2,0.8",""
"null","","html-keyboard-response","332","307146","0.0-332.0","31QTRG6Q2UZBZ3HGN8UHWLK3JZ9YPE","A3VDG4N48AVYGQ","379OL9DBSS0OLW3FFHTILCO0AJC9Y6","","","<img src=""img/flower7.png"" style=""width:200px; border:14px solid green;"">","null","","","","","",""
"565.0999999642372","","image-keyboard-response","333","307712","0.0-333.0","31QTRG6Q2UZBZ3HGN8UHWLK3JZ9YPE","A3VDG4N48AVYGQ","379OL9DBSS0OLW3FFHTILCO0AJC9Y6","","","img/flower4.png","75","566.5","2","1","1","0.8,0.8,0.2,0.2,0.8,0.8,0.8,0.2,0.8",""
"null","","html-keyboard-response","334","308026","0.0-334.0","31QTRG6Q2UZBZ3HGN8UHWLK3JZ9YPE","A3VDG4N48AVYGQ","379OL9DBSS0OLW3FFHTILCO0AJC9Y6","","","<img src=""img/flower4.png"" style=""width:200px; border:14px solid green;"">","null","","","","","",""
"936.5999999642372","","image-keyboard-response","335","308964","0.0-335.0","31QTRG6Q2UZBZ3HGN8UHWLK3JZ9YPE","A3VDG4N48AVYGQ","379OL9DBSS0OLW3FFHTILCO0AJC9Y6","","","img/flower7.png","76","938","3","1","2","0.8,0.8,0.2,0.2,0.8,0.8,0.8,0.2,0.8",""
"null","","html-keyboard-response","336","309272","0.0-336.0","31QTRG6Q2UZBZ3HGN8UHWLK3JZ9YPE","A3VDG4N48AVYGQ","379OL9DBSS0OLW3FFHTILCO0AJC9Y6","","","<img src=""img/flower7.png"" style=""width:200px; border:14px solid green;"">","null","","","","","",""
"514.1999999880791","","image-keyboard-response","337","309788","0.0-337.0","31QTRG6Q2UZBZ3HGN8UHWLK3JZ9YPE","A3VDG4N48AVYGQ","379OL9DBSS0OLW3FFHTILCO0AJC9Y6","","","img/flower8.png","76","515.5","3","1","3","0.8,0.8,0.2,0.2,0.8,0.8,0.8,0.2,0.8",""
"null","","html-keyboard-response","338","310103","0.0-338.0","31QTRG6Q2UZBZ3HGN8UHWLK3JZ9YPE","A3VDG4N48AVYGQ","379OL9DBSS0OLW3FFHTILCO0AJC9Y6","","","<img src=""img/flower8.png"" style=""width:200px; border:14px solid green;"">","null","","","","","",""
"731.5","","image-keyboard-response","339","310837","0.0-339.0","31QTRG6Q2UZBZ3HGN8UHWLK3JZ9YPE","A3VDG4N48AVYGQ","379OL9DBSS0OLW3FFHTILCO0AJC9Y6","","","img/flower7.png","76","732.8000000119209","3","1","2","0.8,0.8,0.2,0.2,0.8,0.8,0.8,0.2,0.8",""
"null","","html-keyboard-response","340","311146","0.0-340.0","31QTRG6Q2UZBZ3HGN8UHWLK3JZ9YPE","A3VDG4N48AVYGQ","379OL9DBSS0OLW3FFHTILCO0AJC9Y6","","","<img src=""img/flower7.png"" style=""width:200px; border:14px solid green;"">","null","","","","","",""
"483.60000002384186","","image-keyboard-response","341","311631","0.0-341.0","31QTRG6Q2UZBZ3HGN8UHWLK3JZ9YPE","A3VDG4N48AVYGQ","379OL9DBSS0OLW3FFHTILCO0AJC9Y6","","","img/flower8.png","76","485","3","1","3","0.8,0.8,0.2,0.2,0.8,0.8,0.8,0.2,0.8",""
"null","","html-keyboard-response","342","311947","0.0-342.0","31QTRG6Q2UZBZ3HGN8UHWLK3JZ9YPE","A3VDG4N48AVYGQ","379OL9DBSS0OLW3FFHTILCO0AJC9Y6","","","<img src=""img/flower8.png"" style=""width:200px; border:14px solid green;"">","null","","","","","",""
"459.5999999642372","","image-keyboard-response","343","312408","0.0-343.0","31QTRG6Q2UZBZ3HGN8UHWLK3JZ9YPE","A3VDG4N48AVYGQ","379OL9DBSS0OLW3FFHTILCO0AJC9Y6","","","img/flower7.png","76","460.9000000357628","3","1","2","0.8,0.8,0.2,0.2,0.8,0.8,0.8,0.2,0.8",""
"null","","html-keyboard-response","344","312721","0.0-344.0","31QTRG6Q2UZBZ3HGN8UHWLK3JZ9YPE","A3VDG4N48AVYGQ","379OL9DBSS0OLW3FFHTILCO0AJC9Y6","","","<img src=""img/flower7.png"" style=""width:200px; border:14px solid green;"">","null","","","","","",""
"480.2999999523163","","image-keyboard-response","345","313203","0.0-345.0","31QTRG6Q2UZBZ3HGN8UHWLK3JZ9YPE","A3VDG4N48AVYGQ","379OL9DBSS0OLW3FFHTILCO0AJC9Y6","","","img/flower8.png","76","481.30000001192093","3","1","3","0.8,0.8,0.2,0.2,0.8,0.8,0.8,0.2,0.8",""
"null","","html-keyboard-response","346","313506","0.0-346.0","31QTRG6Q2UZBZ3HGN8UHWLK3JZ9YPE","A3VDG4N48AVYGQ","379OL9DBSS0OLW3FFHTILCO0AJC9Y6","","","<img src=""img/flower8.png"" style=""width:200px; border:14px solid green;"">","null","","","","","",""
"417","","image-keyboard-response","347","313924","0.0-347.0","31QTRG6Q2UZBZ3HGN8UHWLK3JZ9YPE","A3VDG4N48AVYGQ","379OL9DBSS0OLW3FFHTILCO0AJC9Y6","","","img/flower7.png","76","418.39999997615814","3","1","2","0.8,0.8,0.2,0.2,0.8,0.8,0.8,0.2,0.8",""
"null","","html-keyboard-response","348","314232","0.0-348.0","31QTRG6Q2UZBZ3HGN8UHWLK3JZ9YPE","A3VDG4N48AVYGQ","379OL9DBSS0OLW3FFHTILCO0AJC9Y6","","","<img src=""img/flower7.png"" style=""width:200px; border:14px solid green;"">","null","","","","","",""
"498.39999997615814","","image-keyboard-response","349","314732","0.0-349.0","31QTRG6Q2UZBZ3HGN8UHWLK3JZ9YPE","A3VDG4N48AVYGQ","379OL9DBSS0OLW3FFHTILCO0AJC9Y6","","","img/flower7.png","76","499.9000000357628","3","0","2","0.8,0.8,0.2,0.2,0.8,0.8,0.8,0.2,0.8",""
"null","","html-keyboard-response","350","315047","0.0-350.0","31QTRG6Q2UZBZ3HGN8UHWLK3JZ9YPE","A3VDG4N48AVYGQ","379OL9DBSS0OLW3FFHTILCO0AJC9Y6","","","<img src=""img/flower7.png"" style=""width:200px;border:14px solid red;"">","null","","","","","",""
"708.3000000119209","","image-keyboard-response","351","315757","0.0-351.0","31QTRG6Q2UZBZ3HGN8UHWLK3JZ9YPE","A3VDG4N48AVYGQ","379OL9DBSS0OLW3FFHTILCO0AJC9Y6","","","img/flower4.png","75","709.6000000238419","2","1","1","0.8,0.8,0.2,0.2,0.8,0.8,0.8,0.2,0.8",""
"null","","html-keyboard-response","352","316069","0.0-352.0","31QTRG6Q2UZBZ3HGN8UHWLK3JZ9YPE","A3VDG4N48AVYGQ","379OL9DBSS0OLW3FFHTILCO0AJC9Y6","","","<img src=""img/flower4.png"" style=""width:200px; border:14px solid green;"">","null","","","","","",""
"396.0999999642372","","image-keyboard-response","353","316467","0.0-353.0","31QTRG6Q2UZBZ3HGN8UHWLK3JZ9YPE","A3VDG4N48AVYGQ","379OL9DBSS0OLW3FFHTILCO0AJC9Y6","","","img/flower4.png","75","397.5999999642372","2","1","1","0.8,0.8,0.2,0.2,0.8,0.8,0.8,0.2,0.8",""
"null","","html-keyboard-response","354","316778","0.0-354.0","31QTRG6Q2UZBZ3HGN8UHWLK3JZ9YPE","A3VDG4N48AVYGQ","379OL9DBSS0OLW3FFHTILCO0AJC9Y6","","","<img src=""img/flower4.png"" style=""width:200px; border:14px solid green;"">","null","","","","","",""
"511.69999998807907","","image-keyboard-response","355","317292","0.0-355.0","31QTRG6Q2UZBZ3HGN8UHWLK3JZ9YPE","A3VDG4N48AVYGQ","379OL9DBSS0OLW3FFHTILCO0AJC9Y6","","","img/flower7.png","76","513.1999999880791","3","1","2","0.8,0.8,0.2,0.2,0.8,0.8,0.8,0.2,0.8",""
"null","","html-keyboard-response","356","317595","0.0-356.0","31QTRG6Q2UZBZ3HGN8UHWLK3JZ9YPE","A3VDG4N48AVYGQ","379OL9DBSS0OLW3FFHTILCO0AJC9Y6","","","<img src=""img/flower7.png"" style=""width:200px; border:14px solid green;"">","null","","","","","",""
"567.5","","image-keyboard-response","357","318165","0.0-357.0","31QTRG6Q2UZBZ3HGN8UHWLK3JZ9YPE","A3VDG4N48AVYGQ","379OL9DBSS0OLW3FFHTILCO0AJC9Y6","","","img/flower4.png","75","568.8000000119209","2","0","1","0.8,0.8,0.2,0.2,0.8,0.8,0.8,0.2,0.8",""
"null","","html-keyboard-response","358","318476","0.0-358.0","31QTRG6Q2UZBZ3HGN8UHWLK3JZ9YPE","A3VDG4N48AVYGQ","379OL9DBSS0OLW3FFHTILCO0AJC9Y6","","","<img src=""img/flower4.png"" style=""width:200px;border:14px solid red;"">","null","","","","","",""
"509.60000002384186","","image-keyboard-response","359","318988","0.0-359.0","31QTRG6Q2UZBZ3HGN8UHWLK3JZ9YPE","A3VDG4N48AVYGQ","379OL9DBSS0OLW3FFHTILCO0AJC9Y6","","","img/flower8.png","76","511.69999998807907","3","0","3","0.8,0.8,0.2,0.2,0.8,0.8,0.8,0.2,0.8",""
"null","","html-keyboard-response","360","319291","0.0-360.0","31QTRG6Q2UZBZ3HGN8UHWLK3JZ9YPE","A3VDG4N48AVYGQ","379OL9DBSS0OLW3FFHTILCO0AJC9Y6","","","<img src=""img/flower8.png"" style=""width:200px;border:14px solid red;"">","null","","","","","",""
"307.19999998807907","","image-keyboard-response","361","319600","0.0-361.0","31QTRG6Q2UZBZ3HGN8UHWLK3JZ9YPE","A3VDG4N48AVYGQ","379OL9DBSS0OLW3FFHTILCO0AJC9Y6","","","img/flower8.png","76","308.39999997615814","3","1","3","0.8,0.8,0.2,0.2,0.8,0.8,0.8,0.2,0.8",""
"null","","html-keyboard-response","362","319902","0.0-362.0","31QTRG6Q2UZBZ3HGN8UHWLK3JZ9YPE","A3VDG4N48AVYGQ","379OL9DBSS0OLW3FFHTILCO0AJC9Y6","","","<img src=""img/flower8.png"" style=""width:200px; border:14px solid green;"">","null","","","","","",""
"124.89999997615814","","image-keyboard-response","363","320028","0.0-363.0","31QTRG6Q2UZBZ3HGN8UHWLK3JZ9YPE","A3VDG4N48AVYGQ","379OL9DBSS0OLW3FFHTILCO0AJC9Y6","","","img/flower4.png","76","126.30000001192093","3","0","1","0.8,0.8,0.2,0.2,0.8,0.8,0.8,0.2,0.8",""
"null","","html-keyboard-response","364","320342","0.0-364.0","31QTRG6Q2UZBZ3HGN8UHWLK3JZ9YPE","A3VDG4N48AVYGQ","379OL9DBSS0OLW3FFHTILCO0AJC9Y6","","","<img src=""img/flower4.png"" style=""width:200px;border:14px solid red;"">","null","","","","","",""
"524.4000000357628","","image-keyboard-response","365","320868","0.0-365.0","31QTRG6Q2UZBZ3HGN8UHWLK3JZ9YPE","A3VDG4N48AVYGQ","379OL9DBSS0OLW3FFHTILCO0AJC9Y6","","","img/flower4.png","75","525.7999999523163","2","1","1","0.8,0.8,0.2,0.2,0.8,0.8,0.8,0.2,0.8",""
"null","","html-keyboard-response","366","321175","0.0-366.0","31QTRG6Q2UZBZ3HGN8UHWLK3JZ9YPE","A3VDG4N48AVYGQ","379OL9DBSS0OLW3FFHTILCO0AJC9Y6","","","<img src=""img/flower4.png"" style=""width:200px; border:14px solid green;"">","null","","","","","",""
"383.80000001192093","","image-keyboard-response","367","321560","0.0-367.0","31QTRG6Q2UZBZ3HGN8UHWLK3JZ9YPE","A3VDG4N48AVYGQ","379OL9DBSS0OLW3FFHTILCO0AJC9Y6","","","img/flower4.png","75","385","2","1","1","0.8,0.8,0.2,0.2,0.8,0.8,0.8,0.2,0.8",""
"null","","html-keyboard-response","368","321876","0.0-368.0","31QTRG6Q2UZBZ3HGN8UHWLK3JZ9YPE","A3VDG4N48AVYGQ","379OL9DBSS0OLW3FFHTILCO0AJC9Y6","","","<img src=""img/flower4.png"" style=""width:200px; border:14px solid green;"">","null","","","","","",""
"374.69999998807907","","image-keyboard-response","369","322252","0.0-369.0","31QTRG6Q2UZBZ3HGN8UHWLK3JZ9YPE","A3VDG4N48AVYGQ","379OL9DBSS0OLW3FFHTILCO0AJC9Y6","","","img/flower4.png","75","376","2","1","1","0.8,0.8,0.2,0.2,0.8,0.8,0.8,0.2,0.8",""
"null","","html-keyboard-response","370","322570","0.0-370.0","31QTRG6Q2UZBZ3HGN8UHWLK3JZ9YPE","A3VDG4N48AVYGQ","379OL9DBSS0OLW3FFHTILCO0AJC9Y6","","","<img src=""img/flower4.png"" style=""width:200px; border:14px solid green;"">","null","","","","","",""
"383.5","","image-keyboard-response","371","322955","0.0-371.0","31QTRG6Q2UZBZ3HGN8UHWLK3JZ9YPE","A3VDG4N48AVYGQ","379OL9DBSS0OLW3FFHTILCO0AJC9Y6","","","img/flower4.png","75","384.9000000357628","2","0","1","0.8,0.8,0.2,0.2,0.8,0.8,0.8,0.2,0.8",""
"null","","html-keyboard-response","372","323264","0.0-372.0","31QTRG6Q2UZBZ3HGN8UHWLK3JZ9YPE","A3VDG4N48AVYGQ","379OL9DBSS0OLW3FFHTILCO0AJC9Y6","","","<img src=""img/flower4.png"" style=""width:200px;border:14px solid red;"">","null","","","","","",""
"570.4000000357628","","image-keyboard-response","373","323836","0.0-373.0","31QTRG6Q2UZBZ3HGN8UHWLK3JZ9YPE","A3VDG4N48AVYGQ","379OL9DBSS0OLW3FFHTILCO0AJC9Y6","","","img/flower8.png","76","571.6999999880791","3","1","3","0.8,0.8,0.2,0.2,0.8,0.8,0.8,0.2,0.8",""
"null","","html-keyboard-response","374","324141","0.0-374.0","31QTRG6Q2UZBZ3HGN8UHWLK3JZ9YPE","A3VDG4N48AVYGQ","379OL9DBSS0OLW3FFHTILCO0AJC9Y6","","","<img src=""img/flower8.png"" style=""width:200px; border:14px solid green;"">","null","","","","","",""
"429","","image-keyboard-response","375","324572","0.0-375.0","31QTRG6Q2UZBZ3HGN8UHWLK3JZ9YPE","A3VDG4N48AVYGQ","379OL9DBSS0OLW3FFHTILCO0AJC9Y6","","","img/flower7.png","76","430.5","3","1","2","0.8,0.8,0.2,0.2,0.8,0.8,0.8,0.2,0.8",""
"null","","html-keyboard-response","376","324880","0.0-376.0","31QTRG6Q2UZBZ3HGN8UHWLK3JZ9YPE","A3VDG4N48AVYGQ","379OL9DBSS0OLW3FFHTILCO0AJC9Y6","","","<img src=""img/flower7.png"" style=""width:200px; border:14px solid green;"">","null","","","","","",""
"562.3000000119209","","image-keyboard-response","377","325444","0.0-377.0","31QTRG6Q2UZBZ3HGN8UHWLK3JZ9YPE","A3VDG4N48AVYGQ","379OL9DBSS0OLW3FFHTILCO0AJC9Y6","","","img/flower4.png","75","563.6999999880791","2","1","1","0.8,0.8,0.2,0.2,0.8,0.8,0.8,0.2,0.8",""
"null","","html-keyboard-response","378","325758","0.0-378.0","31QTRG6Q2UZBZ3HGN8UHWLK3JZ9YPE","A3VDG4N48AVYGQ","379OL9DBSS0OLW3FFHTILCO0AJC9Y6","","","<img src=""img/flower4.png"" style=""width:200px; border:14px solid green;"">","null","","","","","",""
"428.19999998807907","","image-keyboard-response","379","326188","0.0-379.0","31QTRG6Q2UZBZ3HGN8UHWLK3JZ9YPE","A3VDG4N48AVYGQ","379OL9DBSS0OLW3FFHTILCO0AJC9Y6","","","img/flower4.png","75","429.69999998807907","2","1","1","0.8,0.8,0.2,0.2,0.8,0.8,0.8,0.2,0.8",""
"null","","html-keyboard-response","380","326498","0.0-380.0","31QTRG6Q2UZBZ3HGN8UHWLK3JZ9YPE","A3VDG4N48AVYGQ","379OL9DBSS0OLW3FFHTILCO0AJC9Y6","","","<img src=""img/flower4.png"" style=""width:200px; border:14px solid green;"">","null","","","","","",""
"464.2000000476837","","image-keyboard-response","381","326964","0.0-381.0","31QTRG6Q2UZBZ3HGN8UHWLK3JZ9YPE","A3VDG4N48AVYGQ","379OL9DBSS0OLW3FFHTILCO0AJC9Y6","","","img/flower8.png","76","465.69999998807907","3","0","3","0.8,0.8,0.2,0.2,0.8,0.8,0.8,0.2,0.8",""
"null","","html-keyboard-response","382","327281","0.0-382.0","31QTRG6Q2UZBZ3HGN8UHWLK3JZ9YPE","A3VDG4N48AVYGQ","379OL9DBSS0OLW3FFHTILCO0AJC9Y6","","","<img src=""img/flower8.png"" style=""width:200px;border:14px solid red;"">","null","","","","","",""
"537.1999999880791","","image-keyboard-response","383","327820","0.0-383.0","31QTRG6Q2UZBZ3HGN8UHWLK3JZ9YPE","A3VDG4N48AVYGQ","379OL9DBSS0OLW3FFHTILCO0AJC9Y6","","","img/flower4.png","75","538.5999999642372","2","1","1","0.8,0.8,0.2,0.2,0.8,0.8,0.8,0.2,0.8",""
"null","","html-keyboard-response","384","328129","0.0-384.0","31QTRG6Q2UZBZ3HGN8UHWLK3JZ9YPE","A3VDG4N48AVYGQ","379OL9DBSS0OLW3FFHTILCO0AJC9Y6","","","<img src=""img/flower4.png"" style=""width:200px; border:14px solid green;"">","null","","","","","",""
"448.60000002384186","","image-keyboard-response","385","328580","0.0-385.0","31QTRG6Q2UZBZ3HGN8UHWLK3JZ9YPE","A3VDG4N48AVYGQ","379OL9DBSS0OLW3FFHTILCO0AJC9Y6","","","img/flower8.png","76","450","3","1","3","0.8,0.8,0.2,0.2,0.8,0.8,0.8,0.2,0.8",""
"null","","html-keyboard-response","386","328882","0.0-386.0","31QTRG6Q2UZBZ3HGN8UHWLK3JZ9YPE","A3VDG4N48AVYGQ","379OL9DBSS0OLW3FFHTILCO0AJC9Y6","","","<img src=""img/flower8.png"" style=""width:200px; border:14px solid green;"">","null","","","","","",""
"487.80000001192093","","image-keyboard-response","387","329372","0.0-387.0","31QTRG6Q2UZBZ3HGN8UHWLK3JZ9YPE","A3VDG4N48AVYGQ","379OL9DBSS0OLW3FFHTILCO0AJC9Y6","","","img/flower4.png","75","489","2","1","1","0.8,0.8,0.2,0.2,0.8,0.8,0.8,0.2,0.8",""
"null","","html-keyboard-response","388","329686","0.0-388.0","31QTRG6Q2UZBZ3HGN8UHWLK3JZ9YPE","A3VDG4N48AVYGQ","379OL9DBSS0OLW3FFHTILCO0AJC9Y6","","","<img src=""img/flower4.png"" style=""width:200px; border:14px solid green;"">","null","","","","","",""
"628.3999999761581","","image-keyboard-response","389","330316","0.0-389.0","31QTRG6Q2UZBZ3HGN8UHWLK3JZ9YPE","A3VDG4N48AVYGQ","379OL9DBSS0OLW3FFHTILCO0AJC9Y6","","","img/flower8.png","76","630.1000000238419","3","0","3","0.8,0.8,0.2,0.2,0.8,0.8,0.8,0.2,0.8",""
"null","","html-keyboard-response","390","330624","0.0-390.0","31QTRG6Q2UZBZ3HGN8UHWLK3JZ9YPE","A3VDG4N48AVYGQ","379OL9DBSS0OLW3FFHTILCO0AJC9Y6","","","<img src=""img/flower8.png"" style=""width:200px;border:14px solid red;"">","null","","","","","",""
"490.19999998807907","","image-keyboard-response","391","331116","0.0-391.0","31QTRG6Q2UZBZ3HGN8UHWLK3JZ9YPE","A3VDG4N48AVYGQ","379OL9DBSS0OLW3FFHTILCO0AJC9Y6","","","img/flower8.png","76","491.60000002384186","3","1","3","0.8,0.8,0.2,0.2,0.8,0.8,0.8,0.2,0.8",""
"null","","html-keyboard-response","392","331424","0.0-392.0","31QTRG6Q2UZBZ3HGN8UHWLK3JZ9YPE","A3VDG4N48AVYGQ","379OL9DBSS0OLW3FFHTILCO0AJC9Y6","","","<img src=""img/flower8.png"" style=""width:200px; border:14px solid green;"">","null","","","","","",""
"543","","image-keyboard-response","393","331969","0.0-393.0","31QTRG6Q2UZBZ3HGN8UHWLK3JZ9YPE","A3VDG4N48AVYGQ","379OL9DBSS0OLW3FFHTILCO0AJC9Y6","","","img/flower7.png","76","544.0999999642372","3","1","2","0.8,0.8,0.2,0.2,0.8,0.8,0.8,0.2,0.8",""
"null","","html-keyboard-response","394","332282","0.0-394.0","31QTRG6Q2UZBZ3HGN8UHWLK3JZ9YPE","A3VDG4N48AVYGQ","379OL9DBSS0OLW3FFHTILCO0AJC9Y6","","","<img src=""img/flower7.png"" style=""width:200px; border:14px solid green;"">","null","","","","","",""
"494.89999997615814","","image-keyboard-response","395","332779","0.0-395.0","31QTRG6Q2UZBZ3HGN8UHWLK3JZ9YPE","A3VDG4N48AVYGQ","379OL9DBSS0OLW3FFHTILCO0AJC9Y6","","","img/flower4.png","75","496.19999998807907","2","1","1","0.8,0.8,0.2,0.2,0.8,0.8,0.8,0.2,0.8",""
"null","","html-keyboard-response","396","333086","0.0-396.0","31QTRG6Q2UZBZ3HGN8UHWLK3JZ9YPE","A3VDG4N48AVYGQ","379OL9DBSS0OLW3FFHTILCO0AJC9Y6","","","<img src=""img/flower4.png"" style=""width:200px; border:14px solid green;"">","null","","","","","",""
"763.5999999642372","","image-keyboard-response","397","333852","0.0-397.0","31QTRG6Q2UZBZ3HGN8UHWLK3JZ9YPE","A3VDG4N48AVYGQ","379OL9DBSS0OLW3FFHTILCO0AJC9Y6","","","img/flower7.png","76","764.8999999761581","3","1","2","0.8,0.8,0.2,0.2,0.8,0.8,0.8,0.2,0.8",""
"null","","html-keyboard-response","398","334157","0.0-398.0","31QTRG6Q2UZBZ3HGN8UHWLK3JZ9YPE","A3VDG4N48AVYGQ","379OL9DBSS0OLW3FFHTILCO0AJC9Y6","","","<img src=""img/flower7.png"" style=""width:200px; border:14px solid green;"">","null","","","","","",""
