"success","trial_type","trial_index","time_elapsed","internal_node_id","assignmentID","mturkID","hitID","view_history","rt","stimulus","key_press","reactionTime","a","r","s","cond","reward_cond","reward_cond_actual","reward_matrix_idx","responses"
"true","fullscreen","0","9589","0.0-0.0","3YDTZAI2WY2SK4KUDZVKF0YYPS114D","A3VL1CBZ3BGQK7","3UDTAB6HH6LRO17U79I9TKUGYFV09C","","","","","","","","","","","","",""
"","instructions","1","25462","0.0-1.0","3YDTZAI2WY2SK4KUDZVKF0YYPS114D","A3VL1CBZ3BGQK7","3UDTAB6HH6LRO17U79I9TKUGYFV09C","[{""page_index"":0,""viewing_time"":1345.2000000029802},{""page_index"":1,""viewing_time"":1170.5},{""page_index"":2,""viewing_time"":602.7999999970198},{""page_index"":3,""viewing_time"":947.5},{""page_index"":4,""viewing_time"":1958.0999999940395},{""page_index"":5,""viewing_time"":2513.7999999970198},{""page_index"":6,""viewing_time"":2774.2000000029802},{""page_index"":7,""viewing_time"":4558.20000000298}]","15870.5","","","","","","","","","","",""
"","image-keyboard-response","2","25839","0.0-2.0","3YDTZAI2WY2SK4KUDZVKF0YYPS114D","A3VL1CBZ3BGQK7","3UDTAB6HH6LRO17U79I9TKUGYFV09C","","374.40000000596046","img/flower6.png","74","377.5","1","0","2","2","1,0,0,1,1,0,1,0,1","0,1,0,0,1,1,1,1,0","3",""
"","html-keyboard-response","3","26155","0.0-3.0","3YDTZAI2WY2SK4KUDZVKF0YYPS114D","A3VL1CBZ3BGQK7","3UDTAB6HH6LRO17U79I9TKUGYFV09C","","null","<img src=""img/flower6.png"" style=""width:200px;border:14px solid red;"">","null","","","","","","","","",""
"","image-keyboard-response","4","26582","0.0-4.0","3YDTZAI2WY2SK4KUDZVKF0YYPS114D","A3VL1CBZ3BGQK7","3UDTAB6HH6LRO17U79I9TKUGYFV09C","","425.5","img/flower1.png","74","426.30000001192093","1","0","1","2","1,0,0,1,1,0,1,0,1","0,1,0,0,1,1,1,1,0","3",""
"","html-keyboard-response","5","26892","0.0-5.0","3YDTZAI2WY2SK4KUDZVKF0YYPS114D","A3VL1CBZ3BGQK7","3UDTAB6HH6LRO17U79I9TKUGYFV09C","","null","<img src=""img/flower1.png"" style=""width:200px;border:14px solid red;"">","null","","","","","","","","",""
"","image-keyboard-response","6","27266","0.0-6.0","3YDTZAI2WY2SK4KUDZVKF0YYPS114D","A3VL1CBZ3BGQK7","3UDTAB6HH6LRO17U79I9TKUGYFV09C","","372.3999999910593","img/flower6.png","74","374.20000000298023","1","0","2","2","1,0,0,1,1,0,1,0,1","0,1,0,0,1,1,1,1,0","3",""
"","html-keyboard-response","7","27573","0.0-7.0","3YDTZAI2WY2SK4KUDZVKF0YYPS114D","A3VL1CBZ3BGQK7","3UDTAB6HH6LRO17U79I9TKUGYFV09C","","null","<img src=""img/flower6.png"" style=""width:200px;border:14px solid red;"">","null","","","","","","","","",""
"","image-keyboard-response","8","28121","0.0-8.0","3YDTZAI2WY2SK4KUDZVKF0YYPS114D","A3VL1CBZ3BGQK7","3UDTAB6HH6LRO17U79I9TKUGYFV09C","","545.8000000119209","img/flower1.png","74","547.3999999910593","1","0","1","2","1,0,0,1,1,0,1,0,1","0,1,0,0,1,1,1,1,0","3",""
"","html-keyboard-response","9","28424","0.0-9.0","3YDTZAI2WY2SK4KUDZVKF0YYPS114D","A3VL1CBZ3BGQK7","3UDTAB6HH6LRO17U79I9TKUGYFV09C","","null","<img src=""img/flower1.png"" style=""width:200px;border:14px solid red;"">","null","","","","","","","","",""
"","image-keyboard-response","10","28752","0.0-10.0","3YDTZAI2WY2SK4KUDZVKF0YYPS114D","A3VL1CBZ3BGQK7","3UDTAB6HH6LRO17U79I9TKUGYFV09C","","326.70000000298023","img/flower1.png","75","328.29999999701977","2","1","1","2","1,0,0,1,1,0,1,0,1","0,1,0,0,1,1,1,1,0","3",""
"","html-keyboard-response","11","29055","0.0-11.0","3YDTZAI2WY2SK4KUDZVKF0YYPS114D","A3VL1CBZ3BGQK7","3UDTAB6HH6LRO17U79I9TKUGYFV09C","","null","<img src=""img/flower1.png"" style=""width:200px; border:14px solid green;"">","null","","","","","","","","",""
"","image-keyboard-response","12","29378","0.0-12.0","3YDTZAI2WY2SK4KUDZVKF0YYPS114D","A3VL1CBZ3BGQK7","3UDTAB6HH6LRO17U79I9TKUGYFV09C","","321.40000000596046","img/flower1.png","75","322.70000000298023","2","1","1","2","1,0,0,1,1,0,1,0,1","0,1,0,0,1,1,1,1,0","3",""
"","html-keyboard-response","13","29680","0.0-13.0","3YDTZAI2WY2SK4KUDZVKF0YYPS114D","A3VL1CBZ3BGQK7","3UDTAB6HH6LRO17U79I9TKUGYFV09C","","null","<img src=""img/flower1.png"" style=""width:200px; border:14px solid green;"">","null","","","","","","","","",""
"","image-keyboard-response","14","30091","0.0-14.0","3YDTZAI2WY2SK4KUDZVKF0YYPS114D","A3VL1CBZ3BGQK7","3UDTAB6HH6LRO17U79I9TKUGYFV09C","","409.70000000298023","img/flower6.png","75","410.5","2","1","2","2","1,0,0,1,1,0,1,0,1","0,1,0,0,1,1,1,1,0","3",""
"","html-keyboard-response","15","30393","0.0-15.0","3YDTZAI2WY2SK4KUDZVKF0YYPS114D","A3VL1CBZ3BGQK7","3UDTAB6HH6LRO17U79I9TKUGYFV09C","","null","<img src=""img/flower6.png"" style=""width:200px; border:14px solid green;"">","null","","","","","","","","",""
"","image-keyboard-response","16","30754","0.0-16.0","3YDTZAI2WY2SK4KUDZVKF0YYPS114D","A3VL1CBZ3BGQK7","3UDTAB6HH6LRO17U79I9TKUGYFV09C","","358.6000000089407","img/flower2.png","75","360.3999999910593","2","1","3","2","1,0,0,1,1,0,1,0,1","0,1,0,0,1,1,1,1,0","3",""
"","html-keyboard-response","17","31056","0.0-17.0","3YDTZAI2WY2SK4KUDZVKF0YYPS114D","A3VL1CBZ3BGQK7","3UDTAB6HH6LRO17U79I9TKUGYFV09C","","null","<img src=""img/flower2.png"" style=""width:200px; border:14px solid green;"">","null","","","","","","","","",""
"","image-keyboard-response","18","31355","0.0-18.0","3YDTZAI2WY2SK4KUDZVKF0YYPS114D","A3VL1CBZ3BGQK7","3UDTAB6HH6LRO17U79I9TKUGYFV09C","","296.79999999701977","img/flower6.png","75","298.19999998807907","2","1","2","2","1,0,0,1,1,0,1,0,1","0,1,0,0,1,1,1,1,0","3",""
"","html-keyboard-response","19","31658","0.0-19.0","3YDTZAI2WY2SK4KUDZVKF0YYPS114D","A3VL1CBZ3BGQK7","3UDTAB6HH6LRO17U79I9TKUGYFV09C","","null","<img src=""img/flower6.png"" style=""width:200px; border:14px solid green;"">","null","","","","","","","","",""
"","image-keyboard-response","20","32136","0.0-20.0","3YDTZAI2WY2SK4KUDZVKF0YYPS114D","A3VL1CBZ3BGQK7","3UDTAB6HH6LRO17U79I9TKUGYFV09C","","477","img/flower1.png","75","478.29999999701977","2","1","1","2","1,0,0,1,1,0,1,0,1","0,1,0,0,1,1,1,1,0","3",""
"","html-keyboard-response","21","32439","0.0-21.0","3YDTZAI2WY2SK4KUDZVKF0YYPS114D","A3VL1CBZ3BGQK7","3UDTAB6HH6LRO17U79I9TKUGYFV09C","","null","<img src=""img/flower1.png"" style=""width:200px; border:14px solid green;"">","null","","","","","","","","",""
"","image-keyboard-response","22","32846","0.0-22.0","3YDTZAI2WY2SK4KUDZVKF0YYPS114D","A3VL1CBZ3BGQK7","3UDTAB6HH6LRO17U79I9TKUGYFV09C","","405.3999999910593","img/flower1.png","75","406.80000001192093","2","1","1","2","1,0,0,1,1,0,1,0,1","0,1,0,0,1,1,1,1,0","3",""
"","html-keyboard-response","23","33150","0.0-23.0","3YDTZAI2WY2SK4KUDZVKF0YYPS114D","A3VL1CBZ3BGQK7","3UDTAB6HH6LRO17U79I9TKUGYFV09C","","null","<img src=""img/flower1.png"" style=""width:200px; border:14px solid green;"">","null","","","","","","","","",""
"","image-keyboard-response","24","33496","0.0-24.0","3YDTZAI2WY2SK4KUDZVKF0YYPS114D","A3VL1CBZ3BGQK7","3UDTAB6HH6LRO17U79I9TKUGYFV09C","","343.40000000596046","img/flower2.png","75","345.8999999910593","2","1","3","2","1,0,0,1,1,0,1,0,1","0,1,0,0,1,1,1,1,0","3",""
"","html-keyboard-response","25","33798","0.0-25.0","3YDTZAI2WY2SK4KUDZVKF0YYPS114D","A3VL1CBZ3BGQK7","3UDTAB6HH6LRO17U79I9TKUGYFV09C","","null","<img src=""img/flower2.png"" style=""width:200px; border:14px solid green;"">","null","","","","","","","","",""
"","image-keyboard-response","26","34097","0.0-26.0","3YDTZAI2WY2SK4KUDZVKF0YYPS114D","A3VL1CBZ3BGQK7","3UDTAB6HH6LRO17U79I9TKUGYFV09C","","297","img/flower6.png","75","298.40000000596046","2","1","2","2","1,0,0,1,1,0,1,0,1","0,1,0,0,1,1,1,1,0","3",""
"","html-keyboard-response","27","34399","0.0-27.0","3YDTZAI2WY2SK4KUDZVKF0YYPS114D","A3VL1CBZ3BGQK7","3UDTAB6HH6LRO17U79I9TKUGYFV09C","","null","<img src=""img/flower6.png"" style=""width:200px; border:14px solid green;"">","null","","","","","","","","",""
"","image-keyboard-response","28","34677","0.0-28.0","3YDTZAI2WY2SK4KUDZVKF0YYPS114D","A3VL1CBZ3BGQK7","3UDTAB6HH6LRO17U79I9TKUGYFV09C","","275.79999999701977","img/flower6.png","75","277.29999999701977","2","1","2","2","1,0,0,1,1,0,1,0,1","0,1,0,0,1,1,1,1,0","3",""
"","html-keyboard-response","29","34979","0.0-29.0","3YDTZAI2WY2SK4KUDZVKF0YYPS114D","A3VL1CBZ3BGQK7","3UDTAB6HH6LRO17U79I9TKUGYFV09C","","null","<img src=""img/flower6.png"" style=""width:200px; border:14px solid green;"">","null","","","","","","","","",""
"","image-keyboard-response","30","35293","0.0-30.0","3YDTZAI2WY2SK4KUDZVKF0YYPS114D","A3VL1CBZ3BGQK7","3UDTAB6HH6LRO17U79I9TKUGYFV09C","","312.20000000298023","img/flower6.png","75","313.5","2","1","2","2","1,0,0,1,1,0,1,0,1","0,1,0,0,1,1,1,1,0","3",""
"","html-keyboard-response","31","35595","0.0-31.0","3YDTZAI2WY2SK4KUDZVKF0YYPS114D","A3VL1CBZ3BGQK7","3UDTAB6HH6LRO17U79I9TKUGYFV09C","","null","<img src=""img/flower6.png"" style=""width:200px; border:14px solid green;"">","null","","","","","","","","",""
"","image-keyboard-response","32","35954","0.0-32.0","3YDTZAI2WY2SK4KUDZVKF0YYPS114D","A3VL1CBZ3BGQK7","3UDTAB6HH6LRO17U79I9TKUGYFV09C","","357.5","img/flower6.png","75","359","2","1","2","2","1,0,0,1,1,0,1,0,1","0,1,0,0,1,1,1,1,0","3",""
"","html-keyboard-response","33","36257","0.0-33.0","3YDTZAI2WY2SK4KUDZVKF0YYPS114D","A3VL1CBZ3BGQK7","3UDTAB6HH6LRO17U79I9TKUGYFV09C","","null","<img src=""img/flower6.png"" style=""width:200px; border:14px solid green;"">","null","","","","","","","","",""
"","image-keyboard-response","34","36588","0.0-34.0","3YDTZAI2WY2SK4KUDZVKF0YYPS114D","A3VL1CBZ3BGQK7","3UDTAB6HH6LRO17U79I9TKUGYFV09C","","329.20000000298023","img/flower2.png","75","330.59999999403954","2","1","3","2","1,0,0,1,1,0,1,0,1","0,1,0,0,1,1,1,1,0","3",""
"","html-keyboard-response","35","36890","0.0-35.0","3YDTZAI2WY2SK4KUDZVKF0YYPS114D","A3VL1CBZ3BGQK7","3UDTAB6HH6LRO17U79I9TKUGYFV09C","","null","<img src=""img/flower2.png"" style=""width:200px; border:14px solid green;"">","null","","","","","","","","",""
"","image-keyboard-response","36","37259","0.0-36.0","3YDTZAI2WY2SK4KUDZVKF0YYPS114D","A3VL1CBZ3BGQK7","3UDTAB6HH6LRO17U79I9TKUGYFV09C","","367.8999999910593","img/flower6.png","75","368.70000000298023","2","1","2","2","1,0,0,1,1,0,1,0,1","0,1,0,0,1,1,1,1,0","3",""
"","html-keyboard-response","37","37560","0.0-37.0","3YDTZAI2WY2SK4KUDZVKF0YYPS114D","A3VL1CBZ3BGQK7","3UDTAB6HH6LRO17U79I9TKUGYFV09C","","null","<img src=""img/flower6.png"" style=""width:200px; border:14px solid green;"">","null","","","","","","","","",""
"","image-keyboard-response","38","37840","0.0-38.0","3YDTZAI2WY2SK4KUDZVKF0YYPS114D","A3VL1CBZ3BGQK7","3UDTAB6HH6LRO17U79I9TKUGYFV09C","","279.19999998807907","img/flower1.png","75","279.8999999910593","2","1","1","2","1,0,0,1,1,0,1,0,1","0,1,0,0,1,1,1,1,0","3",""
"","html-keyboard-response","39","38142","0.0-39.0","3YDTZAI2WY2SK4KUDZVKF0YYPS114D","A3VL1CBZ3BGQK7","3UDTAB6HH6LRO17U79I9TKUGYFV09C","","null","<img src=""img/flower1.png"" style=""width:200px; border:14px solid green;"">","null","","","","","","","","",""
"","image-keyboard-response","40","38392","0.0-40.0","3YDTZAI2WY2SK4KUDZVKF0YYPS114D","A3VL1CBZ3BGQK7","3UDTAB6HH6LRO17U79I9TKUGYFV09C","","248.59999999403954","img/flower6.png","75","249.79999999701977","2","1","2","2","1,0,0,1,1,0,1,0,1","0,1,0,0,1,1,1,1,0","3",""
"","html-keyboard-response","41","38695","0.0-41.0","3YDTZAI2WY2SK4KUDZVKF0YYPS114D","A3VL1CBZ3BGQK7","3UDTAB6HH6LRO17U79I9TKUGYFV09C","","null","<img src=""img/flower6.png"" style=""width:200px; border:14px solid green;"">","null","","","","","","","","",""
"","image-keyboard-response","42","39012","0.0-42.0","3YDTZAI2WY2SK4KUDZVKF0YYPS114D","A3VL1CBZ3BGQK7","3UDTAB6HH6LRO17U79I9TKUGYFV09C","","315.8999999910593","img/flower6.png","75","317.1000000089407","2","1","2","2","1,0,0,1,1,0,1,0,1","0,1,0,0,1,1,1,1,0","3",""
"","html-keyboard-response","43","39315","0.0-43.0","3YDTZAI2WY2SK4KUDZVKF0YYPS114D","A3VL1CBZ3BGQK7","3UDTAB6HH6LRO17U79I9TKUGYFV09C","","null","<img src=""img/flower6.png"" style=""width:200px; border:14px solid green;"">","null","","","","","","","","",""
"","image-keyboard-response","44","39613","0.0-44.0","3YDTZAI2WY2SK4KUDZVKF0YYPS114D","A3VL1CBZ3BGQK7","3UDTAB6HH6LRO17U79I9TKUGYFV09C","","294.8999999910593","img/flower1.png","75","296.69999998807907","2","1","1","2","1,0,0,1,1,0,1,0,1","0,1,0,0,1,1,1,1,0","3",""
"","html-keyboard-response","45","39917","0.0-45.0","3YDTZAI2WY2SK4KUDZVKF0YYPS114D","A3VL1CBZ3BGQK7","3UDTAB6HH6LRO17U79I9TKUGYFV09C","","null","<img src=""img/flower1.png"" style=""width:200px; border:14px solid green;"">","null","","","","","","","","",""
"","image-keyboard-response","46","40193","0.0-46.0","3YDTZAI2WY2SK4KUDZVKF0YYPS114D","A3VL1CBZ3BGQK7","3UDTAB6HH6LRO17U79I9TKUGYFV09C","","274","img/flower1.png","75","275.79999999701977","2","1","1","2","1,0,0,1,1,0,1,0,1","0,1,0,0,1,1,1,1,0","3",""
"","html-keyboard-response","47","40496","0.0-47.0","3YDTZAI2WY2SK4KUDZVKF0YYPS114D","A3VL1CBZ3BGQK7","3UDTAB6HH6LRO17U79I9TKUGYFV09C","","null","<img src=""img/flower1.png"" style=""width:200px; border:14px solid green;"">","null","","","","","","","","",""
"","image-keyboard-response","48","40782","0.0-48.0","3YDTZAI2WY2SK4KUDZVKF0YYPS114D","A3VL1CBZ3BGQK7","3UDTAB6HH6LRO17U79I9TKUGYFV09C","","284.19999998807907","img/flower1.png","75","285.5","2","1","1","2","1,0,0,1,1,0,1,0,1","0,1,0,0,1,1,1,1,0","3",""
"","html-keyboard-response","49","41084","0.0-49.0","3YDTZAI2WY2SK4KUDZVKF0YYPS114D","A3VL1CBZ3BGQK7","3UDTAB6HH6LRO17U79I9TKUGYFV09C","","null","<img src=""img/flower1.png"" style=""width:200px; border:14px solid green;"">","null","","","","","","","","",""
"","image-keyboard-response","50","41413","0.0-50.0","3YDTZAI2WY2SK4KUDZVKF0YYPS114D","A3VL1CBZ3BGQK7","3UDTAB6HH6LRO17U79I9TKUGYFV09C","","327.29999999701977","img/flower2.png","75","328.5","2","1","3","2","1,0,0,1,1,0,1,0,1","0,1,0,0,1,1,1,1,0","3",""
"","html-keyboard-response","51","41715","0.0-51.0","3YDTZAI2WY2SK4KUDZVKF0YYPS114D","A3VL1CBZ3BGQK7","3UDTAB6HH6LRO17U79I9TKUGYFV09C","","null","<img src=""img/flower2.png"" style=""width:200px; border:14px solid green;"">","null","","","","","","","","",""
"","image-keyboard-response","52","42019","0.0-52.0","3YDTZAI2WY2SK4KUDZVKF0YYPS114D","A3VL1CBZ3BGQK7","3UDTAB6HH6LRO17U79I9TKUGYFV09C","","302.59999999403954","img/flower2.png","75","303.70000000298023","2","1","3","2","1,0,0,1,1,0,1,0,1","0,1,0,0,1,1,1,1,0","3",""
"","html-keyboard-response","53","42321","0.0-53.0","3YDTZAI2WY2SK4KUDZVKF0YYPS114D","A3VL1CBZ3BGQK7","3UDTAB6HH6LRO17U79I9TKUGYFV09C","","null","<img src=""img/flower2.png"" style=""width:200px; border:14px solid green;"">","null","","","","","","","","",""
"","image-keyboard-response","54","42655","0.0-54.0","3YDTZAI2WY2SK4KUDZVKF0YYPS114D","A3VL1CBZ3BGQK7","3UDTAB6HH6LRO17U79I9TKUGYFV09C","","331.79999999701977","img/flower2.png","75","333.29999999701977","2","1","3","2","1,0,0,1,1,0,1,0,1","0,1,0,0,1,1,1,1,0","3",""
"","html-keyboard-response","55","42957","0.0-55.0","3YDTZAI2WY2SK4KUDZVKF0YYPS114D","A3VL1CBZ3BGQK7","3UDTAB6HH6LRO17U79I9TKUGYFV09C","","null","<img src=""img/flower2.png"" style=""width:200px; border:14px solid green;"">","null","","","","","","","","",""
"","image-keyboard-response","56","43293","0.0-56.0","3YDTZAI2WY2SK4KUDZVKF0YYPS114D","A3VL1CBZ3BGQK7","3UDTAB6HH6LRO17U79I9TKUGYFV09C","","333.20000000298023","img/flower2.png","75","335.29999999701977","2","1","3","2","1,0,0,1,1,0,1,0,1","0,1,0,0,1,1,1,1,0","3",""
"","html-keyboard-response","57","43596","0.0-57.0","3YDTZAI2WY2SK4KUDZVKF0YYPS114D","A3VL1CBZ3BGQK7","3UDTAB6HH6LRO17U79I9TKUGYFV09C","","null","<img src=""img/flower2.png"" style=""width:200px; border:14px solid green;"">","null","","","","","","","","",""
"","image-keyboard-response","58","43871","0.0-58.0","3YDTZAI2WY2SK4KUDZVKF0YYPS114D","A3VL1CBZ3BGQK7","3UDTAB6HH6LRO17U79I9TKUGYFV09C","","273.20000000298023","img/flower6.png","75","274.5","2","1","2","2","1,0,0,1,1,0,1,0,1","0,1,0,0,1,1,1,1,0","3",""
"","html-keyboard-response","59","44173","0.0-59.0","3YDTZAI2WY2SK4KUDZVKF0YYPS114D","A3VL1CBZ3BGQK7","3UDTAB6HH6LRO17U79I9TKUGYFV09C","","null","<img src=""img/flower6.png"" style=""width:200px; border:14px solid green;"">","null","","","","","","","","",""
"","image-keyboard-response","60","44461","0.0-60.0","3YDTZAI2WY2SK4KUDZVKF0YYPS114D","A3VL1CBZ3BGQK7","3UDTAB6HH6LRO17U79I9TKUGYFV09C","","286.40000000596046","img/flower1.png","75","287.90000000596046","2","1","1","2","1,0,0,1,1,0,1,0,1","0,1,0,0,1,1,1,1,0","3",""
"","html-keyboard-response","61","44769","0.0-61.0","3YDTZAI2WY2SK4KUDZVKF0YYPS114D","A3VL1CBZ3BGQK7","3UDTAB6HH6LRO17U79I9TKUGYFV09C","","null","<img src=""img/flower1.png"" style=""width:200px; border:14px solid green;"">","null","","","","","","","","",""
"","image-keyboard-response","62","45103","0.0-62.0","3YDTZAI2WY2SK4KUDZVKF0YYPS114D","A3VL1CBZ3BGQK7","3UDTAB6HH6LRO17U79I9TKUGYFV09C","","333.5","img/flower2.png","75","334.5","2","1","3","2","1,0,0,1,1,0,1,0,1","0,1,0,0,1,1,1,1,0","3",""
"","html-keyboard-response","63","45407","0.0-63.0","3YDTZAI2WY2SK4KUDZVKF0YYPS114D","A3VL1CBZ3BGQK7","3UDTAB6HH6LRO17U79I9TKUGYFV09C","","null","<img src=""img/flower2.png"" style=""width:200px; border:14px solid green;"">","null","","","","","","","","",""
"","image-keyboard-response","64","45703","0.0-64.0","3YDTZAI2WY2SK4KUDZVKF0YYPS114D","A3VL1CBZ3BGQK7","3UDTAB6HH6LRO17U79I9TKUGYFV09C","","293.70000000298023","img/flower1.png","75","295.09999999403954","2","1","1","2","1,0,0,1,1,0,1,0,1","0,1,0,0,1,1,1,1,0","3",""
"","html-keyboard-response","65","46004","0.0-65.0","3YDTZAI2WY2SK4KUDZVKF0YYPS114D","A3VL1CBZ3BGQK7","3UDTAB6HH6LRO17U79I9TKUGYFV09C","","null","<img src=""img/flower1.png"" style=""width:200px; border:14px solid green;"">","null","","","","","","","","",""
"","image-keyboard-response","66","46245","0.0-66.0","3YDTZAI2WY2SK4KUDZVKF0YYPS114D","A3VL1CBZ3BGQK7","3UDTAB6HH6LRO17U79I9TKUGYFV09C","","237.6000000089407","img/flower1.png","75","239.59999999403954","2","1","1","2","1,0,0,1,1,0,1,0,1","0,1,0,0,1,1,1,1,0","3",""
"","html-keyboard-response","67","46549","0.0-67.0","3YDTZAI2WY2SK4KUDZVKF0YYPS114D","A3VL1CBZ3BGQK7","3UDTAB6HH6LRO17U79I9TKUGYFV09C","","null","<img src=""img/flower1.png"" style=""width:200px; border:14px solid green;"">","null","","","","","","","","",""
"","image-keyboard-response","68","46789","0.0-68.0","3YDTZAI2WY2SK4KUDZVKF0YYPS114D","A3VL1CBZ3BGQK7","3UDTAB6HH6LRO17U79I9TKUGYFV09C","","236.40000000596046","img/flower1.png","75","239.20000000298023","2","1","1","2","1,0,0,1,1,0,1,0,1","0,1,0,0,1,1,1,1,0","3",""
"","html-keyboard-response","69","47090","0.0-69.0","3YDTZAI2WY2SK4KUDZVKF0YYPS114D","A3VL1CBZ3BGQK7","3UDTAB6HH6LRO17U79I9TKUGYFV09C","","null","<img src=""img/flower1.png"" style=""width:200px; border:14px solid green;"">","null","","","","","","","","",""
"","image-keyboard-response","70","47321","0.0-70.0","3YDTZAI2WY2SK4KUDZVKF0YYPS114D","A3VL1CBZ3BGQK7","3UDTAB6HH6LRO17U79I9TKUGYFV09C","","228.5","img/flower6.png","75","230.29999999701977","2","1","2","2","1,0,0,1,1,0,1,0,1","0,1,0,0,1,1,1,1,0","3",""
"","html-keyboard-response","71","47624","0.0-71.0","3YDTZAI2WY2SK4KUDZVKF0YYPS114D","A3VL1CBZ3BGQK7","3UDTAB6HH6LRO17U79I9TKUGYFV09C","","null","<img src=""img/flower6.png"" style=""width:200px; border:14px solid green;"">","null","","","","","","","","",""
"","image-keyboard-response","72","47841","0.0-72.0","3YDTZAI2WY2SK4KUDZVKF0YYPS114D","A3VL1CBZ3BGQK7","3UDTAB6HH6LRO17U79I9TKUGYFV09C","","214.29999999701977","img/flower6.png","75","216.20000000298023","2","1","2","2","1,0,0,1,1,0,1,0,1","0,1,0,0,1,1,1,1,0","3",""
"","html-keyboard-response","73","48155","0.0-73.0","3YDTZAI2WY2SK4KUDZVKF0YYPS114D","A3VL1CBZ3BGQK7","3UDTAB6HH6LRO17U79I9TKUGYFV09C","","null","<img src=""img/flower6.png"" style=""width:200px; border:14px solid green;"">","null","","","","","","","","",""
"","image-keyboard-response","74","48392","0.0-74.0","3YDTZAI2WY2SK4KUDZVKF0YYPS114D","A3VL1CBZ3BGQK7","3UDTAB6HH6LRO17U79I9TKUGYFV09C","","234.29999999701977","img/flower6.png","75","236.09999999403954","2","1","2","2","1,0,0,1,1,0,1,0,1","0,1,0,0,1,1,1,1,0","3",""
"","html-keyboard-response","75","48695","0.0-75.0","3YDTZAI2WY2SK4KUDZVKF0YYPS114D","A3VL1CBZ3BGQK7","3UDTAB6HH6LRO17U79I9TKUGYFV09C","","null","<img src=""img/flower6.png"" style=""width:200px; border:14px solid green;"">","null","","","","","","","","",""
"","image-keyboard-response","76","48926","0.0-76.0","3YDTZAI2WY2SK4KUDZVKF0YYPS114D","A3VL1CBZ3BGQK7","3UDTAB6HH6LRO17U79I9TKUGYFV09C","","229.20000000298023","img/flower2.png","75","230.59999999403954","2","1","3","2","1,0,0,1,1,0,1,0,1","0,1,0,0,1,1,1,1,0","3",""
"","html-keyboard-response","77","49228","0.0-77.0","3YDTZAI2WY2SK4KUDZVKF0YYPS114D","A3VL1CBZ3BGQK7","3UDTAB6HH6LRO17U79I9TKUGYFV09C","","null","<img src=""img/flower2.png"" style=""width:200px; border:14px solid green;"">","null","","","","","","","","",""
"","image-keyboard-response","78","49406","0.0-78.0","3YDTZAI2WY2SK4KUDZVKF0YYPS114D","A3VL1CBZ3BGQK7","3UDTAB6HH6LRO17U79I9TKUGYFV09C","","177","img/flower2.png","75","177.90000000596046","2","1","3","2","1,0,0,1,1,0,1,0,1","0,1,0,0,1,1,1,1,0","3",""
"","html-keyboard-response","79","49708","0.0-79.0","3YDTZAI2WY2SK4KUDZVKF0YYPS114D","A3VL1CBZ3BGQK7","3UDTAB6HH6LRO17U79I9TKUGYFV09C","","null","<img src=""img/flower2.png"" style=""width:200px; border:14px solid green;"">","null","","","","","","","","",""
"","image-keyboard-response","80","49957","0.0-80.0","3YDTZAI2WY2SK4KUDZVKF0YYPS114D","A3VL1CBZ3BGQK7","3UDTAB6HH6LRO17U79I9TKUGYFV09C","","246.59999999403954","img/flower1.png","75","247.90000000596046","2","1","1","2","1,0,0,1,1,0,1,0,1","0,1,0,0,1,1,1,1,0","3",""
"","html-keyboard-response","81","50259","0.0-81.0","3YDTZAI2WY2SK4KUDZVKF0YYPS114D","A3VL1CBZ3BGQK7","3UDTAB6HH6LRO17U79I9TKUGYFV09C","","null","<img src=""img/flower1.png"" style=""width:200px; border:14px solid green;"">","null","","","","","","","","",""
"","image-keyboard-response","82","50463","0.0-82.0","3YDTZAI2WY2SK4KUDZVKF0YYPS114D","A3VL1CBZ3BGQK7","3UDTAB6HH6LRO17U79I9TKUGYFV09C","","202.70000000298023","img/flower2.png","75","203.5","2","1","3","2","1,0,0,1,1,0,1,0,1","0,1,0,0,1,1,1,1,0","3",""
"","html-keyboard-response","83","50765","0.0-83.0","3YDTZAI2WY2SK4KUDZVKF0YYPS114D","A3VL1CBZ3BGQK7","3UDTAB6HH6LRO17U79I9TKUGYFV09C","","null","<img src=""img/flower2.png"" style=""width:200px; border:14px solid green;"">","null","","","","","","","","",""
"","image-keyboard-response","84","50983","0.0-84.0","3YDTZAI2WY2SK4KUDZVKF0YYPS114D","A3VL1CBZ3BGQK7","3UDTAB6HH6LRO17U79I9TKUGYFV09C","","217.30000001192093","img/flower2.png","75","218.29999999701977","2","1","3","2","1,0,0,1,1,0,1,0,1","0,1,0,0,1,1,1,1,0","3",""
"","html-keyboard-response","85","51285","0.0-85.0","3YDTZAI2WY2SK4KUDZVKF0YYPS114D","A3VL1CBZ3BGQK7","3UDTAB6HH6LRO17U79I9TKUGYFV09C","","null","<img src=""img/flower2.png"" style=""width:200px; border:14px solid green;"">","null","","","","","","","","",""
"","image-keyboard-response","86","51415","0.0-86.0","3YDTZAI2WY2SK4KUDZVKF0YYPS114D","A3VL1CBZ3BGQK7","3UDTAB6HH6LRO17U79I9TKUGYFV09C","","127.70000000298023","img/flower1.png","75","129.40000000596046","2","1","1","2","1,0,0,1,1,0,1,0,1","0,1,0,0,1,1,1,1,0","3",""
"","html-keyboard-response","87","51717","0.0-87.0","3YDTZAI2WY2SK4KUDZVKF0YYPS114D","A3VL1CBZ3BGQK7","3UDTAB6HH6LRO17U79I9TKUGYFV09C","","null","<img src=""img/flower1.png"" style=""width:200px; border:14px solid green;"">","null","","","","","","","","",""
"","image-keyboard-response","88","51959","0.0-88.0","3YDTZAI2WY2SK4KUDZVKF0YYPS114D","A3VL1CBZ3BGQK7","3UDTAB6HH6LRO17U79I9TKUGYFV09C","","240.29999999701977","img/flower2.png","75","241.80000001192093","2","1","3","2","1,0,0,1,1,0,1,0,1","0,1,0,0,1,1,1,1,0","3",""
"","html-keyboard-response","89","52261","0.0-89.0","3YDTZAI2WY2SK4KUDZVKF0YYPS114D","A3VL1CBZ3BGQK7","3UDTAB6HH6LRO17U79I9TKUGYFV09C","","null","<img src=""img/flower2.png"" style=""width:200px; border:14px solid green;"">","null","","","","","","","","",""
"","image-keyboard-response","90","52432","0.0-90.0","3YDTZAI2WY2SK4KUDZVKF0YYPS114D","A3VL1CBZ3BGQK7","3UDTAB6HH6LRO17U79I9TKUGYFV09C","","168.80000001192093","img/flower1.png","75","170.40000000596046","2","1","1","2","1,0,0,1,1,0,1,0,1","0,1,0,0,1,1,1,1,0","3",""
"","html-keyboard-response","91","52734","0.0-91.0","3YDTZAI2WY2SK4KUDZVKF0YYPS114D","A3VL1CBZ3BGQK7","3UDTAB6HH6LRO17U79I9TKUGYFV09C","","null","<img src=""img/flower1.png"" style=""width:200px; border:14px solid green;"">","null","","","","","","","","",""
"","image-keyboard-response","92","52956","0.0-92.0","3YDTZAI2WY2SK4KUDZVKF0YYPS114D","A3VL1CBZ3BGQK7","3UDTAB6HH6LRO17U79I9TKUGYFV09C","","219.79999999701977","img/flower2.png","75","221.5","2","1","3","2","1,0,0,1,1,0,1,0,1","0,1,0,0,1,1,1,1,0","3",""
"","html-keyboard-response","93","53257","0.0-93.0","3YDTZAI2WY2SK4KUDZVKF0YYPS114D","A3VL1CBZ3BGQK7","3UDTAB6HH6LRO17U79I9TKUGYFV09C","","null","<img src=""img/flower2.png"" style=""width:200px; border:14px solid green;"">","null","","","","","","","","",""
"","image-keyboard-response","94","53488","0.0-94.0","3YDTZAI2WY2SK4KUDZVKF0YYPS114D","A3VL1CBZ3BGQK7","3UDTAB6HH6LRO17U79I9TKUGYFV09C","","228.09999999403954","img/flower1.png","75","229.6000000089407","2","1","1","2","1,0,0,1,1,0,1,0,1","0,1,0,0,1,1,1,1,0","3",""
"","html-keyboard-response","95","53792","0.0-95.0","3YDTZAI2WY2SK4KUDZVKF0YYPS114D","A3VL1CBZ3BGQK7","3UDTAB6HH6LRO17U79I9TKUGYFV09C","","null","<img src=""img/flower1.png"" style=""width:200px; border:14px solid green;"">","null","","","","","","","","",""
"","image-keyboard-response","96","53996","0.0-96.0","3YDTZAI2WY2SK4KUDZVKF0YYPS114D","A3VL1CBZ3BGQK7","3UDTAB6HH6LRO17U79I9TKUGYFV09C","","203","img/flower2.png","75","204","2","1","3","2","1,0,0,1,1,0,1,0,1","0,1,0,0,1,1,1,1,0","3",""
"","html-keyboard-response","97","54298","0.0-97.0","3YDTZAI2WY2SK4KUDZVKF0YYPS114D","A3VL1CBZ3BGQK7","3UDTAB6HH6LRO17U79I9TKUGYFV09C","","null","<img src=""img/flower2.png"" style=""width:200px; border:14px solid green;"">","null","","","","","","","","",""
"","image-keyboard-response","98","54509","0.0-98.0","3YDTZAI2WY2SK4KUDZVKF0YYPS114D","A3VL1CBZ3BGQK7","3UDTAB6HH6LRO17U79I9TKUGYFV09C","","208.8999999910593","img/flower6.png","75","210.6000000089407","2","1","2","2","1,0,0,1,1,0,1,0,1","0,1,0,0,1,1,1,1,0","3",""
"","html-keyboard-response","99","54811","0.0-99.0","3YDTZAI2WY2SK4KUDZVKF0YYPS114D","A3VL1CBZ3BGQK7","3UDTAB6HH6LRO17U79I9TKUGYFV09C","","null","<img src=""img/flower6.png"" style=""width:200px; border:14px solid green;"">","null","","","","","","","","",""
"","image-keyboard-response","100","55047","0.0-100.0","3YDTZAI2WY2SK4KUDZVKF0YYPS114D","A3VL1CBZ3BGQK7","3UDTAB6HH6LRO17U79I9TKUGYFV09C","","235.20000000298023","img/flower2.png","75","236","2","1","3","2","1,0,0,1,1,0,1,0,1","0,1,0,0,1,1,1,1,0","3",""
"","html-keyboard-response","101","55349","0.0-101.0","3YDTZAI2WY2SK4KUDZVKF0YYPS114D","A3VL1CBZ3BGQK7","3UDTAB6HH6LRO17U79I9TKUGYFV09C","","null","<img src=""img/flower2.png"" style=""width:200px; border:14px solid green;"">","null","","","","","","","","",""
"","image-keyboard-response","102","55599","0.0-102.0","3YDTZAI2WY2SK4KUDZVKF0YYPS114D","A3VL1CBZ3BGQK7","3UDTAB6HH6LRO17U79I9TKUGYFV09C","","248.5","img/flower6.png","75","250.20000000298023","2","1","2","2","1,0,0,1,1,0,1,0,1","0,1,0,0,1,1,1,1,0","3",""
"","html-keyboard-response","103","55902","0.0-103.0","3YDTZAI2WY2SK4KUDZVKF0YYPS114D","A3VL1CBZ3BGQK7","3UDTAB6HH6LRO17U79I9TKUGYFV09C","","null","<img src=""img/flower6.png"" style=""width:200px; border:14px solid green;"">","null","","","","","","","","",""
"","image-keyboard-response","104","56144","0.0-104.0","3YDTZAI2WY2SK4KUDZVKF0YYPS114D","A3VL1CBZ3BGQK7","3UDTAB6HH6LRO17U79I9TKUGYFV09C","","240.79999999701977","img/flower2.png","75","242.29999999701977","2","1","3","2","1,0,0,1,1,0,1,0,1","0,1,0,0,1,1,1,1,0","3",""
"","html-keyboard-response","105","56454","0.0-105.0","3YDTZAI2WY2SK4KUDZVKF0YYPS114D","A3VL1CBZ3BGQK7","3UDTAB6HH6LRO17U79I9TKUGYFV09C","","null","<img src=""img/flower2.png"" style=""width:200px; border:14px solid green;"">","null","","","","","","","","",""
"","image-keyboard-response","106","56650","0.0-106.0","3YDTZAI2WY2SK4KUDZVKF0YYPS114D","A3VL1CBZ3BGQK7","3UDTAB6HH6LRO17U79I9TKUGYFV09C","","194.90000000596046","img/flower1.png","75","196.20000000298023","2","1","1","2","1,0,0,1,1,0,1,0,1","0,1,0,0,1,1,1,1,0","3",""
"","html-keyboard-response","107","56954","0.0-107.0","3YDTZAI2WY2SK4KUDZVKF0YYPS114D","A3VL1CBZ3BGQK7","3UDTAB6HH6LRO17U79I9TKUGYFV09C","","null","<img src=""img/flower1.png"" style=""width:200px; border:14px solid green;"">","null","","","","","","","","",""
"","image-keyboard-response","108","57145","0.0-108.0","3YDTZAI2WY2SK4KUDZVKF0YYPS114D","A3VL1CBZ3BGQK7","3UDTAB6HH6LRO17U79I9TKUGYFV09C","","189.90000000596046","img/flower6.png","75","190.70000000298023","2","1","2","2","1,0,0,1,1,0,1,0,1","0,1,0,0,1,1,1,1,0","3",""
"","html-keyboard-response","109","57446","0.0-109.0","3YDTZAI2WY2SK4KUDZVKF0YYPS114D","A3VL1CBZ3BGQK7","3UDTAB6HH6LRO17U79I9TKUGYFV09C","","null","<img src=""img/flower6.png"" style=""width:200px; border:14px solid green;"">","null","","","","","","","","",""
"","image-keyboard-response","110","57680","0.0-110.0","3YDTZAI2WY2SK4KUDZVKF0YYPS114D","A3VL1CBZ3BGQK7","3UDTAB6HH6LRO17U79I9TKUGYFV09C","","233","img/flower2.png","75","233.79999999701977","2","1","3","2","1,0,0,1,1,0,1,0,1","0,1,0,0,1,1,1,1,0","3",""
"","html-keyboard-response","111","57982","0.0-111.0","3YDTZAI2WY2SK4KUDZVKF0YYPS114D","A3VL1CBZ3BGQK7","3UDTAB6HH6LRO17U79I9TKUGYFV09C","","null","<img src=""img/flower2.png"" style=""width:200px; border:14px solid green;"">","null","","","","","","","","",""
"","image-keyboard-response","112","58181","0.0-112.0","3YDTZAI2WY2SK4KUDZVKF0YYPS114D","A3VL1CBZ3BGQK7","3UDTAB6HH6LRO17U79I9TKUGYFV09C","","197.90000000596046","img/flower1.png","75","198.5","2","1","1","2","1,0,0,1,1,0,1,0,1","0,1,0,0,1,1,1,1,0","3",""
"","html-keyboard-response","113","58483","0.0-113.0","3YDTZAI2WY2SK4KUDZVKF0YYPS114D","A3VL1CBZ3BGQK7","3UDTAB6HH6LRO17U79I9TKUGYFV09C","","null","<img src=""img/flower1.png"" style=""width:200px; border:14px solid green;"">","null","","","","","","","","",""
"","image-keyboard-response","114","58653","0.0-114.0","3YDTZAI2WY2SK4KUDZVKF0YYPS114D","A3VL1CBZ3BGQK7","3UDTAB6HH6LRO17U79I9TKUGYFV09C","","169.1000000089407","img/flower1.png","75","170.1000000089407","2","1","1","2","1,0,0,1,1,0,1,0,1","0,1,0,0,1,1,1,1,0","3",""
"","html-keyboard-response","115","58954","0.0-115.0","3YDTZAI2WY2SK4KUDZVKF0YYPS114D","A3VL1CBZ3BGQK7","3UDTAB6HH6LRO17U79I9TKUGYFV09C","","null","<img src=""img/flower1.png"" style=""width:200px; border:14px solid green;"">","null","","","","","","","","",""
"","image-keyboard-response","116","59154","0.0-116.0","3YDTZAI2WY2SK4KUDZVKF0YYPS114D","A3VL1CBZ3BGQK7","3UDTAB6HH6LRO17U79I9TKUGYFV09C","","196.90000000596046","img/flower1.png","75","199","2","1","1","2","1,0,0,1,1,0,1,0,1","0,1,0,0,1,1,1,1,0","3",""
"","html-keyboard-response","117","59456","0.0-117.0","3YDTZAI2WY2SK4KUDZVKF0YYPS114D","A3VL1CBZ3BGQK7","3UDTAB6HH6LRO17U79I9TKUGYFV09C","","null","<img src=""img/flower1.png"" style=""width:200px; border:14px solid green;"">","null","","","","","","","","",""
"","image-keyboard-response","118","59632","0.0-118.0","3YDTZAI2WY2SK4KUDZVKF0YYPS114D","A3VL1CBZ3BGQK7","3UDTAB6HH6LRO17U79I9TKUGYFV09C","","175.79999999701977","img/flower6.png","75","176.3999999910593","2","1","2","2","1,0,0,1,1,0,1,0,1","0,1,0,0,1,1,1,1,0","3",""
"","html-keyboard-response","119","59934","0.0-119.0","3YDTZAI2WY2SK4KUDZVKF0YYPS114D","A3VL1CBZ3BGQK7","3UDTAB6HH6LRO17U79I9TKUGYFV09C","","null","<img src=""img/flower6.png"" style=""width:200px; border:14px solid green;"">","null","","","","","","","","",""
"","image-keyboard-response","120","60145","0.0-120.0","3YDTZAI2WY2SK4KUDZVKF0YYPS114D","A3VL1CBZ3BGQK7","3UDTAB6HH6LRO17U79I9TKUGYFV09C","","210.20000000298023","img/flower1.png","75","211","2","1","1","2","1,0,0,1,1,0,1,0,1","0,1,0,0,1,1,1,1,0","3",""
"","html-keyboard-response","121","60447","0.0-121.0","3YDTZAI2WY2SK4KUDZVKF0YYPS114D","A3VL1CBZ3BGQK7","3UDTAB6HH6LRO17U79I9TKUGYFV09C","","null","<img src=""img/flower1.png"" style=""width:200px; border:14px solid green;"">","null","","","","","","","","",""
"","image-keyboard-response","122","60646","0.0-122.0","3YDTZAI2WY2SK4KUDZVKF0YYPS114D","A3VL1CBZ3BGQK7","3UDTAB6HH6LRO17U79I9TKUGYFV09C","","198.5","img/flower2.png","75","199.40000000596046","2","1","3","2","1,0,0,1,1,0,1,0,1","0,1,0,0,1,1,1,1,0","3",""
"","html-keyboard-response","123","60949","0.0-123.0","3YDTZAI2WY2SK4KUDZVKF0YYPS114D","A3VL1CBZ3BGQK7","3UDTAB6HH6LRO17U79I9TKUGYFV09C","","null","<img src=""img/flower2.png"" style=""width:200px; border:14px solid green;"">","null","","","","","","","","",""
"","image-keyboard-response","124","61190","0.0-124.0","3YDTZAI2WY2SK4KUDZVKF0YYPS114D","A3VL1CBZ3BGQK7","3UDTAB6HH6LRO17U79I9TKUGYFV09C","","239.90000000596046","img/flower1.png","75","241.1000000089407","2","1","1","2","1,0,0,1,1,0,1,0,1","0,1,0,0,1,1,1,1,0","3",""
"","html-keyboard-response","125","61493","0.0-125.0","3YDTZAI2WY2SK4KUDZVKF0YYPS114D","A3VL1CBZ3BGQK7","3UDTAB6HH6LRO17U79I9TKUGYFV09C","","null","<img src=""img/flower1.png"" style=""width:200px; border:14px solid green;"">","null","","","","","","","","",""
"","image-keyboard-response","126","61631","0.0-126.0","3YDTZAI2WY2SK4KUDZVKF0YYPS114D","A3VL1CBZ3BGQK7","3UDTAB6HH6LRO17U79I9TKUGYFV09C","","135.20000000298023","img/flower6.png","75","137","2","1","2","2","1,0,0,1,1,0,1,0,1","0,1,0,0,1,1,1,1,0","3",""
"","html-keyboard-response","127","61933","0.0-127.0","3YDTZAI2WY2SK4KUDZVKF0YYPS114D","A3VL1CBZ3BGQK7","3UDTAB6HH6LRO17U79I9TKUGYFV09C","","null","<img src=""img/flower6.png"" style=""width:200px; border:14px solid green;"">","null","","","","","","","","",""
"","image-keyboard-response","128","62072","0.0-128.0","3YDTZAI2WY2SK4KUDZVKF0YYPS114D","A3VL1CBZ3BGQK7","3UDTAB6HH6LRO17U79I9TKUGYFV09C","","137.70000000298023","img/flower6.png","75","138.90000000596046","2","1","2","2","1,0,0,1,1,0,1,0,1","0,1,0,0,1,1,1,1,0","3",""
"","html-keyboard-response","129","62374","0.0-129.0","3YDTZAI2WY2SK4KUDZVKF0YYPS114D","A3VL1CBZ3BGQK7","3UDTAB6HH6LRO17U79I9TKUGYFV09C","","null","<img src=""img/flower6.png"" style=""width:200px; border:14px solid green;"">","null","","","","","","","","",""
"","image-keyboard-response","130","62552","0.0-130.0","3YDTZAI2WY2SK4KUDZVKF0YYPS114D","A3VL1CBZ3BGQK7","3UDTAB6HH6LRO17U79I9TKUGYFV09C","","176.20000000298023","img/flower6.png","75","177.40000000596046","2","1","2","2","1,0,0,1,1,0,1,0,1","0,1,0,0,1,1,1,1,0","3",""
"","html-keyboard-response","131","62854","0.0-131.0","3YDTZAI2WY2SK4KUDZVKF0YYPS114D","A3VL1CBZ3BGQK7","3UDTAB6HH6LRO17U79I9TKUGYFV09C","","null","<img src=""img/flower6.png"" style=""width:200px; border:14px solid green;"">","null","","","","","","","","",""
"","image-keyboard-response","132","63003","0.0-132.0","3YDTZAI2WY2SK4KUDZVKF0YYPS114D","A3VL1CBZ3BGQK7","3UDTAB6HH6LRO17U79I9TKUGYFV09C","","148.29999999701977","img/flower6.png","75","149.3999999910593","2","1","2","2","1,0,0,1,1,0,1,0,1","0,1,0,0,1,1,1,1,0","3",""
"","html-keyboard-response","133","63307","0.0-133.0","3YDTZAI2WY2SK4KUDZVKF0YYPS114D","A3VL1CBZ3BGQK7","3UDTAB6HH6LRO17U79I9TKUGYFV09C","","null","<img src=""img/flower6.png"" style=""width:200px; border:14px solid green;"">","null","","","","","","","","",""
"","image-keyboard-response","134","63377","0.0-134.0","3YDTZAI2WY2SK4KUDZVKF0YYPS114D","A3VL1CBZ3BGQK7","3UDTAB6HH6LRO17U79I9TKUGYFV09C","","68.1000000089407","img/flower2.png","75","69.40000000596046","2","1","3","2","1,0,0,1,1,0,1,0,1","0,1,0,0,1,1,1,1,0","3",""
"","html-keyboard-response","135","63678","0.0-135.0","3YDTZAI2WY2SK4KUDZVKF0YYPS114D","A3VL1CBZ3BGQK7","3UDTAB6HH6LRO17U79I9TKUGYFV09C","","null","<img src=""img/flower2.png"" style=""width:200px; border:14px solid green;"">","null","","","","","","","","",""
"","image-keyboard-response","136","63874","0.0-136.0","3YDTZAI2WY2SK4KUDZVKF0YYPS114D","A3VL1CBZ3BGQK7","3UDTAB6HH6LRO17U79I9TKUGYFV09C","","193.70000000298023","img/flower1.png","75","195.5","2","1","1","2","1,0,0,1,1,0,1,0,1","0,1,0,0,1,1,1,1,0","3",""
"","html-keyboard-response","137","64177","0.0-137.0","3YDTZAI2WY2SK4KUDZVKF0YYPS114D","A3VL1CBZ3BGQK7","3UDTAB6HH6LRO17U79I9TKUGYFV09C","","null","<img src=""img/flower1.png"" style=""width:200px; border:14px solid green;"">","null","","","","","","","","",""
"","image-keyboard-response","138","64365","0.0-138.0","3YDTZAI2WY2SK4KUDZVKF0YYPS114D","A3VL1CBZ3BGQK7","3UDTAB6HH6LRO17U79I9TKUGYFV09C","","186.20000000298023","img/flower6.png","75","189.79999999701977","2","1","2","2","1,0,0,1,1,0,1,0,1","0,1,0,0,1,1,1,1,0","3",""
"","html-keyboard-response","139","64669","0.0-139.0","3YDTZAI2WY2SK4KUDZVKF0YYPS114D","A3VL1CBZ3BGQK7","3UDTAB6HH6LRO17U79I9TKUGYFV09C","","null","<img src=""img/flower6.png"" style=""width:200px; border:14px solid green;"">","null","","","","","","","","",""
"","image-keyboard-response","140","64809","0.0-140.0","3YDTZAI2WY2SK4KUDZVKF0YYPS114D","A3VL1CBZ3BGQK7","3UDTAB6HH6LRO17U79I9TKUGYFV09C","","137.3999999910593","img/flower2.png","75","139.79999999701977","2","1","3","2","1,0,0,1,1,0,1,0,1","0,1,0,0,1,1,1,1,0","3",""
"","html-keyboard-response","141","65113","0.0-141.0","3YDTZAI2WY2SK4KUDZVKF0YYPS114D","A3VL1CBZ3BGQK7","3UDTAB6HH6LRO17U79I9TKUGYFV09C","","null","<img src=""img/flower2.png"" style=""width:200px; border:14px solid green;"">","null","","","","","","","","",""
"","image-keyboard-response","142","65224","0.0-142.0","3YDTZAI2WY2SK4KUDZVKF0YYPS114D","A3VL1CBZ3BGQK7","3UDTAB6HH6LRO17U79I9TKUGYFV09C","","110.1000000089407","img/flower2.png","75","111.3999999910593","2","1","3","2","1,0,0,1,1,0,1,0,1","0,1,0,0,1,1,1,1,0","3",""
"","html-keyboard-response","143","65527","0.0-143.0","3YDTZAI2WY2SK4KUDZVKF0YYPS114D","A3VL1CBZ3BGQK7","3UDTAB6HH6LRO17U79I9TKUGYFV09C","","null","<img src=""img/flower2.png"" style=""width:200px; border:14px solid green;"">","null","","","","","","","","",""
"","image-keyboard-response","144","65625","0.0-144.0","3YDTZAI2WY2SK4KUDZVKF0YYPS114D","A3VL1CBZ3BGQK7","3UDTAB6HH6LRO17U79I9TKUGYFV09C","","96","img/flower6.png","75","97.90000000596046","2","1","2","2","1,0,0,1,1,0,1,0,1","0,1,0,0,1,1,1,1,0","3",""
"","html-keyboard-response","145","65927","0.0-145.0","3YDTZAI2WY2SK4KUDZVKF0YYPS114D","A3VL1CBZ3BGQK7","3UDTAB6HH6LRO17U79I9TKUGYFV09C","","null","<img src=""img/flower6.png"" style=""width:200px; border:14px solid green;"">","null","","","","","","","","",""
"","image-keyboard-response","146","66061","0.0-146.0","3YDTZAI2WY2SK4KUDZVKF0YYPS114D","A3VL1CBZ3BGQK7","3UDTAB6HH6LRO17U79I9TKUGYFV09C","","132.5","img/flower2.png","75","133.6000000089407","2","1","3","2","1,0,0,1,1,0,1,0,1","0,1,0,0,1,1,1,1,0","3",""
"","html-keyboard-response","147","66363","0.0-147.0","3YDTZAI2WY2SK4KUDZVKF0YYPS114D","A3VL1CBZ3BGQK7","3UDTAB6HH6LRO17U79I9TKUGYFV09C","","null","<img src=""img/flower2.png"" style=""width:200px; border:14px solid green;"">","null","","","","","","","","",""
"","image-keyboard-response","148","66451","0.0-148.0","3YDTZAI2WY2SK4KUDZVKF0YYPS114D","A3VL1CBZ3BGQK7","3UDTAB6HH6LRO17U79I9TKUGYFV09C","","85.79999999701977","img/flower6.png","75","87.6000000089407","2","1","2","2","1,0,0,1,1,0,1,0,1","0,1,0,0,1,1,1,1,0","3",""
"","html-keyboard-response","149","66754","0.0-149.0","3YDTZAI2WY2SK4KUDZVKF0YYPS114D","A3VL1CBZ3BGQK7","3UDTAB6HH6LRO17U79I9TKUGYFV09C","","null","<img src=""img/flower6.png"" style=""width:200px; border:14px solid green;"">","null","","","","","","","","",""
"","image-keyboard-response","150","66883","0.0-150.0","3YDTZAI2WY2SK4KUDZVKF0YYPS114D","A3VL1CBZ3BGQK7","3UDTAB6HH6LRO17U79I9TKUGYFV09C","","126.5","img/flower6.png","75","128.09999999403954","2","1","2","2","1,0,0,1,1,0,1,0,1","0,1,0,0,1,1,1,1,0","3",""
"","html-keyboard-response","151","67187","0.0-151.0","3YDTZAI2WY2SK4KUDZVKF0YYPS114D","A3VL1CBZ3BGQK7","3UDTAB6HH6LRO17U79I9TKUGYFV09C","","null","<img src=""img/flower6.png"" style=""width:200px; border:14px solid green;"">","null","","","","","","","","",""
"","image-keyboard-response","152","67296","0.0-152.0","3YDTZAI2WY2SK4KUDZVKF0YYPS114D","A3VL1CBZ3BGQK7","3UDTAB6HH6LRO17U79I9TKUGYFV09C","","106.6000000089407","img/flower2.png","75","107.80000001192093","2","1","3","2","1,0,0,1,1,0,1,0,1","0,1,0,0,1,1,1,1,0","3",""
"","html-keyboard-response","153","67597","0.0-153.0","3YDTZAI2WY2SK4KUDZVKF0YYPS114D","A3VL1CBZ3BGQK7","3UDTAB6HH6LRO17U79I9TKUGYFV09C","","null","<img src=""img/flower2.png"" style=""width:200px; border:14px solid green;"">","null","","","","","","","","",""
"","image-keyboard-response","154","67702","0.0-154.0","3YDTZAI2WY2SK4KUDZVKF0YYPS114D","A3VL1CBZ3BGQK7","3UDTAB6HH6LRO17U79I9TKUGYFV09C","","102.3999999910593","img/flower2.png","75","104.5","2","1","3","2","1,0,0,1,1,0,1,0,1","0,1,0,0,1,1,1,1,0","3",""
"","html-keyboard-response","155","68007","0.0-155.0","3YDTZAI2WY2SK4KUDZVKF0YYPS114D","A3VL1CBZ3BGQK7","3UDTAB6HH6LRO17U79I9TKUGYFV09C","","null","<img src=""img/flower2.png"" style=""width:200px; border:14px solid green;"">","null","","","","","","","","",""
"","image-keyboard-response","156","68084","0.0-156.0","3YDTZAI2WY2SK4KUDZVKF0YYPS114D","A3VL1CBZ3BGQK7","3UDTAB6HH6LRO17U79I9TKUGYFV09C","","74.79999999701977","img/flower1.png","75","76.5","2","1","1","2","1,0,0,1,1,0,1,0,1","0,1,0,0,1,1,1,1,0","3",""
"","html-keyboard-response","157","68386","0.0-157.0","3YDTZAI2WY2SK4KUDZVKF0YYPS114D","A3VL1CBZ3BGQK7","3UDTAB6HH6LRO17U79I9TKUGYFV09C","","null","<img src=""img/flower1.png"" style=""width:200px; border:14px solid green;"">","null","","","","","","","","",""
"","image-keyboard-response","158","68494","0.0-158.0","3YDTZAI2WY2SK4KUDZVKF0YYPS114D","A3VL1CBZ3BGQK7","3UDTAB6HH6LRO17U79I9TKUGYFV09C","","105.09999999403954","img/flower1.png","75","106.70000000298023","2","1","1","2","1,0,0,1,1,0,1,0,1","0,1,0,0,1,1,1,1,0","3",""
"","html-keyboard-response","159","68796","0.0-159.0","3YDTZAI2WY2SK4KUDZVKF0YYPS114D","A3VL1CBZ3BGQK7","3UDTAB6HH6LRO17U79I9TKUGYFV09C","","null","<img src=""img/flower1.png"" style=""width:200px; border:14px solid green;"">","null","","","","","","","","",""
"","image-keyboard-response","160","68910","0.0-160.0","3YDTZAI2WY2SK4KUDZVKF0YYPS114D","A3VL1CBZ3BGQK7","3UDTAB6HH6LRO17U79I9TKUGYFV09C","","112.19999998807907","img/flower6.png","75","113.29999999701977","2","1","2","2","1,0,0,1,1,0,1,0,1","0,1,0,0,1,1,1,1,0","3",""
"","html-keyboard-response","161","69218","0.0-161.0","3YDTZAI2WY2SK4KUDZVKF0YYPS114D","A3VL1CBZ3BGQK7","3UDTAB6HH6LRO17U79I9TKUGYFV09C","","null","<img src=""img/flower6.png"" style=""width:200px; border:14px solid green;"">","null","","","","","","","","",""
"","image-keyboard-response","162","69320","0.0-162.0","3YDTZAI2WY2SK4KUDZVKF0YYPS114D","A3VL1CBZ3BGQK7","3UDTAB6HH6LRO17U79I9TKUGYFV09C","","99.29999999701977","img/flower2.png","75","101.09999999403954","2","1","3","2","1,0,0,1,1,0,1,0,1","0,1,0,0,1,1,1,1,0","3",""
"","html-keyboard-response","163","69624","0.0-163.0","3YDTZAI2WY2SK4KUDZVKF0YYPS114D","A3VL1CBZ3BGQK7","3UDTAB6HH6LRO17U79I9TKUGYFV09C","","null","<img src=""img/flower2.png"" style=""width:200px; border:14px solid green;"">","null","","","","","","","","",""
"","image-keyboard-response","164","69719","0.0-164.0","3YDTZAI2WY2SK4KUDZVKF0YYPS114D","A3VL1CBZ3BGQK7","3UDTAB6HH6LRO17U79I9TKUGYFV09C","","94.29999999701977","img/flower1.png","75","95.29999999701977","2","1","1","2","1,0,0,1,1,0,1,0,1","0,1,0,0,1,1,1,1,0","3",""
"","html-keyboard-response","165","70021","0.0-165.0","3YDTZAI2WY2SK4KUDZVKF0YYPS114D","A3VL1CBZ3BGQK7","3UDTAB6HH6LRO17U79I9TKUGYFV09C","","null","<img src=""img/flower1.png"" style=""width:200px; border:14px solid green;"">","null","","","","","","","","",""
"","image-keyboard-response","166","70105","0.0-166.0","3YDTZAI2WY2SK4KUDZVKF0YYPS114D","A3VL1CBZ3BGQK7","3UDTAB6HH6LRO17U79I9TKUGYFV09C","","82.8999999910593","img/flower2.png","75","84.20000000298023","2","1","3","2","1,0,0,1,1,0,1,0,1","0,1,0,0,1,1,1,1,0","3",""
"","html-keyboard-response","167","70407","0.0-167.0","3YDTZAI2WY2SK4KUDZVKF0YYPS114D","A3VL1CBZ3BGQK7","3UDTAB6HH6LRO17U79I9TKUGYFV09C","","null","<img src=""img/flower2.png"" style=""width:200px; border:14px solid green;"">","null","","","","","","","","",""
"","image-keyboard-response","168","70518","0.0-168.0","3YDTZAI2WY2SK4KUDZVKF0YYPS114D","A3VL1CBZ3BGQK7","3UDTAB6HH6LRO17U79I9TKUGYFV09C","","108.6000000089407","img/flower2.png","75","110","2","1","3","2","1,0,0,1,1,0,1,0,1","0,1,0,0,1,1,1,1,0","3",""
"","html-keyboard-response","169","70820","0.0-169.0","3YDTZAI2WY2SK4KUDZVKF0YYPS114D","A3VL1CBZ3BGQK7","3UDTAB6HH6LRO17U79I9TKUGYFV09C","","null","<img src=""img/flower2.png"" style=""width:200px; border:14px solid green;"">","null","","","","","","","","",""
"","image-keyboard-response","170","70906","0.0-170.0","3YDTZAI2WY2SK4KUDZVKF0YYPS114D","A3VL1CBZ3BGQK7","3UDTAB6HH6LRO17U79I9TKUGYFV09C","","83.5","img/flower6.png","75","85.29999999701977","2","1","2","2","1,0,0,1,1,0,1,0,1","0,1,0,0,1,1,1,1,0","3",""
"","html-keyboard-response","171","71208","0.0-171.0","3YDTZAI2WY2SK4KUDZVKF0YYPS114D","A3VL1CBZ3BGQK7","3UDTAB6HH6LRO17U79I9TKUGYFV09C","","null","<img src=""img/flower6.png"" style=""width:200px; border:14px solid green;"">","null","","","","","","","","",""
"","image-keyboard-response","172","71331","0.0-172.0","3YDTZAI2WY2SK4KUDZVKF0YYPS114D","A3VL1CBZ3BGQK7","3UDTAB6HH6LRO17U79I9TKUGYFV09C","","121.1000000089407","img/flower1.png","75","122.69999998807907","2","1","1","2","1,0,0,1,1,0,1,0,1","0,1,0,0,1,1,1,1,0","3",""
"","html-keyboard-response","173","71634","0.0-173.0","3YDTZAI2WY2SK4KUDZVKF0YYPS114D","A3VL1CBZ3BGQK7","3UDTAB6HH6LRO17U79I9TKUGYFV09C","","null","<img src=""img/flower1.png"" style=""width:200px; border:14px solid green;"">","null","","","","","","","","",""
"","image-keyboard-response","174","71723","0.0-174.0","3YDTZAI2WY2SK4KUDZVKF0YYPS114D","A3VL1CBZ3BGQK7","3UDTAB6HH6LRO17U79I9TKUGYFV09C","","87.09999999403954","img/flower2.png","75","88.29999999701977","2","1","3","2","1,0,0,1,1,0,1,0,1","0,1,0,0,1,1,1,1,0","3",""
"","html-keyboard-response","175","72039","0.0-175.0","3YDTZAI2WY2SK4KUDZVKF0YYPS114D","A3VL1CBZ3BGQK7","3UDTAB6HH6LRO17U79I9TKUGYFV09C","","null","<img src=""img/flower2.png"" style=""width:200px; border:14px solid green;"">","null","","","","","","","","",""
"","image-keyboard-response","176","72099","0.0-176.0","3YDTZAI2WY2SK4KUDZVKF0YYPS114D","A3VL1CBZ3BGQK7","3UDTAB6HH6LRO17U79I9TKUGYFV09C","","57.5","img/flower2.png","75","59.5","2","1","3","2","1,0,0,1,1,0,1,0,1","0,1,0,0,1,1,1,1,0","3",""
"","html-keyboard-response","177","72402","0.0-177.0","3YDTZAI2WY2SK4KUDZVKF0YYPS114D","A3VL1CBZ3BGQK7","3UDTAB6HH6LRO17U79I9TKUGYFV09C","","null","<img src=""img/flower2.png"" style=""width:200px; border:14px solid green;"">","null","","","","","","","","",""
"","image-keyboard-response","178","72492","0.0-178.0","3YDTZAI2WY2SK4KUDZVKF0YYPS114D","A3VL1CBZ3BGQK7","3UDTAB6HH6LRO17U79I9TKUGYFV09C","","89","img/flower6.png","75","90","2","1","2","2","1,0,0,1,1,0,1,0,1","0,1,0,0,1,1,1,1,0","3",""
"","html-keyboard-response","179","72794","0.0-179.0","3YDTZAI2WY2SK4KUDZVKF0YYPS114D","A3VL1CBZ3BGQK7","3UDTAB6HH6LRO17U79I9TKUGYFV09C","","null","<img src=""img/flower6.png"" style=""width:200px; border:14px solid green;"">","null","","","","","","","","",""
"","image-keyboard-response","180","72861","0.0-180.0","3YDTZAI2WY2SK4KUDZVKF0YYPS114D","A3VL1CBZ3BGQK7","3UDTAB6HH6LRO17U79I9TKUGYFV09C","","64.79999999701977","img/flower1.png","75","66.6000000089407","2","1","1","2","1,0,0,1,1,0,1,0,1","0,1,0,0,1,1,1,1,0","3",""
"","html-keyboard-response","181","73164","0.0-181.0","3YDTZAI2WY2SK4KUDZVKF0YYPS114D","A3VL1CBZ3BGQK7","3UDTAB6HH6LRO17U79I9TKUGYFV09C","","null","<img src=""img/flower1.png"" style=""width:200px; border:14px solid green;"">","null","","","","","","","","",""
"","image-keyboard-response","182","73231","0.0-182.0","3YDTZAI2WY2SK4KUDZVKF0YYPS114D","A3VL1CBZ3BGQK7","3UDTAB6HH6LRO17U79I9TKUGYFV09C","","65.20000000298023","img/flower4.png","75","66.30000001192093","2","0","3","1","1,0.333,0.333,0.333,1,0.333,0.333,0.333,1","1,0.333,0.333,0.333,1,0.333,0.333,0.333,1","1",""
"","html-keyboard-response","183","73533","0.0-183.0","3YDTZAI2WY2SK4KUDZVKF0YYPS114D","A3VL1CBZ3BGQK7","3UDTAB6HH6LRO17U79I9TKUGYFV09C","","null","<img src=""img/flower4.png"" style=""width:200px;border:14px solid red;"">","null","","","","","","","","",""
"","image-keyboard-response","184","73593","0.0-184.0","3YDTZAI2WY2SK4KUDZVKF0YYPS114D","A3VL1CBZ3BGQK7","3UDTAB6HH6LRO17U79I9TKUGYFV09C","","58.20000000298023","img/flower3.png","75","60.20000000298023","2","1","2","1","1,0.333,0.333,0.333,1,0.333,0.333,0.333,1","1,0.333,0.333,0.333,1,0.333,0.333,0.333,1","1",""
"","html-keyboard-response","185","73896","0.0-185.0","3YDTZAI2WY2SK4KUDZVKF0YYPS114D","A3VL1CBZ3BGQK7","3UDTAB6HH6LRO17U79I9TKUGYFV09C","","null","<img src=""img/flower3.png"" style=""width:200px; border:14px solid green;"">","null","","","","","","","","",""
"","image-keyboard-response","186","74109","0.0-186.0","3YDTZAI2WY2SK4KUDZVKF0YYPS114D","A3VL1CBZ3BGQK7","3UDTAB6HH6LRO17U79I9TKUGYFV09C","","211.3999999910593","img/flower4.png","75","213.30000001192093","2","0","3","1","1,0.333,0.333,0.333,1,0.333,0.333,0.333,1","1,0.333,0.333,0.333,1,0.333,0.333,0.333,1","1",""
"","html-keyboard-response","187","74412","0.0-187.0","3YDTZAI2WY2SK4KUDZVKF0YYPS114D","A3VL1CBZ3BGQK7","3UDTAB6HH6LRO17U79I9TKUGYFV09C","","null","<img src=""img/flower4.png"" style=""width:200px;border:14px solid red;"">","null","","","","","","","","",""
"","image-keyboard-response","188","74420","0.0-188.0","3YDTZAI2WY2SK4KUDZVKF0YYPS114D","A3VL1CBZ3BGQK7","3UDTAB6HH6LRO17U79I9TKUGYFV09C","","5.200000002980232","img/flower3.png","75","6.799999997019768","2","1","2","1","1,0.333,0.333,0.333,1,0.333,0.333,0.333,1","1,0.333,0.333,0.333,1,0.333,0.333,0.333,1","1",""
"","html-keyboard-response","189","74725","0.0-189.0","3YDTZAI2WY2SK4KUDZVKF0YYPS114D","A3VL1CBZ3BGQK7","3UDTAB6HH6LRO17U79I9TKUGYFV09C","","null","<img src=""img/flower3.png"" style=""width:200px; border:14px solid green;"">","null","","","","","","","","",""
"","image-keyboard-response","190","75009","0.0-190.0","3YDTZAI2WY2SK4KUDZVKF0YYPS114D","A3VL1CBZ3BGQK7","3UDTAB6HH6LRO17U79I9TKUGYFV09C","","282.40000000596046","img/flower4.png","75","283.79999999701977","2","0","3","1","1,0.333,0.333,0.333,1,0.333,0.333,0.333,1","1,0.333,0.333,0.333,1,0.333,0.333,0.333,1","1",""
"","html-keyboard-response","191","75310","0.0-191.0","3YDTZAI2WY2SK4KUDZVKF0YYPS114D","A3VL1CBZ3BGQK7","3UDTAB6HH6LRO17U79I9TKUGYFV09C","","null","<img src=""img/flower4.png"" style=""width:200px;border:14px solid red;"">","null","","","","","","","","",""
"","image-keyboard-response","192","75732","0.0-192.0","3YDTZAI2WY2SK4KUDZVKF0YYPS114D","A3VL1CBZ3BGQK7","3UDTAB6HH6LRO17U79I9TKUGYFV09C","","420.30000001192093","img/flower4.png","75","421.6000000089407","2","0","3","1","1,0.333,0.333,0.333,1,0.333,0.333,0.333,1","1,0.333,0.333,0.333,1,0.333,0.333,0.333,1","1",""
"","html-keyboard-response","193","76034","0.0-193.0","3YDTZAI2WY2SK4KUDZVKF0YYPS114D","A3VL1CBZ3BGQK7","3UDTAB6HH6LRO17U79I9TKUGYFV09C","","null","<img src=""img/flower4.png"" style=""width:200px;border:14px solid red;"">","null","","","","","","","","",""
"","image-keyboard-response","194","76165","0.0-194.0","3YDTZAI2WY2SK4KUDZVKF0YYPS114D","A3VL1CBZ3BGQK7","3UDTAB6HH6LRO17U79I9TKUGYFV09C","","129.5","img/flower4.png","75","130.6000000089407","2","1","3","1","1,0.333,0.333,0.333,1,0.333,0.333,0.333,1","1,0.333,0.333,0.333,1,0.333,0.333,0.333,1","1",""
"","html-keyboard-response","195","76467","0.0-195.0","3YDTZAI2WY2SK4KUDZVKF0YYPS114D","A3VL1CBZ3BGQK7","3UDTAB6HH6LRO17U79I9TKUGYFV09C","","null","<img src=""img/flower4.png"" style=""width:200px; border:14px solid green;"">","null","","","","","","","","",""
"","image-keyboard-response","196","76567","0.0-196.0","3YDTZAI2WY2SK4KUDZVKF0YYPS114D","A3VL1CBZ3BGQK7","3UDTAB6HH6LRO17U79I9TKUGYFV09C","","98.19999998807907","img/flower3.png","75","99.79999999701977","2","1","2","1","1,0.333,0.333,0.333,1,0.333,0.333,0.333,1","1,0.333,0.333,0.333,1,0.333,0.333,0.333,1","1",""
"","html-keyboard-response","197","76870","0.0-197.0","3YDTZAI2WY2SK4KUDZVKF0YYPS114D","A3VL1CBZ3BGQK7","3UDTAB6HH6LRO17U79I9TKUGYFV09C","","null","<img src=""img/flower3.png"" style=""width:200px; border:14px solid green;"">","null","","","","","","","","",""
"","image-keyboard-response","198","76911","0.0-198.0","3YDTZAI2WY2SK4KUDZVKF0YYPS114D","A3VL1CBZ3BGQK7","3UDTAB6HH6LRO17U79I9TKUGYFV09C","","40.6000000089407","img/flower3.png","75","41.29999999701977","2","1","2","1","1,0.333,0.333,0.333,1,0.333,0.333,0.333,1","1,0.333,0.333,0.333,1,0.333,0.333,0.333,1","1",""
"","html-keyboard-response","199","77213","0.0-199.0","3YDTZAI2WY2SK4KUDZVKF0YYPS114D","A3VL1CBZ3BGQK7","3UDTAB6HH6LRO17U79I9TKUGYFV09C","","null","<img src=""img/flower3.png"" style=""width:200px; border:14px solid green;"">","null","","","","","","","","",""
"","image-keyboard-response","200","77338","0.0-200.0","3YDTZAI2WY2SK4KUDZVKF0YYPS114D","A3VL1CBZ3BGQK7","3UDTAB6HH6LRO17U79I9TKUGYFV09C","","122.90000000596046","img/flower4.png","75","124.79999999701977","2","0","3","1","1,0.333,0.333,0.333,1,0.333,0.333,0.333,1","1,0.333,0.333,0.333,1,0.333,0.333,0.333,1","1",""
"","html-keyboard-response","201","77640","0.0-201.0","3YDTZAI2WY2SK4KUDZVKF0YYPS114D","A3VL1CBZ3BGQK7","3UDTAB6HH6LRO17U79I9TKUGYFV09C","","null","<img src=""img/flower4.png"" style=""width:200px;border:14px solid red;"">","null","","","","","","","","",""
"","image-keyboard-response","202","77757","0.0-202.0","3YDTZAI2WY2SK4KUDZVKF0YYPS114D","A3VL1CBZ3BGQK7","3UDTAB6HH6LRO17U79I9TKUGYFV09C","","115.1000000089407","img/flower5.png","75","116.40000000596046","2","0","1","1","1,0.333,0.333,0.333,1,0.333,0.333,0.333,1","1,0.333,0.333,0.333,1,0.333,0.333,0.333,1","1",""
"","html-keyboard-response","203","78060","0.0-203.0","3YDTZAI2WY2SK4KUDZVKF0YYPS114D","A3VL1CBZ3BGQK7","3UDTAB6HH6LRO17U79I9TKUGYFV09C","","null","<img src=""img/flower5.png"" style=""width:200px;border:14px solid red;"">","null","","","","","","","","",""
"","image-keyboard-response","204","78087","0.0-204.0","3YDTZAI2WY2SK4KUDZVKF0YYPS114D","A3VL1CBZ3BGQK7","3UDTAB6HH6LRO17U79I9TKUGYFV09C","","25.299999997019768","img/flower4.png","75","26.5","2","1","3","1","1,0.333,0.333,0.333,1,0.333,0.333,0.333,1","1,0.333,0.333,0.333,1,0.333,0.333,0.333,1","1",""
"","html-keyboard-response","205","78389","0.0-205.0","3YDTZAI2WY2SK4KUDZVKF0YYPS114D","A3VL1CBZ3BGQK7","3UDTAB6HH6LRO17U79I9TKUGYFV09C","","null","<img src=""img/flower4.png"" style=""width:200px; border:14px solid green;"">","null","","","","","","","","",""
"","image-keyboard-response","206","78438","0.0-206.0","3YDTZAI2WY2SK4KUDZVKF0YYPS114D","A3VL1CBZ3BGQK7","3UDTAB6HH6LRO17U79I9TKUGYFV09C","","47.099999994039536","img/flower5.png","75","48.3999999910593","2","0","1","1","1,0.333,0.333,0.333,1,0.333,0.333,0.333,1","1,0.333,0.333,0.333,1,0.333,0.333,0.333,1","1",""
"","html-keyboard-response","207","78741","0.0-207.0","3YDTZAI2WY2SK4KUDZVKF0YYPS114D","A3VL1CBZ3BGQK7","3UDTAB6HH6LRO17U79I9TKUGYFV09C","","null","<img src=""img/flower5.png"" style=""width:200px;border:14px solid red;"">","null","","","","","","","","",""
"","image-keyboard-response","208","78804","0.0-208.0","3YDTZAI2WY2SK4KUDZVKF0YYPS114D","A3VL1CBZ3BGQK7","3UDTAB6HH6LRO17U79I9TKUGYFV09C","","61","img/flower5.png","75","62.79999999701977","2","0","1","1","1,0.333,0.333,0.333,1,0.333,0.333,0.333,1","1,0.333,0.333,0.333,1,0.333,0.333,0.333,1","1",""
"","html-keyboard-response","209","79107","0.0-209.0","3YDTZAI2WY2SK4KUDZVKF0YYPS114D","A3VL1CBZ3BGQK7","3UDTAB6HH6LRO17U79I9TKUGYFV09C","","null","<img src=""img/flower5.png"" style=""width:200px;border:14px solid red;"">","null","","","","","","","","",""
"","image-keyboard-response","210","79144","0.0-210.0","3YDTZAI2WY2SK4KUDZVKF0YYPS114D","A3VL1CBZ3BGQK7","3UDTAB6HH6LRO17U79I9TKUGYFV09C","","33.400000005960464","img/flower4.png","75","35.1000000089407","2","1","3","1","1,0.333,0.333,0.333,1,0.333,0.333,0.333,1","1,0.333,0.333,0.333,1,0.333,0.333,0.333,1","1",""
"","html-keyboard-response","211","79446","0.0-211.0","3YDTZAI2WY2SK4KUDZVKF0YYPS114D","A3VL1CBZ3BGQK7","3UDTAB6HH6LRO17U79I9TKUGYFV09C","","null","<img src=""img/flower4.png"" style=""width:200px; border:14px solid green;"">","null","","","","","","","","",""
"","image-keyboard-response","212","79516","0.0-212.0","3YDTZAI2WY2SK4KUDZVKF0YYPS114D","A3VL1CBZ3BGQK7","3UDTAB6HH6LRO17U79I9TKUGYFV09C","","67.79999999701977","img/flower5.png","75","69.29999999701977","2","0","1","1","1,0.333,0.333,0.333,1,0.333,0.333,0.333,1","1,0.333,0.333,0.333,1,0.333,0.333,0.333,1","1",""
"","html-keyboard-response","213","79819","0.0-213.0","3YDTZAI2WY2SK4KUDZVKF0YYPS114D","A3VL1CBZ3BGQK7","3UDTAB6HH6LRO17U79I9TKUGYFV09C","","null","<img src=""img/flower5.png"" style=""width:200px;border:14px solid red;"">","null","","","","","","","","",""
"","image-keyboard-response","214","79867","0.0-214.0","3YDTZAI2WY2SK4KUDZVKF0YYPS114D","A3VL1CBZ3BGQK7","3UDTAB6HH6LRO17U79I9TKUGYFV09C","","46","img/flower3.png","75","47.70000000298023","2","1","2","1","1,0.333,0.333,0.333,1,0.333,0.333,0.333,1","1,0.333,0.333,0.333,1,0.333,0.333,0.333,1","1",""
"","html-keyboard-response","215","80169","0.0-215.0","3YDTZAI2WY2SK4KUDZVKF0YYPS114D","A3VL1CBZ3BGQK7","3UDTAB6HH6LRO17U79I9TKUGYFV09C","","null","<img src=""img/flower3.png"" style=""width:200px; border:14px solid green;"">","null","","","","","","","","",""
"","image-keyboard-response","216","80271","0.0-216.0","3YDTZAI2WY2SK4KUDZVKF0YYPS114D","A3VL1CBZ3BGQK7","3UDTAB6HH6LRO17U79I9TKUGYFV09C","","98.70000000298023","img/flower4.png","75","100.90000000596046","2","0","3","1","1,0.333,0.333,0.333,1,0.333,0.333,0.333,1","1,0.333,0.333,0.333,1,0.333,0.333,0.333,1","1",""
"","html-keyboard-response","217","80574","0.0-217.0","3YDTZAI2WY2SK4KUDZVKF0YYPS114D","A3VL1CBZ3BGQK7","3UDTAB6HH6LRO17U79I9TKUGYFV09C","","null","<img src=""img/flower4.png"" style=""width:200px;border:14px solid red;"">","null","","","","","","","","",""
"","image-keyboard-response","218","80706","0.0-218.0","3YDTZAI2WY2SK4KUDZVKF0YYPS114D","A3VL1CBZ3BGQK7","3UDTAB6HH6LRO17U79I9TKUGYFV09C","","129.20000000298023","img/flower5.png","75","132","2","0","1","1","1,0.333,0.333,0.333,1,0.333,0.333,0.333,1","1,0.333,0.333,0.333,1,0.333,0.333,0.333,1","1",""
"","html-keyboard-response","219","81010","0.0-219.0","3YDTZAI2WY2SK4KUDZVKF0YYPS114D","A3VL1CBZ3BGQK7","3UDTAB6HH6LRO17U79I9TKUGYFV09C","","null","<img src=""img/flower5.png"" style=""width:200px;border:14px solid red;"">","null","","","","","","","","",""
"","image-keyboard-response","220","81136","0.0-220.0","3YDTZAI2WY2SK4KUDZVKF0YYPS114D","A3VL1CBZ3BGQK7","3UDTAB6HH6LRO17U79I9TKUGYFV09C","","125.6000000089407","img/flower5.png","75","126.40000000596046","2","1","1","1","1,0.333,0.333,0.333,1,0.333,0.333,0.333,1","1,0.333,0.333,0.333,1,0.333,0.333,0.333,1","1",""
"","html-keyboard-response","221","81438","0.0-221.0","3YDTZAI2WY2SK4KUDZVKF0YYPS114D","A3VL1CBZ3BGQK7","3UDTAB6HH6LRO17U79I9TKUGYFV09C","","null","<img src=""img/flower5.png"" style=""width:200px; border:14px solid green;"">","null","","","","","","","","",""
"","image-keyboard-response","222","81552","0.0-222.0","3YDTZAI2WY2SK4KUDZVKF0YYPS114D","A3VL1CBZ3BGQK7","3UDTAB6HH6LRO17U79I9TKUGYFV09C","","113.70000000298023","img/flower4.png","75","114.8999999910593","2","0","3","1","1,0.333,0.333,0.333,1,0.333,0.333,0.333,1","1,0.333,0.333,0.333,1,0.333,0.333,0.333,1","1",""
"","html-keyboard-response","223","81856","0.0-223.0","3YDTZAI2WY2SK4KUDZVKF0YYPS114D","A3VL1CBZ3BGQK7","3UDTAB6HH6LRO17U79I9TKUGYFV09C","","null","<img src=""img/flower4.png"" style=""width:200px;border:14px solid red;"">","null","","","","","","","","",""
"","image-keyboard-response","224","81984","0.0-224.0","3YDTZAI2WY2SK4KUDZVKF0YYPS114D","A3VL1CBZ3BGQK7","3UDTAB6HH6LRO17U79I9TKUGYFV09C","","126.90000000596046","img/flower3.png","75","128.20000000298023","2","1","2","1","1,0.333,0.333,0.333,1,0.333,0.333,0.333,1","1,0.333,0.333,0.333,1,0.333,0.333,0.333,1","1",""
"","html-keyboard-response","225","82287","0.0-225.0","3YDTZAI2WY2SK4KUDZVKF0YYPS114D","A3VL1CBZ3BGQK7","3UDTAB6HH6LRO17U79I9TKUGYFV09C","","null","<img src=""img/flower3.png"" style=""width:200px; border:14px solid green;"">","null","","","","","","","","",""
"","image-keyboard-response","226","82430","0.0-226.0","3YDTZAI2WY2SK4KUDZVKF0YYPS114D","A3VL1CBZ3BGQK7","3UDTAB6HH6LRO17U79I9TKUGYFV09C","","141.90000000596046","img/flower5.png","75","143.1000000089407","2","1","1","1","1,0.333,0.333,0.333,1,0.333,0.333,0.333,1","1,0.333,0.333,0.333,1,0.333,0.333,0.333,1","1",""
"","html-keyboard-response","227","82734","0.0-227.0","3YDTZAI2WY2SK4KUDZVKF0YYPS114D","A3VL1CBZ3BGQK7","3UDTAB6HH6LRO17U79I9TKUGYFV09C","","null","<img src=""img/flower5.png"" style=""width:200px; border:14px solid green;"">","null","","","","","","","","",""
"","image-keyboard-response","228","82819","0.0-228.0","3YDTZAI2WY2SK4KUDZVKF0YYPS114D","A3VL1CBZ3BGQK7","3UDTAB6HH6LRO17U79I9TKUGYFV09C","","83.70000000298023","img/flower4.png","75","85.20000000298023","2","0","3","1","1,0.333,0.333,0.333,1,0.333,0.333,0.333,1","1,0.333,0.333,0.333,1,0.333,0.333,0.333,1","1",""
"","html-keyboard-response","229","83122","0.0-229.0","3YDTZAI2WY2SK4KUDZVKF0YYPS114D","A3VL1CBZ3BGQK7","3UDTAB6HH6LRO17U79I9TKUGYFV09C","","null","<img src=""img/flower4.png"" style=""width:200px;border:14px solid red;"">","null","","","","","","","","",""
"","image-keyboard-response","230","83258","0.0-230.0","3YDTZAI2WY2SK4KUDZVKF0YYPS114D","A3VL1CBZ3BGQK7","3UDTAB6HH6LRO17U79I9TKUGYFV09C","","134.79999999701977","img/flower5.png","75","135.8999999910593","2","0","1","1","1,0.333,0.333,0.333,1,0.333,0.333,0.333,1","1,0.333,0.333,0.333,1,0.333,0.333,0.333,1","1",""
"","html-keyboard-response","231","83561","0.0-231.0","3YDTZAI2WY2SK4KUDZVKF0YYPS114D","A3VL1CBZ3BGQK7","3UDTAB6HH6LRO17U79I9TKUGYFV09C","","null","<img src=""img/flower5.png"" style=""width:200px;border:14px solid red;"">","null","","","","","","","","",""
"","image-keyboard-response","232","83670","0.0-232.0","3YDTZAI2WY2SK4KUDZVKF0YYPS114D","A3VL1CBZ3BGQK7","3UDTAB6HH6LRO17U79I9TKUGYFV09C","","106.09999999403954","img/flower4.png","75","108.20000000298023","2","0","3","1","1,0.333,0.333,0.333,1,0.333,0.333,0.333,1","1,0.333,0.333,0.333,1,0.333,0.333,0.333,1","1",""
"","html-keyboard-response","233","83972","0.0-233.0","3YDTZAI2WY2SK4KUDZVKF0YYPS114D","A3VL1CBZ3BGQK7","3UDTAB6HH6LRO17U79I9TKUGYFV09C","","null","<img src=""img/flower4.png"" style=""width:200px;border:14px solid red;"">","null","","","","","","","","",""
"","image-keyboard-response","234","84103","0.0-234.0","3YDTZAI2WY2SK4KUDZVKF0YYPS114D","A3VL1CBZ3BGQK7","3UDTAB6HH6LRO17U79I9TKUGYFV09C","","128.79999999701977","img/flower3.png","75","130.3999999910593","2","1","2","1","1,0.333,0.333,0.333,1,0.333,0.333,0.333,1","1,0.333,0.333,0.333,1,0.333,0.333,0.333,1","1",""
"","html-keyboard-response","235","84405","0.0-235.0","3YDTZAI2WY2SK4KUDZVKF0YYPS114D","A3VL1CBZ3BGQK7","3UDTAB6HH6LRO17U79I9TKUGYFV09C","","null","<img src=""img/flower3.png"" style=""width:200px; border:14px solid green;"">","null","","","","","","","","",""
"","image-keyboard-response","236","84419","0.0-236.0","3YDTZAI2WY2SK4KUDZVKF0YYPS114D","A3VL1CBZ3BGQK7","3UDTAB6HH6LRO17U79I9TKUGYFV09C","","12.599999994039536","img/flower4.png","74","13.399999991059303","1","0","3","1","1,0.333,0.333,0.333,1,0.333,0.333,0.333,1","1,0.333,0.333,0.333,1,0.333,0.333,0.333,1","1",""
"","html-keyboard-response","237","84720","0.0-237.0","3YDTZAI2WY2SK4KUDZVKF0YYPS114D","A3VL1CBZ3BGQK7","3UDTAB6HH6LRO17U79I9TKUGYFV09C","","null","<img src=""img/flower4.png"" style=""width:200px;border:14px solid red;"">","null","","","","","","","","",""
"","image-keyboard-response","238","84872","0.0-238.0","3YDTZAI2WY2SK4KUDZVKF0YYPS114D","A3VL1CBZ3BGQK7","3UDTAB6HH6LRO17U79I9TKUGYFV09C","","149.90000000596046","img/flower4.png","74","151","1","1","3","1","1,0.333,0.333,0.333,1,0.333,0.333,0.333,1","1,0.333,0.333,0.333,1,0.333,0.333,0.333,1","1",""
"","html-keyboard-response","239","85174","0.0-239.0","3YDTZAI2WY2SK4KUDZVKF0YYPS114D","A3VL1CBZ3BGQK7","3UDTAB6HH6LRO17U79I9TKUGYFV09C","","null","<img src=""img/flower4.png"" style=""width:200px; border:14px solid green;"">","null","","","","","","","","",""
"","image-keyboard-response","240","85260","0.0-240.0","3YDTZAI2WY2SK4KUDZVKF0YYPS114D","A3VL1CBZ3BGQK7","3UDTAB6HH6LRO17U79I9TKUGYFV09C","","84.5","img/flower4.png","74","85.09999999403954","1","0","3","1","1,0.333,0.333,0.333,1,0.333,0.333,0.333,1","1,0.333,0.333,0.333,1,0.333,0.333,0.333,1","1",""
"","html-keyboard-response","241","85562","0.0-241.0","3YDTZAI2WY2SK4KUDZVKF0YYPS114D","A3VL1CBZ3BGQK7","3UDTAB6HH6LRO17U79I9TKUGYFV09C","","null","<img src=""img/flower4.png"" style=""width:200px;border:14px solid red;"">","null","","","","","","","","",""
"","image-keyboard-response","242","85616","0.0-242.0","3YDTZAI2WY2SK4KUDZVKF0YYPS114D","A3VL1CBZ3BGQK7","3UDTAB6HH6LRO17U79I9TKUGYFV09C","","51.099999994039536","img/flower3.png","74","52.900000005960464","1","1","2","1","1,0.333,0.333,0.333,1,0.333,0.333,0.333,1","1,0.333,0.333,0.333,1,0.333,0.333,0.333,1","1",""
"","html-keyboard-response","243","85917","0.0-243.0","3YDTZAI2WY2SK4KUDZVKF0YYPS114D","A3VL1CBZ3BGQK7","3UDTAB6HH6LRO17U79I9TKUGYFV09C","","null","<img src=""img/flower3.png"" style=""width:200px; border:14px solid green;"">","null","","","","","","","","",""
"","image-keyboard-response","244","86372","0.0-244.0","3YDTZAI2WY2SK4KUDZVKF0YYPS114D","A3VL1CBZ3BGQK7","3UDTAB6HH6LRO17U79I9TKUGYFV09C","","452.90000000596046","img/flower4.png","75","454.40000000596046","2","0","3","1","1,0.333,0.333,0.333,1,0.333,0.333,0.333,1","1,0.333,0.333,0.333,1,0.333,0.333,0.333,1","1",""
"","html-keyboard-response","245","86673","0.0-245.0","3YDTZAI2WY2SK4KUDZVKF0YYPS114D","A3VL1CBZ3BGQK7","3UDTAB6HH6LRO17U79I9TKUGYFV09C","","null","<img src=""img/flower4.png"" style=""width:200px;border:14px solid red;"">","null","","","","","","","","",""
"","image-keyboard-response","246","86753","0.0-246.0","3YDTZAI2WY2SK4KUDZVKF0YYPS114D","A3VL1CBZ3BGQK7","3UDTAB6HH6LRO17U79I9TKUGYFV09C","","77.8999999910593","img/flower3.png","75","79.59999999403954","2","1","2","1","1,0.333,0.333,0.333,1,0.333,0.333,0.333,1","1,0.333,0.333,0.333,1,0.333,0.333,0.333,1","1",""
"","html-keyboard-response","247","87056","0.0-247.0","3YDTZAI2WY2SK4KUDZVKF0YYPS114D","A3VL1CBZ3BGQK7","3UDTAB6HH6LRO17U79I9TKUGYFV09C","","null","<img src=""img/flower3.png"" style=""width:200px; border:14px solid green;"">","null","","","","","","","","",""
"","image-keyboard-response","248","87184","0.0-248.0","3YDTZAI2WY2SK4KUDZVKF0YYPS114D","A3VL1CBZ3BGQK7","3UDTAB6HH6LRO17U79I9TKUGYFV09C","","127","img/flower3.png","75","128.1000000089407","2","1","2","1","1,0.333,0.333,0.333,1,0.333,0.333,0.333,1","1,0.333,0.333,0.333,1,0.333,0.333,0.333,1","1",""
"","html-keyboard-response","249","87486","0.0-249.0","3YDTZAI2WY2SK4KUDZVKF0YYPS114D","A3VL1CBZ3BGQK7","3UDTAB6HH6LRO17U79I9TKUGYFV09C","","null","<img src=""img/flower3.png"" style=""width:200px; border:14px solid green;"">","null","","","","","","","","",""
"","image-keyboard-response","250","87579","0.0-250.0","3YDTZAI2WY2SK4KUDZVKF0YYPS114D","A3VL1CBZ3BGQK7","3UDTAB6HH6LRO17U79I9TKUGYFV09C","","90.69999998807907","img/flower5.png","75","92.5","2","1","1","1","1,0.333,0.333,0.333,1,0.333,0.333,0.333,1","1,0.333,0.333,0.333,1,0.333,0.333,0.333,1","1",""
"","html-keyboard-response","251","87895","0.0-251.0","3YDTZAI2WY2SK4KUDZVKF0YYPS114D","A3VL1CBZ3BGQK7","3UDTAB6HH6LRO17U79I9TKUGYFV09C","","null","<img src=""img/flower5.png"" style=""width:200px; border:14px solid green;"">","null","","","","","","","","",""
"","image-keyboard-response","252","88020","0.0-252.0","3YDTZAI2WY2SK4KUDZVKF0YYPS114D","A3VL1CBZ3BGQK7","3UDTAB6HH6LRO17U79I9TKUGYFV09C","","123.20000000298023","img/flower5.png","75","124.40000000596046","2","1","1","1","1,0.333,0.333,0.333,1,0.333,0.333,0.333,1","1,0.333,0.333,0.333,1,0.333,0.333,0.333,1","1",""
"","html-keyboard-response","253","88323","0.0-253.0","3YDTZAI2WY2SK4KUDZVKF0YYPS114D","A3VL1CBZ3BGQK7","3UDTAB6HH6LRO17U79I9TKUGYFV09C","","null","<img src=""img/flower5.png"" style=""width:200px; border:14px solid green;"">","null","","","","","","","","",""
"","image-keyboard-response","254","88461","0.0-254.0","3YDTZAI2WY2SK4KUDZVKF0YYPS114D","A3VL1CBZ3BGQK7","3UDTAB6HH6LRO17U79I9TKUGYFV09C","","136","img/flower4.png","75","137.90000000596046","2","0","3","1","1,0.333,0.333,0.333,1,0.333,0.333,0.333,1","1,0.333,0.333,0.333,1,0.333,0.333,0.333,1","1",""
"","html-keyboard-response","255","88765","0.0-255.0","3YDTZAI2WY2SK4KUDZVKF0YYPS114D","A3VL1CBZ3BGQK7","3UDTAB6HH6LRO17U79I9TKUGYFV09C","","null","<img src=""img/flower4.png"" style=""width:200px;border:14px solid red;"">","null","","","","","","","","",""
"","image-keyboard-response","256","89232","0.0-256.0","3YDTZAI2WY2SK4KUDZVKF0YYPS114D","A3VL1CBZ3BGQK7","3UDTAB6HH6LRO17U79I9TKUGYFV09C","","464.20000000298023","img/flower5.png","75","466","2","0","1","1","1,0.333,0.333,0.333,1,0.333,0.333,0.333,1","1,0.333,0.333,0.333,1,0.333,0.333,0.333,1","1",""
"","html-keyboard-response","257","89536","0.0-257.0","3YDTZAI2WY2SK4KUDZVKF0YYPS114D","A3VL1CBZ3BGQK7","3UDTAB6HH6LRO17U79I9TKUGYFV09C","","null","<img src=""img/flower5.png"" style=""width:200px;border:14px solid red;"">","null","","","","","","","","",""
"","image-keyboard-response","258","89906","0.0-258.0","3YDTZAI2WY2SK4KUDZVKF0YYPS114D","A3VL1CBZ3BGQK7","3UDTAB6HH6LRO17U79I9TKUGYFV09C","","369.3999999910593","img/flower3.png","75","370.1000000089407","2","1","2","1","1,0.333,0.333,0.333,1,0.333,0.333,0.333,1","1,0.333,0.333,0.333,1,0.333,0.333,0.333,1","1",""
"","html-keyboard-response","259","90208","0.0-259.0","3YDTZAI2WY2SK4KUDZVKF0YYPS114D","A3VL1CBZ3BGQK7","3UDTAB6HH6LRO17U79I9TKUGYFV09C","","null","<img src=""img/flower3.png"" style=""width:200px; border:14px solid green;"">","null","","","","","","","","",""
"","image-keyboard-response","260","90501","0.0-260.0","3YDTZAI2WY2SK4KUDZVKF0YYPS114D","A3VL1CBZ3BGQK7","3UDTAB6HH6LRO17U79I9TKUGYFV09C","","291.20000000298023","img/flower5.png","75","292.6000000089407","2","1","1","1","1,0.333,0.333,0.333,1,0.333,0.333,0.333,1","1,0.333,0.333,0.333,1,0.333,0.333,0.333,1","1",""
"","html-keyboard-response","261","90803","0.0-261.0","3YDTZAI2WY2SK4KUDZVKF0YYPS114D","A3VL1CBZ3BGQK7","3UDTAB6HH6LRO17U79I9TKUGYFV09C","","null","<img src=""img/flower5.png"" style=""width:200px; border:14px solid green;"">","null","","","","","","","","",""
"","image-keyboard-response","262","91087","0.0-262.0","3YDTZAI2WY2SK4KUDZVKF0YYPS114D","A3VL1CBZ3BGQK7","3UDTAB6HH6LRO17U79I9TKUGYFV09C","","281.5","img/flower5.png","75","283.1000000089407","2","0","1","1","1,0.333,0.333,0.333,1,0.333,0.333,0.333,1","1,0.333,0.333,0.333,1,0.333,0.333,0.333,1","1",""
"","html-keyboard-response","263","91388","0.0-263.0","3YDTZAI2WY2SK4KUDZVKF0YYPS114D","A3VL1CBZ3BGQK7","3UDTAB6HH6LRO17U79I9TKUGYFV09C","","null","<img src=""img/flower5.png"" style=""width:200px;border:14px solid red;"">","null","","","","","","","","",""
"","image-keyboard-response","264","91844","0.0-264.0","3YDTZAI2WY2SK4KUDZVKF0YYPS114D","A3VL1CBZ3BGQK7","3UDTAB6HH6LRO17U79I9TKUGYFV09C","","453.8999999910593","img/flower5.png","74","455.5","1","1","1","1","1,0.333,0.333,0.333,1,0.333,0.333,0.333,1","1,0.333,0.333,0.333,1,0.333,0.333,0.333,1","1",""
"","html-keyboard-response","265","92148","0.0-265.0","3YDTZAI2WY2SK4KUDZVKF0YYPS114D","A3VL1CBZ3BGQK7","3UDTAB6HH6LRO17U79I9TKUGYFV09C","","null","<img src=""img/flower5.png"" style=""width:200px; border:14px solid green;"">","null","","","","","","","","",""
"","image-keyboard-response","266","92444","0.0-266.0","3YDTZAI2WY2SK4KUDZVKF0YYPS114D","A3VL1CBZ3BGQK7","3UDTAB6HH6LRO17U79I9TKUGYFV09C","","295.59999999403954","img/flower5.png","74","296.5","1","1","1","1","1,0.333,0.333,0.333,1,0.333,0.333,0.333,1","1,0.333,0.333,0.333,1,0.333,0.333,0.333,1","1",""
"","html-keyboard-response","267","92748","0.0-267.0","3YDTZAI2WY2SK4KUDZVKF0YYPS114D","A3VL1CBZ3BGQK7","3UDTAB6HH6LRO17U79I9TKUGYFV09C","","null","<img src=""img/flower5.png"" style=""width:200px; border:14px solid green;"">","null","","","","","","","","",""
"","image-keyboard-response","268","92988","0.0-268.0","3YDTZAI2WY2SK4KUDZVKF0YYPS114D","A3VL1CBZ3BGQK7","3UDTAB6HH6LRO17U79I9TKUGYFV09C","","238.5","img/flower3.png","74","240.40000000596046","1","0","2","1","1,0.333,0.333,0.333,1,0.333,0.333,0.333,1","1,0.333,0.333,0.333,1,0.333,0.333,0.333,1","1",""
"","html-keyboard-response","269","93290","0.0-269.0","3YDTZAI2WY2SK4KUDZVKF0YYPS114D","A3VL1CBZ3BGQK7","3UDTAB6HH6LRO17U79I9TKUGYFV09C","","null","<img src=""img/flower3.png"" style=""width:200px;border:14px solid red;"">","null","","","","","","","","",""
"","image-keyboard-response","270","93789","0.0-270.0","3YDTZAI2WY2SK4KUDZVKF0YYPS114D","A3VL1CBZ3BGQK7","3UDTAB6HH6LRO17U79I9TKUGYFV09C","","496.90000000596046","img/flower3.png","75","498.09999999403954","2","1","2","1","1,0.333,0.333,0.333,1,0.333,0.333,0.333,1","1,0.333,0.333,0.333,1,0.333,0.333,0.333,1","1",""
"","html-keyboard-response","271","94090","0.0-271.0","3YDTZAI2WY2SK4KUDZVKF0YYPS114D","A3VL1CBZ3BGQK7","3UDTAB6HH6LRO17U79I9TKUGYFV09C","","null","<img src=""img/flower3.png"" style=""width:200px; border:14px solid green;"">","null","","","","","","","","",""
"","image-keyboard-response","272","94387","0.0-272.0","3YDTZAI2WY2SK4KUDZVKF0YYPS114D","A3VL1CBZ3BGQK7","3UDTAB6HH6LRO17U79I9TKUGYFV09C","","294.6000000089407","img/flower3.png","75","296.1000000089407","2","1","2","1","1,0.333,0.333,0.333,1,0.333,0.333,0.333,1","1,0.333,0.333,0.333,1,0.333,0.333,0.333,1","1",""
"","html-keyboard-response","273","94689","0.0-273.0","3YDTZAI2WY2SK4KUDZVKF0YYPS114D","A3VL1CBZ3BGQK7","3UDTAB6HH6LRO17U79I9TKUGYFV09C","","null","<img src=""img/flower3.png"" style=""width:200px; border:14px solid green;"">","null","","","","","","","","",""
"","image-keyboard-response","274","94892","0.0-274.0","3YDTZAI2WY2SK4KUDZVKF0YYPS114D","A3VL1CBZ3BGQK7","3UDTAB6HH6LRO17U79I9TKUGYFV09C","","201.20000000298023","img/flower3.png","75","202.90000000596046","2","1","2","1","1,0.333,0.333,0.333,1,0.333,0.333,0.333,1","1,0.333,0.333,0.333,1,0.333,0.333,0.333,1","1",""
"","html-keyboard-response","275","95196","0.0-275.0","3YDTZAI2WY2SK4KUDZVKF0YYPS114D","A3VL1CBZ3BGQK7","3UDTAB6HH6LRO17U79I9TKUGYFV09C","","null","<img src=""img/flower3.png"" style=""width:200px; border:14px solid green;"">","null","","","","","","","","",""
"","image-keyboard-response","276","95668","0.0-276.0","3YDTZAI2WY2SK4KUDZVKF0YYPS114D","A3VL1CBZ3BGQK7","3UDTAB6HH6LRO17U79I9TKUGYFV09C","","470","img/flower4.png","74","471","1","0","3","1","1,0.333,0.333,0.333,1,0.333,0.333,0.333,1","1,0.333,0.333,0.333,1,0.333,0.333,0.333,1","1",""
"","html-keyboard-response","277","95970","0.0-277.0","3YDTZAI2WY2SK4KUDZVKF0YYPS114D","A3VL1CBZ3BGQK7","3UDTAB6HH6LRO17U79I9TKUGYFV09C","","null","<img src=""img/flower4.png"" style=""width:200px;border:14px solid red;"">","null","","","","","","","","",""
"","image-keyboard-response","278","96600","0.0-278.0","3YDTZAI2WY2SK4KUDZVKF0YYPS114D","A3VL1CBZ3BGQK7","3UDTAB6HH6LRO17U79I9TKUGYFV09C","","627.5","img/flower4.png","75","629.3999999910593","2","1","3","1","1,0.333,0.333,0.333,1,0.333,0.333,0.333,1","1,0.333,0.333,0.333,1,0.333,0.333,0.333,1","1",""
"","html-keyboard-response","279","96903","0.0-279.0","3YDTZAI2WY2SK4KUDZVKF0YYPS114D","A3VL1CBZ3BGQK7","3UDTAB6HH6LRO17U79I9TKUGYFV09C","","null","<img src=""img/flower4.png"" style=""width:200px; border:14px solid green;"">","null","","","","","","","","",""
"","image-keyboard-response","280","97231","0.0-280.0","3YDTZAI2WY2SK4KUDZVKF0YYPS114D","A3VL1CBZ3BGQK7","3UDTAB6HH6LRO17U79I9TKUGYFV09C","","325.79999999701977","img/flower4.png","75","327.69999998807907","2","0","3","1","1,0.333,0.333,0.333,1,0.333,0.333,0.333,1","1,0.333,0.333,0.333,1,0.333,0.333,0.333,1","1",""
"","html-keyboard-response","281","97534","0.0-281.0","3YDTZAI2WY2SK4KUDZVKF0YYPS114D","A3VL1CBZ3BGQK7","3UDTAB6HH6LRO17U79I9TKUGYFV09C","","null","<img src=""img/flower4.png"" style=""width:200px;border:14px solid red;"">","null","","","","","","","","",""
"","image-keyboard-response","282","97805","0.0-282.0","3YDTZAI2WY2SK4KUDZVKF0YYPS114D","A3VL1CBZ3BGQK7","3UDTAB6HH6LRO17U79I9TKUGYFV09C","","268.5","img/flower3.png","75","269.90000000596046","2","1","2","1","1,0.333,0.333,0.333,1,0.333,0.333,0.333,1","1,0.333,0.333,0.333,1,0.333,0.333,0.333,1","1",""
"","html-keyboard-response","283","98107","0.0-283.0","3YDTZAI2WY2SK4KUDZVKF0YYPS114D","A3VL1CBZ3BGQK7","3UDTAB6HH6LRO17U79I9TKUGYFV09C","","null","<img src=""img/flower3.png"" style=""width:200px; border:14px solid green;"">","null","","","","","","","","",""
"","image-keyboard-response","284","98265","0.0-284.0","3YDTZAI2WY2SK4KUDZVKF0YYPS114D","A3VL1CBZ3BGQK7","3UDTAB6HH6LRO17U79I9TKUGYFV09C","","157.19999998807907","img/flower3.png","75","157.90000000596046","2","1","2","1","1,0.333,0.333,0.333,1,0.333,0.333,0.333,1","1,0.333,0.333,0.333,1,0.333,0.333,0.333,1","1",""
"","html-keyboard-response","285","98567","0.0-285.0","3YDTZAI2WY2SK4KUDZVKF0YYPS114D","A3VL1CBZ3BGQK7","3UDTAB6HH6LRO17U79I9TKUGYFV09C","","null","<img src=""img/flower3.png"" style=""width:200px; border:14px solid green;"">","null","","","","","","","","",""
"","image-keyboard-response","286","98816","0.0-286.0","3YDTZAI2WY2SK4KUDZVKF0YYPS114D","A3VL1CBZ3BGQK7","3UDTAB6HH6LRO17U79I9TKUGYFV09C","","247.19999998807907","img/flower3.png","75","249.20000000298023","2","1","2","1","1,0.333,0.333,0.333,1,0.333,0.333,0.333,1","1,0.333,0.333,0.333,1,0.333,0.333,0.333,1","1",""
"","html-keyboard-response","287","99119","0.0-287.0","3YDTZAI2WY2SK4KUDZVKF0YYPS114D","A3VL1CBZ3BGQK7","3UDTAB6HH6LRO17U79I9TKUGYFV09C","","null","<img src=""img/flower3.png"" style=""width:200px; border:14px solid green;"">","null","","","","","","","","",""
"","image-keyboard-response","288","99322","0.0-288.0","3YDTZAI2WY2SK4KUDZVKF0YYPS114D","A3VL1CBZ3BGQK7","3UDTAB6HH6LRO17U79I9TKUGYFV09C","","201.5","img/flower4.png","75","202.8999999910593","2","0","3","1","1,0.333,0.333,0.333,1,0.333,0.333,0.333,1","1,0.333,0.333,0.333,1,0.333,0.333,0.333,1","1",""
"","html-keyboard-response","289","99624","0.0-289.0","3YDTZAI2WY2SK4KUDZVKF0YYPS114D","A3VL1CBZ3BGQK7","3UDTAB6HH6LRO17U79I9TKUGYFV09C","","null","<img src=""img/flower4.png"" style=""width:200px;border:14px solid red;"">","null","","","","","","","","",""
"","image-keyboard-response","290","99822","0.0-290.0","3YDTZAI2WY2SK4KUDZVKF0YYPS114D","A3VL1CBZ3BGQK7","3UDTAB6HH6LRO17U79I9TKUGYFV09C","","196.59999999403954","img/flower3.png","75","197.8999999910593","2","1","2","1","1,0.333,0.333,0.333,1,0.333,0.333,0.333,1","1,0.333,0.333,0.333,1,0.333,0.333,0.333,1","1",""
"","html-keyboard-response","291","100126","0.0-291.0","3YDTZAI2WY2SK4KUDZVKF0YYPS114D","A3VL1CBZ3BGQK7","3UDTAB6HH6LRO17U79I9TKUGYFV09C","","null","<img src=""img/flower3.png"" style=""width:200px; border:14px solid green;"">","null","","","","","","","","",""
"","image-keyboard-response","292","100269","0.0-292.0","3YDTZAI2WY2SK4KUDZVKF0YYPS114D","A3VL1CBZ3BGQK7","3UDTAB6HH6LRO17U79I9TKUGYFV09C","","142","img/flower3.png","75","143.29999999701977","2","1","2","1","1,0.333,0.333,0.333,1,0.333,0.333,0.333,1","1,0.333,0.333,0.333,1,0.333,0.333,0.333,1","1",""
"","html-keyboard-response","293","100572","0.0-293.0","3YDTZAI2WY2SK4KUDZVKF0YYPS114D","A3VL1CBZ3BGQK7","3UDTAB6HH6LRO17U79I9TKUGYFV09C","","null","<img src=""img/flower3.png"" style=""width:200px; border:14px solid green;"">","null","","","","","","","","",""
"","image-keyboard-response","294","100638","0.0-294.0","3YDTZAI2WY2SK4KUDZVKF0YYPS114D","A3VL1CBZ3BGQK7","3UDTAB6HH6LRO17U79I9TKUGYFV09C","","64","img/flower4.png","75","65.59999999403954","2","1","3","1","1,0.333,0.333,0.333,1,0.333,0.333,0.333,1","1,0.333,0.333,0.333,1,0.333,0.333,0.333,1","1",""
"","html-keyboard-response","295","100941","0.0-295.0","3YDTZAI2WY2SK4KUDZVKF0YYPS114D","A3VL1CBZ3BGQK7","3UDTAB6HH6LRO17U79I9TKUGYFV09C","","null","<img src=""img/flower4.png"" style=""width:200px; border:14px solid green;"">","null","","","","","","","","",""
"","image-keyboard-response","296","101079","0.0-296.0","3YDTZAI2WY2SK4KUDZVKF0YYPS114D","A3VL1CBZ3BGQK7","3UDTAB6HH6LRO17U79I9TKUGYFV09C","","136.8999999910593","img/flower3.png","75","138.09999999403954","2","1","2","1","1,0.333,0.333,0.333,1,0.333,0.333,0.333,1","1,0.333,0.333,0.333,1,0.333,0.333,0.333,1","1",""
"","html-keyboard-response","297","101382","0.0-297.0","3YDTZAI2WY2SK4KUDZVKF0YYPS114D","A3VL1CBZ3BGQK7","3UDTAB6HH6LRO17U79I9TKUGYFV09C","","null","<img src=""img/flower3.png"" style=""width:200px; border:14px solid green;"">","null","","","","","","","","",""
"","image-keyboard-response","298","101489","0.0-298.0","3YDTZAI2WY2SK4KUDZVKF0YYPS114D","A3VL1CBZ3BGQK7","3UDTAB6HH6LRO17U79I9TKUGYFV09C","","104.6000000089407","img/flower5.png","75","106.5","2","1","1","1","1,0.333,0.333,0.333,1,0.333,0.333,0.333,1","1,0.333,0.333,0.333,1,0.333,0.333,0.333,1","1",""
"","html-keyboard-response","299","101793","0.0-299.0","3YDTZAI2WY2SK4KUDZVKF0YYPS114D","A3VL1CBZ3BGQK7","3UDTAB6HH6LRO17U79I9TKUGYFV09C","","null","<img src=""img/flower5.png"" style=""width:200px; border:14px solid green;"">","null","","","","","","","","",""
"","image-keyboard-response","300","101928","0.0-300.0","3YDTZAI2WY2SK4KUDZVKF0YYPS114D","A3VL1CBZ3BGQK7","3UDTAB6HH6LRO17U79I9TKUGYFV09C","","134.09999999403954","img/flower5.png","75","135.09999999403954","2","0","1","1","1,0.333,0.333,0.333,1,0.333,0.333,0.333,1","1,0.333,0.333,0.333,1,0.333,0.333,0.333,1","1",""
"","html-keyboard-response","301","102230","0.0-301.0","3YDTZAI2WY2SK4KUDZVKF0YYPS114D","A3VL1CBZ3BGQK7","3UDTAB6HH6LRO17U79I9TKUGYFV09C","","null","<img src=""img/flower5.png"" style=""width:200px;border:14px solid red;"">","null","","","","","","","","",""
"","image-keyboard-response","302","102345","0.0-302.0","3YDTZAI2WY2SK4KUDZVKF0YYPS114D","A3VL1CBZ3BGQK7","3UDTAB6HH6LRO17U79I9TKUGYFV09C","","114","img/flower4.png","75","115.29999999701977","2","1","3","1","1,0.333,0.333,0.333,1,0.333,0.333,0.333,1","1,0.333,0.333,0.333,1,0.333,0.333,0.333,1","1",""
"","html-keyboard-response","303","102649","0.0-303.0","3YDTZAI2WY2SK4KUDZVKF0YYPS114D","A3VL1CBZ3BGQK7","3UDTAB6HH6LRO17U79I9TKUGYFV09C","","null","<img src=""img/flower4.png"" style=""width:200px; border:14px solid green;"">","null","","","","","","","","",""
"","image-keyboard-response","304","102771","0.0-304.0","3YDTZAI2WY2SK4KUDZVKF0YYPS114D","A3VL1CBZ3BGQK7","3UDTAB6HH6LRO17U79I9TKUGYFV09C","","119.20000000298023","img/flower3.png","75","121.5","2","1","2","1","1,0.333,0.333,0.333,1,0.333,0.333,0.333,1","1,0.333,0.333,0.333,1,0.333,0.333,0.333,1","1",""
"","html-keyboard-response","305","103075","0.0-305.0","3YDTZAI2WY2SK4KUDZVKF0YYPS114D","A3VL1CBZ3BGQK7","3UDTAB6HH6LRO17U79I9TKUGYFV09C","","null","<img src=""img/flower3.png"" style=""width:200px; border:14px solid green;"">","null","","","","","","","","",""
"","image-keyboard-response","306","103234","0.0-306.0","3YDTZAI2WY2SK4KUDZVKF0YYPS114D","A3VL1CBZ3BGQK7","3UDTAB6HH6LRO17U79I9TKUGYFV09C","","157.20000000298023","img/flower5.png","75","158.5","2","1","1","1","1,0.333,0.333,0.333,1,0.333,0.333,0.333,1","1,0.333,0.333,0.333,1,0.333,0.333,0.333,1","1",""
"","html-keyboard-response","307","103537","0.0-307.0","3YDTZAI2WY2SK4KUDZVKF0YYPS114D","A3VL1CBZ3BGQK7","3UDTAB6HH6LRO17U79I9TKUGYFV09C","","null","<img src=""img/flower5.png"" style=""width:200px; border:14px solid green;"">","null","","","","","","","","",""
"","image-keyboard-response","308","103671","0.0-308.0","3YDTZAI2WY2SK4KUDZVKF0YYPS114D","A3VL1CBZ3BGQK7","3UDTAB6HH6LRO17U79I9TKUGYFV09C","","132.5","img/flower3.png","75","134.09999999403954","2","1","2","1","1,0.333,0.333,0.333,1,0.333,0.333,0.333,1","1,0.333,0.333,0.333,1,0.333,0.333,0.333,1","1",""
"","html-keyboard-response","309","103989","0.0-309.0","3YDTZAI2WY2SK4KUDZVKF0YYPS114D","A3VL1CBZ3BGQK7","3UDTAB6HH6LRO17U79I9TKUGYFV09C","","null","<img src=""img/flower3.png"" style=""width:200px; border:14px solid green;"">","null","","","","","","","","",""
"","image-keyboard-response","310","104043","0.0-310.0","3YDTZAI2WY2SK4KUDZVKF0YYPS114D","A3VL1CBZ3BGQK7","3UDTAB6HH6LRO17U79I9TKUGYFV09C","","52.5","img/flower5.png","75","53.79999999701977","2","1","1","1","1,0.333,0.333,0.333,1,0.333,0.333,0.333,1","1,0.333,0.333,0.333,1,0.333,0.333,0.333,1","1",""
"","html-keyboard-response","311","104346","0.0-311.0","3YDTZAI2WY2SK4KUDZVKF0YYPS114D","A3VL1CBZ3BGQK7","3UDTAB6HH6LRO17U79I9TKUGYFV09C","","null","<img src=""img/flower5.png"" style=""width:200px; border:14px solid green;"">","null","","","","","","","","",""
"","image-keyboard-response","312","104453","0.0-312.0","3YDTZAI2WY2SK4KUDZVKF0YYPS114D","A3VL1CBZ3BGQK7","3UDTAB6HH6LRO17U79I9TKUGYFV09C","","104.70000000298023","img/flower3.png","75","106.5","2","1","2","1","1,0.333,0.333,0.333,1,0.333,0.333,0.333,1","1,0.333,0.333,0.333,1,0.333,0.333,0.333,1","1",""
"","html-keyboard-response","313","104756","0.0-313.0","3YDTZAI2WY2SK4KUDZVKF0YYPS114D","A3VL1CBZ3BGQK7","3UDTAB6HH6LRO17U79I9TKUGYFV09C","","null","<img src=""img/flower3.png"" style=""width:200px; border:14px solid green;"">","null","","","","","","","","",""
"","image-keyboard-response","314","104853","0.0-314.0","3YDTZAI2WY2SK4KUDZVKF0YYPS114D","A3VL1CBZ3BGQK7","3UDTAB6HH6LRO17U79I9TKUGYFV09C","","95.70000000298023","img/flower4.png","75","97.20000000298023","2","1","3","1","1,0.333,0.333,0.333,1,0.333,0.333,0.333,1","1,0.333,0.333,0.333,1,0.333,0.333,0.333,1","1",""
"","html-keyboard-response","315","105156","0.0-315.0","3YDTZAI2WY2SK4KUDZVKF0YYPS114D","A3VL1CBZ3BGQK7","3UDTAB6HH6LRO17U79I9TKUGYFV09C","","null","<img src=""img/flower4.png"" style=""width:200px; border:14px solid green;"">","null","","","","","","","","",""
"","image-keyboard-response","316","105253","0.0-316.0","3YDTZAI2WY2SK4KUDZVKF0YYPS114D","A3VL1CBZ3BGQK7","3UDTAB6HH6LRO17U79I9TKUGYFV09C","","94.09999999403954","img/flower5.png","75","95.29999999701977","2","0","1","1","1,0.333,0.333,0.333,1,0.333,0.333,0.333,1","1,0.333,0.333,0.333,1,0.333,0.333,0.333,1","1",""
"","html-keyboard-response","317","105556","0.0-317.0","3YDTZAI2WY2SK4KUDZVKF0YYPS114D","A3VL1CBZ3BGQK7","3UDTAB6HH6LRO17U79I9TKUGYFV09C","","null","<img src=""img/flower5.png"" style=""width:200px;border:14px solid red;"">","null","","","","","","","","",""
"","image-keyboard-response","318","105843","0.0-318.0","3YDTZAI2WY2SK4KUDZVKF0YYPS114D","A3VL1CBZ3BGQK7","3UDTAB6HH6LRO17U79I9TKUGYFV09C","","284.59999999403954","img/flower3.png","75","286.1000000089407","2","1","2","1","1,0.333,0.333,0.333,1,0.333,0.333,0.333,1","1,0.333,0.333,0.333,1,0.333,0.333,0.333,1","1",""
"","html-keyboard-response","319","106144","0.0-319.0","3YDTZAI2WY2SK4KUDZVKF0YYPS114D","A3VL1CBZ3BGQK7","3UDTAB6HH6LRO17U79I9TKUGYFV09C","","null","<img src=""img/flower3.png"" style=""width:200px; border:14px solid green;"">","null","","","","","","","","",""
"","image-keyboard-response","320","106289","0.0-320.0","3YDTZAI2WY2SK4KUDZVKF0YYPS114D","A3VL1CBZ3BGQK7","3UDTAB6HH6LRO17U79I9TKUGYFV09C","","142.19999998807907","img/flower5.png","75","143.5","2","0","1","1","1,0.333,0.333,0.333,1,0.333,0.333,0.333,1","1,0.333,0.333,0.333,1,0.333,0.333,0.333,1","1",""
"","html-keyboard-response","321","106590","0.0-321.0","3YDTZAI2WY2SK4KUDZVKF0YYPS114D","A3VL1CBZ3BGQK7","3UDTAB6HH6LRO17U79I9TKUGYFV09C","","null","<img src=""img/flower5.png"" style=""width:200px;border:14px solid red;"">","null","","","","","","","","",""
"","image-keyboard-response","322","106854","0.0-322.0","3YDTZAI2WY2SK4KUDZVKF0YYPS114D","A3VL1CBZ3BGQK7","3UDTAB6HH6LRO17U79I9TKUGYFV09C","","261.59999999403954","img/flower5.png","75","262.8999999910593","2","0","1","1","1,0.333,0.333,0.333,1,0.333,0.333,0.333,1","1,0.333,0.333,0.333,1,0.333,0.333,0.333,1","1",""
"","html-keyboard-response","323","107156","0.0-323.0","3YDTZAI2WY2SK4KUDZVKF0YYPS114D","A3VL1CBZ3BGQK7","3UDTAB6HH6LRO17U79I9TKUGYFV09C","","null","<img src=""img/flower5.png"" style=""width:200px;border:14px solid red;"">","null","","","","","","","","",""
"","image-keyboard-response","324","107351","0.0-324.0","3YDTZAI2WY2SK4KUDZVKF0YYPS114D","A3VL1CBZ3BGQK7","3UDTAB6HH6LRO17U79I9TKUGYFV09C","","192.70000000298023","img/flower5.png","74","194.5","1","1","1","1","1,0.333,0.333,0.333,1,0.333,0.333,0.333,1","1,0.333,0.333,0.333,1,0.333,0.333,0.333,1","1",""
"","html-keyboard-response","325","107654","0.0-325.0","3YDTZAI2WY2SK4KUDZVKF0YYPS114D","A3VL1CBZ3BGQK7","3UDTAB6HH6LRO17U79I9TKUGYFV09C","","null","<img src=""img/flower5.png"" style=""width:200px; border:14px solid green;"">","null","","","","","","","","",""
"","image-keyboard-response","326","107822","0.0-326.0","3YDTZAI2WY2SK4KUDZVKF0YYPS114D","A3VL1CBZ3BGQK7","3UDTAB6HH6LRO17U79I9TKUGYFV09C","","166.69999998807907","img/flower3.png","74","167.79999999701977","1","0","2","1","1,0.333,0.333,0.333,1,0.333,0.333,0.333,1","1,0.333,0.333,0.333,1,0.333,0.333,0.333,1","1",""
"","html-keyboard-response","327","108125","0.0-327.0","3YDTZAI2WY2SK4KUDZVKF0YYPS114D","A3VL1CBZ3BGQK7","3UDTAB6HH6LRO17U79I9TKUGYFV09C","","null","<img src=""img/flower3.png"" style=""width:200px;border:14px solid red;"">","null","","","","","","","","",""
"","image-keyboard-response","328","108391","0.0-328.0","3YDTZAI2WY2SK4KUDZVKF0YYPS114D","A3VL1CBZ3BGQK7","3UDTAB6HH6LRO17U79I9TKUGYFV09C","","263.20000000298023","img/flower5.png","75","264.6000000089407","2","0","1","1","1,0.333,0.333,0.333,1,0.333,0.333,0.333,1","1,0.333,0.333,0.333,1,0.333,0.333,0.333,1","1",""
"","html-keyboard-response","329","108692","0.0-329.0","3YDTZAI2WY2SK4KUDZVKF0YYPS114D","A3VL1CBZ3BGQK7","3UDTAB6HH6LRO17U79I9TKUGYFV09C","","null","<img src=""img/flower5.png"" style=""width:200px;border:14px solid red;"">","null","","","","","","","","",""
"","image-keyboard-response","330","109053","0.0-330.0","3YDTZAI2WY2SK4KUDZVKF0YYPS114D","A3VL1CBZ3BGQK7","3UDTAB6HH6LRO17U79I9TKUGYFV09C","","359.20000000298023","img/flower5.png","74","360.29999999701977","1","1","1","1","1,0.333,0.333,0.333,1,0.333,0.333,0.333,1","1,0.333,0.333,0.333,1,0.333,0.333,0.333,1","1",""
"","html-keyboard-response","331","109355","0.0-331.0","3YDTZAI2WY2SK4KUDZVKF0YYPS114D","A3VL1CBZ3BGQK7","3UDTAB6HH6LRO17U79I9TKUGYFV09C","","null","<img src=""img/flower5.png"" style=""width:200px; border:14px solid green;"">","null","","","","","","","","",""
"","image-keyboard-response","332","109623","0.0-332.0","3YDTZAI2WY2SK4KUDZVKF0YYPS114D","A3VL1CBZ3BGQK7","3UDTAB6HH6LRO17U79I9TKUGYFV09C","","266.19999998807907","img/flower4.png","74","267.20000000298023","1","0","3","1","1,0.333,0.333,0.333,1,0.333,0.333,0.333,1","1,0.333,0.333,0.333,1,0.333,0.333,0.333,1","1",""
"","html-keyboard-response","333","109925","0.0-333.0","3YDTZAI2WY2SK4KUDZVKF0YYPS114D","A3VL1CBZ3BGQK7","3UDTAB6HH6LRO17U79I9TKUGYFV09C","","null","<img src=""img/flower4.png"" style=""width:200px;border:14px solid red;"">","null","","","","","","","","",""
"","image-keyboard-response","334","110299","0.0-334.0","3YDTZAI2WY2SK4KUDZVKF0YYPS114D","A3VL1CBZ3BGQK7","3UDTAB6HH6LRO17U79I9TKUGYFV09C","","371.8999999910593","img/flower4.png","75","373.09999999403954","2","0","3","1","1,0.333,0.333,0.333,1,0.333,0.333,0.333,1","1,0.333,0.333,0.333,1,0.333,0.333,0.333,1","1",""
"","html-keyboard-response","335","110601","0.0-335.0","3YDTZAI2WY2SK4KUDZVKF0YYPS114D","A3VL1CBZ3BGQK7","3UDTAB6HH6LRO17U79I9TKUGYFV09C","","null","<img src=""img/flower4.png"" style=""width:200px;border:14px solid red;"">","null","","","","","","","","",""
"","image-keyboard-response","336","110969","0.0-336.0","3YDTZAI2WY2SK4KUDZVKF0YYPS114D","A3VL1CBZ3BGQK7","3UDTAB6HH6LRO17U79I9TKUGYFV09C","","366","img/flower3.png","75","367.5","2","1","2","1","1,0.333,0.333,0.333,1,0.333,0.333,0.333,1","1,0.333,0.333,0.333,1,0.333,0.333,0.333,1","1",""
"","html-keyboard-response","337","111271","0.0-337.0","3YDTZAI2WY2SK4KUDZVKF0YYPS114D","A3VL1CBZ3BGQK7","3UDTAB6HH6LRO17U79I9TKUGYFV09C","","null","<img src=""img/flower3.png"" style=""width:200px; border:14px solid green;"">","null","","","","","","","","",""
"","image-keyboard-response","338","111535","0.0-338.0","3YDTZAI2WY2SK4KUDZVKF0YYPS114D","A3VL1CBZ3BGQK7","3UDTAB6HH6LRO17U79I9TKUGYFV09C","","262.90000000596046","img/flower5.png","75","264.1000000089407","2","0","1","1","1,0.333,0.333,0.333,1,0.333,0.333,0.333,1","1,0.333,0.333,0.333,1,0.333,0.333,0.333,1","1",""
"","html-keyboard-response","339","111837","0.0-339.0","3YDTZAI2WY2SK4KUDZVKF0YYPS114D","A3VL1CBZ3BGQK7","3UDTAB6HH6LRO17U79I9TKUGYFV09C","","null","<img src=""img/flower5.png"" style=""width:200px;border:14px solid red;"">","null","","","","","","","","",""
"","image-keyboard-response","340","112231","0.0-340.0","3YDTZAI2WY2SK4KUDZVKF0YYPS114D","A3VL1CBZ3BGQK7","3UDTAB6HH6LRO17U79I9TKUGYFV09C","","391.79999999701977","img/flower5.png","74","393.70000000298023","1","1","1","1","1,0.333,0.333,0.333,1,0.333,0.333,0.333,1","1,0.333,0.333,0.333,1,0.333,0.333,0.333,1","1",""
"","html-keyboard-response","341","112535","0.0-341.0","3YDTZAI2WY2SK4KUDZVKF0YYPS114D","A3VL1CBZ3BGQK7","3UDTAB6HH6LRO17U79I9TKUGYFV09C","","null","<img src=""img/flower5.png"" style=""width:200px; border:14px solid green;"">","null","","","","","","","","",""
"","image-keyboard-response","342","112947","0.0-342.0","3YDTZAI2WY2SK4KUDZVKF0YYPS114D","A3VL1CBZ3BGQK7","3UDTAB6HH6LRO17U79I9TKUGYFV09C","","411","img/flower4.png","74","411.8999999910593","1","0","3","1","1,0.333,0.333,0.333,1,0.333,0.333,0.333,1","1,0.333,0.333,0.333,1,0.333,0.333,0.333,1","1",""
"","html-keyboard-response","343","113249","0.0-343.0","3YDTZAI2WY2SK4KUDZVKF0YYPS114D","A3VL1CBZ3BGQK7","3UDTAB6HH6LRO17U79I9TKUGYFV09C","","null","<img src=""img/flower4.png"" style=""width:200px;border:14px solid red;"">","null","","","","","","","","",""
"","image-keyboard-response","344","113568","0.0-344.0","3YDTZAI2WY2SK4KUDZVKF0YYPS114D","A3VL1CBZ3BGQK7","3UDTAB6HH6LRO17U79I9TKUGYFV09C","","318.40000000596046","img/flower5.png","75","319.59999999403954","2","0","1","1","1,0.333,0.333,0.333,1,0.333,0.333,0.333,1","1,0.333,0.333,0.333,1,0.333,0.333,0.333,1","1",""
"","html-keyboard-response","345","113870","0.0-345.0","3YDTZAI2WY2SK4KUDZVKF0YYPS114D","A3VL1CBZ3BGQK7","3UDTAB6HH6LRO17U79I9TKUGYFV09C","","null","<img src=""img/flower5.png"" style=""width:200px;border:14px solid red;"">","null","","","","","","","","",""
"","image-keyboard-response","346","114247","0.0-346.0","3YDTZAI2WY2SK4KUDZVKF0YYPS114D","A3VL1CBZ3BGQK7","3UDTAB6HH6LRO17U79I9TKUGYFV09C","","373.70000000298023","img/flower3.png","75","375.40000000596046","2","1","2","1","1,0.333,0.333,0.333,1,0.333,0.333,0.333,1","1,0.333,0.333,0.333,1,0.333,0.333,0.333,1","1",""
"","html-keyboard-response","347","114548","0.0-347.0","3YDTZAI2WY2SK4KUDZVKF0YYPS114D","A3VL1CBZ3BGQK7","3UDTAB6HH6LRO17U79I9TKUGYFV09C","","null","<img src=""img/flower3.png"" style=""width:200px; border:14px solid green;"">","null","","","","","","","","",""
"","image-keyboard-response","348","115025","0.0-348.0","3YDTZAI2WY2SK4KUDZVKF0YYPS114D","A3VL1CBZ3BGQK7","3UDTAB6HH6LRO17U79I9TKUGYFV09C","","473.8999999910593","img/flower4.png","75","476","2","0","3","1","1,0.333,0.333,0.333,1,0.333,0.333,0.333,1","1,0.333,0.333,0.333,1,0.333,0.333,0.333,1","1",""
"","html-keyboard-response","349","115327","0.0-349.0","3YDTZAI2WY2SK4KUDZVKF0YYPS114D","A3VL1CBZ3BGQK7","3UDTAB6HH6LRO17U79I9TKUGYFV09C","","null","<img src=""img/flower4.png"" style=""width:200px;border:14px solid red;"">","null","","","","","","","","",""
"","image-keyboard-response","350","115580","0.0-350.0","3YDTZAI2WY2SK4KUDZVKF0YYPS114D","A3VL1CBZ3BGQK7","3UDTAB6HH6LRO17U79I9TKUGYFV09C","","251.40000000596046","img/flower3.png","75","254.20000000298023","2","1","2","1","1,0.333,0.333,0.333,1,0.333,0.333,0.333,1","1,0.333,0.333,0.333,1,0.333,0.333,0.333,1","1",""
"","html-keyboard-response","351","115884","0.0-351.0","3YDTZAI2WY2SK4KUDZVKF0YYPS114D","A3VL1CBZ3BGQK7","3UDTAB6HH6LRO17U79I9TKUGYFV09C","","null","<img src=""img/flower3.png"" style=""width:200px; border:14px solid green;"">","null","","","","","","","","",""
"","image-keyboard-response","352","116272","0.0-352.0","3YDTZAI2WY2SK4KUDZVKF0YYPS114D","A3VL1CBZ3BGQK7","3UDTAB6HH6LRO17U79I9TKUGYFV09C","","386.3999999910593","img/flower3.png","75","387.59999999403954","2","1","2","1","1,0.333,0.333,0.333,1,0.333,0.333,0.333,1","1,0.333,0.333,0.333,1,0.333,0.333,0.333,1","1",""
"","html-keyboard-response","353","116574","0.0-353.0","3YDTZAI2WY2SK4KUDZVKF0YYPS114D","A3VL1CBZ3BGQK7","3UDTAB6HH6LRO17U79I9TKUGYFV09C","","null","<img src=""img/flower3.png"" style=""width:200px; border:14px solid green;"">","null","","","","","","","","",""
"","image-keyboard-response","354","116916","0.0-354.0","3YDTZAI2WY2SK4KUDZVKF0YYPS114D","A3VL1CBZ3BGQK7","3UDTAB6HH6LRO17U79I9TKUGYFV09C","","339.20000000298023","img/flower4.png","75","341.20000000298023","2","1","3","1","1,0.333,0.333,0.333,1,0.333,0.333,0.333,1","1,0.333,0.333,0.333,1,0.333,0.333,0.333,1","1",""
"","html-keyboard-response","355","117218","0.0-355.0","3YDTZAI2WY2SK4KUDZVKF0YYPS114D","A3VL1CBZ3BGQK7","3UDTAB6HH6LRO17U79I9TKUGYFV09C","","null","<img src=""img/flower4.png"" style=""width:200px; border:14px solid green;"">","null","","","","","","","","",""
"","image-keyboard-response","356","117552","0.0-356.0","3YDTZAI2WY2SK4KUDZVKF0YYPS114D","A3VL1CBZ3BGQK7","3UDTAB6HH6LRO17U79I9TKUGYFV09C","","331.09999999403954","img/flower5.png","75","333","2","0","1","1","1,0.333,0.333,0.333,1,0.333,0.333,0.333,1","1,0.333,0.333,0.333,1,0.333,0.333,0.333,1","1",""
"","html-keyboard-response","357","117855","0.0-357.0","3YDTZAI2WY2SK4KUDZVKF0YYPS114D","A3VL1CBZ3BGQK7","3UDTAB6HH6LRO17U79I9TKUGYFV09C","","null","<img src=""img/flower5.png"" style=""width:200px;border:14px solid red;"">","null","","","","","","","","",""
"","image-keyboard-response","358","118243","0.0-358.0","3YDTZAI2WY2SK4KUDZVKF0YYPS114D","A3VL1CBZ3BGQK7","3UDTAB6HH6LRO17U79I9TKUGYFV09C","","385.09999999403954","img/flower5.png","75","386.80000001192093","2","0","1","1","1,0.333,0.333,0.333,1,0.333,0.333,0.333,1","1,0.333,0.333,0.333,1,0.333,0.333,0.333,1","1",""
"","html-keyboard-response","359","118545","0.0-359.0","3YDTZAI2WY2SK4KUDZVKF0YYPS114D","A3VL1CBZ3BGQK7","3UDTAB6HH6LRO17U79I9TKUGYFV09C","","null","<img src=""img/flower5.png"" style=""width:200px;border:14px solid red;"">","null","","","","","","","","",""
"","image-keyboard-response","360","118889","0.0-360.0","3YDTZAI2WY2SK4KUDZVKF0YYPS114D","A3VL1CBZ3BGQK7","3UDTAB6HH6LRO17U79I9TKUGYFV09C","","342.69999998807907","img/flower4.png","75","343.80000001192093","2","1","3","1","1,0.333,0.333,0.333,1,0.333,0.333,0.333,1","1,0.333,0.333,0.333,1,0.333,0.333,0.333,1","1",""
"","html-keyboard-response","361","119191","0.0-361.0","3YDTZAI2WY2SK4KUDZVKF0YYPS114D","A3VL1CBZ3BGQK7","3UDTAB6HH6LRO17U79I9TKUGYFV09C","","null","<img src=""img/flower4.png"" style=""width:200px; border:14px solid green;"">","null","","","","","","","","",""
"","html-keyboard-response","362","121936","0.0-362.0","3YDTZAI2WY2SK4KUDZVKF0YYPS114D","A3VL1CBZ3BGQK7","3UDTAB6HH6LRO17U79I9TKUGYFV09C","","","","","","","","","","","","",""
"","instructions","363","123008","0.0-363.0","3YDTZAI2WY2SK4KUDZVKF0YYPS114D","A3VL1CBZ3BGQK7","3UDTAB6HH6LRO17U79I9TKUGYFV09C","[{""page_index"":0,""viewing_time"":1071.300000011921}]","1071.5","","","","","","","","","","",""
"","survey-text","364","126130","0.0-364.0","3YDTZAI2WY2SK4KUDZVKF0YYPS114D","A3VL1CBZ3BGQK7","3UDTAB6HH6LRO17U79I9TKUGYFV09C","","3116.7999999970198","","","","","","","","","","","{""Q0"":""A3VL1CBZ3BGQK7""}"
