"rt","url","trial_type","trial_index","time_elapsed","internal_node_id","assignmentID","mturkID","hitID","success","view_history","stimulus","key_press","reactionTime","a","r","s","reward_cond","responses"
"9786","consent.html","external-html","0","9978","0.0-0.0","37FMASSAYDDN59110LQDFDLQCC8IBJ","A3VV07FCCSZ7JY","3FW4EL5A3LANKRP91N782LFHPY722Q","","","","","","","","","",""
"","","fullscreen","1","13149","0.0-1.0","37FMASSAYDDN59110LQDFDLQCC8IBJ","A3VV07FCCSZ7JY","3FW4EL5A3LANKRP91N782LFHPY722Q","true","","","","","","","","",""
"38360","","instructions","2","51513","0.0-2.0","37FMASSAYDDN59110LQDFDLQCC8IBJ","A3VV07FCCSZ7JY","3FW4EL5A3LANKRP91N782LFHPY722Q","","[{""page_index"":0,""viewing_time"":9007},{""page_index"":1,""viewing_time"":1438},{""page_index"":2,""viewing_time"":15726},{""page_index"":3,""viewing_time"":3997},{""page_index"":4,""viewing_time"":4384},{""page_index"":5,""viewing_time"":2366},{""page_index"":6,""viewing_time"":1440}]","","","","","","","",""
"50556","","instructions","3","102072","0.0-3.0","37FMASSAYDDN59110LQDFDLQCC8IBJ","A3VV07FCCSZ7JY","3FW4EL5A3LANKRP91N782LFHPY722Q","","[{""page_index"":0,""viewing_time"":50554}]","","","","","","","",""
"2114","","image-keyboard-response","4","104194","0.0-4.0","37FMASSAYDDN59110LQDFDLQCC8IBJ","A3VV07FCCSZ7JY","3FW4EL5A3LANKRP91N782LFHPY722Q","","","img/flower6.png","76","2121","3","1","3","",""
"null","","html-keyboard-response","5","104537","0.0-5.0","37FMASSAYDDN59110LQDFDLQCC8IBJ","A3VV07FCCSZ7JY","3FW4EL5A3LANKRP91N782LFHPY722Q","","","<img src=""img/flower6.png"" style=""width:200px; border:14px solid green;"">","null","","","","","",""
"3597","","image-keyboard-response","6","108140","0.0-6.0","37FMASSAYDDN59110LQDFDLQCC8IBJ","A3VV07FCCSZ7JY","3FW4EL5A3LANKRP91N782LFHPY722Q","","","img/flower5.png","75","3603","2","1","2","",""
"null","","html-keyboard-response","7","108444","0.0-7.0","37FMASSAYDDN59110LQDFDLQCC8IBJ","A3VV07FCCSZ7JY","3FW4EL5A3LANKRP91N782LFHPY722Q","","","<img src=""img/flower5.png"" style=""width:200px; border:14px solid green;"">","null","","","","","",""
"2233","","image-keyboard-response","8","110698","0.0-8.0","37FMASSAYDDN59110LQDFDLQCC8IBJ","A3VV07FCCSZ7JY","3FW4EL5A3LANKRP91N782LFHPY722Q","","","img/flower4.png","74","2253","1","1","1","",""
"null","","html-keyboard-response","9","111010","0.0-9.0","37FMASSAYDDN59110LQDFDLQCC8IBJ","A3VV07FCCSZ7JY","3FW4EL5A3LANKRP91N782LFHPY722Q","","","<img src=""img/flower4.png"" style=""width:200px; border:14px solid green;"">","null","","","","","",""
"2459","","image-keyboard-response","10","113486","0.0-10.0","37FMASSAYDDN59110LQDFDLQCC8IBJ","A3VV07FCCSZ7JY","3FW4EL5A3LANKRP91N782LFHPY722Q","","","img/flower5.png","75","2476","2","1","2","",""
"null","","html-keyboard-response","11","113805","0.0-11.0","37FMASSAYDDN59110LQDFDLQCC8IBJ","A3VV07FCCSZ7JY","3FW4EL5A3LANKRP91N782LFHPY722Q","","","<img src=""img/flower5.png"" style=""width:200px; border:14px solid green;"">","null","","","","","",""
"973","","image-keyboard-response","12","114783","0.0-12.0","37FMASSAYDDN59110LQDFDLQCC8IBJ","A3VV07FCCSZ7JY","3FW4EL5A3LANKRP91N782LFHPY722Q","","","img/flower4.png","74","975","1","0","1","",""
"null","","html-keyboard-response","13","115090","0.0-13.0","37FMASSAYDDN59110LQDFDLQCC8IBJ","A3VV07FCCSZ7JY","3FW4EL5A3LANKRP91N782LFHPY722Q","","","<img src=""img/flower4.png"" style=""width:200px;border:14px solid red;"">","null","","","","","",""
"1041","","image-keyboard-response","14","116133","0.0-14.0","37FMASSAYDDN59110LQDFDLQCC8IBJ","A3VV07FCCSZ7JY","3FW4EL5A3LANKRP91N782LFHPY722Q","","","img/flower4.png","74","1043","1","1","1","",""
"null","","html-keyboard-response","15","116456","0.0-15.0","37FMASSAYDDN59110LQDFDLQCC8IBJ","A3VV07FCCSZ7JY","3FW4EL5A3LANKRP91N782LFHPY722Q","","","<img src=""img/flower4.png"" style=""width:200px; border:14px solid green;"">","null","","","","","",""
"940","","image-keyboard-response","16","117411","0.0-16.0","37FMASSAYDDN59110LQDFDLQCC8IBJ","A3VV07FCCSZ7JY","3FW4EL5A3LANKRP91N782LFHPY722Q","","","img/flower5.png","75","955","2","1","2","",""
"null","","html-keyboard-response","17","117729","0.0-17.0","37FMASSAYDDN59110LQDFDLQCC8IBJ","A3VV07FCCSZ7JY","3FW4EL5A3LANKRP91N782LFHPY722Q","","","<img src=""img/flower5.png"" style=""width:200px; border:14px solid green;"">","null","","","","","",""
"973","","image-keyboard-response","18","118704","0.0-18.0","37FMASSAYDDN59110LQDFDLQCC8IBJ","A3VV07FCCSZ7JY","3FW4EL5A3LANKRP91N782LFHPY722Q","","","img/flower4.png","74","974","1","1","1","",""
"null","","html-keyboard-response","19","119024","0.0-19.0","37FMASSAYDDN59110LQDFDLQCC8IBJ","A3VV07FCCSZ7JY","3FW4EL5A3LANKRP91N782LFHPY722Q","","","<img src=""img/flower4.png"" style=""width:200px; border:14px solid green;"">","null","","","","","",""
"2716","","image-keyboard-response","20","121747","0.0-20.0","37FMASSAYDDN59110LQDFDLQCC8IBJ","A3VV07FCCSZ7JY","3FW4EL5A3LANKRP91N782LFHPY722Q","","","img/flower4.png","74","2723","1","1","1","",""
"null","","html-keyboard-response","21","122055","0.0-21.0","37FMASSAYDDN59110LQDFDLQCC8IBJ","A3VV07FCCSZ7JY","3FW4EL5A3LANKRP91N782LFHPY722Q","","","<img src=""img/flower4.png"" style=""width:200px; border:14px solid green;"">","null","","","","","",""
"2047","","image-keyboard-response","22","124103","0.0-22.0","37FMASSAYDDN59110LQDFDLQCC8IBJ","A3VV07FCCSZ7JY","3FW4EL5A3LANKRP91N782LFHPY722Q","","","img/flower4.png","74","2048","1","1","1","",""
"null","","html-keyboard-response","23","124424","0.0-23.0","37FMASSAYDDN59110LQDFDLQCC8IBJ","A3VV07FCCSZ7JY","3FW4EL5A3LANKRP91N782LFHPY722Q","","","<img src=""img/flower4.png"" style=""width:200px; border:14px solid green;"">","null","","","","","",""
"925","","image-keyboard-response","24","125364","0.0-24.0","37FMASSAYDDN59110LQDFDLQCC8IBJ","A3VV07FCCSZ7JY","3FW4EL5A3LANKRP91N782LFHPY722Q","","","img/flower5.png","75","940","2","0","2","",""
"null","","html-keyboard-response","25","125667","0.0-25.0","37FMASSAYDDN59110LQDFDLQCC8IBJ","A3VV07FCCSZ7JY","3FW4EL5A3LANKRP91N782LFHPY722Q","","","<img src=""img/flower5.png"" style=""width:200px;border:14px solid red;"">","null","","","","","",""
"1802","","image-keyboard-response","26","127482","0.0-26.0","37FMASSAYDDN59110LQDFDLQCC8IBJ","A3VV07FCCSZ7JY","3FW4EL5A3LANKRP91N782LFHPY722Q","","","img/flower4.png","75","1814","2","1","1","",""
"null","","html-keyboard-response","27","127791","0.0-27.0","37FMASSAYDDN59110LQDFDLQCC8IBJ","A3VV07FCCSZ7JY","3FW4EL5A3LANKRP91N782LFHPY722Q","","","<img src=""img/flower4.png"" style=""width:200px; border:14px solid green;"">","null","","","","","",""
"1080","","image-keyboard-response","28","128876","0.0-28.0","37FMASSAYDDN59110LQDFDLQCC8IBJ","A3VV07FCCSZ7JY","3FW4EL5A3LANKRP91N782LFHPY722Q","","","img/flower6.png","76","1085","3","1","3","",""
"null","","html-keyboard-response","29","129189","0.0-29.0","37FMASSAYDDN59110LQDFDLQCC8IBJ","A3VV07FCCSZ7JY","3FW4EL5A3LANKRP91N782LFHPY722Q","","","<img src=""img/flower6.png"" style=""width:200px; border:14px solid green;"">","null","","","","","",""
"1654","","image-keyboard-response","30","130856","0.0-30.0","37FMASSAYDDN59110LQDFDLQCC8IBJ","A3VV07FCCSZ7JY","3FW4EL5A3LANKRP91N782LFHPY722Q","","","img/flower5.png","75","1667","2","1","2","",""
"null","","html-keyboard-response","31","131161","0.0-31.0","37FMASSAYDDN59110LQDFDLQCC8IBJ","A3VV07FCCSZ7JY","3FW4EL5A3LANKRP91N782LFHPY722Q","","","<img src=""img/flower5.png"" style=""width:200px; border:14px solid green;"">","null","","","","","",""
"1994","","image-keyboard-response","32","133172","0.0-32.0","37FMASSAYDDN59110LQDFDLQCC8IBJ","A3VV07FCCSZ7JY","3FW4EL5A3LANKRP91N782LFHPY722Q","","","img/flower5.png","75","2011","2","1","2","",""
"null","","html-keyboard-response","33","133489","0.0-33.0","37FMASSAYDDN59110LQDFDLQCC8IBJ","A3VV07FCCSZ7JY","3FW4EL5A3LANKRP91N782LFHPY722Q","","","<img src=""img/flower5.png"" style=""width:200px; border:14px solid green;"">","null","","","","","",""
"1174","","image-keyboard-response","34","134664","0.0-34.0","37FMASSAYDDN59110LQDFDLQCC8IBJ","A3VV07FCCSZ7JY","3FW4EL5A3LANKRP91N782LFHPY722Q","","","img/flower4.png","74","1178","1","1","1","",""
"null","","html-keyboard-response","35","134980","0.0-35.0","37FMASSAYDDN59110LQDFDLQCC8IBJ","A3VV07FCCSZ7JY","3FW4EL5A3LANKRP91N782LFHPY722Q","","","<img src=""img/flower4.png"" style=""width:200px; border:14px solid green;"">","null","","","","","",""
"1315","","image-keyboard-response","36","136301","0.0-36.0","37FMASSAYDDN59110LQDFDLQCC8IBJ","A3VV07FCCSZ7JY","3FW4EL5A3LANKRP91N782LFHPY722Q","","","img/flower5.png","75","1317","2","1","2","",""
"null","","html-keyboard-response","37","136603","0.0-37.0","37FMASSAYDDN59110LQDFDLQCC8IBJ","A3VV07FCCSZ7JY","3FW4EL5A3LANKRP91N782LFHPY722Q","","","<img src=""img/flower5.png"" style=""width:200px; border:14px solid green;"">","null","","","","","",""
"1100","","image-keyboard-response","38","137705","0.0-38.0","37FMASSAYDDN59110LQDFDLQCC8IBJ","A3VV07FCCSZ7JY","3FW4EL5A3LANKRP91N782LFHPY722Q","","","img/flower6.png","76","1102","3","1","3","",""
"null","","html-keyboard-response","39","138020","0.0-39.0","37FMASSAYDDN59110LQDFDLQCC8IBJ","A3VV07FCCSZ7JY","3FW4EL5A3LANKRP91N782LFHPY722Q","","","<img src=""img/flower6.png"" style=""width:200px; border:14px solid green;"">","null","","","","","",""
"2197","","image-keyboard-response","40","140235","0.0-40.0","37FMASSAYDDN59110LQDFDLQCC8IBJ","A3VV07FCCSZ7JY","3FW4EL5A3LANKRP91N782LFHPY722Q","","","img/flower6.png","76","2214","3","1","3","",""
"null","","html-keyboard-response","41","140538","0.0-41.0","37FMASSAYDDN59110LQDFDLQCC8IBJ","A3VV07FCCSZ7JY","3FW4EL5A3LANKRP91N782LFHPY722Q","","","<img src=""img/flower6.png"" style=""width:200px; border:14px solid green;"">","null","","","","","",""
"1049","","image-keyboard-response","42","141594","0.0-42.0","37FMASSAYDDN59110LQDFDLQCC8IBJ","A3VV07FCCSZ7JY","3FW4EL5A3LANKRP91N782LFHPY722Q","","","img/flower5.png","75","1055","2","0","2","",""
"null","","html-keyboard-response","43","141905","0.0-43.0","37FMASSAYDDN59110LQDFDLQCC8IBJ","A3VV07FCCSZ7JY","3FW4EL5A3LANKRP91N782LFHPY722Q","","","<img src=""img/flower5.png"" style=""width:200px;border:14px solid red;"">","null","","","","","",""
"1178","","image-keyboard-response","44","143092","0.0-44.0","37FMASSAYDDN59110LQDFDLQCC8IBJ","A3VV07FCCSZ7JY","3FW4EL5A3LANKRP91N782LFHPY722Q","","","img/flower6.png","76","1186","3","1","3","",""
"null","","html-keyboard-response","45","143405","0.0-45.0","37FMASSAYDDN59110LQDFDLQCC8IBJ","A3VV07FCCSZ7JY","3FW4EL5A3LANKRP91N782LFHPY722Q","","","<img src=""img/flower6.png"" style=""width:200px; border:14px solid green;"">","null","","","","","",""
"941","","image-keyboard-response","46","144357","0.0-46.0","37FMASSAYDDN59110LQDFDLQCC8IBJ","A3VV07FCCSZ7JY","3FW4EL5A3LANKRP91N782LFHPY722Q","","","img/flower5.png","75","952","2","1","2","",""
"null","","html-keyboard-response","47","144666","0.0-47.0","37FMASSAYDDN59110LQDFDLQCC8IBJ","A3VV07FCCSZ7JY","3FW4EL5A3LANKRP91N782LFHPY722Q","","","<img src=""img/flower5.png"" style=""width:200px; border:14px solid green;"">","null","","","","","",""
"1194","","image-keyboard-response","48","145864","0.0-48.0","37FMASSAYDDN59110LQDFDLQCC8IBJ","A3VV07FCCSZ7JY","3FW4EL5A3LANKRP91N782LFHPY722Q","","","img/flower6.png","76","1198","3","1","3","",""
"null","","html-keyboard-response","49","146171","0.0-49.0","37FMASSAYDDN59110LQDFDLQCC8IBJ","A3VV07FCCSZ7JY","3FW4EL5A3LANKRP91N782LFHPY722Q","","","<img src=""img/flower6.png"" style=""width:200px; border:14px solid green;"">","null","","","","","",""
"975","","image-keyboard-response","50","147164","0.0-50.0","37FMASSAYDDN59110LQDFDLQCC8IBJ","A3VV07FCCSZ7JY","3FW4EL5A3LANKRP91N782LFHPY722Q","","","img/flower5.png","75","992","2","1","2","",""
"null","","html-keyboard-response","51","147472","0.0-51.0","37FMASSAYDDN59110LQDFDLQCC8IBJ","A3VV07FCCSZ7JY","3FW4EL5A3LANKRP91N782LFHPY722Q","","","<img src=""img/flower5.png"" style=""width:200px; border:14px solid green;"">","null","","","","","",""
"2081","","image-keyboard-response","52","149568","0.0-52.0","37FMASSAYDDN59110LQDFDLQCC8IBJ","A3VV07FCCSZ7JY","3FW4EL5A3LANKRP91N782LFHPY722Q","","","img/flower6.png","76","2096","3","1","3","",""
"null","","html-keyboard-response","53","149873","0.0-53.0","37FMASSAYDDN59110LQDFDLQCC8IBJ","A3VV07FCCSZ7JY","3FW4EL5A3LANKRP91N782LFHPY722Q","","","<img src=""img/flower6.png"" style=""width:200px; border:14px solid green;"">","null","","","","","",""
"3147","","image-keyboard-response","54","153034","0.0-54.0","37FMASSAYDDN59110LQDFDLQCC8IBJ","A3VV07FCCSZ7JY","3FW4EL5A3LANKRP91N782LFHPY722Q","","","img/flower6.png","76","3159","3","1","3","",""
"null","","html-keyboard-response","55","153339","0.0-55.0","37FMASSAYDDN59110LQDFDLQCC8IBJ","A3VV07FCCSZ7JY","3FW4EL5A3LANKRP91N782LFHPY722Q","","","<img src=""img/flower6.png"" style=""width:200px; border:14px solid green;"">","null","","","","","",""
"971","","image-keyboard-response","56","154311","0.0-56.0","37FMASSAYDDN59110LQDFDLQCC8IBJ","A3VV07FCCSZ7JY","3FW4EL5A3LANKRP91N782LFHPY722Q","","","img/flower4.png","75","976","2","0","1","",""
"null","","html-keyboard-response","57","154621","0.0-57.0","37FMASSAYDDN59110LQDFDLQCC8IBJ","A3VV07FCCSZ7JY","3FW4EL5A3LANKRP91N782LFHPY722Q","","","<img src=""img/flower4.png"" style=""width:200px;border:14px solid red;"">","null","","","","","",""
"156","","image-keyboard-response","58","154794","0.0-58.0","37FMASSAYDDN59110LQDFDLQCC8IBJ","A3VV07FCCSZ7JY","3FW4EL5A3LANKRP91N782LFHPY722Q","","","img/flower6.png","74","169","1","0","3","",""
"null","","html-keyboard-response","59","155106","0.0-59.0","37FMASSAYDDN59110LQDFDLQCC8IBJ","A3VV07FCCSZ7JY","3FW4EL5A3LANKRP91N782LFHPY722Q","","","<img src=""img/flower6.png"" style=""width:200px;border:14px solid red;"">","null","","","","","",""
"1526","","image-keyboard-response","60","156648","0.0-60.0","37FMASSAYDDN59110LQDFDLQCC8IBJ","A3VV07FCCSZ7JY","3FW4EL5A3LANKRP91N782LFHPY722Q","","","img/flower4.png","74","1542","1","1","1","",""
"null","","html-keyboard-response","61","156955","0.0-61.0","37FMASSAYDDN59110LQDFDLQCC8IBJ","A3VV07FCCSZ7JY","3FW4EL5A3LANKRP91N782LFHPY722Q","","","<img src=""img/flower4.png"" style=""width:200px; border:14px solid green;"">","null","","","","","",""
"1263","","image-keyboard-response","62","158225","0.0-62.0","37FMASSAYDDN59110LQDFDLQCC8IBJ","A3VV07FCCSZ7JY","3FW4EL5A3LANKRP91N782LFHPY722Q","","","img/flower6.png","76","1270","3","1","3","",""
"null","","html-keyboard-response","63","158527","0.0-63.0","37FMASSAYDDN59110LQDFDLQCC8IBJ","A3VV07FCCSZ7JY","3FW4EL5A3LANKRP91N782LFHPY722Q","","","<img src=""img/flower6.png"" style=""width:200px; border:14px solid green;"">","null","","","","","",""
"14532","","instructions","64","173062","0.0-64.0","37FMASSAYDDN59110LQDFDLQCC8IBJ","A3VV07FCCSZ7JY","3FW4EL5A3LANKRP91N782LFHPY722Q","","[{""page_index"":0,""viewing_time"":2782},{""page_index"":1,""viewing_time"":11749}]","","","","","","","",""
"2322","","image-keyboard-response","65","175386","0.0-65.0","37FMASSAYDDN59110LQDFDLQCC8IBJ","A3VV07FCCSZ7JY","3FW4EL5A3LANKRP91N782LFHPY722Q","","","img/flower5.png","75","2324","2","0","2","",""
"null","","html-keyboard-response","66","175696","0.0-66.0","37FMASSAYDDN59110LQDFDLQCC8IBJ","A3VV07FCCSZ7JY","3FW4EL5A3LANKRP91N782LFHPY722Q","","","<img src=""img/flower5.png"" style=""width:200px;border:14px solid red;"">","null","","","","","",""
"1478","","image-keyboard-response","67","177188","0.0-67.0","37FMASSAYDDN59110LQDFDLQCC8IBJ","A3VV07FCCSZ7JY","3FW4EL5A3LANKRP91N782LFHPY722Q","","","img/flower5.png","75","1492","2","1","2","",""
"null","","html-keyboard-response","68","177511","0.0-68.0","37FMASSAYDDN59110LQDFDLQCC8IBJ","A3VV07FCCSZ7JY","3FW4EL5A3LANKRP91N782LFHPY722Q","","","<img src=""img/flower5.png"" style=""width:200px; border:14px solid green;"">","null","","","","","",""
"1064","","image-keyboard-response","69","178593","0.0-69.0","37FMASSAYDDN59110LQDFDLQCC8IBJ","A3VV07FCCSZ7JY","3FW4EL5A3LANKRP91N782LFHPY722Q","","","img/flower4.png","74","1082","1","1","1","",""
"null","","html-keyboard-response","70","178904","0.0-70.0","37FMASSAYDDN59110LQDFDLQCC8IBJ","A3VV07FCCSZ7JY","3FW4EL5A3LANKRP91N782LFHPY722Q","","","<img src=""img/flower4.png"" style=""width:200px; border:14px solid green;"">","null","","","","","",""
"836","","image-keyboard-response","71","179744","0.0-71.0","37FMASSAYDDN59110LQDFDLQCC8IBJ","A3VV07FCCSZ7JY","3FW4EL5A3LANKRP91N782LFHPY722Q","","","img/flower4.png","74","840","1","1","1","",""
"null","","html-keyboard-response","72","180054","0.0-72.0","37FMASSAYDDN59110LQDFDLQCC8IBJ","A3VV07FCCSZ7JY","3FW4EL5A3LANKRP91N782LFHPY722Q","","","<img src=""img/flower4.png"" style=""width:200px; border:14px solid green;"">","null","","","","","",""
"1225","","image-keyboard-response","73","181283","0.0-73.0","37FMASSAYDDN59110LQDFDLQCC8IBJ","A3VV07FCCSZ7JY","3FW4EL5A3LANKRP91N782LFHPY722Q","","","img/flower5.png","75","1229","2","1","2","",""
"null","","html-keyboard-response","74","181604","0.0-74.0","37FMASSAYDDN59110LQDFDLQCC8IBJ","A3VV07FCCSZ7JY","3FW4EL5A3LANKRP91N782LFHPY722Q","","","<img src=""img/flower5.png"" style=""width:200px; border:14px solid green;"">","null","","","","","",""
"1064","","image-keyboard-response","75","182684","0.0-75.0","37FMASSAYDDN59110LQDFDLQCC8IBJ","A3VV07FCCSZ7JY","3FW4EL5A3LANKRP91N782LFHPY722Q","","","img/flower4.png","74","1080","1","1","1","",""
"null","","html-keyboard-response","76","182989","0.0-76.0","37FMASSAYDDN59110LQDFDLQCC8IBJ","A3VV07FCCSZ7JY","3FW4EL5A3LANKRP91N782LFHPY722Q","","","<img src=""img/flower4.png"" style=""width:200px; border:14px solid green;"">","null","","","","","",""
"3094","","image-keyboard-response","77","186100","0.0-77.0","37FMASSAYDDN59110LQDFDLQCC8IBJ","A3VV07FCCSZ7JY","3FW4EL5A3LANKRP91N782LFHPY722Q","","","img/flower4.png","74","3112","1","0","1","",""
"null","","html-keyboard-response","78","186419","0.0-78.0","37FMASSAYDDN59110LQDFDLQCC8IBJ","A3VV07FCCSZ7JY","3FW4EL5A3LANKRP91N782LFHPY722Q","","","<img src=""img/flower4.png"" style=""width:200px;border:14px solid red;"">","null","","","","","",""
"1015","","image-keyboard-response","79","187436","0.0-79.0","37FMASSAYDDN59110LQDFDLQCC8IBJ","A3VV07FCCSZ7JY","3FW4EL5A3LANKRP91N782LFHPY722Q","","","img/flower6.png","76","1023","3","1","3","",""
"null","","html-keyboard-response","80","187758","0.0-80.0","37FMASSAYDDN59110LQDFDLQCC8IBJ","A3VV07FCCSZ7JY","3FW4EL5A3LANKRP91N782LFHPY722Q","","","<img src=""img/flower6.png"" style=""width:200px; border:14px solid green;"">","null","","","","","",""
"2186","","image-keyboard-response","81","189945","0.0-81.0","37FMASSAYDDN59110LQDFDLQCC8IBJ","A3VV07FCCSZ7JY","3FW4EL5A3LANKRP91N782LFHPY722Q","","","img/flower6.png","76","2187","3","0","3","",""
"null","","html-keyboard-response","82","190265","0.0-82.0","37FMASSAYDDN59110LQDFDLQCC8IBJ","A3VV07FCCSZ7JY","3FW4EL5A3LANKRP91N782LFHPY722Q","","","<img src=""img/flower6.png"" style=""width:200px;border:14px solid red;"">","null","","","","","",""
"1476","","image-keyboard-response","83","191756","0.0-83.0","37FMASSAYDDN59110LQDFDLQCC8IBJ","A3VV07FCCSZ7JY","3FW4EL5A3LANKRP91N782LFHPY722Q","","","img/flower4.png","75","1491","2","1","1","",""
"null","","html-keyboard-response","84","192069","0.0-84.0","37FMASSAYDDN59110LQDFDLQCC8IBJ","A3VV07FCCSZ7JY","3FW4EL5A3LANKRP91N782LFHPY722Q","","","<img src=""img/flower4.png"" style=""width:200px; border:14px solid green;"">","null","","","","","",""
"4529","","image-keyboard-response","85","196611","0.0-85.0","37FMASSAYDDN59110LQDFDLQCC8IBJ","A3VV07FCCSZ7JY","3FW4EL5A3LANKRP91N782LFHPY722Q","","","img/flower6.png","76","4543","3","0","3","",""
"null","","html-keyboard-response","86","196919","0.0-86.0","37FMASSAYDDN59110LQDFDLQCC8IBJ","A3VV07FCCSZ7JY","3FW4EL5A3LANKRP91N782LFHPY722Q","","","<img src=""img/flower6.png"" style=""width:200px;border:14px solid red;"">","null","","","","","",""
"1102","","image-keyboard-response","87","198042","0.0-87.0","37FMASSAYDDN59110LQDFDLQCC8IBJ","A3VV07FCCSZ7JY","3FW4EL5A3LANKRP91N782LFHPY722Q","","","img/flower6.png","76","1123","3","0","3","",""
"null","","html-keyboard-response","88","198354","0.0-88.0","37FMASSAYDDN59110LQDFDLQCC8IBJ","A3VV07FCCSZ7JY","3FW4EL5A3LANKRP91N782LFHPY722Q","","","<img src=""img/flower6.png"" style=""width:200px;border:14px solid red;"">","null","","","","","",""
"1480","","image-keyboard-response","89","199840","0.0-89.0","37FMASSAYDDN59110LQDFDLQCC8IBJ","A3VV07FCCSZ7JY","3FW4EL5A3LANKRP91N782LFHPY722Q","","","img/flower4.png","74","1486","1","1","1","",""
"null","","html-keyboard-response","90","200152","0.0-90.0","37FMASSAYDDN59110LQDFDLQCC8IBJ","A3VV07FCCSZ7JY","3FW4EL5A3LANKRP91N782LFHPY722Q","","","<img src=""img/flower4.png"" style=""width:200px; border:14px solid green;"">","null","","","","","",""
"911","","image-keyboard-response","91","201065","0.0-91.0","37FMASSAYDDN59110LQDFDLQCC8IBJ","A3VV07FCCSZ7JY","3FW4EL5A3LANKRP91N782LFHPY722Q","","","img/flower4.png","74","913","1","1","1","",""
"null","","html-keyboard-response","92","201371","0.0-92.0","37FMASSAYDDN59110LQDFDLQCC8IBJ","A3VV07FCCSZ7JY","3FW4EL5A3LANKRP91N782LFHPY722Q","","","<img src=""img/flower4.png"" style=""width:200px; border:14px solid green;"">","null","","","","","",""
"1223","","image-keyboard-response","93","202607","0.0-93.0","37FMASSAYDDN59110LQDFDLQCC8IBJ","A3VV07FCCSZ7JY","3FW4EL5A3LANKRP91N782LFHPY722Q","","","img/flower4.png","74","1236","1","1","1","",""
"null","","html-keyboard-response","94","202919","0.0-94.0","37FMASSAYDDN59110LQDFDLQCC8IBJ","A3VV07FCCSZ7JY","3FW4EL5A3LANKRP91N782LFHPY722Q","","","<img src=""img/flower4.png"" style=""width:200px; border:14px solid green;"">","null","","","","","",""
"1319","","image-keyboard-response","95","204250","0.0-95.0","37FMASSAYDDN59110LQDFDLQCC8IBJ","A3VV07FCCSZ7JY","3FW4EL5A3LANKRP91N782LFHPY722Q","","","img/flower5.png","75","1331","2","1","2","",""
"null","","html-keyboard-response","96","204559","0.0-96.0","37FMASSAYDDN59110LQDFDLQCC8IBJ","A3VV07FCCSZ7JY","3FW4EL5A3LANKRP91N782LFHPY722Q","","","<img src=""img/flower5.png"" style=""width:200px; border:14px solid green;"">","null","","","","","",""
"1024","","image-keyboard-response","97","205586","0.0-97.0","37FMASSAYDDN59110LQDFDLQCC8IBJ","A3VV07FCCSZ7JY","3FW4EL5A3LANKRP91N782LFHPY722Q","","","img/flower4.png","74","1027","1","1","1","",""
"null","","html-keyboard-response","98","205905","0.0-98.0","37FMASSAYDDN59110LQDFDLQCC8IBJ","A3VV07FCCSZ7JY","3FW4EL5A3LANKRP91N782LFHPY722Q","","","<img src=""img/flower4.png"" style=""width:200px; border:14px solid green;"">","null","","","","","",""
"1246","","image-keyboard-response","99","207163","0.0-99.0","37FMASSAYDDN59110LQDFDLQCC8IBJ","A3VV07FCCSZ7JY","3FW4EL5A3LANKRP91N782LFHPY722Q","","","img/flower5.png","75","1257","2","1","2","",""
"null","","html-keyboard-response","100","207472","0.0-100.0","37FMASSAYDDN59110LQDFDLQCC8IBJ","A3VV07FCCSZ7JY","3FW4EL5A3LANKRP91N782LFHPY722Q","","","<img src=""img/flower5.png"" style=""width:200px; border:14px solid green;"">","null","","","","","",""
"2455","","image-keyboard-response","101","209939","0.0-101.0","37FMASSAYDDN59110LQDFDLQCC8IBJ","A3VV07FCCSZ7JY","3FW4EL5A3LANKRP91N782LFHPY722Q","","","img/flower6.png","76","2467","3","0","3","",""
"null","","html-keyboard-response","102","210269","0.0-102.0","37FMASSAYDDN59110LQDFDLQCC8IBJ","A3VV07FCCSZ7JY","3FW4EL5A3LANKRP91N782LFHPY722Q","","","<img src=""img/flower6.png"" style=""width:200px;border:14px solid red;"">","null","","","","","",""
"1071","","image-keyboard-response","103","211347","0.0-103.0","37FMASSAYDDN59110LQDFDLQCC8IBJ","A3VV07FCCSZ7JY","3FW4EL5A3LANKRP91N782LFHPY722Q","","","img/flower6.png","76","1078","3","1","3","",""
"null","","html-keyboard-response","104","211656","0.0-104.0","37FMASSAYDDN59110LQDFDLQCC8IBJ","A3VV07FCCSZ7JY","3FW4EL5A3LANKRP91N782LFHPY722Q","","","<img src=""img/flower6.png"" style=""width:200px; border:14px solid green;"">","null","","","","","",""
"1295","","image-keyboard-response","105","212961","0.0-105.0","37FMASSAYDDN59110LQDFDLQCC8IBJ","A3VV07FCCSZ7JY","3FW4EL5A3LANKRP91N782LFHPY722Q","","","img/flower5.png","74","1305","1","1","2","",""
"null","","html-keyboard-response","106","213272","0.0-106.0","37FMASSAYDDN59110LQDFDLQCC8IBJ","A3VV07FCCSZ7JY","3FW4EL5A3LANKRP91N782LFHPY722Q","","","<img src=""img/flower5.png"" style=""width:200px; border:14px solid green;"">","null","","","","","",""
"943","","image-keyboard-response","107","214220","0.0-107.0","37FMASSAYDDN59110LQDFDLQCC8IBJ","A3VV07FCCSZ7JY","3FW4EL5A3LANKRP91N782LFHPY722Q","","","img/flower6.png","76","947","3","1","3","",""
"null","","html-keyboard-response","108","214535","0.0-108.0","37FMASSAYDDN59110LQDFDLQCC8IBJ","A3VV07FCCSZ7JY","3FW4EL5A3LANKRP91N782LFHPY722Q","","","<img src=""img/flower6.png"" style=""width:200px; border:14px solid green;"">","null","","","","","",""
"2327","","image-keyboard-response","109","216872","0.0-109.0","37FMASSAYDDN59110LQDFDLQCC8IBJ","A3VV07FCCSZ7JY","3FW4EL5A3LANKRP91N782LFHPY722Q","","","img/flower5.png","75","2337","2","0","2","",""
"null","","html-keyboard-response","110","217186","0.0-110.0","37FMASSAYDDN59110LQDFDLQCC8IBJ","A3VV07FCCSZ7JY","3FW4EL5A3LANKRP91N782LFHPY722Q","","","<img src=""img/flower5.png"" style=""width:200px;border:14px solid red;"">","null","","","","","",""
"1442","","image-keyboard-response","111","218642","0.0-111.0","37FMASSAYDDN59110LQDFDLQCC8IBJ","A3VV07FCCSZ7JY","3FW4EL5A3LANKRP91N782LFHPY722Q","","","img/flower5.png","75","1456","2","0","2","",""
"null","","html-keyboard-response","112","218977","0.0-112.0","37FMASSAYDDN59110LQDFDLQCC8IBJ","A3VV07FCCSZ7JY","3FW4EL5A3LANKRP91N782LFHPY722Q","","","<img src=""img/flower5.png"" style=""width:200px;border:14px solid red;"">","null","","","","","",""
"1536","","image-keyboard-response","113","220528","0.0-113.0","37FMASSAYDDN59110LQDFDLQCC8IBJ","A3VV07FCCSZ7JY","3FW4EL5A3LANKRP91N782LFHPY722Q","","","img/flower5.png","75","1551","2","1","2","",""
"null","","html-keyboard-response","114","220837","0.0-114.0","37FMASSAYDDN59110LQDFDLQCC8IBJ","A3VV07FCCSZ7JY","3FW4EL5A3LANKRP91N782LFHPY722Q","","","<img src=""img/flower5.png"" style=""width:200px; border:14px solid green;"">","null","","","","","",""
"1042","","image-keyboard-response","115","221886","0.0-115.0","37FMASSAYDDN59110LQDFDLQCC8IBJ","A3VV07FCCSZ7JY","3FW4EL5A3LANKRP91N782LFHPY722Q","","","img/flower6.png","76","1049","3","1","3","",""
"null","","html-keyboard-response","116","222190","0.0-116.0","37FMASSAYDDN59110LQDFDLQCC8IBJ","A3VV07FCCSZ7JY","3FW4EL5A3LANKRP91N782LFHPY722Q","","","<img src=""img/flower6.png"" style=""width:200px; border:14px solid green;"">","null","","","","","",""
"2579","","image-keyboard-response","117","224775","0.0-117.0","37FMASSAYDDN59110LQDFDLQCC8IBJ","A3VV07FCCSZ7JY","3FW4EL5A3LANKRP91N782LFHPY722Q","","","img/flower6.png","76","2585","3","1","3","",""
"null","","html-keyboard-response","118","225084","0.0-118.0","37FMASSAYDDN59110LQDFDLQCC8IBJ","A3VV07FCCSZ7JY","3FW4EL5A3LANKRP91N782LFHPY722Q","","","<img src=""img/flower6.png"" style=""width:200px; border:14px solid green;"">","null","","","","","",""
"1256","","image-keyboard-response","119","226351","0.0-119.0","37FMASSAYDDN59110LQDFDLQCC8IBJ","A3VV07FCCSZ7JY","3FW4EL5A3LANKRP91N782LFHPY722Q","","","img/flower4.png","74","1267","1","1","1","",""
"null","","html-keyboard-response","120","226653","0.0-120.0","37FMASSAYDDN59110LQDFDLQCC8IBJ","A3VV07FCCSZ7JY","3FW4EL5A3LANKRP91N782LFHPY722Q","","","<img src=""img/flower4.png"" style=""width:200px; border:14px solid green;"">","null","","","","","",""
"945","","image-keyboard-response","121","227614","0.0-121.0","37FMASSAYDDN59110LQDFDLQCC8IBJ","A3VV07FCCSZ7JY","3FW4EL5A3LANKRP91N782LFHPY722Q","","","img/flower6.png","76","961","3","1","3","",""
"null","","html-keyboard-response","122","227945","0.0-122.0","37FMASSAYDDN59110LQDFDLQCC8IBJ","A3VV07FCCSZ7JY","3FW4EL5A3LANKRP91N782LFHPY722Q","","","<img src=""img/flower6.png"" style=""width:200px; border:14px solid green;"">","null","","","","","",""
"1238","","image-keyboard-response","123","229185","0.0-123.0","37FMASSAYDDN59110LQDFDLQCC8IBJ","A3VV07FCCSZ7JY","3FW4EL5A3LANKRP91N782LFHPY722Q","","","img/flower5.png","75","1240","2","1","2","",""
"null","","html-keyboard-response","124","229502","0.0-124.0","37FMASSAYDDN59110LQDFDLQCC8IBJ","A3VV07FCCSZ7JY","3FW4EL5A3LANKRP91N782LFHPY722Q","","","<img src=""img/flower5.png"" style=""width:200px; border:14px solid green;"">","null","","","","","",""
"9705","","instructions","125","239209","0.0-125.0","37FMASSAYDDN59110LQDFDLQCC8IBJ","A3VV07FCCSZ7JY","3FW4EL5A3LANKRP91N782LFHPY722Q","","[{""page_index"":0,""viewing_time"":9704}]","","","","","","","",""
"2221","","image-keyboard-response","126","241433","0.0-126.0","37FMASSAYDDN59110LQDFDLQCC8IBJ","A3VV07FCCSZ7JY","3FW4EL5A3LANKRP91N782LFHPY722Q","","","img/flower1.png","75","2225","2","0","2","0.6,0.6,0,0,0.6,0.6,0.6,0,0.6",""
"null","","html-keyboard-response","127","241742","0.0-127.0","37FMASSAYDDN59110LQDFDLQCC8IBJ","A3VV07FCCSZ7JY","3FW4EL5A3LANKRP91N782LFHPY722Q","","","<img src=""img/flower1.png"" style=""width:200px;border:14px solid red;"">","null","","","","","",""
"1949","","image-keyboard-response","128","243698","0.0-128.0","37FMASSAYDDN59110LQDFDLQCC8IBJ","A3VV07FCCSZ7JY","3FW4EL5A3LANKRP91N782LFHPY722Q","","","img/flower2.png","75","1956","2","0","3","0.6,0.6,0,0,0.6,0.6,0.6,0,0.6",""
"null","","html-keyboard-response","129","244001","0.0-129.0","37FMASSAYDDN59110LQDFDLQCC8IBJ","A3VV07FCCSZ7JY","3FW4EL5A3LANKRP91N782LFHPY722Q","","","<img src=""img/flower2.png"" style=""width:200px;border:14px solid red;"">","null","","","","","",""
"352","","image-keyboard-response","130","244357","0.0-130.0","37FMASSAYDDN59110LQDFDLQCC8IBJ","A3VV07FCCSZ7JY","3FW4EL5A3LANKRP91N782LFHPY722Q","","","img/flower9.png","74","355","1","1","1","0.6,0.6,0,0,0.6,0.6,0.6,0,0.6",""
"null","","html-keyboard-response","131","244670","0.0-131.0","37FMASSAYDDN59110LQDFDLQCC8IBJ","A3VV07FCCSZ7JY","3FW4EL5A3LANKRP91N782LFHPY722Q","","","<img src=""img/flower9.png"" style=""width:200px; border:14px solid green;"">","null","","","","","",""
"764","","image-keyboard-response","132","245440","0.0-132.0","37FMASSAYDDN59110LQDFDLQCC8IBJ","A3VV07FCCSZ7JY","3FW4EL5A3LANKRP91N782LFHPY722Q","","","img/flower2.png","74","769","1","1","3","0.6,0.6,0,0,0.6,0.6,0.6,0,0.6",""
"null","","html-keyboard-response","133","245756","0.0-133.0","37FMASSAYDDN59110LQDFDLQCC8IBJ","A3VV07FCCSZ7JY","3FW4EL5A3LANKRP91N782LFHPY722Q","","","<img src=""img/flower2.png"" style=""width:200px; border:14px solid green;"">","null","","","","","",""
"1403","","image-keyboard-response","134","247164","0.0-134.0","37FMASSAYDDN59110LQDFDLQCC8IBJ","A3VV07FCCSZ7JY","3FW4EL5A3LANKRP91N782LFHPY722Q","","","img/flower2.png","74","1408","1","1","3","0.6,0.6,0,0,0.6,0.6,0.6,0,0.6",""
"null","","html-keyboard-response","135","247467","0.0-135.0","37FMASSAYDDN59110LQDFDLQCC8IBJ","A3VV07FCCSZ7JY","3FW4EL5A3LANKRP91N782LFHPY722Q","","","<img src=""img/flower2.png"" style=""width:200px; border:14px solid green;"">","null","","","","","",""
"1287","","image-keyboard-response","136","248762","0.0-136.0","37FMASSAYDDN59110LQDFDLQCC8IBJ","A3VV07FCCSZ7JY","3FW4EL5A3LANKRP91N782LFHPY722Q","","","img/flower9.png","76","1294","3","0","1","0.6,0.6,0,0,0.6,0.6,0.6,0,0.6",""
"null","","html-keyboard-response","137","249069","0.0-137.0","37FMASSAYDDN59110LQDFDLQCC8IBJ","A3VV07FCCSZ7JY","3FW4EL5A3LANKRP91N782LFHPY722Q","","","<img src=""img/flower9.png"" style=""width:200px;border:14px solid red;"">","null","","","","","",""
"1535","","image-keyboard-response","138","250615","0.0-138.0","37FMASSAYDDN59110LQDFDLQCC8IBJ","A3VV07FCCSZ7JY","3FW4EL5A3LANKRP91N782LFHPY722Q","","","img/flower2.png","75","1545","2","0","3","0.6,0.6,0,0,0.6,0.6,0.6,0,0.6",""
"null","","html-keyboard-response","139","250918","0.0-139.0","37FMASSAYDDN59110LQDFDLQCC8IBJ","A3VV07FCCSZ7JY","3FW4EL5A3LANKRP91N782LFHPY722Q","","","<img src=""img/flower2.png"" style=""width:200px;border:14px solid red;"">","null","","","","","",""
"1024","","image-keyboard-response","140","251959","0.0-140.0","37FMASSAYDDN59110LQDFDLQCC8IBJ","A3VV07FCCSZ7JY","3FW4EL5A3LANKRP91N782LFHPY722Q","","","img/flower9.png","76","1041","3","0","1","0.6,0.6,0,0,0.6,0.6,0.6,0,0.6",""
"null","","html-keyboard-response","141","252269","0.0-141.0","37FMASSAYDDN59110LQDFDLQCC8IBJ","A3VV07FCCSZ7JY","3FW4EL5A3LANKRP91N782LFHPY722Q","","","<img src=""img/flower9.png"" style=""width:200px;border:14px solid red;"">","null","","","","","",""
"409","","image-keyboard-response","142","252690","0.0-142.0","37FMASSAYDDN59110LQDFDLQCC8IBJ","A3VV07FCCSZ7JY","3FW4EL5A3LANKRP91N782LFHPY722Q","","","img/flower2.png","74","420","1","0","3","0.6,0.6,0,0,0.6,0.6,0.6,0,0.6",""
"null","","html-keyboard-response","143","253001","0.0-143.0","37FMASSAYDDN59110LQDFDLQCC8IBJ","A3VV07FCCSZ7JY","3FW4EL5A3LANKRP91N782LFHPY722Q","","","<img src=""img/flower2.png"" style=""width:200px;border:14px solid red;"">","null","","","","","",""
"738","","image-keyboard-response","144","253747","0.0-144.0","37FMASSAYDDN59110LQDFDLQCC8IBJ","A3VV07FCCSZ7JY","3FW4EL5A3LANKRP91N782LFHPY722Q","","","img/flower2.png","75","746","2","0","3","0.6,0.6,0,0,0.6,0.6,0.6,0,0.6",""
"null","","html-keyboard-response","145","254054","0.0-145.0","37FMASSAYDDN59110LQDFDLQCC8IBJ","A3VV07FCCSZ7JY","3FW4EL5A3LANKRP91N782LFHPY722Q","","","<img src=""img/flower2.png"" style=""width:200px;border:14px solid red;"">","null","","","","","",""
"1793","","image-keyboard-response","146","255871","0.0-146.0","37FMASSAYDDN59110LQDFDLQCC8IBJ","A3VV07FCCSZ7JY","3FW4EL5A3LANKRP91N782LFHPY722Q","","","img/flower2.png","76","1818","3","1","3","0.6,0.6,0,0,0.6,0.6,0.6,0,0.6",""
"null","","html-keyboard-response","147","256187","0.0-147.0","37FMASSAYDDN59110LQDFDLQCC8IBJ","A3VV07FCCSZ7JY","3FW4EL5A3LANKRP91N782LFHPY722Q","","","<img src=""img/flower2.png"" style=""width:200px; border:14px solid green;"">","null","","","","","",""
"501","","image-keyboard-response","148","256690","0.0-148.0","37FMASSAYDDN59110LQDFDLQCC8IBJ","A3VV07FCCSZ7JY","3FW4EL5A3LANKRP91N782LFHPY722Q","","","img/flower1.png","74","506","1","0","2","0.6,0.6,0,0,0.6,0.6,0.6,0,0.6",""
"null","","html-keyboard-response","149","257000","0.0-149.0","37FMASSAYDDN59110LQDFDLQCC8IBJ","A3VV07FCCSZ7JY","3FW4EL5A3LANKRP91N782LFHPY722Q","","","<img src=""img/flower1.png"" style=""width:200px;border:14px solid red;"">","null","","","","","",""
"908","","image-keyboard-response","150","257912","0.0-150.0","37FMASSAYDDN59110LQDFDLQCC8IBJ","A3VV07FCCSZ7JY","3FW4EL5A3LANKRP91N782LFHPY722Q","","","img/flower2.png","76","912","3","1","3","0.6,0.6,0,0,0.6,0.6,0.6,0,0.6",""
"null","","html-keyboard-response","151","258218","0.0-151.0","37FMASSAYDDN59110LQDFDLQCC8IBJ","A3VV07FCCSZ7JY","3FW4EL5A3LANKRP91N782LFHPY722Q","","","<img src=""img/flower2.png"" style=""width:200px; border:14px solid green;"">","null","","","","","",""
"656","","image-keyboard-response","152","258878","0.0-152.0","37FMASSAYDDN59110LQDFDLQCC8IBJ","A3VV07FCCSZ7JY","3FW4EL5A3LANKRP91N782LFHPY722Q","","","img/flower9.png","75","658","2","0","1","0.6,0.6,0,0,0.6,0.6,0.6,0,0.6",""
"null","","html-keyboard-response","153","259183","0.0-153.0","37FMASSAYDDN59110LQDFDLQCC8IBJ","A3VV07FCCSZ7JY","3FW4EL5A3LANKRP91N782LFHPY722Q","","","<img src=""img/flower9.png"" style=""width:200px;border:14px solid red;"">","null","","","","","",""
"649","","image-keyboard-response","154","259845","0.0-154.0","37FMASSAYDDN59110LQDFDLQCC8IBJ","A3VV07FCCSZ7JY","3FW4EL5A3LANKRP91N782LFHPY722Q","","","img/flower9.png","74","662","1","1","1","0.6,0.6,0,0,0.6,0.6,0.6,0,0.6",""
"null","","html-keyboard-response","155","260150","0.0-155.0","37FMASSAYDDN59110LQDFDLQCC8IBJ","A3VV07FCCSZ7JY","3FW4EL5A3LANKRP91N782LFHPY722Q","","","<img src=""img/flower9.png"" style=""width:200px; border:14px solid green;"">","null","","","","","",""
"459","","image-keyboard-response","156","260609","0.0-156.0","37FMASSAYDDN59110LQDFDLQCC8IBJ","A3VV07FCCSZ7JY","3FW4EL5A3LANKRP91N782LFHPY722Q","","","img/flower2.png","75","459","2","0","3","0.6,0.6,0,0,0.6,0.6,0.6,0,0.6",""
"null","","html-keyboard-response","157","260934","0.0-157.0","37FMASSAYDDN59110LQDFDLQCC8IBJ","A3VV07FCCSZ7JY","3FW4EL5A3LANKRP91N782LFHPY722Q","","","<img src=""img/flower2.png"" style=""width:200px;border:14px solid red;"">","null","","","","","",""
"819","","image-keyboard-response","158","261758","0.0-158.0","37FMASSAYDDN59110LQDFDLQCC8IBJ","A3VV07FCCSZ7JY","3FW4EL5A3LANKRP91N782LFHPY722Q","","","img/flower1.png","75","824","2","1","2","0.6,0.6,0,0,0.6,0.6,0.6,0,0.6",""
"null","","html-keyboard-response","159","262066","0.0-159.0","37FMASSAYDDN59110LQDFDLQCC8IBJ","A3VV07FCCSZ7JY","3FW4EL5A3LANKRP91N782LFHPY722Q","","","<img src=""img/flower1.png"" style=""width:200px; border:14px solid green;"">","null","","","","","",""
"725","","image-keyboard-response","160","262792","0.0-160.0","37FMASSAYDDN59110LQDFDLQCC8IBJ","A3VV07FCCSZ7JY","3FW4EL5A3LANKRP91N782LFHPY722Q","","","img/flower9.png","74","725","1","1","1","0.6,0.6,0,0,0.6,0.6,0.6,0,0.6",""
"null","","html-keyboard-response","161","263100","0.0-161.0","37FMASSAYDDN59110LQDFDLQCC8IBJ","A3VV07FCCSZ7JY","3FW4EL5A3LANKRP91N782LFHPY722Q","","","<img src=""img/flower9.png"" style=""width:200px; border:14px solid green;"">","null","","","","","",""
"711","","image-keyboard-response","162","263830","0.0-162.0","37FMASSAYDDN59110LQDFDLQCC8IBJ","A3VV07FCCSZ7JY","3FW4EL5A3LANKRP91N782LFHPY722Q","","","img/flower9.png","76","727","3","0","1","0.6,0.6,0,0,0.6,0.6,0.6,0,0.6",""
"null","","html-keyboard-response","163","264134","0.0-163.0","37FMASSAYDDN59110LQDFDLQCC8IBJ","A3VV07FCCSZ7JY","3FW4EL5A3LANKRP91N782LFHPY722Q","","","<img src=""img/flower9.png"" style=""width:200px;border:14px solid red;"">","null","","","","","",""
"655","","image-keyboard-response","164","264797","0.0-164.0","37FMASSAYDDN59110LQDFDLQCC8IBJ","A3VV07FCCSZ7JY","3FW4EL5A3LANKRP91N782LFHPY722Q","","","img/flower1.png","76","662","3","1","2","0.6,0.6,0,0,0.6,0.6,0.6,0,0.6",""
"null","","html-keyboard-response","165","265122","0.0-165.0","37FMASSAYDDN59110LQDFDLQCC8IBJ","A3VV07FCCSZ7JY","3FW4EL5A3LANKRP91N782LFHPY722Q","","","<img src=""img/flower1.png"" style=""width:200px; border:14px solid green;"">","null","","","","","",""
"490","","image-keyboard-response","166","265628","0.0-166.0","37FMASSAYDDN59110LQDFDLQCC8IBJ","A3VV07FCCSZ7JY","3FW4EL5A3LANKRP91N782LFHPY722Q","","","img/flower9.png","76","506","3","0","1","0.6,0.6,0,0,0.6,0.6,0.6,0,0.6",""
"null","","html-keyboard-response","167","265936","0.0-167.0","37FMASSAYDDN59110LQDFDLQCC8IBJ","A3VV07FCCSZ7JY","3FW4EL5A3LANKRP91N782LFHPY722Q","","","<img src=""img/flower9.png"" style=""width:200px;border:14px solid red;"">","null","","","","","",""
"124","","image-keyboard-response","168","266072","0.0-168.0","37FMASSAYDDN59110LQDFDLQCC8IBJ","A3VV07FCCSZ7JY","3FW4EL5A3LANKRP91N782LFHPY722Q","","","img/flower1.png","75","136","2","0","2","0.6,0.6,0,0,0.6,0.6,0.6,0,0.6",""
"null","","html-keyboard-response","169","266385","0.0-169.0","37FMASSAYDDN59110LQDFDLQCC8IBJ","A3VV07FCCSZ7JY","3FW4EL5A3LANKRP91N782LFHPY722Q","","","<img src=""img/flower1.png"" style=""width:200px;border:14px solid red;"">","null","","","","","",""
"269","","image-keyboard-response","170","266662","0.0-170.0","37FMASSAYDDN59110LQDFDLQCC8IBJ","A3VV07FCCSZ7JY","3FW4EL5A3LANKRP91N782LFHPY722Q","","","img/flower1.png","75","276","2","0","2","0.6,0.6,0,0,0.6,0.6,0.6,0,0.6",""
"null","","html-keyboard-response","171","266968","0.0-171.0","37FMASSAYDDN59110LQDFDLQCC8IBJ","A3VV07FCCSZ7JY","3FW4EL5A3LANKRP91N782LFHPY722Q","","","<img src=""img/flower1.png"" style=""width:200px;border:14px solid red;"">","null","","","","","",""
"338","","image-keyboard-response","172","267310","0.0-172.0","37FMASSAYDDN59110LQDFDLQCC8IBJ","A3VV07FCCSZ7JY","3FW4EL5A3LANKRP91N782LFHPY722Q","","","img/flower9.png","75","342","2","0","1","0.6,0.6,0,0,0.6,0.6,0.6,0,0.6",""
"null","","html-keyboard-response","173","267615","0.0-173.0","37FMASSAYDDN59110LQDFDLQCC8IBJ","A3VV07FCCSZ7JY","3FW4EL5A3LANKRP91N782LFHPY722Q","","","<img src=""img/flower9.png"" style=""width:200px;border:14px solid red;"">","null","","","","","",""
"363","","image-keyboard-response","174","267985","0.0-174.0","37FMASSAYDDN59110LQDFDLQCC8IBJ","A3VV07FCCSZ7JY","3FW4EL5A3LANKRP91N782LFHPY722Q","","","img/flower1.png","74","369","1","0","2","0.6,0.6,0,0,0.6,0.6,0.6,0,0.6",""
"null","","html-keyboard-response","175","268293","0.0-175.0","37FMASSAYDDN59110LQDFDLQCC8IBJ","A3VV07FCCSZ7JY","3FW4EL5A3LANKRP91N782LFHPY722Q","","","<img src=""img/flower1.png"" style=""width:200px;border:14px solid red;"">","null","","","","","",""
"1349","","image-keyboard-response","176","269647","0.0-176.0","37FMASSAYDDN59110LQDFDLQCC8IBJ","A3VV07FCCSZ7JY","3FW4EL5A3LANKRP91N782LFHPY722Q","","","img/flower9.png","76","1353","3","0","1","0.6,0.6,0,0,0.6,0.6,0.6,0,0.6",""
"null","","html-keyboard-response","177","269989","0.0-177.0","37FMASSAYDDN59110LQDFDLQCC8IBJ","A3VV07FCCSZ7JY","3FW4EL5A3LANKRP91N782LFHPY722Q","","","<img src=""img/flower9.png"" style=""width:200px;border:14px solid red;"">","null","","","","","",""
"1207","","image-keyboard-response","178","271213","0.0-178.0","37FMASSAYDDN59110LQDFDLQCC8IBJ","A3VV07FCCSZ7JY","3FW4EL5A3LANKRP91N782LFHPY722Q","","","img/flower1.png","75","1225","2","1","2","0.6,0.6,0,0,0.6,0.6,0.6,0,0.6",""
"null","","html-keyboard-response","179","271518","0.0-179.0","37FMASSAYDDN59110LQDFDLQCC8IBJ","A3VV07FCCSZ7JY","3FW4EL5A3LANKRP91N782LFHPY722Q","","","<img src=""img/flower1.png"" style=""width:200px; border:14px solid green;"">","null","","","","","",""
"1031","","image-keyboard-response","180","272566","0.0-180.0","37FMASSAYDDN59110LQDFDLQCC8IBJ","A3VV07FCCSZ7JY","3FW4EL5A3LANKRP91N782LFHPY722Q","","","img/flower2.png","74","1047","1","0","3","0.6,0.6,0,0,0.6,0.6,0.6,0,0.6",""
"null","","html-keyboard-response","181","272869","0.0-181.0","37FMASSAYDDN59110LQDFDLQCC8IBJ","A3VV07FCCSZ7JY","3FW4EL5A3LANKRP91N782LFHPY722Q","","","<img src=""img/flower2.png"" style=""width:200px;border:14px solid red;"">","null","","","","","",""
"1120","","image-keyboard-response","182","274002","0.0-182.0","37FMASSAYDDN59110LQDFDLQCC8IBJ","A3VV07FCCSZ7JY","3FW4EL5A3LANKRP91N782LFHPY722Q","","","img/flower1.png","75","1133","2","1","2","0.6,0.6,0,0,0.6,0.6,0.6,0,0.6",""
"null","","html-keyboard-response","183","274310","0.0-183.0","37FMASSAYDDN59110LQDFDLQCC8IBJ","A3VV07FCCSZ7JY","3FW4EL5A3LANKRP91N782LFHPY722Q","","","<img src=""img/flower1.png"" style=""width:200px; border:14px solid green;"">","null","","","","","",""
"1411","","image-keyboard-response","184","275722","0.0-184.0","37FMASSAYDDN59110LQDFDLQCC8IBJ","A3VV07FCCSZ7JY","3FW4EL5A3LANKRP91N782LFHPY722Q","","","img/flower2.png","75","1423","2","0","3","0.6,0.6,0,0,0.6,0.6,0.6,0,0.6",""
"null","","html-keyboard-response","185","276050","0.0-185.0","37FMASSAYDDN59110LQDFDLQCC8IBJ","A3VV07FCCSZ7JY","3FW4EL5A3LANKRP91N782LFHPY722Q","","","<img src=""img/flower2.png"" style=""width:200px;border:14px solid red;"">","null","","","","","",""
"674","","image-keyboard-response","186","276735","0.0-186.0","37FMASSAYDDN59110LQDFDLQCC8IBJ","A3VV07FCCSZ7JY","3FW4EL5A3LANKRP91N782LFHPY722Q","","","img/flower9.png","74","685","1","1","1","0.6,0.6,0,0,0.6,0.6,0.6,0,0.6",""
"null","","html-keyboard-response","187","277051","0.0-187.0","37FMASSAYDDN59110LQDFDLQCC8IBJ","A3VV07FCCSZ7JY","3FW4EL5A3LANKRP91N782LFHPY722Q","","","<img src=""img/flower9.png"" style=""width:200px; border:14px solid green;"">","null","","","","","",""
"717","","image-keyboard-response","188","277769","0.0-188.0","37FMASSAYDDN59110LQDFDLQCC8IBJ","A3VV07FCCSZ7JY","3FW4EL5A3LANKRP91N782LFHPY722Q","","","img/flower2.png","76","728","3","1","3","0.6,0.6,0,0,0.6,0.6,0.6,0,0.6",""
"null","","html-keyboard-response","189","278091","0.0-189.0","37FMASSAYDDN59110LQDFDLQCC8IBJ","A3VV07FCCSZ7JY","3FW4EL5A3LANKRP91N782LFHPY722Q","","","<img src=""img/flower2.png"" style=""width:200px; border:14px solid green;"">","null","","","","","",""
"806","","image-keyboard-response","190","278904","0.0-190.0","37FMASSAYDDN59110LQDFDLQCC8IBJ","A3VV07FCCSZ7JY","3FW4EL5A3LANKRP91N782LFHPY722Q","","","img/flower1.png","75","813","2","1","2","0.6,0.6,0,0,0.6,0.6,0.6,0,0.6",""
"null","","html-keyboard-response","191","279219","0.0-191.0","37FMASSAYDDN59110LQDFDLQCC8IBJ","A3VV07FCCSZ7JY","3FW4EL5A3LANKRP91N782LFHPY722Q","","","<img src=""img/flower1.png"" style=""width:200px; border:14px solid green;"">","null","","","","","",""
"3097","","image-keyboard-response","192","282326","0.0-192.0","37FMASSAYDDN59110LQDFDLQCC8IBJ","A3VV07FCCSZ7JY","3FW4EL5A3LANKRP91N782LFHPY722Q","","","img/flower1.png","75","3106","2","1","2","0.6,0.6,0,0,0.6,0.6,0.6,0,0.6",""
"null","","html-keyboard-response","193","282664","0.0-193.0","37FMASSAYDDN59110LQDFDLQCC8IBJ","A3VV07FCCSZ7JY","3FW4EL5A3LANKRP91N782LFHPY722Q","","","<img src=""img/flower1.png"" style=""width:200px; border:14px solid green;"">","null","","","","","",""
"820","","image-keyboard-response","194","283487","0.0-194.0","37FMASSAYDDN59110LQDFDLQCC8IBJ","A3VV07FCCSZ7JY","3FW4EL5A3LANKRP91N782LFHPY722Q","","","img/flower1.png","75","823","2","0","2","0.6,0.6,0,0,0.6,0.6,0.6,0,0.6",""
"null","","html-keyboard-response","195","283800","0.0-195.0","37FMASSAYDDN59110LQDFDLQCC8IBJ","A3VV07FCCSZ7JY","3FW4EL5A3LANKRP91N782LFHPY722Q","","","<img src=""img/flower1.png"" style=""width:200px;border:14px solid red;"">","null","","","","","",""
"641","","image-keyboard-response","196","284442","0.0-196.0","37FMASSAYDDN59110LQDFDLQCC8IBJ","A3VV07FCCSZ7JY","3FW4EL5A3LANKRP91N782LFHPY722Q","","","img/flower1.png","74","642","1","0","2","0.6,0.6,0,0,0.6,0.6,0.6,0,0.6",""
"null","","html-keyboard-response","197","284750","0.0-197.0","37FMASSAYDDN59110LQDFDLQCC8IBJ","A3VV07FCCSZ7JY","3FW4EL5A3LANKRP91N782LFHPY722Q","","","<img src=""img/flower1.png"" style=""width:200px;border:14px solid red;"">","null","","","","","",""
"1191","","image-keyboard-response","198","285947","0.0-198.0","37FMASSAYDDN59110LQDFDLQCC8IBJ","A3VV07FCCSZ7JY","3FW4EL5A3LANKRP91N782LFHPY722Q","","","img/flower9.png","76","1197","3","0","1","0.6,0.6,0,0,0.6,0.6,0.6,0,0.6",""
"null","","html-keyboard-response","199","286261","0.0-199.0","37FMASSAYDDN59110LQDFDLQCC8IBJ","A3VV07FCCSZ7JY","3FW4EL5A3LANKRP91N782LFHPY722Q","","","<img src=""img/flower9.png"" style=""width:200px;border:14px solid red;"">","null","","","","","",""
"1116","","image-keyboard-response","200","287380","0.0-200.0","37FMASSAYDDN59110LQDFDLQCC8IBJ","A3VV07FCCSZ7JY","3FW4EL5A3LANKRP91N782LFHPY722Q","","","img/flower2.png","75","1131","2","0","3","0.6,0.6,0,0,0.6,0.6,0.6,0,0.6",""
"null","","html-keyboard-response","201","287795","0.0-201.0","37FMASSAYDDN59110LQDFDLQCC8IBJ","A3VV07FCCSZ7JY","3FW4EL5A3LANKRP91N782LFHPY722Q","","","<img src=""img/flower2.png"" style=""width:200px;border:14px solid red;"">","null","","","","","",""
"1170","","image-keyboard-response","202","289022","0.0-202.0","37FMASSAYDDN59110LQDFDLQCC8IBJ","A3VV07FCCSZ7JY","3FW4EL5A3LANKRP91N782LFHPY722Q","","","img/flower9.png","76","1227","3","0","1","0.6,0.6,0,0,0.6,0.6,0.6,0,0.6",""
"null","","html-keyboard-response","203","289339","0.0-203.0","37FMASSAYDDN59110LQDFDLQCC8IBJ","A3VV07FCCSZ7JY","3FW4EL5A3LANKRP91N782LFHPY722Q","","","<img src=""img/flower9.png"" style=""width:200px;border:14px solid red;"">","null","","","","","",""
"883","","image-keyboard-response","204","290233","0.0-204.0","37FMASSAYDDN59110LQDFDLQCC8IBJ","A3VV07FCCSZ7JY","3FW4EL5A3LANKRP91N782LFHPY722Q","","","img/flower2.png","75","894","2","0","3","0.6,0.6,0,0,0.6,0.6,0.6,0,0.6",""
"null","","html-keyboard-response","205","290548","0.0-205.0","37FMASSAYDDN59110LQDFDLQCC8IBJ","A3VV07FCCSZ7JY","3FW4EL5A3LANKRP91N782LFHPY722Q","","","<img src=""img/flower2.png"" style=""width:200px;border:14px solid red;"">","null","","","","","",""
"1468","","image-keyboard-response","206","292021","0.0-206.0","37FMASSAYDDN59110LQDFDLQCC8IBJ","A3VV07FCCSZ7JY","3FW4EL5A3LANKRP91N782LFHPY722Q","","","img/flower2.png","75","1473","2","0","3","0.6,0.6,0,0,0.6,0.6,0.6,0,0.6",""
"null","","html-keyboard-response","207","292339","0.0-207.0","37FMASSAYDDN59110LQDFDLQCC8IBJ","A3VV07FCCSZ7JY","3FW4EL5A3LANKRP91N782LFHPY722Q","","","<img src=""img/flower2.png"" style=""width:200px;border:14px solid red;"">","null","","","","","",""
"2258","","image-keyboard-response","208","294607","0.0-208.0","37FMASSAYDDN59110LQDFDLQCC8IBJ","A3VV07FCCSZ7JY","3FW4EL5A3LANKRP91N782LFHPY722Q","","","img/flower2.png","75","2268","2","0","3","0.6,0.6,0,0,0.6,0.6,0.6,0,0.6",""
"null","","html-keyboard-response","209","294916","0.0-209.0","37FMASSAYDDN59110LQDFDLQCC8IBJ","A3VV07FCCSZ7JY","3FW4EL5A3LANKRP91N782LFHPY722Q","","","<img src=""img/flower2.png"" style=""width:200px;border:14px solid red;"">","null","","","","","",""
"1164","","image-keyboard-response","210","296086","0.0-210.0","37FMASSAYDDN59110LQDFDLQCC8IBJ","A3VV07FCCSZ7JY","3FW4EL5A3LANKRP91N782LFHPY722Q","","","img/flower1.png","74","1170","1","0","2","0.6,0.6,0,0,0.6,0.6,0.6,0,0.6",""
"null","","html-keyboard-response","211","296398","0.0-211.0","37FMASSAYDDN59110LQDFDLQCC8IBJ","A3VV07FCCSZ7JY","3FW4EL5A3LANKRP91N782LFHPY722Q","","","<img src=""img/flower1.png"" style=""width:200px;border:14px solid red;"">","null","","","","","",""
"1678","","image-keyboard-response","212","298094","0.0-212.0","37FMASSAYDDN59110LQDFDLQCC8IBJ","A3VV07FCCSZ7JY","3FW4EL5A3LANKRP91N782LFHPY722Q","","","img/flower1.png","74","1696","1","0","2","0.6,0.6,0,0,0.6,0.6,0.6,0,0.6",""
"null","","html-keyboard-response","213","298409","0.0-213.0","37FMASSAYDDN59110LQDFDLQCC8IBJ","A3VV07FCCSZ7JY","3FW4EL5A3LANKRP91N782LFHPY722Q","","","<img src=""img/flower1.png"" style=""width:200px;border:14px solid red;"">","null","","","","","",""
"1007","","image-keyboard-response","214","299426","0.0-214.0","37FMASSAYDDN59110LQDFDLQCC8IBJ","A3VV07FCCSZ7JY","3FW4EL5A3LANKRP91N782LFHPY722Q","","","img/flower9.png","76","1016","3","0","1","0.6,0.6,0,0,0.6,0.6,0.6,0,0.6",""
"null","","html-keyboard-response","215","299738","0.0-215.0","37FMASSAYDDN59110LQDFDLQCC8IBJ","A3VV07FCCSZ7JY","3FW4EL5A3LANKRP91N782LFHPY722Q","","","<img src=""img/flower9.png"" style=""width:200px;border:14px solid red;"">","null","","","","","",""
"1151","","image-keyboard-response","216","300898","0.0-216.0","37FMASSAYDDN59110LQDFDLQCC8IBJ","A3VV07FCCSZ7JY","3FW4EL5A3LANKRP91N782LFHPY722Q","","","img/flower2.png","75","1160","2","0","3","0.6,0.6,0,0,0.6,0.6,0.6,0,0.6",""
"null","","html-keyboard-response","217","301228","0.0-217.0","37FMASSAYDDN59110LQDFDLQCC8IBJ","A3VV07FCCSZ7JY","3FW4EL5A3LANKRP91N782LFHPY722Q","","","<img src=""img/flower2.png"" style=""width:200px;border:14px solid red;"">","null","","","","","",""
"1038","","image-keyboard-response","218","302269","0.0-218.0","37FMASSAYDDN59110LQDFDLQCC8IBJ","A3VV07FCCSZ7JY","3FW4EL5A3LANKRP91N782LFHPY722Q","","","img/flower9.png","76","1041","3","0","1","0.6,0.6,0,0,0.6,0.6,0.6,0,0.6",""
"null","","html-keyboard-response","219","302582","0.0-219.0","37FMASSAYDDN59110LQDFDLQCC8IBJ","A3VV07FCCSZ7JY","3FW4EL5A3LANKRP91N782LFHPY722Q","","","<img src=""img/flower9.png"" style=""width:200px;border:14px solid red;"">","null","","","","","",""
"2773","","image-keyboard-response","220","305356","0.0-220.0","37FMASSAYDDN59110LQDFDLQCC8IBJ","A3VV07FCCSZ7JY","3FW4EL5A3LANKRP91N782LFHPY722Q","","","img/flower9.png","76","2778","3","0","1","0.6,0.6,0,0,0.6,0.6,0.6,0,0.6",""
"null","","html-keyboard-response","221","305681","0.0-221.0","37FMASSAYDDN59110LQDFDLQCC8IBJ","A3VV07FCCSZ7JY","3FW4EL5A3LANKRP91N782LFHPY722Q","","","<img src=""img/flower9.png"" style=""width:200px;border:14px solid red;"">","null","","","","","",""
"1190","","image-keyboard-response","222","306878","0.0-222.0","37FMASSAYDDN59110LQDFDLQCC8IBJ","A3VV07FCCSZ7JY","3FW4EL5A3LANKRP91N782LFHPY722Q","","","img/flower1.png","74","1197","1","0","2","0.6,0.6,0,0,0.6,0.6,0.6,0,0.6",""
"null","","html-keyboard-response","223","307182","0.0-223.0","37FMASSAYDDN59110LQDFDLQCC8IBJ","A3VV07FCCSZ7JY","3FW4EL5A3LANKRP91N782LFHPY722Q","","","<img src=""img/flower1.png"" style=""width:200px;border:14px solid red;"">","null","","","","","",""
"1127","","image-keyboard-response","224","308324","0.0-224.0","37FMASSAYDDN59110LQDFDLQCC8IBJ","A3VV07FCCSZ7JY","3FW4EL5A3LANKRP91N782LFHPY722Q","","","img/flower2.png","75","1139","2","0","3","0.6,0.6,0,0,0.6,0.6,0.6,0,0.6",""
"null","","html-keyboard-response","225","308635","0.0-225.0","37FMASSAYDDN59110LQDFDLQCC8IBJ","A3VV07FCCSZ7JY","3FW4EL5A3LANKRP91N782LFHPY722Q","","","<img src=""img/flower2.png"" style=""width:200px;border:14px solid red;"">","null","","","","","",""
"927","","image-keyboard-response","226","309575","0.0-226.0","37FMASSAYDDN59110LQDFDLQCC8IBJ","A3VV07FCCSZ7JY","3FW4EL5A3LANKRP91N782LFHPY722Q","","","img/flower9.png","76","939","3","0","1","0.6,0.6,0,0,0.6,0.6,0.6,0,0.6",""
"null","","html-keyboard-response","227","309995","0.0-227.0","37FMASSAYDDN59110LQDFDLQCC8IBJ","A3VV07FCCSZ7JY","3FW4EL5A3LANKRP91N782LFHPY722Q","","","<img src=""img/flower9.png"" style=""width:200px;border:14px solid red;"">","null","","","","","",""
"1245","","image-keyboard-response","228","311246","0.0-228.0","37FMASSAYDDN59110LQDFDLQCC8IBJ","A3VV07FCCSZ7JY","3FW4EL5A3LANKRP91N782LFHPY722Q","","","img/flower2.png","75","1251","2","0","3","0.6,0.6,0,0,0.6,0.6,0.6,0,0.6",""
"null","","html-keyboard-response","229","311565","0.0-229.0","37FMASSAYDDN59110LQDFDLQCC8IBJ","A3VV07FCCSZ7JY","3FW4EL5A3LANKRP91N782LFHPY722Q","","","<img src=""img/flower2.png"" style=""width:200px;border:14px solid red;"">","null","","","","","",""
"1174","","image-keyboard-response","230","312744","0.0-230.0","37FMASSAYDDN59110LQDFDLQCC8IBJ","A3VV07FCCSZ7JY","3FW4EL5A3LANKRP91N782LFHPY722Q","","","img/flower9.png","76","1179","3","0","1","0.6,0.6,0,0,0.6,0.6,0.6,0,0.6",""
"null","","html-keyboard-response","231","313047","0.0-231.0","37FMASSAYDDN59110LQDFDLQCC8IBJ","A3VV07FCCSZ7JY","3FW4EL5A3LANKRP91N782LFHPY722Q","","","<img src=""img/flower9.png"" style=""width:200px;border:14px solid red;"">","null","","","","","",""
"2329","","image-keyboard-response","232","315384","0.0-232.0","37FMASSAYDDN59110LQDFDLQCC8IBJ","A3VV07FCCSZ7JY","3FW4EL5A3LANKRP91N782LFHPY722Q","","","img/flower1.png","74","2337","1","0","2","0.6,0.6,0,0,0.6,0.6,0.6,0,0.6",""
"null","","html-keyboard-response","233","315690","0.0-233.0","37FMASSAYDDN59110LQDFDLQCC8IBJ","A3VV07FCCSZ7JY","3FW4EL5A3LANKRP91N782LFHPY722Q","","","<img src=""img/flower1.png"" style=""width:200px;border:14px solid red;"">","null","","","","","",""
"1129","","image-keyboard-response","234","316838","0.0-234.0","37FMASSAYDDN59110LQDFDLQCC8IBJ","A3VV07FCCSZ7JY","3FW4EL5A3LANKRP91N782LFHPY722Q","","","img/flower2.png","75","1146","2","0","3","0.6,0.6,0,0,0.6,0.6,0.6,0,0.6",""
"null","","html-keyboard-response","235","317146","0.0-235.0","37FMASSAYDDN59110LQDFDLQCC8IBJ","A3VV07FCCSZ7JY","3FW4EL5A3LANKRP91N782LFHPY722Q","","","<img src=""img/flower2.png"" style=""width:200px;border:14px solid red;"">","null","","","","","",""
"1200","","image-keyboard-response","236","318357","0.0-236.0","37FMASSAYDDN59110LQDFDLQCC8IBJ","A3VV07FCCSZ7JY","3FW4EL5A3LANKRP91N782LFHPY722Q","","","img/flower1.png","74","1210","1","0","2","0.6,0.6,0,0,0.6,0.6,0.6,0,0.6",""
"null","","html-keyboard-response","237","318672","0.0-237.0","37FMASSAYDDN59110LQDFDLQCC8IBJ","A3VV07FCCSZ7JY","3FW4EL5A3LANKRP91N782LFHPY722Q","","","<img src=""img/flower1.png"" style=""width:200px;border:14px solid red;"">","null","","","","","",""
"951","","image-keyboard-response","238","319641","0.0-238.0","37FMASSAYDDN59110LQDFDLQCC8IBJ","A3VV07FCCSZ7JY","3FW4EL5A3LANKRP91N782LFHPY722Q","","","img/flower1.png","74","969","1","0","2","0.6,0.6,0,0,0.6,0.6,0.6,0,0.6",""
"null","","html-keyboard-response","239","319951","0.0-239.0","37FMASSAYDDN59110LQDFDLQCC8IBJ","A3VV07FCCSZ7JY","3FW4EL5A3LANKRP91N782LFHPY722Q","","","<img src=""img/flower1.png"" style=""width:200px;border:14px solid red;"">","null","","","","","",""
"1174","","image-keyboard-response","240","321138","0.0-240.0","37FMASSAYDDN59110LQDFDLQCC8IBJ","A3VV07FCCSZ7JY","3FW4EL5A3LANKRP91N782LFHPY722Q","","","img/flower9.png","76","1191","3","0","1","0.6,0.6,0,0,0.6,0.6,0.6,0,0.6",""
"null","","html-keyboard-response","241","321447","0.0-241.0","37FMASSAYDDN59110LQDFDLQCC8IBJ","A3VV07FCCSZ7JY","3FW4EL5A3LANKRP91N782LFHPY722Q","","","<img src=""img/flower9.png"" style=""width:200px;border:14px solid red;"">","null","","","","","",""
"1183","","image-keyboard-response","242","322638","0.0-242.0","37FMASSAYDDN59110LQDFDLQCC8IBJ","A3VV07FCCSZ7JY","3FW4EL5A3LANKRP91N782LFHPY722Q","","","img/flower1.png","74","1190","1","0","2","0.6,0.6,0,0,0.6,0.6,0.6,0,0.6",""
"null","","html-keyboard-response","243","322947","0.0-243.0","37FMASSAYDDN59110LQDFDLQCC8IBJ","A3VV07FCCSZ7JY","3FW4EL5A3LANKRP91N782LFHPY722Q","","","<img src=""img/flower1.png"" style=""width:200px;border:14px solid red;"">","null","","","","","",""
"2054","","image-keyboard-response","244","325009","0.0-244.0","37FMASSAYDDN59110LQDFDLQCC8IBJ","A3VV07FCCSZ7JY","3FW4EL5A3LANKRP91N782LFHPY722Q","","","img/flower9.png","76","2061","3","0","1","0.6,0.6,0,0,0.6,0.6,0.6,0,0.6",""
"null","","html-keyboard-response","245","325320","0.0-245.0","37FMASSAYDDN59110LQDFDLQCC8IBJ","A3VV07FCCSZ7JY","3FW4EL5A3LANKRP91N782LFHPY722Q","","","<img src=""img/flower9.png"" style=""width:200px;border:14px solid red;"">","null","","","","","",""
"1212","","image-keyboard-response","246","326540","0.0-246.0","37FMASSAYDDN59110LQDFDLQCC8IBJ","A3VV07FCCSZ7JY","3FW4EL5A3LANKRP91N782LFHPY722Q","","","img/flower1.png","74","1219","1","0","2","0.6,0.6,0,0,0.6,0.6,0.6,0,0.6",""
"null","","html-keyboard-response","247","326847","0.0-247.0","37FMASSAYDDN59110LQDFDLQCC8IBJ","A3VV07FCCSZ7JY","3FW4EL5A3LANKRP91N782LFHPY722Q","","","<img src=""img/flower1.png"" style=""width:200px;border:14px solid red;"">","null","","","","","",""
"935","","image-keyboard-response","248","327790","0.0-248.0","37FMASSAYDDN59110LQDFDLQCC8IBJ","A3VV07FCCSZ7JY","3FW4EL5A3LANKRP91N782LFHPY722Q","","","img/flower1.png","74","942","1","0","2","0.6,0.6,0,0,0.6,0.6,0.6,0,0.6",""
"null","","html-keyboard-response","249","328098","0.0-249.0","37FMASSAYDDN59110LQDFDLQCC8IBJ","A3VV07FCCSZ7JY","3FW4EL5A3LANKRP91N782LFHPY722Q","","","<img src=""img/flower1.png"" style=""width:200px;border:14px solid red;"">","null","","","","","",""
"1778","","image-keyboard-response","250","329894","0.0-250.0","37FMASSAYDDN59110LQDFDLQCC8IBJ","A3VV07FCCSZ7JY","3FW4EL5A3LANKRP91N782LFHPY722Q","","","img/flower2.png","75","1798","2","0","3","0.6,0.6,0,0,0.6,0.6,0.6,0,0.6",""
"null","","html-keyboard-response","251","330214","0.0-251.0","37FMASSAYDDN59110LQDFDLQCC8IBJ","A3VV07FCCSZ7JY","3FW4EL5A3LANKRP91N782LFHPY722Q","","","<img src=""img/flower2.png"" style=""width:200px;border:14px solid red;"">","null","","","","","",""
"1312","","image-keyboard-response","252","331529","0.0-252.0","37FMASSAYDDN59110LQDFDLQCC8IBJ","A3VV07FCCSZ7JY","3FW4EL5A3LANKRP91N782LFHPY722Q","","","img/flower9.png","76","1315","3","0","1","0.6,0.6,0,0,0.6,0.6,0.6,0,0.6",""
"null","","html-keyboard-response","253","331849","0.0-253.0","37FMASSAYDDN59110LQDFDLQCC8IBJ","A3VV07FCCSZ7JY","3FW4EL5A3LANKRP91N782LFHPY722Q","","","<img src=""img/flower9.png"" style=""width:200px;border:14px solid red;"">","null","","","","","",""
"984","","image-keyboard-response","254","332839","0.0-254.0","37FMASSAYDDN59110LQDFDLQCC8IBJ","A3VV07FCCSZ7JY","3FW4EL5A3LANKRP91N782LFHPY722Q","","","img/flower9.png","76","989","3","0","1","0.6,0.6,0,0,0.6,0.6,0.6,0,0.6",""
"null","","html-keyboard-response","255","333148","0.0-255.0","37FMASSAYDDN59110LQDFDLQCC8IBJ","A3VV07FCCSZ7JY","3FW4EL5A3LANKRP91N782LFHPY722Q","","","<img src=""img/flower9.png"" style=""width:200px;border:14px solid red;"">","null","","","","","",""
"1296","","image-keyboard-response","256","334456","0.0-256.0","37FMASSAYDDN59110LQDFDLQCC8IBJ","A3VV07FCCSZ7JY","3FW4EL5A3LANKRP91N782LFHPY722Q","","","img/flower2.png","75","1307","2","0","3","0.6,0.6,0,0,0.6,0.6,0.6,0,0.6",""
"null","","html-keyboard-response","257","334766","0.0-257.0","37FMASSAYDDN59110LQDFDLQCC8IBJ","A3VV07FCCSZ7JY","3FW4EL5A3LANKRP91N782LFHPY722Q","","","<img src=""img/flower2.png"" style=""width:200px;border:14px solid red;"">","null","","","","","",""
"1015","","image-keyboard-response","258","335783","0.0-258.0","37FMASSAYDDN59110LQDFDLQCC8IBJ","A3VV07FCCSZ7JY","3FW4EL5A3LANKRP91N782LFHPY722Q","","","img/flower9.png","76","1030","3","0","1","0.6,0.6,0,0,0.6,0.6,0.6,0,0.6",""
"null","","html-keyboard-response","259","336113","0.0-259.0","37FMASSAYDDN59110LQDFDLQCC8IBJ","A3VV07FCCSZ7JY","3FW4EL5A3LANKRP91N782LFHPY722Q","","","<img src=""img/flower9.png"" style=""width:200px;border:14px solid red;"">","null","","","","","",""
"1128","","image-keyboard-response","260","337252","0.0-260.0","37FMASSAYDDN59110LQDFDLQCC8IBJ","A3VV07FCCSZ7JY","3FW4EL5A3LANKRP91N782LFHPY722Q","","","img/flower2.png","75","1138","2","0","3","0.6,0.6,0,0,0.6,0.6,0.6,0,0.6",""
"null","","html-keyboard-response","261","337553","0.0-261.0","37FMASSAYDDN59110LQDFDLQCC8IBJ","A3VV07FCCSZ7JY","3FW4EL5A3LANKRP91N782LFHPY722Q","","","<img src=""img/flower2.png"" style=""width:200px;border:14px solid red;"">","null","","","","","",""
"1621","","image-keyboard-response","262","339175","0.0-262.0","37FMASSAYDDN59110LQDFDLQCC8IBJ","A3VV07FCCSZ7JY","3FW4EL5A3LANKRP91N782LFHPY722Q","","","img/flower2.png","75","1637","2","0","3","0.6,0.6,0,0,0.6,0.6,0.6,0,0.6",""
"null","","html-keyboard-response","263","339498","0.0-263.0","37FMASSAYDDN59110LQDFDLQCC8IBJ","A3VV07FCCSZ7JY","3FW4EL5A3LANKRP91N782LFHPY722Q","","","<img src=""img/flower2.png"" style=""width:200px;border:14px solid red;"">","null","","","","","",""
"1056","","image-keyboard-response","264","340568","0.0-264.0","37FMASSAYDDN59110LQDFDLQCC8IBJ","A3VV07FCCSZ7JY","3FW4EL5A3LANKRP91N782LFHPY722Q","","","img/flower9.png","76","1069","3","0","1","0.6,0.6,0,0,0.6,0.6,0.6,0,0.6",""
"null","","html-keyboard-response","265","340882","0.0-265.0","37FMASSAYDDN59110LQDFDLQCC8IBJ","A3VV07FCCSZ7JY","3FW4EL5A3LANKRP91N782LFHPY722Q","","","<img src=""img/flower9.png"" style=""width:200px;border:14px solid red;"">","null","","","","","",""
"3213","","image-keyboard-response","266","344108","0.0-266.0","37FMASSAYDDN59110LQDFDLQCC8IBJ","A3VV07FCCSZ7JY","3FW4EL5A3LANKRP91N782LFHPY722Q","","","img/flower9.png","76","3226","3","0","1","0.6,0.6,0,0,0.6,0.6,0.6,0,0.6",""
"null","","html-keyboard-response","267","344413","0.0-267.0","37FMASSAYDDN59110LQDFDLQCC8IBJ","A3VV07FCCSZ7JY","3FW4EL5A3LANKRP91N782LFHPY722Q","","","<img src=""img/flower9.png"" style=""width:200px;border:14px solid red;"">","null","","","","","",""
"3993","","image-keyboard-response","268","348410","0.0-268.0","37FMASSAYDDN59110LQDFDLQCC8IBJ","A3VV07FCCSZ7JY","3FW4EL5A3LANKRP91N782LFHPY722Q","","","img/flower1.png","74","3996","1","0","2","0.6,0.6,0,0,0.6,0.6,0.6,0,0.6",""
"null","","html-keyboard-response","269","348719","0.0-269.0","37FMASSAYDDN59110LQDFDLQCC8IBJ","A3VV07FCCSZ7JY","3FW4EL5A3LANKRP91N782LFHPY722Q","","","<img src=""img/flower1.png"" style=""width:200px;border:14px solid red;"">","null","","","","","",""
"6521","","image-keyboard-response","270","355254","0.0-270.0","37FMASSAYDDN59110LQDFDLQCC8IBJ","A3VV07FCCSZ7JY","3FW4EL5A3LANKRP91N782LFHPY722Q","","","img/flower9.png","76","6535","3","0","1","0.6,0.6,0,0,0.6,0.6,0.6,0,0.6",""
"null","","html-keyboard-response","271","355557","0.0-271.0","37FMASSAYDDN59110LQDFDLQCC8IBJ","A3VV07FCCSZ7JY","3FW4EL5A3LANKRP91N782LFHPY722Q","","","<img src=""img/flower9.png"" style=""width:200px;border:14px solid red;"">","null","","","","","",""
"2651","","image-keyboard-response","272","358212","0.0-272.0","37FMASSAYDDN59110LQDFDLQCC8IBJ","A3VV07FCCSZ7JY","3FW4EL5A3LANKRP91N782LFHPY722Q","","","img/flower1.png","74","2655","1","0","2","0.6,0.6,0,0,0.6,0.6,0.6,0,0.6",""
"null","","html-keyboard-response","273","358535","0.0-273.0","37FMASSAYDDN59110LQDFDLQCC8IBJ","A3VV07FCCSZ7JY","3FW4EL5A3LANKRP91N782LFHPY722Q","","","<img src=""img/flower1.png"" style=""width:200px;border:14px solid red;"">","null","","","","","",""
"1028","","image-keyboard-response","274","359568","0.0-274.0","37FMASSAYDDN59110LQDFDLQCC8IBJ","A3VV07FCCSZ7JY","3FW4EL5A3LANKRP91N782LFHPY722Q","","","img/flower2.png","75","1033","2","0","3","0.6,0.6,0,0,0.6,0.6,0.6,0,0.6",""
"null","","html-keyboard-response","275","359892","0.0-275.0","37FMASSAYDDN59110LQDFDLQCC8IBJ","A3VV07FCCSZ7JY","3FW4EL5A3LANKRP91N782LFHPY722Q","","","<img src=""img/flower2.png"" style=""width:200px;border:14px solid red;"">","null","","","","","",""
"1568","","image-keyboard-response","276","361461","0.0-276.0","37FMASSAYDDN59110LQDFDLQCC8IBJ","A3VV07FCCSZ7JY","3FW4EL5A3LANKRP91N782LFHPY722Q","","","img/flower2.png","75","1576","2","0","3","0.6,0.6,0,0,0.6,0.6,0.6,0,0.6",""
"null","","html-keyboard-response","277","361795","0.0-277.0","37FMASSAYDDN59110LQDFDLQCC8IBJ","A3VV07FCCSZ7JY","3FW4EL5A3LANKRP91N782LFHPY722Q","","","<img src=""img/flower2.png"" style=""width:200px;border:14px solid red;"">","null","","","","","",""
"1379","","image-keyboard-response","278","363185","0.0-278.0","37FMASSAYDDN59110LQDFDLQCC8IBJ","A3VV07FCCSZ7JY","3FW4EL5A3LANKRP91N782LFHPY722Q","","","img/flower1.png","74","1390","1","0","2","0.6,0.6,0,0,0.6,0.6,0.6,0,0.6",""
"null","","html-keyboard-response","279","363496","0.0-279.0","37FMASSAYDDN59110LQDFDLQCC8IBJ","A3VV07FCCSZ7JY","3FW4EL5A3LANKRP91N782LFHPY722Q","","","<img src=""img/flower1.png"" style=""width:200px;border:14px solid red;"">","null","","","","","",""
"2580","","image-keyboard-response","280","366079","0.0-280.0","37FMASSAYDDN59110LQDFDLQCC8IBJ","A3VV07FCCSZ7JY","3FW4EL5A3LANKRP91N782LFHPY722Q","","","img/flower2.png","75","2583","2","0","3","0.6,0.6,0,0,0.6,0.6,0.6,0,0.6",""
"null","","html-keyboard-response","281","366396","0.0-281.0","37FMASSAYDDN59110LQDFDLQCC8IBJ","A3VV07FCCSZ7JY","3FW4EL5A3LANKRP91N782LFHPY722Q","","","<img src=""img/flower2.png"" style=""width:200px;border:14px solid red;"">","null","","","","","",""
"744","","image-keyboard-response","282","367143","0.0-282.0","37FMASSAYDDN59110LQDFDLQCC8IBJ","A3VV07FCCSZ7JY","3FW4EL5A3LANKRP91N782LFHPY722Q","","","img/flower2.png","75","747","2","0","3","0.6,0.6,0,0,0.6,0.6,0.6,0,0.6",""
"null","","html-keyboard-response","283","367447","0.0-283.0","37FMASSAYDDN59110LQDFDLQCC8IBJ","A3VV07FCCSZ7JY","3FW4EL5A3LANKRP91N782LFHPY722Q","","","<img src=""img/flower2.png"" style=""width:200px;border:14px solid red;"">","null","","","","","",""
"991","","image-keyboard-response","284","368449","0.0-284.0","37FMASSAYDDN59110LQDFDLQCC8IBJ","A3VV07FCCSZ7JY","3FW4EL5A3LANKRP91N782LFHPY722Q","","","img/flower1.png","74","1003","1","0","2","0.6,0.6,0,0,0.6,0.6,0.6,0,0.6",""
"null","","html-keyboard-response","285","368762","0.0-285.0","37FMASSAYDDN59110LQDFDLQCC8IBJ","A3VV07FCCSZ7JY","3FW4EL5A3LANKRP91N782LFHPY722Q","","","<img src=""img/flower1.png"" style=""width:200px;border:14px solid red;"">","null","","","","","",""
"1081","","image-keyboard-response","286","369847","0.0-286.0","37FMASSAYDDN59110LQDFDLQCC8IBJ","A3VV07FCCSZ7JY","3FW4EL5A3LANKRP91N782LFHPY722Q","","","img/flower9.png","76","1085","3","0","1","0.6,0.6,0,0,0.6,0.6,0.6,0,0.6",""
"null","","html-keyboard-response","287","370152","0.0-287.0","37FMASSAYDDN59110LQDFDLQCC8IBJ","A3VV07FCCSZ7JY","3FW4EL5A3LANKRP91N782LFHPY722Q","","","<img src=""img/flower9.png"" style=""width:200px;border:14px solid red;"">","null","","","","","",""
"1153","","image-keyboard-response","288","371320","0.0-288.0","37FMASSAYDDN59110LQDFDLQCC8IBJ","A3VV07FCCSZ7JY","3FW4EL5A3LANKRP91N782LFHPY722Q","","","img/flower1.png","74","1167","1","0","2","0.6,0.6,0,0,0.6,0.6,0.6,0,0.6",""
"null","","html-keyboard-response","289","371626","0.0-289.0","37FMASSAYDDN59110LQDFDLQCC8IBJ","A3VV07FCCSZ7JY","3FW4EL5A3LANKRP91N782LFHPY722Q","","","<img src=""img/flower1.png"" style=""width:200px;border:14px solid red;"">","null","","","","","",""
"934","","image-keyboard-response","290","372587","0.0-290.0","37FMASSAYDDN59110LQDFDLQCC8IBJ","A3VV07FCCSZ7JY","3FW4EL5A3LANKRP91N782LFHPY722Q","","","img/flower9.png","76","961","3","0","1","0.6,0.6,0,0,0.6,0.6,0.6,0,0.6",""
"null","","html-keyboard-response","291","372895","0.0-291.0","37FMASSAYDDN59110LQDFDLQCC8IBJ","A3VV07FCCSZ7JY","3FW4EL5A3LANKRP91N782LFHPY722Q","","","<img src=""img/flower9.png"" style=""width:200px;border:14px solid red;"">","null","","","","","",""
"2229","","image-keyboard-response","292","375132","0.0-292.0","37FMASSAYDDN59110LQDFDLQCC8IBJ","A3VV07FCCSZ7JY","3FW4EL5A3LANKRP91N782LFHPY722Q","","","img/flower9.png","76","2237","3","0","1","0.6,0.6,0,0,0.6,0.6,0.6,0,0.6",""
"null","","html-keyboard-response","293","375446","0.0-293.0","37FMASSAYDDN59110LQDFDLQCC8IBJ","A3VV07FCCSZ7JY","3FW4EL5A3LANKRP91N782LFHPY722Q","","","<img src=""img/flower9.png"" style=""width:200px;border:14px solid red;"">","null","","","","","",""
"982","","image-keyboard-response","294","376437","0.0-294.0","37FMASSAYDDN59110LQDFDLQCC8IBJ","A3VV07FCCSZ7JY","3FW4EL5A3LANKRP91N782LFHPY722Q","","","img/flower2.png","75","991","2","0","3","0.6,0.6,0,0,0.6,0.6,0.6,0,0.6",""
"null","","html-keyboard-response","295","376748","0.0-295.0","37FMASSAYDDN59110LQDFDLQCC8IBJ","A3VV07FCCSZ7JY","3FW4EL5A3LANKRP91N782LFHPY722Q","","","<img src=""img/flower2.png"" style=""width:200px;border:14px solid red;"">","null","","","","","",""
"814","","image-keyboard-response","296","377566","0.0-296.0","37FMASSAYDDN59110LQDFDLQCC8IBJ","A3VV07FCCSZ7JY","3FW4EL5A3LANKRP91N782LFHPY722Q","","","img/flower2.png","75","818","2","0","3","0.6,0.6,0,0,0.6,0.6,0.6,0,0.6",""
"null","","html-keyboard-response","297","377878","0.0-297.0","37FMASSAYDDN59110LQDFDLQCC8IBJ","A3VV07FCCSZ7JY","3FW4EL5A3LANKRP91N782LFHPY722Q","","","<img src=""img/flower2.png"" style=""width:200px;border:14px solid red;"">","null","","","","","",""
"1081","","image-keyboard-response","298","378972","0.0-298.0","37FMASSAYDDN59110LQDFDLQCC8IBJ","A3VV07FCCSZ7JY","3FW4EL5A3LANKRP91N782LFHPY722Q","","","img/flower1.png","74","1094","1","0","2","0.6,0.6,0,0,0.6,0.6,0.6,0,0.6",""
"null","","html-keyboard-response","299","379275","0.0-299.0","37FMASSAYDDN59110LQDFDLQCC8IBJ","A3VV07FCCSZ7JY","3FW4EL5A3LANKRP91N782LFHPY722Q","","","<img src=""img/flower1.png"" style=""width:200px;border:14px solid red;"">","null","","","","","",""
"2756","","image-keyboard-response","300","382050","0.0-300.0","37FMASSAYDDN59110LQDFDLQCC8IBJ","A3VV07FCCSZ7JY","3FW4EL5A3LANKRP91N782LFHPY722Q","","","img/flower1.png","74","2775","1","0","2","0.6,0.6,0,0,0.6,0.6,0.6,0,0.6",""
"null","","html-keyboard-response","301","382367","0.0-301.0","37FMASSAYDDN59110LQDFDLQCC8IBJ","A3VV07FCCSZ7JY","3FW4EL5A3LANKRP91N782LFHPY722Q","","","<img src=""img/flower1.png"" style=""width:200px;border:14px solid red;"">","null","","","","","",""
"1672","","image-keyboard-response","302","384060","0.0-302.0","37FMASSAYDDN59110LQDFDLQCC8IBJ","A3VV07FCCSZ7JY","3FW4EL5A3LANKRP91N782LFHPY722Q","","","img/flower9.png","76","1689","3","0","1","0.6,0.6,0,0,0.6,0.6,0.6,0,0.6",""
"null","","html-keyboard-response","303","384381","0.0-303.0","37FMASSAYDDN59110LQDFDLQCC8IBJ","A3VV07FCCSZ7JY","3FW4EL5A3LANKRP91N782LFHPY722Q","","","<img src=""img/flower9.png"" style=""width:200px;border:14px solid red;"">","null","","","","","",""
"1108","","image-keyboard-response","304","385491","0.0-304.0","37FMASSAYDDN59110LQDFDLQCC8IBJ","A3VV07FCCSZ7JY","3FW4EL5A3LANKRP91N782LFHPY722Q","","","img/flower1.png","74","1110","1","0","2","0.6,0.6,0,0,0.6,0.6,0.6,0,0.6",""
"null","","html-keyboard-response","305","385817","0.0-305.0","37FMASSAYDDN59110LQDFDLQCC8IBJ","A3VV07FCCSZ7JY","3FW4EL5A3LANKRP91N782LFHPY722Q","","","<img src=""img/flower1.png"" style=""width:200px;border:14px solid red;"">","null","","","","","",""
"","","html-keyboard-response","306","397505","0.0-306.0","37FMASSAYDDN59110LQDFDLQCC8IBJ","A3VV07FCCSZ7JY","3FW4EL5A3LANKRP91N782LFHPY722Q","","","","","","","","","",""
"3045","","image-keyboard-response","307","400554","0.0-307.0","37FMASSAYDDN59110LQDFDLQCC8IBJ","A3VV07FCCSZ7JY","3FW4EL5A3LANKRP91N782LFHPY722Q","","","img/flower7.png","76","3048","3","1","2","0.8,0.8,0.2,0.2,0.8,0.8,0.8,0.2,0.8",""
"null","","html-keyboard-response","308","400861","0.0-308.0","37FMASSAYDDN59110LQDFDLQCC8IBJ","A3VV07FCCSZ7JY","3FW4EL5A3LANKRP91N782LFHPY722Q","","","<img src=""img/flower7.png"" style=""width:200px; border:14px solid green;"">","null","","","","","",""
"1186","","image-keyboard-response","309","402056","0.0-309.0","37FMASSAYDDN59110LQDFDLQCC8IBJ","A3VV07FCCSZ7JY","3FW4EL5A3LANKRP91N782LFHPY722Q","","","img/flower5.png","75","1195","2","1","1","0.8,0.8,0.2,0.2,0.8,0.8,0.8,0.2,0.8",""
"null","","html-keyboard-response","310","402364","0.0-310.0","37FMASSAYDDN59110LQDFDLQCC8IBJ","A3VV07FCCSZ7JY","3FW4EL5A3LANKRP91N782LFHPY722Q","","","<img src=""img/flower5.png"" style=""width:200px; border:14px solid green;"">","null","","","","","",""
"2146","","image-keyboard-response","311","404529","0.0-311.0","37FMASSAYDDN59110LQDFDLQCC8IBJ","A3VV07FCCSZ7JY","3FW4EL5A3LANKRP91N782LFHPY722Q","","","img/flower5.png","75","2164","2","1","1","0.8,0.8,0.2,0.2,0.8,0.8,0.8,0.2,0.8",""
"null","","html-keyboard-response","312","404844","0.0-312.0","37FMASSAYDDN59110LQDFDLQCC8IBJ","A3VV07FCCSZ7JY","3FW4EL5A3LANKRP91N782LFHPY722Q","","","<img src=""img/flower5.png"" style=""width:200px; border:14px solid green;"">","null","","","","","",""
"888","","image-keyboard-response","313","405746","0.0-313.0","37FMASSAYDDN59110LQDFDLQCC8IBJ","A3VV07FCCSZ7JY","3FW4EL5A3LANKRP91N782LFHPY722Q","","","img/flower5.png","75","902","2","1","1","0.8,0.8,0.2,0.2,0.8,0.8,0.8,0.2,0.8",""
"null","","html-keyboard-response","314","406187","0.0-314.0","37FMASSAYDDN59110LQDFDLQCC8IBJ","A3VV07FCCSZ7JY","3FW4EL5A3LANKRP91N782LFHPY722Q","","","<img src=""img/flower5.png"" style=""width:200px; border:14px solid green;"">","null","","","","","",""
"4020","","image-keyboard-response","315","410242","0.0-315.0","37FMASSAYDDN59110LQDFDLQCC8IBJ","A3VV07FCCSZ7JY","3FW4EL5A3LANKRP91N782LFHPY722Q","","","img/flower5.png","75","4055","2","1","1","0.8,0.8,0.2,0.2,0.8,0.8,0.8,0.2,0.8",""
"null","","html-keyboard-response","316","410551","0.0-316.0","37FMASSAYDDN59110LQDFDLQCC8IBJ","A3VV07FCCSZ7JY","3FW4EL5A3LANKRP91N782LFHPY722Q","","","<img src=""img/flower5.png"" style=""width:200px; border:14px solid green;"">","null","","","","","",""
"4592","","image-keyboard-response","317","415159","0.0-317.0","37FMASSAYDDN59110LQDFDLQCC8IBJ","A3VV07FCCSZ7JY","3FW4EL5A3LANKRP91N782LFHPY722Q","","","img/flower7.png","76","4609","3","1","2","0.8,0.8,0.2,0.2,0.8,0.8,0.8,0.2,0.8",""
"null","","html-keyboard-response","318","415477","0.0-318.0","37FMASSAYDDN59110LQDFDLQCC8IBJ","A3VV07FCCSZ7JY","3FW4EL5A3LANKRP91N782LFHPY722Q","","","<img src=""img/flower7.png"" style=""width:200px; border:14px solid green;"">","null","","","","","",""
"1334","","image-keyboard-response","319","416819","0.0-319.0","37FMASSAYDDN59110LQDFDLQCC8IBJ","A3VV07FCCSZ7JY","3FW4EL5A3LANKRP91N782LFHPY722Q","","","img/flower8.png","74","1341","1","0","3","0.8,0.8,0.2,0.2,0.8,0.8,0.8,0.2,0.8",""
"null","","html-keyboard-response","320","417130","0.0-320.0","37FMASSAYDDN59110LQDFDLQCC8IBJ","A3VV07FCCSZ7JY","3FW4EL5A3LANKRP91N782LFHPY722Q","","","<img src=""img/flower8.png"" style=""width:200px;border:14px solid red;"">","null","","","","","",""
"1183","","image-keyboard-response","321","418332","0.0-321.0","37FMASSAYDDN59110LQDFDLQCC8IBJ","A3VV07FCCSZ7JY","3FW4EL5A3LANKRP91N782LFHPY722Q","","","img/flower5.png","75","1199","2","0","1","0.8,0.8,0.2,0.2,0.8,0.8,0.8,0.2,0.8",""
"null","","html-keyboard-response","322","418643","0.0-322.0","37FMASSAYDDN59110LQDFDLQCC8IBJ","A3VV07FCCSZ7JY","3FW4EL5A3LANKRP91N782LFHPY722Q","","","<img src=""img/flower5.png"" style=""width:200px;border:14px solid red;"">","null","","","","","",""
"1245","","image-keyboard-response","323","419908","0.0-323.0","37FMASSAYDDN59110LQDFDLQCC8IBJ","A3VV07FCCSZ7JY","3FW4EL5A3LANKRP91N782LFHPY722Q","","","img/flower5.png","75","1265","2","1","1","0.8,0.8,0.2,0.2,0.8,0.8,0.8,0.2,0.8",""
"null","","html-keyboard-response","324","420217","0.0-324.0","37FMASSAYDDN59110LQDFDLQCC8IBJ","A3VV07FCCSZ7JY","3FW4EL5A3LANKRP91N782LFHPY722Q","","","<img src=""img/flower5.png"" style=""width:200px; border:14px solid green;"">","null","","","","","",""
"2060","","image-keyboard-response","325","422289","0.0-325.0","37FMASSAYDDN59110LQDFDLQCC8IBJ","A3VV07FCCSZ7JY","3FW4EL5A3LANKRP91N782LFHPY722Q","","","img/flower7.png","76","2072","3","0","2","0.8,0.8,0.2,0.2,0.8,0.8,0.8,0.2,0.8",""
"null","","html-keyboard-response","326","422596","0.0-326.0","37FMASSAYDDN59110LQDFDLQCC8IBJ","A3VV07FCCSZ7JY","3FW4EL5A3LANKRP91N782LFHPY722Q","","","<img src=""img/flower7.png"" style=""width:200px;border:14px solid red;"">","null","","","","","",""
"1196","","image-keyboard-response","327","423801","0.0-327.0","37FMASSAYDDN59110LQDFDLQCC8IBJ","A3VV07FCCSZ7JY","3FW4EL5A3LANKRP91N782LFHPY722Q","","","img/flower5.png","75","1206","2","0","1","0.8,0.8,0.2,0.2,0.8,0.8,0.8,0.2,0.8",""
"null","","html-keyboard-response","328","424111","0.0-328.0","37FMASSAYDDN59110LQDFDLQCC8IBJ","A3VV07FCCSZ7JY","3FW4EL5A3LANKRP91N782LFHPY722Q","","","<img src=""img/flower5.png"" style=""width:200px;border:14px solid red;"">","null","","","","","",""
"1204","","image-keyboard-response","329","425333","0.0-329.0","37FMASSAYDDN59110LQDFDLQCC8IBJ","A3VV07FCCSZ7JY","3FW4EL5A3LANKRP91N782LFHPY722Q","","","img/flower8.png","74","1222","1","1","3","0.8,0.8,0.2,0.2,0.8,0.8,0.8,0.2,0.8",""
"null","","html-keyboard-response","330","425640","0.0-330.0","37FMASSAYDDN59110LQDFDLQCC8IBJ","A3VV07FCCSZ7JY","3FW4EL5A3LANKRP91N782LFHPY722Q","","","<img src=""img/flower8.png"" style=""width:200px; border:14px solid green;"">","null","","","","","",""
"3978","","image-keyboard-response","331","429628","0.0-331.0","37FMASSAYDDN59110LQDFDLQCC8IBJ","A3VV07FCCSZ7JY","3FW4EL5A3LANKRP91N782LFHPY722Q","","","img/flower8.png","76","3987","3","1","3","0.8,0.8,0.2,0.2,0.8,0.8,0.8,0.2,0.8",""
"null","","html-keyboard-response","332","429943","0.0-332.0","37FMASSAYDDN59110LQDFDLQCC8IBJ","A3VV07FCCSZ7JY","3FW4EL5A3LANKRP91N782LFHPY722Q","","","<img src=""img/flower8.png"" style=""width:200px; border:14px solid green;"">","null","","","","","",""
"574","","image-keyboard-response","333","430533","0.0-333.0","37FMASSAYDDN59110LQDFDLQCC8IBJ","A3VV07FCCSZ7JY","3FW4EL5A3LANKRP91N782LFHPY722Q","","","img/flower5.png","75","590","2","1","1","0.8,0.8,0.2,0.2,0.8,0.8,0.8,0.2,0.8",""
"null","","html-keyboard-response","334","430844","0.0-334.0","37FMASSAYDDN59110LQDFDLQCC8IBJ","A3VV07FCCSZ7JY","3FW4EL5A3LANKRP91N782LFHPY722Q","","","<img src=""img/flower5.png"" style=""width:200px; border:14px solid green;"">","null","","","","","",""
"917","","image-keyboard-response","335","431768","0.0-335.0","37FMASSAYDDN59110LQDFDLQCC8IBJ","A3VV07FCCSZ7JY","3FW4EL5A3LANKRP91N782LFHPY722Q","","","img/flower8.png","75","924","2","0","3","0.8,0.8,0.2,0.2,0.8,0.8,0.8,0.2,0.8",""
"null","","html-keyboard-response","336","432085","0.0-336.0","37FMASSAYDDN59110LQDFDLQCC8IBJ","A3VV07FCCSZ7JY","3FW4EL5A3LANKRP91N782LFHPY722Q","","","<img src=""img/flower8.png"" style=""width:200px;border:14px solid red;"">","null","","","","","",""
"682","","image-keyboard-response","337","432779","0.0-337.0","37FMASSAYDDN59110LQDFDLQCC8IBJ","A3VV07FCCSZ7JY","3FW4EL5A3LANKRP91N782LFHPY722Q","","","img/flower8.png","74","694","1","0","3","0.8,0.8,0.2,0.2,0.8,0.8,0.8,0.2,0.8",""
"null","","html-keyboard-response","338","433093","0.0-338.0","37FMASSAYDDN59110LQDFDLQCC8IBJ","A3VV07FCCSZ7JY","3FW4EL5A3LANKRP91N782LFHPY722Q","","","<img src=""img/flower8.png"" style=""width:200px;border:14px solid red;"">","null","","","","","",""
"856","","image-keyboard-response","339","433967","0.0-339.0","37FMASSAYDDN59110LQDFDLQCC8IBJ","A3VV07FCCSZ7JY","3FW4EL5A3LANKRP91N782LFHPY722Q","","","img/flower5.png","75","873","2","1","1","0.8,0.8,0.2,0.2,0.8,0.8,0.8,0.2,0.8",""
"null","","html-keyboard-response","340","434280","0.0-340.0","37FMASSAYDDN59110LQDFDLQCC8IBJ","A3VV07FCCSZ7JY","3FW4EL5A3LANKRP91N782LFHPY722Q","","","<img src=""img/flower5.png"" style=""width:200px; border:14px solid green;"">","null","","","","","",""
"2001","","image-keyboard-response","341","436283","0.0-341.0","37FMASSAYDDN59110LQDFDLQCC8IBJ","A3VV07FCCSZ7JY","3FW4EL5A3LANKRP91N782LFHPY722Q","","","img/flower7.png","76","2002","3","1","2","0.8,0.8,0.2,0.2,0.8,0.8,0.8,0.2,0.8",""
"null","","html-keyboard-response","342","436593","0.0-342.0","37FMASSAYDDN59110LQDFDLQCC8IBJ","A3VV07FCCSZ7JY","3FW4EL5A3LANKRP91N782LFHPY722Q","","","<img src=""img/flower7.png"" style=""width:200px; border:14px solid green;"">","null","","","","","",""
"1308","","image-keyboard-response","343","437906","0.0-343.0","37FMASSAYDDN59110LQDFDLQCC8IBJ","A3VV07FCCSZ7JY","3FW4EL5A3LANKRP91N782LFHPY722Q","","","img/flower8.png","75","1312","2","0","3","0.8,0.8,0.2,0.2,0.8,0.8,0.8,0.2,0.8",""
"null","","html-keyboard-response","344","438215","0.0-344.0","37FMASSAYDDN59110LQDFDLQCC8IBJ","A3VV07FCCSZ7JY","3FW4EL5A3LANKRP91N782LFHPY722Q","","","<img src=""img/flower8.png"" style=""width:200px;border:14px solid red;"">","null","","","","","",""
"1312","","image-keyboard-response","345","439530","0.0-345.0","37FMASSAYDDN59110LQDFDLQCC8IBJ","A3VV07FCCSZ7JY","3FW4EL5A3LANKRP91N782LFHPY722Q","","","img/flower5.png","75","1314","2","1","1","0.8,0.8,0.2,0.2,0.8,0.8,0.8,0.2,0.8",""
"null","","html-keyboard-response","346","439844","0.0-346.0","37FMASSAYDDN59110LQDFDLQCC8IBJ","A3VV07FCCSZ7JY","3FW4EL5A3LANKRP91N782LFHPY722Q","","","<img src=""img/flower5.png"" style=""width:200px; border:14px solid green;"">","null","","","","","",""
"2106","","image-keyboard-response","347","441952","0.0-347.0","37FMASSAYDDN59110LQDFDLQCC8IBJ","A3VV07FCCSZ7JY","3FW4EL5A3LANKRP91N782LFHPY722Q","","","img/flower5.png","75","2108","2","1","1","0.8,0.8,0.2,0.2,0.8,0.8,0.8,0.2,0.8",""
"null","","html-keyboard-response","348","442257","0.0-348.0","37FMASSAYDDN59110LQDFDLQCC8IBJ","A3VV07FCCSZ7JY","3FW4EL5A3LANKRP91N782LFHPY722Q","","","<img src=""img/flower5.png"" style=""width:200px; border:14px solid green;"">","null","","","","","",""
"1119","","image-keyboard-response","349","443378","0.0-349.0","37FMASSAYDDN59110LQDFDLQCC8IBJ","A3VV07FCCSZ7JY","3FW4EL5A3LANKRP91N782LFHPY722Q","","","img/flower8.png","74","1121","1","1","3","0.8,0.8,0.2,0.2,0.8,0.8,0.8,0.2,0.8",""
"null","","html-keyboard-response","350","443685","0.0-350.0","37FMASSAYDDN59110LQDFDLQCC8IBJ","A3VV07FCCSZ7JY","3FW4EL5A3LANKRP91N782LFHPY722Q","","","<img src=""img/flower8.png"" style=""width:200px; border:14px solid green;"">","null","","","","","",""
"759","","image-keyboard-response","351","444457","0.0-351.0","37FMASSAYDDN59110LQDFDLQCC8IBJ","A3VV07FCCSZ7JY","3FW4EL5A3LANKRP91N782LFHPY722Q","","","img/flower8.png","74","772","1","1","3","0.8,0.8,0.2,0.2,0.8,0.8,0.8,0.2,0.8",""
"null","","html-keyboard-response","352","444760","0.0-352.0","37FMASSAYDDN59110LQDFDLQCC8IBJ","A3VV07FCCSZ7JY","3FW4EL5A3LANKRP91N782LFHPY722Q","","","<img src=""img/flower8.png"" style=""width:200px; border:14px solid green;"">","null","","","","","",""
"1127","","image-keyboard-response","353","445894","0.0-353.0","37FMASSAYDDN59110LQDFDLQCC8IBJ","A3VV07FCCSZ7JY","3FW4EL5A3LANKRP91N782LFHPY722Q","","","img/flower5.png","75","1133","2","1","1","0.8,0.8,0.2,0.2,0.8,0.8,0.8,0.2,0.8",""
"null","","html-keyboard-response","354","446210","0.0-354.0","37FMASSAYDDN59110LQDFDLQCC8IBJ","A3VV07FCCSZ7JY","3FW4EL5A3LANKRP91N782LFHPY722Q","","","<img src=""img/flower5.png"" style=""width:200px; border:14px solid green;"">","null","","","","","",""
"1159","","image-keyboard-response","355","447374","0.0-355.0","37FMASSAYDDN59110LQDFDLQCC8IBJ","A3VV07FCCSZ7JY","3FW4EL5A3LANKRP91N782LFHPY722Q","","","img/flower8.png","74","1163","1","0","3","0.8,0.8,0.2,0.2,0.8,0.8,0.8,0.2,0.8",""
"null","","html-keyboard-response","356","447686","0.0-356.0","37FMASSAYDDN59110LQDFDLQCC8IBJ","A3VV07FCCSZ7JY","3FW4EL5A3LANKRP91N782LFHPY722Q","","","<img src=""img/flower8.png"" style=""width:200px;border:14px solid red;"">","null","","","","","",""
"971","","image-keyboard-response","357","448665","0.0-357.0","37FMASSAYDDN59110LQDFDLQCC8IBJ","A3VV07FCCSZ7JY","3FW4EL5A3LANKRP91N782LFHPY722Q","","","img/flower5.png","75","979","2","1","1","0.8,0.8,0.2,0.2,0.8,0.8,0.8,0.2,0.8",""
"null","","html-keyboard-response","358","448975","0.0-358.0","37FMASSAYDDN59110LQDFDLQCC8IBJ","A3VV07FCCSZ7JY","3FW4EL5A3LANKRP91N782LFHPY722Q","","","<img src=""img/flower5.png"" style=""width:200px; border:14px solid green;"">","null","","","","","",""
"1176","","image-keyboard-response","359","450154","0.0-359.0","37FMASSAYDDN59110LQDFDLQCC8IBJ","A3VV07FCCSZ7JY","3FW4EL5A3LANKRP91N782LFHPY722Q","","","img/flower7.png","76","1181","3","1","2","0.8,0.8,0.2,0.2,0.8,0.8,0.8,0.2,0.8",""
"null","","html-keyboard-response","360","450460","0.0-360.0","37FMASSAYDDN59110LQDFDLQCC8IBJ","A3VV07FCCSZ7JY","3FW4EL5A3LANKRP91N782LFHPY722Q","","","<img src=""img/flower7.png"" style=""width:200px; border:14px solid green;"">","null","","","","","",""
"1318","","image-keyboard-response","361","451791","0.0-361.0","37FMASSAYDDN59110LQDFDLQCC8IBJ","A3VV07FCCSZ7JY","3FW4EL5A3LANKRP91N782LFHPY722Q","","","img/flower8.png","74","1331","1","0","3","0.8,0.8,0.2,0.2,0.8,0.8,0.8,0.2,0.8",""
"null","","html-keyboard-response","362","452094","0.0-362.0","37FMASSAYDDN59110LQDFDLQCC8IBJ","A3VV07FCCSZ7JY","3FW4EL5A3LANKRP91N782LFHPY722Q","","","<img src=""img/flower8.png"" style=""width:200px;border:14px solid red;"">","null","","","","","",""
"1421","","image-keyboard-response","363","453527","0.0-363.0","37FMASSAYDDN59110LQDFDLQCC8IBJ","A3VV07FCCSZ7JY","3FW4EL5A3LANKRP91N782LFHPY722Q","","","img/flower5.png","75","1432","2","0","1","0.8,0.8,0.2,0.2,0.8,0.8,0.8,0.2,0.8",""
"null","","html-keyboard-response","364","453843","0.0-364.0","37FMASSAYDDN59110LQDFDLQCC8IBJ","A3VV07FCCSZ7JY","3FW4EL5A3LANKRP91N782LFHPY722Q","","","<img src=""img/flower5.png"" style=""width:200px;border:14px solid red;"">","null","","","","","",""
"1223","","image-keyboard-response","365","455072","0.0-365.0","37FMASSAYDDN59110LQDFDLQCC8IBJ","A3VV07FCCSZ7JY","3FW4EL5A3LANKRP91N782LFHPY722Q","","","img/flower8.png","74","1228","1","0","3","0.8,0.8,0.2,0.2,0.8,0.8,0.8,0.2,0.8",""
"null","","html-keyboard-response","366","455378","0.0-366.0","37FMASSAYDDN59110LQDFDLQCC8IBJ","A3VV07FCCSZ7JY","3FW4EL5A3LANKRP91N782LFHPY722Q","","","<img src=""img/flower8.png"" style=""width:200px;border:14px solid red;"">","null","","","","","",""
"960","","image-keyboard-response","367","456354","0.0-367.0","37FMASSAYDDN59110LQDFDLQCC8IBJ","A3VV07FCCSZ7JY","3FW4EL5A3LANKRP91N782LFHPY722Q","","","img/flower5.png","75","976","2","1","1","0.8,0.8,0.2,0.2,0.8,0.8,0.8,0.2,0.8",""
"null","","html-keyboard-response","368","456703","0.0-368.0","37FMASSAYDDN59110LQDFDLQCC8IBJ","A3VV07FCCSZ7JY","3FW4EL5A3LANKRP91N782LFHPY722Q","","","<img src=""img/flower5.png"" style=""width:200px; border:14px solid green;"">","null","","","","","",""
"1381","","image-keyboard-response","369","458116","0.0-369.0","37FMASSAYDDN59110LQDFDLQCC8IBJ","A3VV07FCCSZ7JY","3FW4EL5A3LANKRP91N782LFHPY722Q","","","img/flower8.png","74","1404","1","1","3","0.8,0.8,0.2,0.2,0.8,0.8,0.8,0.2,0.8",""
"null","","html-keyboard-response","370","458430","0.0-370.0","37FMASSAYDDN59110LQDFDLQCC8IBJ","A3VV07FCCSZ7JY","3FW4EL5A3LANKRP91N782LFHPY722Q","","","<img src=""img/flower8.png"" style=""width:200px; border:14px solid green;"">","null","","","","","",""
"1346","","image-keyboard-response","371","459789","0.0-371.0","37FMASSAYDDN59110LQDFDLQCC8IBJ","A3VV07FCCSZ7JY","3FW4EL5A3LANKRP91N782LFHPY722Q","","","img/flower8.png","74","1359","1","1","3","0.8,0.8,0.2,0.2,0.8,0.8,0.8,0.2,0.8",""
"null","","html-keyboard-response","372","460096","0.0-372.0","37FMASSAYDDN59110LQDFDLQCC8IBJ","A3VV07FCCSZ7JY","3FW4EL5A3LANKRP91N782LFHPY722Q","","","<img src=""img/flower8.png"" style=""width:200px; border:14px solid green;"">","null","","","","","",""
"2235","","image-keyboard-response","373","462354","0.0-373.0","37FMASSAYDDN59110LQDFDLQCC8IBJ","A3VV07FCCSZ7JY","3FW4EL5A3LANKRP91N782LFHPY722Q","","","img/flower8.png","74","2257","1","1","3","0.8,0.8,0.2,0.2,0.8,0.8,0.8,0.2,0.8",""
"null","","html-keyboard-response","374","462661","0.0-374.0","37FMASSAYDDN59110LQDFDLQCC8IBJ","A3VV07FCCSZ7JY","3FW4EL5A3LANKRP91N782LFHPY722Q","","","<img src=""img/flower8.png"" style=""width:200px; border:14px solid green;"">","null","","","","","",""
"895","","image-keyboard-response","375","463575","0.0-375.0","37FMASSAYDDN59110LQDFDLQCC8IBJ","A3VV07FCCSZ7JY","3FW4EL5A3LANKRP91N782LFHPY722Q","","","img/flower5.png","75","913","2","0","1","0.8,0.8,0.2,0.2,0.8,0.8,0.8,0.2,0.8",""
"null","","html-keyboard-response","376","463912","0.0-376.0","37FMASSAYDDN59110LQDFDLQCC8IBJ","A3VV07FCCSZ7JY","3FW4EL5A3LANKRP91N782LFHPY722Q","","","<img src=""img/flower5.png"" style=""width:200px;border:14px solid red;"">","null","","","","","",""
"1171","","image-keyboard-response","377","465098","0.0-377.0","37FMASSAYDDN59110LQDFDLQCC8IBJ","A3VV07FCCSZ7JY","3FW4EL5A3LANKRP91N782LFHPY722Q","","","img/flower7.png","76","1186","3","1","2","0.8,0.8,0.2,0.2,0.8,0.8,0.8,0.2,0.8",""
"null","","html-keyboard-response","378","465409","0.0-378.0","37FMASSAYDDN59110LQDFDLQCC8IBJ","A3VV07FCCSZ7JY","3FW4EL5A3LANKRP91N782LFHPY722Q","","","<img src=""img/flower7.png"" style=""width:200px; border:14px solid green;"">","null","","","","","",""
"1342","","image-keyboard-response","379","466760","0.0-379.0","37FMASSAYDDN59110LQDFDLQCC8IBJ","A3VV07FCCSZ7JY","3FW4EL5A3LANKRP91N782LFHPY722Q","","","img/flower8.png","74","1350","1","1","3","0.8,0.8,0.2,0.2,0.8,0.8,0.8,0.2,0.8",""
"null","","html-keyboard-response","380","467076","0.0-380.0","37FMASSAYDDN59110LQDFDLQCC8IBJ","A3VV07FCCSZ7JY","3FW4EL5A3LANKRP91N782LFHPY722Q","","","<img src=""img/flower8.png"" style=""width:200px; border:14px solid green;"">","null","","","","","",""
"1170","","image-keyboard-response","381","468251","0.0-381.0","37FMASSAYDDN59110LQDFDLQCC8IBJ","A3VV07FCCSZ7JY","3FW4EL5A3LANKRP91N782LFHPY722Q","","","img/flower7.png","76","1176","3","1","2","0.8,0.8,0.2,0.2,0.8,0.8,0.8,0.2,0.8",""
"null","","html-keyboard-response","382","468563","0.0-382.0","37FMASSAYDDN59110LQDFDLQCC8IBJ","A3VV07FCCSZ7JY","3FW4EL5A3LANKRP91N782LFHPY722Q","","","<img src=""img/flower7.png"" style=""width:200px; border:14px solid green;"">","null","","","","","",""
"1385","","image-keyboard-response","383","469962","0.0-383.0","37FMASSAYDDN59110LQDFDLQCC8IBJ","A3VV07FCCSZ7JY","3FW4EL5A3LANKRP91N782LFHPY722Q","","","img/flower7.png","76","1398","3","0","2","0.8,0.8,0.2,0.2,0.8,0.8,0.8,0.2,0.8",""
"null","","html-keyboard-response","384","470275","0.0-384.0","37FMASSAYDDN59110LQDFDLQCC8IBJ","A3VV07FCCSZ7JY","3FW4EL5A3LANKRP91N782LFHPY722Q","","","<img src=""img/flower7.png"" style=""width:200px;border:14px solid red;"">","null","","","","","",""
"1252","","image-keyboard-response","385","471530","0.0-385.0","37FMASSAYDDN59110LQDFDLQCC8IBJ","A3VV07FCCSZ7JY","3FW4EL5A3LANKRP91N782LFHPY722Q","","","img/flower7.png","76","1255","3","0","2","0.8,0.8,0.2,0.2,0.8,0.8,0.8,0.2,0.8",""
"null","","html-keyboard-response","386","471844","0.0-386.0","37FMASSAYDDN59110LQDFDLQCC8IBJ","A3VV07FCCSZ7JY","3FW4EL5A3LANKRP91N782LFHPY722Q","","","<img src=""img/flower7.png"" style=""width:200px;border:14px solid red;"">","null","","","","","",""
"1265","","image-keyboard-response","387","473126","0.0-387.0","37FMASSAYDDN59110LQDFDLQCC8IBJ","A3VV07FCCSZ7JY","3FW4EL5A3LANKRP91N782LFHPY722Q","","","img/flower5.png","75","1280","2","1","1","0.8,0.8,0.2,0.2,0.8,0.8,0.8,0.2,0.8",""
"null","","html-keyboard-response","388","473442","0.0-388.0","37FMASSAYDDN59110LQDFDLQCC8IBJ","A3VV07FCCSZ7JY","3FW4EL5A3LANKRP91N782LFHPY722Q","","","<img src=""img/flower5.png"" style=""width:200px; border:14px solid green;"">","null","","","","","",""
"1193","","image-keyboard-response","389","474641","0.0-389.0","37FMASSAYDDN59110LQDFDLQCC8IBJ","A3VV07FCCSZ7JY","3FW4EL5A3LANKRP91N782LFHPY722Q","","","img/flower7.png","76","1199","3","1","2","0.8,0.8,0.2,0.2,0.8,0.8,0.8,0.2,0.8",""
"null","","html-keyboard-response","390","474943","0.0-390.0","37FMASSAYDDN59110LQDFDLQCC8IBJ","A3VV07FCCSZ7JY","3FW4EL5A3LANKRP91N782LFHPY722Q","","","<img src=""img/flower7.png"" style=""width:200px; border:14px solid green;"">","null","","","","","",""
"1495","","image-keyboard-response","391","476439","0.0-391.0","37FMASSAYDDN59110LQDFDLQCC8IBJ","A3VV07FCCSZ7JY","3FW4EL5A3LANKRP91N782LFHPY722Q","","","img/flower7.png","76","1495","3","0","2","0.8,0.8,0.2,0.2,0.8,0.8,0.8,0.2,0.8",""
"null","","html-keyboard-response","392","476759","0.0-392.0","37FMASSAYDDN59110LQDFDLQCC8IBJ","A3VV07FCCSZ7JY","3FW4EL5A3LANKRP91N782LFHPY722Q","","","<img src=""img/flower7.png"" style=""width:200px;border:14px solid red;"">","null","","","","","",""
"1919","","image-keyboard-response","393","478682","0.0-393.0","37FMASSAYDDN59110LQDFDLQCC8IBJ","A3VV07FCCSZ7JY","3FW4EL5A3LANKRP91N782LFHPY722Q","","","img/flower7.png","76","1923","3","1","2","0.8,0.8,0.2,0.2,0.8,0.8,0.8,0.2,0.8",""
"null","","html-keyboard-response","394","478991","0.0-394.0","37FMASSAYDDN59110LQDFDLQCC8IBJ","A3VV07FCCSZ7JY","3FW4EL5A3LANKRP91N782LFHPY722Q","","","<img src=""img/flower7.png"" style=""width:200px; border:14px solid green;"">","null","","","","","",""
"1176","","image-keyboard-response","395","480174","0.0-395.0","37FMASSAYDDN59110LQDFDLQCC8IBJ","A3VV07FCCSZ7JY","3FW4EL5A3LANKRP91N782LFHPY722Q","","","img/flower8.png","74","1182","1","1","3","0.8,0.8,0.2,0.2,0.8,0.8,0.8,0.2,0.8",""
"null","","html-keyboard-response","396","480492","0.0-396.0","37FMASSAYDDN59110LQDFDLQCC8IBJ","A3VV07FCCSZ7JY","3FW4EL5A3LANKRP91N782LFHPY722Q","","","<img src=""img/flower8.png"" style=""width:200px; border:14px solid green;"">","null","","","","","",""
"1254","","image-keyboard-response","397","481756","0.0-397.0","37FMASSAYDDN59110LQDFDLQCC8IBJ","A3VV07FCCSZ7JY","3FW4EL5A3LANKRP91N782LFHPY722Q","","","img/flower7.png","76","1264","3","1","2","0.8,0.8,0.2,0.2,0.8,0.8,0.8,0.2,0.8",""
"null","","html-keyboard-response","398","482079","0.0-398.0","37FMASSAYDDN59110LQDFDLQCC8IBJ","A3VV07FCCSZ7JY","3FW4EL5A3LANKRP91N782LFHPY722Q","","","<img src=""img/flower7.png"" style=""width:200px; border:14px solid green;"">","null","","","","","",""
"1310","","image-keyboard-response","399","483397","0.0-399.0","37FMASSAYDDN59110LQDFDLQCC8IBJ","A3VV07FCCSZ7JY","3FW4EL5A3LANKRP91N782LFHPY722Q","","","img/flower8.png","74","1318","1","1","3","0.8,0.8,0.2,0.2,0.8,0.8,0.8,0.2,0.8",""
"null","","html-keyboard-response","400","483701","0.0-400.0","37FMASSAYDDN59110LQDFDLQCC8IBJ","A3VV07FCCSZ7JY","3FW4EL5A3LANKRP91N782LFHPY722Q","","","<img src=""img/flower8.png"" style=""width:200px; border:14px solid green;"">","null","","","","","",""
"1019","","image-keyboard-response","401","484725","0.0-401.0","37FMASSAYDDN59110LQDFDLQCC8IBJ","A3VV07FCCSZ7JY","3FW4EL5A3LANKRP91N782LFHPY722Q","","","img/flower7.png","76","1023","3","1","2","0.8,0.8,0.2,0.2,0.8,0.8,0.8,0.2,0.8",""
"null","","html-keyboard-response","402","485029","0.0-402.0","37FMASSAYDDN59110LQDFDLQCC8IBJ","A3VV07FCCSZ7JY","3FW4EL5A3LANKRP91N782LFHPY722Q","","","<img src=""img/flower7.png"" style=""width:200px; border:14px solid green;"">","null","","","","","",""
"1188","","image-keyboard-response","403","486220","0.0-403.0","37FMASSAYDDN59110LQDFDLQCC8IBJ","A3VV07FCCSZ7JY","3FW4EL5A3LANKRP91N782LFHPY722Q","","","img/flower8.png","74","1190","1","1","3","0.8,0.8,0.2,0.2,0.8,0.8,0.8,0.2,0.8",""
"null","","html-keyboard-response","404","486525","0.0-404.0","37FMASSAYDDN59110LQDFDLQCC8IBJ","A3VV07FCCSZ7JY","3FW4EL5A3LANKRP91N782LFHPY722Q","","","<img src=""img/flower8.png"" style=""width:200px; border:14px solid green;"">","null","","","","","",""
"1516","","image-keyboard-response","405","488053","0.0-405.0","37FMASSAYDDN59110LQDFDLQCC8IBJ","A3VV07FCCSZ7JY","3FW4EL5A3LANKRP91N782LFHPY722Q","","","img/flower8.png","74","1528","1","1","3","0.8,0.8,0.2,0.2,0.8,0.8,0.8,0.2,0.8",""
"null","","html-keyboard-response","406","488359","0.0-406.0","37FMASSAYDDN59110LQDFDLQCC8IBJ","A3VV07FCCSZ7JY","3FW4EL5A3LANKRP91N782LFHPY722Q","","","<img src=""img/flower8.png"" style=""width:200px; border:14px solid green;"">","null","","","","","",""
"1125","","image-keyboard-response","407","489497","0.0-407.0","37FMASSAYDDN59110LQDFDLQCC8IBJ","A3VV07FCCSZ7JY","3FW4EL5A3LANKRP91N782LFHPY722Q","","","img/flower7.png","76","1138","3","1","2","0.8,0.8,0.2,0.2,0.8,0.8,0.8,0.2,0.8",""
"null","","html-keyboard-response","408","489842","0.0-408.0","37FMASSAYDDN59110LQDFDLQCC8IBJ","A3VV07FCCSZ7JY","3FW4EL5A3LANKRP91N782LFHPY722Q","","","<img src=""img/flower7.png"" style=""width:200px; border:14px solid green;"">","null","","","","","",""
"1050","","image-keyboard-response","409","490907","0.0-409.0","37FMASSAYDDN59110LQDFDLQCC8IBJ","A3VV07FCCSZ7JY","3FW4EL5A3LANKRP91N782LFHPY722Q","","","img/flower8.png","74","1065","1","1","3","0.8,0.8,0.2,0.2,0.8,0.8,0.8,0.2,0.8",""
"null","","html-keyboard-response","410","491223","0.0-410.0","37FMASSAYDDN59110LQDFDLQCC8IBJ","A3VV07FCCSZ7JY","3FW4EL5A3LANKRP91N782LFHPY722Q","","","<img src=""img/flower8.png"" style=""width:200px; border:14px solid green;"">","null","","","","","",""
"1239","","image-keyboard-response","411","492474","0.0-411.0","37FMASSAYDDN59110LQDFDLQCC8IBJ","A3VV07FCCSZ7JY","3FW4EL5A3LANKRP91N782LFHPY722Q","","","img/flower5.png","75","1250","2","0","1","0.8,0.8,0.2,0.2,0.8,0.8,0.8,0.2,0.8",""
"null","","html-keyboard-response","412","492790","0.0-412.0","37FMASSAYDDN59110LQDFDLQCC8IBJ","A3VV07FCCSZ7JY","3FW4EL5A3LANKRP91N782LFHPY722Q","","","<img src=""img/flower5.png"" style=""width:200px;border:14px solid red;"">","null","","","","","",""
"813","","image-keyboard-response","413","493609","0.0-413.0","37FMASSAYDDN59110LQDFDLQCC8IBJ","A3VV07FCCSZ7JY","3FW4EL5A3LANKRP91N782LFHPY722Q","","","img/flower7.png","75","818","2","1","2","0.8,0.8,0.2,0.2,0.8,0.8,0.8,0.2,0.8",""
"null","","html-keyboard-response","414","494003","0.0-414.0","37FMASSAYDDN59110LQDFDLQCC8IBJ","A3VV07FCCSZ7JY","3FW4EL5A3LANKRP91N782LFHPY722Q","","","<img src=""img/flower7.png"" style=""width:200px; border:14px solid green;"">","null","","","","","",""
"1923","","image-keyboard-response","415","495934","0.0-415.0","37FMASSAYDDN59110LQDFDLQCC8IBJ","A3VV07FCCSZ7JY","3FW4EL5A3LANKRP91N782LFHPY722Q","","","img/flower5.png","75","1931","2","1","1","0.8,0.8,0.2,0.2,0.8,0.8,0.8,0.2,0.8",""
"null","","html-keyboard-response","416","496239","0.0-416.0","37FMASSAYDDN59110LQDFDLQCC8IBJ","A3VV07FCCSZ7JY","3FW4EL5A3LANKRP91N782LFHPY722Q","","","<img src=""img/flower5.png"" style=""width:200px; border:14px solid green;"">","null","","","","","",""
"1253","","image-keyboard-response","417","497504","0.0-417.0","37FMASSAYDDN59110LQDFDLQCC8IBJ","A3VV07FCCSZ7JY","3FW4EL5A3LANKRP91N782LFHPY722Q","","","img/flower8.png","74","1265","1","1","3","0.8,0.8,0.2,0.2,0.8,0.8,0.8,0.2,0.8",""
"null","","html-keyboard-response","418","497809","0.0-418.0","37FMASSAYDDN59110LQDFDLQCC8IBJ","A3VV07FCCSZ7JY","3FW4EL5A3LANKRP91N782LFHPY722Q","","","<img src=""img/flower8.png"" style=""width:200px; border:14px solid green;"">","null","","","","","",""
"1108","","image-keyboard-response","419","498927","0.0-419.0","37FMASSAYDDN59110LQDFDLQCC8IBJ","A3VV07FCCSZ7JY","3FW4EL5A3LANKRP91N782LFHPY722Q","","","img/flower5.png","75","1117","2","1","1","0.8,0.8,0.2,0.2,0.8,0.8,0.8,0.2,0.8",""
