"success","trial_type","trial_index","time_elapsed","internal_node_id","assignmentID","mturkID","hitID","view_history","rt","stimulus","key_press","reactionTime","a","r","s","cond","reward_cond","reward_cond_actual","reward_matrix_idx","responses"
"true","fullscreen","0","2421","0.0-0.0","3PM8NZGV8Z27ZASLIPN4DC34Q6RXQQ","A50NVZ6AI91O","3WRBLBQ2GRU63BU2LFOJL1G32T90GO","","","","","","","","","","","","",""
"","instructions","1","21387","0.0-1.0","3PM8NZGV8Z27ZASLIPN4DC34Q6RXQQ","A50NVZ6AI91O","3WRBLBQ2GRU63BU2LFOJL1G32T90GO","[{""page_index"":0,""viewing_time"":1347.4000000953674},{""page_index"":1,""viewing_time"":791.9000000953674},{""page_index"":2,""viewing_time"":1184.3999998569489},{""page_index"":3,""viewing_time"":655.9000000953674},{""page_index"":4,""viewing_time"":2974.7999999523163},{""page_index"":5,""viewing_time"":8901.900000095367},{""page_index"":6,""viewing_time"":1348.3999998569489},{""page_index"":7,""viewing_time"":1757.5}]","18963.400000095367","","","","","","","","","","",""
"","image-keyboard-response","2","22505","0.0-2.0","3PM8NZGV8Z27ZASLIPN4DC34Q6RXQQ","A50NVZ6AI91O","3WRBLBQ2GRU63BU2LFOJL1G32T90GO","","1113","img/flower2.png","74","1116.7000000476837","1","1","1","2","1,0,0,1,1,0,1,0,1","1,0,0,1,1,0,1,0,1","1",""
"","html-keyboard-response","3","22819","0.0-3.0","3PM8NZGV8Z27ZASLIPN4DC34Q6RXQQ","A50NVZ6AI91O","3WRBLBQ2GRU63BU2LFOJL1G32T90GO","","null","<img src=""img/flower2.png"" style=""width:200px; border:14px solid green;"">","null","","","","","","","","",""
"","image-keyboard-response","4","22840","0.0-4.0","3PM8NZGV8Z27ZASLIPN4DC34Q6RXQQ","A50NVZ6AI91O","3WRBLBQ2GRU63BU2LFOJL1G32T90GO","","19","img/flower2.png","75","20.40000009536743","2","0","1","2","1,0,0,1,1,0,1,0,1","1,0,0,1,1,0,1,0,1","1",""
"","html-keyboard-response","5","23151","0.0-5.0","3PM8NZGV8Z27ZASLIPN4DC34Q6RXQQ","A50NVZ6AI91O","3WRBLBQ2GRU63BU2LFOJL1G32T90GO","","null","<img src=""img/flower2.png"" style=""width:200px;border:14px solid red;"">","null","","","","","","","","",""
"","image-keyboard-response","6","23301","0.0-6.0","3PM8NZGV8Z27ZASLIPN4DC34Q6RXQQ","A50NVZ6AI91O","3WRBLBQ2GRU63BU2LFOJL1G32T90GO","","147.30000019073486","img/flower2.png","76","149","3","0","1","2","1,0,0,1,1,0,1,0,1","1,0,0,1,1,0,1,0,1","1",""
"","html-keyboard-response","7","23614","0.0-7.0","3PM8NZGV8Z27ZASLIPN4DC34Q6RXQQ","A50NVZ6AI91O","3WRBLBQ2GRU63BU2LFOJL1G32T90GO","","null","<img src=""img/flower2.png"" style=""width:200px;border:14px solid red;"">","null","","","","","","","","",""
"","image-keyboard-response","8","23625","0.0-8.0","3PM8NZGV8Z27ZASLIPN4DC34Q6RXQQ","A50NVZ6AI91O","3WRBLBQ2GRU63BU2LFOJL1G32T90GO","","8.099999904632568","img/flower6.png","75","9.799999952316284","2","1","2","2","1,0,0,1,1,0,1,0,1","1,0,0,1,1,0,1,0,1","1",""
"","html-keyboard-response","9","23928","0.0-9.0","3PM8NZGV8Z27ZASLIPN4DC34Q6RXQQ","A50NVZ6AI91O","3WRBLBQ2GRU63BU2LFOJL1G32T90GO","","null","<img src=""img/flower6.png"" style=""width:200px; border:14px solid green;"">","null","","","","","","","","",""
"","image-keyboard-response","10","23971","0.0-10.0","3PM8NZGV8Z27ZASLIPN4DC34Q6RXQQ","A50NVZ6AI91O","3WRBLBQ2GRU63BU2LFOJL1G32T90GO","","40.200000047683716","img/flower6.png","74","42.10000014305115","1","1","2","2","1,0,0,1,1,0,1,0,1","1,0,0,1,1,0,1,0,1","1",""
"","html-keyboard-response","11","24275","0.0-11.0","3PM8NZGV8Z27ZASLIPN4DC34Q6RXQQ","A50NVZ6AI91O","3WRBLBQ2GRU63BU2LFOJL1G32T90GO","","null","<img src=""img/flower6.png"" style=""width:200px; border:14px solid green;"">","null","","","","","","","","",""
"","image-keyboard-response","12","24335","0.0-12.0","3PM8NZGV8Z27ZASLIPN4DC34Q6RXQQ","A50NVZ6AI91O","3WRBLBQ2GRU63BU2LFOJL1G32T90GO","","58.299999952316284","img/flower5.png","75","59.700000047683716","2","0","3","2","1,0,0,1,1,0,1,0,1","1,0,0,1,1,0,1,0,1","1",""
"","html-keyboard-response","13","24643","0.0-13.0","3PM8NZGV8Z27ZASLIPN4DC34Q6RXQQ","A50NVZ6AI91O","3WRBLBQ2GRU63BU2LFOJL1G32T90GO","","null","<img src=""img/flower5.png"" style=""width:200px;border:14px solid red;"">","null","","","","","","","","",""
"","image-keyboard-response","14","24705","0.0-14.0","3PM8NZGV8Z27ZASLIPN4DC34Q6RXQQ","A50NVZ6AI91O","3WRBLBQ2GRU63BU2LFOJL1G32T90GO","","60.700000047683716","img/flower5.png","76","62.299999952316284","3","1","3","2","1,0,0,1,1,0,1,0,1","1,0,0,1,1,0,1,0,1","1",""
"","html-keyboard-response","15","25007","0.0-15.0","3PM8NZGV8Z27ZASLIPN4DC34Q6RXQQ","A50NVZ6AI91O","3WRBLBQ2GRU63BU2LFOJL1G32T90GO","","null","<img src=""img/flower5.png"" style=""width:200px; border:14px solid green;"">","null","","","","","","","","",""
"","image-keyboard-response","16","25071","0.0-16.0","3PM8NZGV8Z27ZASLIPN4DC34Q6RXQQ","A50NVZ6AI91O","3WRBLBQ2GRU63BU2LFOJL1G32T90GO","","61.299999952316284","img/flower5.png","75","63","2","0","3","2","1,0,0,1,1,0,1,0,1","1,0,0,1,1,0,1,0,1","1",""
"","html-keyboard-response","17","25387","0.0-17.0","3PM8NZGV8Z27ZASLIPN4DC34Q6RXQQ","A50NVZ6AI91O","3WRBLBQ2GRU63BU2LFOJL1G32T90GO","","null","<img src=""img/flower5.png"" style=""width:200px;border:14px solid red;"">","null","","","","","","","","",""
"","image-keyboard-response","18","25521","0.0-18.0","3PM8NZGV8Z27ZASLIPN4DC34Q6RXQQ","A50NVZ6AI91O","3WRBLBQ2GRU63BU2LFOJL1G32T90GO","","131.70000004768372","img/flower5.png","74","133.40000009536743","1","1","3","2","1,0,0,1,1,0,1,0,1","1,0,0,1,1,0,1,0,1","1",""
"","html-keyboard-response","19","25827","0.0-19.0","3PM8NZGV8Z27ZASLIPN4DC34Q6RXQQ","A50NVZ6AI91O","3WRBLBQ2GRU63BU2LFOJL1G32T90GO","","null","<img src=""img/flower5.png"" style=""width:200px; border:14px solid green;"">","null","","","","","","","","",""
"","image-keyboard-response","20","25904","0.0-20.0","3PM8NZGV8Z27ZASLIPN4DC34Q6RXQQ","A50NVZ6AI91O","3WRBLBQ2GRU63BU2LFOJL1G32T90GO","","74.79999995231628","img/flower2.png","75","76.70000004768372","2","0","1","2","1,0,0,1,1,0,1,0,1","1,0,0,1,1,0,1,0,1","1",""
"","html-keyboard-response","21","26222","0.0-21.0","3PM8NZGV8Z27ZASLIPN4DC34Q6RXQQ","A50NVZ6AI91O","3WRBLBQ2GRU63BU2LFOJL1G32T90GO","","null","<img src=""img/flower2.png"" style=""width:200px;border:14px solid red;"">","null","","","","","","","","",""
"","image-keyboard-response","22","26301","0.0-22.0","3PM8NZGV8Z27ZASLIPN4DC34Q6RXQQ","A50NVZ6AI91O","3WRBLBQ2GRU63BU2LFOJL1G32T90GO","","76.29999995231628","img/flower5.png","76","78","3","1","3","2","1,0,0,1,1,0,1,0,1","1,0,0,1,1,0,1,0,1","1",""
"","html-keyboard-response","23","26618","0.0-23.0","3PM8NZGV8Z27ZASLIPN4DC34Q6RXQQ","A50NVZ6AI91O","3WRBLBQ2GRU63BU2LFOJL1G32T90GO","","null","<img src=""img/flower5.png"" style=""width:200px; border:14px solid green;"">","null","","","","","","","","",""
"","image-keyboard-response","24","26709","0.0-24.0","3PM8NZGV8Z27ZASLIPN4DC34Q6RXQQ","A50NVZ6AI91O","3WRBLBQ2GRU63BU2LFOJL1G32T90GO","","88.20000004768372","img/flower2.png","75","90.10000014305115","2","0","1","2","1,0,0,1,1,0,1,0,1","1,0,0,1,1,0,1,0,1","1",""
"","html-keyboard-response","25","27014","0.0-25.0","3PM8NZGV8Z27ZASLIPN4DC34Q6RXQQ","A50NVZ6AI91O","3WRBLBQ2GRU63BU2LFOJL1G32T90GO","","null","<img src=""img/flower2.png"" style=""width:200px;border:14px solid red;"">","null","","","","","","","","",""
"","image-keyboard-response","26","27094","0.0-26.0","3PM8NZGV8Z27ZASLIPN4DC34Q6RXQQ","A50NVZ6AI91O","3WRBLBQ2GRU63BU2LFOJL1G32T90GO","","78.09999990463257","img/flower2.png","74","79.90000009536743","1","1","1","2","1,0,0,1,1,0,1,0,1","1,0,0,1,1,0,1,0,1","1",""
"","html-keyboard-response","27","27411","0.0-27.0","3PM8NZGV8Z27ZASLIPN4DC34Q6RXQQ","A50NVZ6AI91O","3WRBLBQ2GRU63BU2LFOJL1G32T90GO","","null","<img src=""img/flower2.png"" style=""width:200px; border:14px solid green;"">","null","","","","","","","","",""
"","image-keyboard-response","28","27501","0.0-28.0","3PM8NZGV8Z27ZASLIPN4DC34Q6RXQQ","A50NVZ6AI91O","3WRBLBQ2GRU63BU2LFOJL1G32T90GO","","87.5","img/flower5.png","75","89.5","2","0","3","2","1,0,0,1,1,0,1,0,1","1,0,0,1,1,0,1,0,1","1",""
"","html-keyboard-response","29","27809","0.0-29.0","3PM8NZGV8Z27ZASLIPN4DC34Q6RXQQ","A50NVZ6AI91O","3WRBLBQ2GRU63BU2LFOJL1G32T90GO","","null","<img src=""img/flower5.png"" style=""width:200px;border:14px solid red;"">","null","","","","","","","","",""
"","image-keyboard-response","30","27873","0.0-30.0","3PM8NZGV8Z27ZASLIPN4DC34Q6RXQQ","A50NVZ6AI91O","3WRBLBQ2GRU63BU2LFOJL1G32T90GO","","62.39999985694885","img/flower6.png","76","64.29999995231628","3","0","2","2","1,0,0,1,1,0,1,0,1","1,0,0,1,1,0,1,0,1","1",""
"","html-keyboard-response","31","28191","0.0-31.0","3PM8NZGV8Z27ZASLIPN4DC34Q6RXQQ","A50NVZ6AI91O","3WRBLBQ2GRU63BU2LFOJL1G32T90GO","","null","<img src=""img/flower6.png"" style=""width:200px;border:14px solid red;"">","null","","","","","","","","",""
"","image-keyboard-response","32","28320","0.0-32.0","3PM8NZGV8Z27ZASLIPN4DC34Q6RXQQ","A50NVZ6AI91O","3WRBLBQ2GRU63BU2LFOJL1G32T90GO","","127.5","img/flower6.png","75","128.60000014305115","2","1","2","2","1,0,0,1,1,0,1,0,1","1,0,0,1,1,0,1,0,1","1",""
"","html-keyboard-response","33","28638","0.0-33.0","3PM8NZGV8Z27ZASLIPN4DC34Q6RXQQ","A50NVZ6AI91O","3WRBLBQ2GRU63BU2LFOJL1G32T90GO","","null","<img src=""img/flower6.png"" style=""width:200px; border:14px solid green;"">","null","","","","","","","","",""
"","image-keyboard-response","34","28670","0.0-34.0","3PM8NZGV8Z27ZASLIPN4DC34Q6RXQQ","A50NVZ6AI91O","3WRBLBQ2GRU63BU2LFOJL1G32T90GO","","29.90000009536743","img/flower5.png","74","31.40000009536743","1","1","3","2","1,0,0,1,1,0,1,0,1","1,0,0,1,1,0,1,0,1","1",""
"","html-keyboard-response","35","28986","0.0-35.0","3PM8NZGV8Z27ZASLIPN4DC34Q6RXQQ","A50NVZ6AI91O","3WRBLBQ2GRU63BU2LFOJL1G32T90GO","","null","<img src=""img/flower5.png"" style=""width:200px; border:14px solid green;"">","null","","","","","","","","",""
"","image-keyboard-response","36","29072","0.0-36.0","3PM8NZGV8Z27ZASLIPN4DC34Q6RXQQ","A50NVZ6AI91O","3WRBLBQ2GRU63BU2LFOJL1G32T90GO","","84.79999995231628","img/flower2.png","75","85.89999985694885","2","0","1","2","1,0,0,1,1,0,1,0,1","1,0,0,1,1,0,1,0,1","1",""
"","html-keyboard-response","37","29383","0.0-37.0","3PM8NZGV8Z27ZASLIPN4DC34Q6RXQQ","A50NVZ6AI91O","3WRBLBQ2GRU63BU2LFOJL1G32T90GO","","null","<img src=""img/flower2.png"" style=""width:200px;border:14px solid red;"">","null","","","","","","","","",""
"","image-keyboard-response","38","29427","0.0-38.0","3PM8NZGV8Z27ZASLIPN4DC34Q6RXQQ","A50NVZ6AI91O","3WRBLBQ2GRU63BU2LFOJL1G32T90GO","","42","img/flower2.png","76","43.89999985694885","3","0","1","2","1,0,0,1,1,0,1,0,1","1,0,0,1,1,0,1,0,1","1",""
"","html-keyboard-response","39","29731","0.0-39.0","3PM8NZGV8Z27ZASLIPN4DC34Q6RXQQ","A50NVZ6AI91O","3WRBLBQ2GRU63BU2LFOJL1G32T90GO","","null","<img src=""img/flower2.png"" style=""width:200px;border:14px solid red;"">","null","","","","","","","","",""
"","image-keyboard-response","40","29798","0.0-40.0","3PM8NZGV8Z27ZASLIPN4DC34Q6RXQQ","A50NVZ6AI91O","3WRBLBQ2GRU63BU2LFOJL1G32T90GO","","64.30000019073486","img/flower2.png","75","66.20000004768372","2","0","1","2","1,0,0,1,1,0,1,0,1","1,0,0,1,1,0,1,0,1","1",""
"","html-keyboard-response","41","30101","0.0-41.0","3PM8NZGV8Z27ZASLIPN4DC34Q6RXQQ","A50NVZ6AI91O","3WRBLBQ2GRU63BU2LFOJL1G32T90GO","","null","<img src=""img/flower2.png"" style=""width:200px;border:14px solid red;"">","null","","","","","","","","",""
"","image-keyboard-response","42","30190","0.0-42.0","3PM8NZGV8Z27ZASLIPN4DC34Q6RXQQ","A50NVZ6AI91O","3WRBLBQ2GRU63BU2LFOJL1G32T90GO","","87.09999990463257","img/flower6.png","74","88.40000009536743","1","1","2","2","1,0,0,1,1,0,1,0,1","1,0,0,1,1,0,1,0,1","1",""
"","html-keyboard-response","43","30493","0.0-43.0","3PM8NZGV8Z27ZASLIPN4DC34Q6RXQQ","A50NVZ6AI91O","3WRBLBQ2GRU63BU2LFOJL1G32T90GO","","null","<img src=""img/flower6.png"" style=""width:200px; border:14px solid green;"">","null","","","","","","","","",""
"","image-keyboard-response","44","30558","0.0-44.0","3PM8NZGV8Z27ZASLIPN4DC34Q6RXQQ","A50NVZ6AI91O","3WRBLBQ2GRU63BU2LFOJL1G32T90GO","","62.80000019073486","img/flower5.png","75","64.79999995231628","2","0","3","2","1,0,0,1,1,0,1,0,1","1,0,0,1,1,0,1,0,1","1",""
"","html-keyboard-response","45","30861","0.0-45.0","3PM8NZGV8Z27ZASLIPN4DC34Q6RXQQ","A50NVZ6AI91O","3WRBLBQ2GRU63BU2LFOJL1G32T90GO","","null","<img src=""img/flower5.png"" style=""width:200px;border:14px solid red;"">","null","","","","","","","","",""
"","image-keyboard-response","46","31013","0.0-46.0","3PM8NZGV8Z27ZASLIPN4DC34Q6RXQQ","A50NVZ6AI91O","3WRBLBQ2GRU63BU2LFOJL1G32T90GO","","149.5","img/flower5.png","76","151.10000014305115","3","1","3","2","1,0,0,1,1,0,1,0,1","1,0,0,1,1,0,1,0,1","1",""
"","html-keyboard-response","47","31316","0.0-47.0","3PM8NZGV8Z27ZASLIPN4DC34Q6RXQQ","A50NVZ6AI91O","3WRBLBQ2GRU63BU2LFOJL1G32T90GO","","null","<img src=""img/flower5.png"" style=""width:200px; border:14px solid green;"">","null","","","","","","","","",""
"","image-keyboard-response","48","31388","0.0-48.0","3PM8NZGV8Z27ZASLIPN4DC34Q6RXQQ","A50NVZ6AI91O","3WRBLBQ2GRU63BU2LFOJL1G32T90GO","","69.89999985694885","img/flower5.png","75","71.60000014305115","2","0","3","2","1,0,0,1,1,0,1,0,1","1,0,0,1,1,0,1,0,1","1",""
"","html-keyboard-response","49","31691","0.0-49.0","3PM8NZGV8Z27ZASLIPN4DC34Q6RXQQ","A50NVZ6AI91O","3WRBLBQ2GRU63BU2LFOJL1G32T90GO","","null","<img src=""img/flower5.png"" style=""width:200px;border:14px solid red;"">","null","","","","","","","","",""
"","image-keyboard-response","50","31743","0.0-50.0","3PM8NZGV8Z27ZASLIPN4DC34Q6RXQQ","A50NVZ6AI91O","3WRBLBQ2GRU63BU2LFOJL1G32T90GO","","49.69999980926514","img/flower5.png","74","51.40000009536743","1","1","3","2","1,0,0,1,1,0,1,0,1","1,0,0,1,1,0,1,0,1","1",""
"","html-keyboard-response","51","32045","0.0-51.0","3PM8NZGV8Z27ZASLIPN4DC34Q6RXQQ","A50NVZ6AI91O","3WRBLBQ2GRU63BU2LFOJL1G32T90GO","","null","<img src=""img/flower5.png"" style=""width:200px; border:14px solid green;"">","null","","","","","","","","",""
"","image-keyboard-response","52","32113","0.0-52.0","3PM8NZGV8Z27ZASLIPN4DC34Q6RXQQ","A50NVZ6AI91O","3WRBLBQ2GRU63BU2LFOJL1G32T90GO","","65.10000014305115","img/flower5.png","75","67","2","0","3","2","1,0,0,1,1,0,1,0,1","1,0,0,1,1,0,1,0,1","1",""
"","html-keyboard-response","53","32416","0.0-53.0","3PM8NZGV8Z27ZASLIPN4DC34Q6RXQQ","A50NVZ6AI91O","3WRBLBQ2GRU63BU2LFOJL1G32T90GO","","null","<img src=""img/flower5.png"" style=""width:200px;border:14px solid red;"">","null","","","","","","","","",""
"","image-keyboard-response","54","32543","0.0-54.0","3PM8NZGV8Z27ZASLIPN4DC34Q6RXQQ","A50NVZ6AI91O","3WRBLBQ2GRU63BU2LFOJL1G32T90GO","","126.40000009536743","img/flower6.png","75","127.69999980926514","2","1","2","2","1,0,0,1,1,0,1,0,1","1,0,0,1,1,0,1,0,1","1",""
"","html-keyboard-response","55","32846","0.0-55.0","3PM8NZGV8Z27ZASLIPN4DC34Q6RXQQ","A50NVZ6AI91O","3WRBLBQ2GRU63BU2LFOJL1G32T90GO","","null","<img src=""img/flower6.png"" style=""width:200px; border:14px solid green;"">","null","","","","","","","","",""
"","image-keyboard-response","56","33260","0.0-56.0","3PM8NZGV8Z27ZASLIPN4DC34Q6RXQQ","A50NVZ6AI91O","3WRBLBQ2GRU63BU2LFOJL1G32T90GO","","411.59999990463257","img/flower6.png","76","413.10000014305115","3","0","2","2","1,0,0,1,1,0,1,0,1","1,0,0,1,1,0,1,0,1","1",""
"","html-keyboard-response","57","33561","0.0-57.0","3PM8NZGV8Z27ZASLIPN4DC34Q6RXQQ","A50NVZ6AI91O","3WRBLBQ2GRU63BU2LFOJL1G32T90GO","","null","<img src=""img/flower6.png"" style=""width:200px;border:14px solid red;"">","null","","","","","","","","",""
"","image-keyboard-response","58","33578","0.0-58.0","3PM8NZGV8Z27ZASLIPN4DC34Q6RXQQ","A50NVZ6AI91O","3WRBLBQ2GRU63BU2LFOJL1G32T90GO","","16.200000047683716","img/flower6.png","75","16.799999952316284","2","1","2","2","1,0,0,1,1,0,1,0,1","1,0,0,1,1,0,1,0,1","1",""
"","html-keyboard-response","59","33880","0.0-59.0","3PM8NZGV8Z27ZASLIPN4DC34Q6RXQQ","A50NVZ6AI91O","3WRBLBQ2GRU63BU2LFOJL1G32T90GO","","null","<img src=""img/flower6.png"" style=""width:200px; border:14px solid green;"">","null","","","","","","","","",""
"","image-keyboard-response","60","34023","0.0-60.0","3PM8NZGV8Z27ZASLIPN4DC34Q6RXQQ","A50NVZ6AI91O","3WRBLBQ2GRU63BU2LFOJL1G32T90GO","","141.39999985694885","img/flower5.png","74","143","1","1","3","2","1,0,0,1,1,0,1,0,1","1,0,0,1,1,0,1,0,1","1",""
"","html-keyboard-response","61","34326","0.0-61.0","3PM8NZGV8Z27ZASLIPN4DC34Q6RXQQ","A50NVZ6AI91O","3WRBLBQ2GRU63BU2LFOJL1G32T90GO","","null","<img src=""img/flower5.png"" style=""width:200px; border:14px solid green;"">","null","","","","","","","","",""
"","image-keyboard-response","62","34436","0.0-62.0","3PM8NZGV8Z27ZASLIPN4DC34Q6RXQQ","A50NVZ6AI91O","3WRBLBQ2GRU63BU2LFOJL1G32T90GO","","108","img/flower2.png","75","109.59999990463257","2","0","1","2","1,0,0,1,1,0,1,0,1","1,0,0,1,1,0,1,0,1","1",""
"","html-keyboard-response","63","34739","0.0-63.0","3PM8NZGV8Z27ZASLIPN4DC34Q6RXQQ","A50NVZ6AI91O","3WRBLBQ2GRU63BU2LFOJL1G32T90GO","","null","<img src=""img/flower2.png"" style=""width:200px;border:14px solid red;"">","null","","","","","","","","",""
"","image-keyboard-response","64","34832","0.0-64.0","3PM8NZGV8Z27ZASLIPN4DC34Q6RXQQ","A50NVZ6AI91O","3WRBLBQ2GRU63BU2LFOJL1G32T90GO","","90.80000019073486","img/flower2.png","76","92.89999985694885","3","0","1","2","1,0,0,1,1,0,1,0,1","1,0,0,1,1,0,1,0,1","1",""
"","html-keyboard-response","65","35136","0.0-65.0","3PM8NZGV8Z27ZASLIPN4DC34Q6RXQQ","A50NVZ6AI91O","3WRBLBQ2GRU63BU2LFOJL1G32T90GO","","null","<img src=""img/flower2.png"" style=""width:200px;border:14px solid red;"">","null","","","","","","","","",""
"","image-keyboard-response","66","35277","0.0-66.0","3PM8NZGV8Z27ZASLIPN4DC34Q6RXQQ","A50NVZ6AI91O","3WRBLBQ2GRU63BU2LFOJL1G32T90GO","","139.60000014305115","img/flower2.png","75","141","2","0","1","2","1,0,0,1,1,0,1,0,1","1,0,0,1,1,0,1,0,1","1",""
"","html-keyboard-response","67","35579","0.0-67.0","3PM8NZGV8Z27ZASLIPN4DC34Q6RXQQ","A50NVZ6AI91O","3WRBLBQ2GRU63BU2LFOJL1G32T90GO","","null","<img src=""img/flower2.png"" style=""width:200px;border:14px solid red;"">","null","","","","","","","","",""
"","image-keyboard-response","68","35697","0.0-68.0","3PM8NZGV8Z27ZASLIPN4DC34Q6RXQQ","A50NVZ6AI91O","3WRBLBQ2GRU63BU2LFOJL1G32T90GO","","116.09999990463257","img/flower6.png","74","118","1","1","2","2","1,0,0,1,1,0,1,0,1","1,0,0,1,1,0,1,0,1","1",""
"","html-keyboard-response","69","36000","0.0-69.0","3PM8NZGV8Z27ZASLIPN4DC34Q6RXQQ","A50NVZ6AI91O","3WRBLBQ2GRU63BU2LFOJL1G32T90GO","","null","<img src=""img/flower6.png"" style=""width:200px; border:14px solid green;"">","null","","","","","","","","",""
"","image-keyboard-response","70","36059","0.0-70.0","3PM8NZGV8Z27ZASLIPN4DC34Q6RXQQ","A50NVZ6AI91O","3WRBLBQ2GRU63BU2LFOJL1G32T90GO","","56.69999980926514","img/flower6.png","75","58.39999985694885","2","1","2","2","1,0,0,1,1,0,1,0,1","1,0,0,1,1,0,1,0,1","1",""
"","html-keyboard-response","71","36362","0.0-71.0","3PM8NZGV8Z27ZASLIPN4DC34Q6RXQQ","A50NVZ6AI91O","3WRBLBQ2GRU63BU2LFOJL1G32T90GO","","null","<img src=""img/flower6.png"" style=""width:200px; border:14px solid green;"">","null","","","","","","","","",""
"","image-keyboard-response","72","36471","0.0-72.0","3PM8NZGV8Z27ZASLIPN4DC34Q6RXQQ","A50NVZ6AI91O","3WRBLBQ2GRU63BU2LFOJL1G32T90GO","","106.79999995231628","img/flower2.png","76","108.60000014305115","3","0","1","2","1,0,0,1,1,0,1,0,1","1,0,0,1,1,0,1,0,1","1",""
"","html-keyboard-response","73","36774","0.0-73.0","3PM8NZGV8Z27ZASLIPN4DC34Q6RXQQ","A50NVZ6AI91O","3WRBLBQ2GRU63BU2LFOJL1G32T90GO","","null","<img src=""img/flower2.png"" style=""width:200px;border:14px solid red;"">","null","","","","","","","","",""
"","image-keyboard-response","74","36960","0.0-74.0","3PM8NZGV8Z27ZASLIPN4DC34Q6RXQQ","A50NVZ6AI91O","3WRBLBQ2GRU63BU2LFOJL1G32T90GO","","183.19999980926514","img/flower5.png","75","185.09999990463257","2","0","3","2","1,0,0,1,1,0,1,0,1","1,0,0,1,1,0,1,0,1","1",""
"","html-keyboard-response","75","37263","0.0-75.0","3PM8NZGV8Z27ZASLIPN4DC34Q6RXQQ","A50NVZ6AI91O","3WRBLBQ2GRU63BU2LFOJL1G32T90GO","","null","<img src=""img/flower5.png"" style=""width:200px;border:14px solid red;"">","null","","","","","","","","",""
"","image-keyboard-response","76","37582","0.0-76.0","3PM8NZGV8Z27ZASLIPN4DC34Q6RXQQ","A50NVZ6AI91O","3WRBLBQ2GRU63BU2LFOJL1G32T90GO","","316.7000000476837","img/flower2.png","75","318.60000014305115","2","0","1","2","1,0,0,1,1,0,1,0,1","1,0,0,1,1,0,1,0,1","1",""
"","html-keyboard-response","77","37885","0.0-77.0","3PM8NZGV8Z27ZASLIPN4DC34Q6RXQQ","A50NVZ6AI91O","3WRBLBQ2GRU63BU2LFOJL1G32T90GO","","null","<img src=""img/flower2.png"" style=""width:200px;border:14px solid red;"">","null","","","","","","","","",""
"","image-keyboard-response","78","37978","0.0-78.0","3PM8NZGV8Z27ZASLIPN4DC34Q6RXQQ","A50NVZ6AI91O","3WRBLBQ2GRU63BU2LFOJL1G32T90GO","","90.20000004768372","img/flower5.png","76","92.20000004768372","3","1","3","2","1,0,0,1,1,0,1,0,1","1,0,0,1,1,0,1,0,1","1",""
"","html-keyboard-response","79","38281","0.0-79.0","3PM8NZGV8Z27ZASLIPN4DC34Q6RXQQ","A50NVZ6AI91O","3WRBLBQ2GRU63BU2LFOJL1G32T90GO","","null","<img src=""img/flower5.png"" style=""width:200px; border:14px solid green;"">","null","","","","","","","","",""
"","image-keyboard-response","80","38434","0.0-80.0","3PM8NZGV8Z27ZASLIPN4DC34Q6RXQQ","A50NVZ6AI91O","3WRBLBQ2GRU63BU2LFOJL1G32T90GO","","150.20000004768372","img/flower2.png","75","151.79999995231628","2","0","1","2","1,0,0,1,1,0,1,0,1","1,0,0,1,1,0,1,0,1","1",""
"","html-keyboard-response","81","38736","0.0-81.0","3PM8NZGV8Z27ZASLIPN4DC34Q6RXQQ","A50NVZ6AI91O","3WRBLBQ2GRU63BU2LFOJL1G32T90GO","","null","<img src=""img/flower2.png"" style=""width:200px;border:14px solid red;"">","null","","","","","","","","",""
"","image-keyboard-response","82","38818","0.0-82.0","3PM8NZGV8Z27ZASLIPN4DC34Q6RXQQ","A50NVZ6AI91O","3WRBLBQ2GRU63BU2LFOJL1G32T90GO","","79.90000009536743","img/flower6.png","74","81.59999990463257","1","1","2","2","1,0,0,1,1,0,1,0,1","1,0,0,1,1,0,1,0,1","1",""
"","html-keyboard-response","83","39121","0.0-83.0","3PM8NZGV8Z27ZASLIPN4DC34Q6RXQQ","A50NVZ6AI91O","3WRBLBQ2GRU63BU2LFOJL1G32T90GO","","null","<img src=""img/flower6.png"" style=""width:200px; border:14px solid green;"">","null","","","","","","","","",""
"","image-keyboard-response","84","39154","0.0-84.0","3PM8NZGV8Z27ZASLIPN4DC34Q6RXQQ","A50NVZ6AI91O","3WRBLBQ2GRU63BU2LFOJL1G32T90GO","","31.399999856948853","img/flower6.png","75","32.90000009536743","2","1","2","2","1,0,0,1,1,0,1,0,1","1,0,0,1,1,0,1,0,1","1",""
"","html-keyboard-response","85","39456","0.0-85.0","3PM8NZGV8Z27ZASLIPN4DC34Q6RXQQ","A50NVZ6AI91O","3WRBLBQ2GRU63BU2LFOJL1G32T90GO","","null","<img src=""img/flower6.png"" style=""width:200px; border:14px solid green;"">","null","","","","","","","","",""
"","image-keyboard-response","86","39515","0.0-86.0","3PM8NZGV8Z27ZASLIPN4DC34Q6RXQQ","A50NVZ6AI91O","3WRBLBQ2GRU63BU2LFOJL1G32T90GO","","56.39999985694885","img/flower2.png","76","58.10000014305115","3","0","1","2","1,0,0,1,1,0,1,0,1","1,0,0,1,1,0,1,0,1","1",""
"","html-keyboard-response","87","39818","0.0-87.0","3PM8NZGV8Z27ZASLIPN4DC34Q6RXQQ","A50NVZ6AI91O","3WRBLBQ2GRU63BU2LFOJL1G32T90GO","","null","<img src=""img/flower2.png"" style=""width:200px;border:14px solid red;"">","null","","","","","","","","",""
"","image-keyboard-response","88","40067","0.0-88.0","3PM8NZGV8Z27ZASLIPN4DC34Q6RXQQ","A50NVZ6AI91O","3WRBLBQ2GRU63BU2LFOJL1G32T90GO","","247.09999990463257","img/flower2.png","76","248.5","3","0","1","2","1,0,0,1,1,0,1,0,1","1,0,0,1,1,0,1,0,1","1",""
"","html-keyboard-response","89","40368","0.0-89.0","3PM8NZGV8Z27ZASLIPN4DC34Q6RXQQ","A50NVZ6AI91O","3WRBLBQ2GRU63BU2LFOJL1G32T90GO","","null","<img src=""img/flower2.png"" style=""width:200px;border:14px solid red;"">","null","","","","","","","","",""
"","image-keyboard-response","90","40421","0.0-90.0","3PM8NZGV8Z27ZASLIPN4DC34Q6RXQQ","A50NVZ6AI91O","3WRBLBQ2GRU63BU2LFOJL1G32T90GO","","50.5","img/flower2.png","75","52.40000009536743","2","0","1","2","1,0,0,1,1,0,1,0,1","1,0,0,1,1,0,1,0,1","1",""
"","html-keyboard-response","91","40737","0.0-91.0","3PM8NZGV8Z27ZASLIPN4DC34Q6RXQQ","A50NVZ6AI91O","3WRBLBQ2GRU63BU2LFOJL1G32T90GO","","null","<img src=""img/flower2.png"" style=""width:200px;border:14px solid red;"">","null","","","","","","","","",""
"","image-keyboard-response","92","40810","0.0-92.0","3PM8NZGV8Z27ZASLIPN4DC34Q6RXQQ","A50NVZ6AI91O","3WRBLBQ2GRU63BU2LFOJL1G32T90GO","","70.5","img/flower6.png","74","72.5","1","1","2","2","1,0,0,1,1,0,1,0,1","1,0,0,1,1,0,1,0,1","1",""
"","html-keyboard-response","93","41113","0.0-93.0","3PM8NZGV8Z27ZASLIPN4DC34Q6RXQQ","A50NVZ6AI91O","3WRBLBQ2GRU63BU2LFOJL1G32T90GO","","null","<img src=""img/flower6.png"" style=""width:200px; border:14px solid green;"">","null","","","","","","","","",""
"","image-keyboard-response","94","41127","0.0-94.0","3PM8NZGV8Z27ZASLIPN4DC34Q6RXQQ","A50NVZ6AI91O","3WRBLBQ2GRU63BU2LFOJL1G32T90GO","","13.299999952316284","img/flower5.png","75","14.200000047683716","2","0","3","2","1,0,0,1,1,0,1,0,1","1,0,0,1,1,0,1,0,1","1",""
"","html-keyboard-response","95","41429","0.0-95.0","3PM8NZGV8Z27ZASLIPN4DC34Q6RXQQ","A50NVZ6AI91O","3WRBLBQ2GRU63BU2LFOJL1G32T90GO","","null","<img src=""img/flower5.png"" style=""width:200px;border:14px solid red;"">","null","","","","","","","","",""
"","image-keyboard-response","96","41625","0.0-96.0","3PM8NZGV8Z27ZASLIPN4DC34Q6RXQQ","A50NVZ6AI91O","3WRBLBQ2GRU63BU2LFOJL1G32T90GO","","194.19999980926514","img/flower5.png","76","195.70000004768372","3","1","3","2","1,0,0,1,1,0,1,0,1","1,0,0,1,1,0,1,0,1","1",""
"","html-keyboard-response","97","41928","0.0-97.0","3PM8NZGV8Z27ZASLIPN4DC34Q6RXQQ","A50NVZ6AI91O","3WRBLBQ2GRU63BU2LFOJL1G32T90GO","","null","<img src=""img/flower5.png"" style=""width:200px; border:14px solid green;"">","null","","","","","","","","",""
"","image-keyboard-response","98","42015","0.0-98.0","3PM8NZGV8Z27ZASLIPN4DC34Q6RXQQ","A50NVZ6AI91O","3WRBLBQ2GRU63BU2LFOJL1G32T90GO","","85.40000009536743","img/flower6.png","75","86.20000004768372","2","1","2","2","1,0,0,1,1,0,1,0,1","1,0,0,1,1,0,1,0,1","1",""
"","html-keyboard-response","99","42326","0.0-99.0","3PM8NZGV8Z27ZASLIPN4DC34Q6RXQQ","A50NVZ6AI91O","3WRBLBQ2GRU63BU2LFOJL1G32T90GO","","null","<img src=""img/flower6.png"" style=""width:200px; border:14px solid green;"">","null","","","","","","","","",""
"","image-keyboard-response","100","42406","0.0-100.0","3PM8NZGV8Z27ZASLIPN4DC34Q6RXQQ","A50NVZ6AI91O","3WRBLBQ2GRU63BU2LFOJL1G32T90GO","","77.29999995231628","img/flower2.png","74","79.39999985694885","1","1","1","2","1,0,0,1,1,0,1,0,1","1,0,0,1,1,0,1,0,1","1",""
"","html-keyboard-response","101","42709","0.0-101.0","3PM8NZGV8Z27ZASLIPN4DC34Q6RXQQ","A50NVZ6AI91O","3WRBLBQ2GRU63BU2LFOJL1G32T90GO","","null","<img src=""img/flower2.png"" style=""width:200px; border:14px solid green;"">","null","","","","","","","","",""
"","image-keyboard-response","102","42866","0.0-102.0","3PM8NZGV8Z27ZASLIPN4DC34Q6RXQQ","A50NVZ6AI91O","3WRBLBQ2GRU63BU2LFOJL1G32T90GO","","154.5","img/flower2.png","75","156","2","0","1","2","1,0,0,1,1,0,1,0,1","1,0,0,1,1,0,1,0,1","1",""
"","html-keyboard-response","103","43167","0.0-103.0","3PM8NZGV8Z27ZASLIPN4DC34Q6RXQQ","A50NVZ6AI91O","3WRBLBQ2GRU63BU2LFOJL1G32T90GO","","null","<img src=""img/flower2.png"" style=""width:200px;border:14px solid red;"">","null","","","","","","","","",""
"","image-keyboard-response","104","43334","0.0-104.0","3PM8NZGV8Z27ZASLIPN4DC34Q6RXQQ","A50NVZ6AI91O","3WRBLBQ2GRU63BU2LFOJL1G32T90GO","","164.39999985694885","img/flower6.png","76","165.89999985694885","3","0","2","2","1,0,0,1,1,0,1,0,1","1,0,0,1,1,0,1,0,1","1",""
"","html-keyboard-response","105","43636","0.0-105.0","3PM8NZGV8Z27ZASLIPN4DC34Q6RXQQ","A50NVZ6AI91O","3WRBLBQ2GRU63BU2LFOJL1G32T90GO","","null","<img src=""img/flower6.png"" style=""width:200px;border:14px solid red;"">","null","","","","","","","","",""
"","image-keyboard-response","106","43742","0.0-106.0","3PM8NZGV8Z27ZASLIPN4DC34Q6RXQQ","A50NVZ6AI91O","3WRBLBQ2GRU63BU2LFOJL1G32T90GO","","103.59999990463257","img/flower6.png","75","105.39999985694885","2","1","2","2","1,0,0,1,1,0,1,0,1","1,0,0,1,1,0,1,0,1","1",""
"","html-keyboard-response","107","44045","0.0-107.0","3PM8NZGV8Z27ZASLIPN4DC34Q6RXQQ","A50NVZ6AI91O","3WRBLBQ2GRU63BU2LFOJL1G32T90GO","","null","<img src=""img/flower6.png"" style=""width:200px; border:14px solid green;"">","null","","","","","","","","",""
"","image-keyboard-response","108","44378","0.0-108.0","3PM8NZGV8Z27ZASLIPN4DC34Q6RXQQ","A50NVZ6AI91O","3WRBLBQ2GRU63BU2LFOJL1G32T90GO","","330.89999985694885","img/flower5.png","75","332.80000019073486","2","0","3","2","1,0,0,1,1,0,1,0,1","1,0,0,1,1,0,1,0,1","1",""
"","html-keyboard-response","109","44681","0.0-109.0","3PM8NZGV8Z27ZASLIPN4DC34Q6RXQQ","A50NVZ6AI91O","3WRBLBQ2GRU63BU2LFOJL1G32T90GO","","null","<img src=""img/flower5.png"" style=""width:200px;border:14px solid red;"">","null","","","","","","","","",""
"","image-keyboard-response","110","44862","0.0-110.0","3PM8NZGV8Z27ZASLIPN4DC34Q6RXQQ","A50NVZ6AI91O","3WRBLBQ2GRU63BU2LFOJL1G32T90GO","","178.89999985694885","img/flower5.png","75","180.29999995231628","2","0","3","2","1,0,0,1,1,0,1,0,1","1,0,0,1,1,0,1,0,1","1",""
"","html-keyboard-response","111","45163","0.0-111.0","3PM8NZGV8Z27ZASLIPN4DC34Q6RXQQ","A50NVZ6AI91O","3WRBLBQ2GRU63BU2LFOJL1G32T90GO","","null","<img src=""img/flower5.png"" style=""width:200px;border:14px solid red;"">","null","","","","","","","","",""
"","image-keyboard-response","112","45167","0.0-112.0","3PM8NZGV8Z27ZASLIPN4DC34Q6RXQQ","A50NVZ6AI91O","3WRBLBQ2GRU63BU2LFOJL1G32T90GO","","2.3999998569488525","img/flower2.png","76","4.1000001430511475","3","0","1","2","1,0,0,1,1,0,1,0,1","1,0,0,1,1,0,1,0,1","1",""
"","html-keyboard-response","113","45471","0.0-113.0","3PM8NZGV8Z27ZASLIPN4DC34Q6RXQQ","A50NVZ6AI91O","3WRBLBQ2GRU63BU2LFOJL1G32T90GO","","null","<img src=""img/flower2.png"" style=""width:200px;border:14px solid red;"">","null","","","","","","","","",""
"","image-keyboard-response","114","46043","0.0-114.0","3PM8NZGV8Z27ZASLIPN4DC34Q6RXQQ","A50NVZ6AI91O","3WRBLBQ2GRU63BU2LFOJL1G32T90GO","","569.5","img/flower6.png","75","571.1000001430511","2","1","2","2","1,0,0,1,1,0,1,0,1","1,0,0,1,1,0,1,0,1","1",""
"","html-keyboard-response","115","46344","0.0-115.0","3PM8NZGV8Z27ZASLIPN4DC34Q6RXQQ","A50NVZ6AI91O","3WRBLBQ2GRU63BU2LFOJL1G32T90GO","","null","<img src=""img/flower6.png"" style=""width:200px; border:14px solid green;"">","null","","","","","","","","",""
"","image-keyboard-response","116","46637","0.0-116.0","3PM8NZGV8Z27ZASLIPN4DC34Q6RXQQ","A50NVZ6AI91O","3WRBLBQ2GRU63BU2LFOJL1G32T90GO","","290.7000000476837","img/flower5.png","74","292.39999985694885","1","1","3","2","1,0,0,1,1,0,1,0,1","1,0,0,1,1,0,1,0,1","1",""
"","html-keyboard-response","117","46941","0.0-117.0","3PM8NZGV8Z27ZASLIPN4DC34Q6RXQQ","A50NVZ6AI91O","3WRBLBQ2GRU63BU2LFOJL1G32T90GO","","null","<img src=""img/flower5.png"" style=""width:200px; border:14px solid green;"">","null","","","","","","","","",""
"","image-keyboard-response","118","47014","0.0-118.0","3PM8NZGV8Z27ZASLIPN4DC34Q6RXQQ","A50NVZ6AI91O","3WRBLBQ2GRU63BU2LFOJL1G32T90GO","","70.80000019073486","img/flower6.png","75","72.29999995231628","2","1","2","2","1,0,0,1,1,0,1,0,1","1,0,0,1,1,0,1,0,1","1",""
"","html-keyboard-response","119","47316","0.0-119.0","3PM8NZGV8Z27ZASLIPN4DC34Q6RXQQ","A50NVZ6AI91O","3WRBLBQ2GRU63BU2LFOJL1G32T90GO","","null","<img src=""img/flower6.png"" style=""width:200px; border:14px solid green;"">","null","","","","","","","","",""
"","image-keyboard-response","120","47743","0.0-120.0","3PM8NZGV8Z27ZASLIPN4DC34Q6RXQQ","A50NVZ6AI91O","3WRBLBQ2GRU63BU2LFOJL1G32T90GO","","426","img/flower5.png","76","426.90000009536743","3","1","3","2","1,0,0,1,1,0,1,0,1","1,0,0,1,1,0,1,0,1","1",""
"","html-keyboard-response","121","48046","0.0-121.0","3PM8NZGV8Z27ZASLIPN4DC34Q6RXQQ","A50NVZ6AI91O","3WRBLBQ2GRU63BU2LFOJL1G32T90GO","","null","<img src=""img/flower5.png"" style=""width:200px; border:14px solid green;"">","null","","","","","","","","",""
"","image-keyboard-response","122","48090","0.0-122.0","3PM8NZGV8Z27ZASLIPN4DC34Q6RXQQ","A50NVZ6AI91O","3WRBLBQ2GRU63BU2LFOJL1G32T90GO","","41.80000019073486","img/flower5.png","75","43.299999952316284","2","0","3","2","1,0,0,1,1,0,1,0,1","1,0,0,1,1,0,1,0,1","1",""
"","html-keyboard-response","123","48391","0.0-123.0","3PM8NZGV8Z27ZASLIPN4DC34Q6RXQQ","A50NVZ6AI91O","3WRBLBQ2GRU63BU2LFOJL1G32T90GO","","null","<img src=""img/flower5.png"" style=""width:200px;border:14px solid red;"">","null","","","","","","","","",""
"","image-keyboard-response","124","48565","0.0-124.0","3PM8NZGV8Z27ZASLIPN4DC34Q6RXQQ","A50NVZ6AI91O","3WRBLBQ2GRU63BU2LFOJL1G32T90GO","","170.89999985694885","img/flower6.png","74","172.90000009536743","1","1","2","2","1,0,0,1,1,0,1,0,1","1,0,0,1,1,0,1,0,1","1",""
"","html-keyboard-response","125","48869","0.0-125.0","3PM8NZGV8Z27ZASLIPN4DC34Q6RXQQ","A50NVZ6AI91O","3WRBLBQ2GRU63BU2LFOJL1G32T90GO","","null","<img src=""img/flower6.png"" style=""width:200px; border:14px solid green;"">","null","","","","","","","","",""
"","image-keyboard-response","126","49020","0.0-126.0","3PM8NZGV8Z27ZASLIPN4DC34Q6RXQQ","A50NVZ6AI91O","3WRBLBQ2GRU63BU2LFOJL1G32T90GO","","148.60000014305115","img/flower6.png","75","150.60000014305115","2","1","2","2","1,0,0,1,1,0,1,0,1","1,0,0,1,1,0,1,0,1","1",""
"","html-keyboard-response","127","49323","0.0-127.0","3PM8NZGV8Z27ZASLIPN4DC34Q6RXQQ","A50NVZ6AI91O","3WRBLBQ2GRU63BU2LFOJL1G32T90GO","","null","<img src=""img/flower6.png"" style=""width:200px; border:14px solid green;"">","null","","","","","","","","",""
"","image-keyboard-response","128","49433","0.0-128.0","3PM8NZGV8Z27ZASLIPN4DC34Q6RXQQ","A50NVZ6AI91O","3WRBLBQ2GRU63BU2LFOJL1G32T90GO","","108.5","img/flower6.png","76","110.29999995231628","3","0","2","2","1,0,0,1,1,0,1,0,1","1,0,0,1,1,0,1,0,1","1",""
"","html-keyboard-response","129","49736","0.0-129.0","3PM8NZGV8Z27ZASLIPN4DC34Q6RXQQ","A50NVZ6AI91O","3WRBLBQ2GRU63BU2LFOJL1G32T90GO","","null","<img src=""img/flower6.png"" style=""width:200px;border:14px solid red;"">","null","","","","","","","","",""
"","image-keyboard-response","130","49902","0.0-130.0","3PM8NZGV8Z27ZASLIPN4DC34Q6RXQQ","A50NVZ6AI91O","3WRBLBQ2GRU63BU2LFOJL1G32T90GO","","164.20000004768372","img/flower6.png","75","165.90000009536743","2","1","2","2","1,0,0,1,1,0,1,0,1","1,0,0,1,1,0,1,0,1","1",""
"","html-keyboard-response","131","50205","0.0-131.0","3PM8NZGV8Z27ZASLIPN4DC34Q6RXQQ","A50NVZ6AI91O","3WRBLBQ2GRU63BU2LFOJL1G32T90GO","","null","<img src=""img/flower6.png"" style=""width:200px; border:14px solid green;"">","null","","","","","","","","",""
"","image-keyboard-response","132","50514","0.0-132.0","3PM8NZGV8Z27ZASLIPN4DC34Q6RXQQ","A50NVZ6AI91O","3WRBLBQ2GRU63BU2LFOJL1G32T90GO","","307.09999990463257","img/flower2.png","74","309","1","1","1","2","1,0,0,1,1,0,1,0,1","1,0,0,1,1,0,1,0,1","1",""
"","html-keyboard-response","133","50818","0.0-133.0","3PM8NZGV8Z27ZASLIPN4DC34Q6RXQQ","A50NVZ6AI91O","3WRBLBQ2GRU63BU2LFOJL1G32T90GO","","null","<img src=""img/flower2.png"" style=""width:200px; border:14px solid green;"">","null","","","","","","","","",""
"","image-keyboard-response","134","51056","0.0-134.0","3PM8NZGV8Z27ZASLIPN4DC34Q6RXQQ","A50NVZ6AI91O","3WRBLBQ2GRU63BU2LFOJL1G32T90GO","","235.29999995231628","img/flower5.png","75","237.30000019073486","2","0","3","2","1,0,0,1,1,0,1,0,1","1,0,0,1,1,0,1,0,1","1",""
"","html-keyboard-response","135","51358","0.0-135.0","3PM8NZGV8Z27ZASLIPN4DC34Q6RXQQ","A50NVZ6AI91O","3WRBLBQ2GRU63BU2LFOJL1G32T90GO","","null","<img src=""img/flower5.png"" style=""width:200px;border:14px solid red;"">","null","","","","","","","","",""
"","image-keyboard-response","136","51511","0.0-136.0","3PM8NZGV8Z27ZASLIPN4DC34Q6RXQQ","A50NVZ6AI91O","3WRBLBQ2GRU63BU2LFOJL1G32T90GO","","150.59999990463257","img/flower6.png","76","152.19999980926514","3","0","2","2","1,0,0,1,1,0,1,0,1","1,0,0,1,1,0,1,0,1","1",""
"","html-keyboard-response","137","51812","0.0-137.0","3PM8NZGV8Z27ZASLIPN4DC34Q6RXQQ","A50NVZ6AI91O","3WRBLBQ2GRU63BU2LFOJL1G32T90GO","","null","<img src=""img/flower6.png"" style=""width:200px;border:14px solid red;"">","null","","","","","","","","",""
"","image-keyboard-response","138","52138","0.0-138.0","3PM8NZGV8Z27ZASLIPN4DC34Q6RXQQ","A50NVZ6AI91O","3WRBLBQ2GRU63BU2LFOJL1G32T90GO","","324.90000009536743","img/flower6.png","76","325.7000000476837","3","0","2","2","1,0,0,1,1,0,1,0,1","1,0,0,1,1,0,1,0,1","1",""
"","html-keyboard-response","139","52441","0.0-139.0","3PM8NZGV8Z27ZASLIPN4DC34Q6RXQQ","A50NVZ6AI91O","3WRBLBQ2GRU63BU2LFOJL1G32T90GO","","null","<img src=""img/flower6.png"" style=""width:200px;border:14px solid red;"">","null","","","","","","","","",""
"","image-keyboard-response","140","52886","0.0-140.0","3PM8NZGV8Z27ZASLIPN4DC34Q6RXQQ","A50NVZ6AI91O","3WRBLBQ2GRU63BU2LFOJL1G32T90GO","","442.5","img/flower6.png","74","443.89999985694885","1","1","2","2","1,0,0,1,1,0,1,0,1","1,0,0,1,1,0,1,0,1","1",""
"","html-keyboard-response","141","53187","0.0-141.0","3PM8NZGV8Z27ZASLIPN4DC34Q6RXQQ","A50NVZ6AI91O","3WRBLBQ2GRU63BU2LFOJL1G32T90GO","","null","<img src=""img/flower6.png"" style=""width:200px; border:14px solid green;"">","null","","","","","","","","",""
"","image-keyboard-response","142","53382","0.0-142.0","3PM8NZGV8Z27ZASLIPN4DC34Q6RXQQ","A50NVZ6AI91O","3WRBLBQ2GRU63BU2LFOJL1G32T90GO","","193.40000009536743","img/flower5.png","75","194.79999995231628","2","0","3","2","1,0,0,1,1,0,1,0,1","1,0,0,1,1,0,1,0,1","1",""
"","html-keyboard-response","143","53685","0.0-143.0","3PM8NZGV8Z27ZASLIPN4DC34Q6RXQQ","A50NVZ6AI91O","3WRBLBQ2GRU63BU2LFOJL1G32T90GO","","null","<img src=""img/flower5.png"" style=""width:200px;border:14px solid red;"">","null","","","","","","","","",""
"","image-keyboard-response","144","53690","0.0-144.0","3PM8NZGV8Z27ZASLIPN4DC34Q6RXQQ","A50NVZ6AI91O","3WRBLBQ2GRU63BU2LFOJL1G32T90GO","","2.6000001430511475","img/flower2.png","76","4.199999809265137","3","0","1","2","1,0,0,1,1,0,1,0,1","1,0,0,1,1,0,1,0,1","1",""
"","html-keyboard-response","145","53993","0.0-145.0","3PM8NZGV8Z27ZASLIPN4DC34Q6RXQQ","A50NVZ6AI91O","3WRBLBQ2GRU63BU2LFOJL1G32T90GO","","null","<img src=""img/flower2.png"" style=""width:200px;border:14px solid red;"">","null","","","","","","","","",""
"","image-keyboard-response","146","54045","0.0-146.0","3PM8NZGV8Z27ZASLIPN4DC34Q6RXQQ","A50NVZ6AI91O","3WRBLBQ2GRU63BU2LFOJL1G32T90GO","","49.299999952316284","img/flower6.png","75","51.09999990463257","2","1","2","2","1,0,0,1,1,0,1,0,1","1,0,0,1,1,0,1,0,1","1",""
"","html-keyboard-response","147","54348","0.0-147.0","3PM8NZGV8Z27ZASLIPN4DC34Q6RXQQ","A50NVZ6AI91O","3WRBLBQ2GRU63BU2LFOJL1G32T90GO","","null","<img src=""img/flower6.png"" style=""width:200px; border:14px solid green;"">","null","","","","","","","","",""
"","image-keyboard-response","148","54484","0.0-148.0","3PM8NZGV8Z27ZASLIPN4DC34Q6RXQQ","A50NVZ6AI91O","3WRBLBQ2GRU63BU2LFOJL1G32T90GO","","133.5","img/flower6.png","74","135.29999995231628","1","1","2","2","1,0,0,1,1,0,1,0,1","1,0,0,1,1,0,1,0,1","1",""
"","html-keyboard-response","149","54786","0.0-149.0","3PM8NZGV8Z27ZASLIPN4DC34Q6RXQQ","A50NVZ6AI91O","3WRBLBQ2GRU63BU2LFOJL1G32T90GO","","null","<img src=""img/flower6.png"" style=""width:200px; border:14px solid green;"">","null","","","","","","","","",""
"","image-keyboard-response","150","55056","0.0-150.0","3PM8NZGV8Z27ZASLIPN4DC34Q6RXQQ","A50NVZ6AI91O","3WRBLBQ2GRU63BU2LFOJL1G32T90GO","","268.2000000476837","img/flower2.png","76","269.09999990463257","3","0","1","2","1,0,0,1,1,0,1,0,1","1,0,0,1,1,0,1,0,1","1",""
"","html-keyboard-response","151","55359","0.0-151.0","3PM8NZGV8Z27ZASLIPN4DC34Q6RXQQ","A50NVZ6AI91O","3WRBLBQ2GRU63BU2LFOJL1G32T90GO","","null","<img src=""img/flower2.png"" style=""width:200px;border:14px solid red;"">","null","","","","","","","","",""
"","image-keyboard-response","152","55538","0.0-152.0","3PM8NZGV8Z27ZASLIPN4DC34Q6RXQQ","A50NVZ6AI91O","3WRBLBQ2GRU63BU2LFOJL1G32T90GO","","177.69999980926514","img/flower5.png","75","179.20000004768372","2","0","3","2","1,0,0,1,1,0,1,0,1","1,0,0,1,1,0,1,0,1","1",""
"","html-keyboard-response","153","55842","0.0-153.0","3PM8NZGV8Z27ZASLIPN4DC34Q6RXQQ","A50NVZ6AI91O","3WRBLBQ2GRU63BU2LFOJL1G32T90GO","","null","<img src=""img/flower5.png"" style=""width:200px;border:14px solid red;"">","null","","","","","","","","",""
"","image-keyboard-response","154","56061","0.0-154.0","3PM8NZGV8Z27ZASLIPN4DC34Q6RXQQ","A50NVZ6AI91O","3WRBLBQ2GRU63BU2LFOJL1G32T90GO","","216.70000004768372","img/flower6.png","74","218.59999990463257","1","1","2","2","1,0,0,1,1,0,1,0,1","1,0,0,1,1,0,1,0,1","1",""
"","html-keyboard-response","155","56364","0.0-155.0","3PM8NZGV8Z27ZASLIPN4DC34Q6RXQQ","A50NVZ6AI91O","3WRBLBQ2GRU63BU2LFOJL1G32T90GO","","null","<img src=""img/flower6.png"" style=""width:200px; border:14px solid green;"">","null","","","","","","","","",""
"","image-keyboard-response","156","56664","0.0-156.0","3PM8NZGV8Z27ZASLIPN4DC34Q6RXQQ","A50NVZ6AI91O","3WRBLBQ2GRU63BU2LFOJL1G32T90GO","","296.7000000476837","img/flower2.png","76","298.7999999523163","3","0","1","2","1,0,0,1,1,0,1,0,1","1,0,0,1,1,0,1,0,1","1",""
"","html-keyboard-response","157","56973","0.0-157.0","3PM8NZGV8Z27ZASLIPN4DC34Q6RXQQ","A50NVZ6AI91O","3WRBLBQ2GRU63BU2LFOJL1G32T90GO","","null","<img src=""img/flower2.png"" style=""width:200px;border:14px solid red;"">","null","","","","","","","","",""
"","image-keyboard-response","158","57118","0.0-158.0","3PM8NZGV8Z27ZASLIPN4DC34Q6RXQQ","A50NVZ6AI91O","3WRBLBQ2GRU63BU2LFOJL1G32T90GO","","142","img/flower5.png","75","143.89999985694885","2","0","3","2","1,0,0,1,1,0,1,0,1","1,0,0,1,1,0,1,0,1","1",""
"","html-keyboard-response","159","57420","0.0-159.0","3PM8NZGV8Z27ZASLIPN4DC34Q6RXQQ","A50NVZ6AI91O","3WRBLBQ2GRU63BU2LFOJL1G32T90GO","","null","<img src=""img/flower5.png"" style=""width:200px;border:14px solid red;"">","null","","","","","","","","",""
"","image-keyboard-response","160","57583","0.0-160.0","3PM8NZGV8Z27ZASLIPN4DC34Q6RXQQ","A50NVZ6AI91O","3WRBLBQ2GRU63BU2LFOJL1G32T90GO","","160.80000019073486","img/flower2.png","74","162.19999980926514","1","1","1","2","1,0,0,1,1,0,1,0,1","1,0,0,1,1,0,1,0,1","1",""
"","html-keyboard-response","161","57885","0.0-161.0","3PM8NZGV8Z27ZASLIPN4DC34Q6RXQQ","A50NVZ6AI91O","3WRBLBQ2GRU63BU2LFOJL1G32T90GO","","null","<img src=""img/flower2.png"" style=""width:200px; border:14px solid green;"">","null","","","","","","","","",""
"","image-keyboard-response","162","58454","0.0-162.0","3PM8NZGV8Z27ZASLIPN4DC34Q6RXQQ","A50NVZ6AI91O","3WRBLBQ2GRU63BU2LFOJL1G32T90GO","","567.2999999523163","img/flower5.png","76","568.7999999523163","3","1","3","2","1,0,0,1,1,0,1,0,1","1,0,0,1,1,0,1,0,1","1",""
"","html-keyboard-response","163","58755","0.0-163.0","3PM8NZGV8Z27ZASLIPN4DC34Q6RXQQ","A50NVZ6AI91O","3WRBLBQ2GRU63BU2LFOJL1G32T90GO","","null","<img src=""img/flower5.png"" style=""width:200px; border:14px solid green;"">","null","","","","","","","","",""
"","image-keyboard-response","164","59007","0.0-164.0","3PM8NZGV8Z27ZASLIPN4DC34Q6RXQQ","A50NVZ6AI91O","3WRBLBQ2GRU63BU2LFOJL1G32T90GO","","250.20000004768372","img/flower2.png","75","252","2","0","1","2","1,0,0,1,1,0,1,0,1","1,0,0,1,1,0,1,0,1","1",""
"","html-keyboard-response","165","59310","0.0-165.0","3PM8NZGV8Z27ZASLIPN4DC34Q6RXQQ","A50NVZ6AI91O","3WRBLBQ2GRU63BU2LFOJL1G32T90GO","","null","<img src=""img/flower2.png"" style=""width:200px;border:14px solid red;"">","null","","","","","","","","",""
"","image-keyboard-response","166","59325","0.0-166.0","3PM8NZGV8Z27ZASLIPN4DC34Q6RXQQ","A50NVZ6AI91O","3WRBLBQ2GRU63BU2LFOJL1G32T90GO","","12.700000047683716","img/flower6.png","74","14.099999904632568","1","1","2","2","1,0,0,1,1,0,1,0,1","1,0,0,1,1,0,1,0,1","1",""
"","html-keyboard-response","167","59627","0.0-167.0","3PM8NZGV8Z27ZASLIPN4DC34Q6RXQQ","A50NVZ6AI91O","3WRBLBQ2GRU63BU2LFOJL1G32T90GO","","null","<img src=""img/flower6.png"" style=""width:200px; border:14px solid green;"">","null","","","","","","","","",""
"","image-keyboard-response","168","59929","0.0-168.0","3PM8NZGV8Z27ZASLIPN4DC34Q6RXQQ","A50NVZ6AI91O","3WRBLBQ2GRU63BU2LFOJL1G32T90GO","","299.60000014305115","img/flower2.png","75","301.40000009536743","2","0","1","2","1,0,0,1,1,0,1,0,1","1,0,0,1,1,0,1,0,1","1",""
"","html-keyboard-response","169","60231","0.0-169.0","3PM8NZGV8Z27ZASLIPN4DC34Q6RXQQ","A50NVZ6AI91O","3WRBLBQ2GRU63BU2LFOJL1G32T90GO","","null","<img src=""img/flower2.png"" style=""width:200px;border:14px solid red;"">","null","","","","","","","","",""
"","image-keyboard-response","170","60345","0.0-170.0","3PM8NZGV8Z27ZASLIPN4DC34Q6RXQQ","A50NVZ6AI91O","3WRBLBQ2GRU63BU2LFOJL1G32T90GO","","111.5","img/flower5.png","76","113.39999985694885","3","1","3","2","1,0,0,1,1,0,1,0,1","1,0,0,1,1,0,1,0,1","1",""
"","html-keyboard-response","171","60648","0.0-171.0","3PM8NZGV8Z27ZASLIPN4DC34Q6RXQQ","A50NVZ6AI91O","3WRBLBQ2GRU63BU2LFOJL1G32T90GO","","null","<img src=""img/flower5.png"" style=""width:200px; border:14px solid green;"">","null","","","","","","","","",""
"","image-keyboard-response","172","61127","0.0-172.0","3PM8NZGV8Z27ZASLIPN4DC34Q6RXQQ","A50NVZ6AI91O","3WRBLBQ2GRU63BU2LFOJL1G32T90GO","","477","img/flower5.png","75","478.40000009536743","2","0","3","2","1,0,0,1,1,0,1,0,1","1,0,0,1,1,0,1,0,1","1",""
"","html-keyboard-response","173","61429","0.0-173.0","3PM8NZGV8Z27ZASLIPN4DC34Q6RXQQ","A50NVZ6AI91O","3WRBLBQ2GRU63BU2LFOJL1G32T90GO","","null","<img src=""img/flower5.png"" style=""width:200px;border:14px solid red;"">","null","","","","","","","","",""
"","image-keyboard-response","174","61498","0.0-174.0","3PM8NZGV8Z27ZASLIPN4DC34Q6RXQQ","A50NVZ6AI91O","3WRBLBQ2GRU63BU2LFOJL1G32T90GO","","66.90000009536743","img/flower2.png","74","68.69999980926514","1","1","1","2","1,0,0,1,1,0,1,0,1","1,0,0,1,1,0,1,0,1","1",""
"","html-keyboard-response","175","61801","0.0-175.0","3PM8NZGV8Z27ZASLIPN4DC34Q6RXQQ","A50NVZ6AI91O","3WRBLBQ2GRU63BU2LFOJL1G32T90GO","","null","<img src=""img/flower2.png"" style=""width:200px; border:14px solid green;"">","null","","","","","","","","",""
"","image-keyboard-response","176","62112","0.0-176.0","3PM8NZGV8Z27ZASLIPN4DC34Q6RXQQ","A50NVZ6AI91O","3WRBLBQ2GRU63BU2LFOJL1G32T90GO","","307.90000009536743","img/flower5.png","76","309.7000000476837","3","1","3","2","1,0,0,1,1,0,1,0,1","1,0,0,1,1,0,1,0,1","1",""
"","html-keyboard-response","177","62415","0.0-177.0","3PM8NZGV8Z27ZASLIPN4DC34Q6RXQQ","A50NVZ6AI91O","3WRBLBQ2GRU63BU2LFOJL1G32T90GO","","null","<img src=""img/flower5.png"" style=""width:200px; border:14px solid green;"">","null","","","","","","","","",""
"","image-keyboard-response","178","62541","0.0-178.0","3PM8NZGV8Z27ZASLIPN4DC34Q6RXQQ","A50NVZ6AI91O","3WRBLBQ2GRU63BU2LFOJL1G32T90GO","","124.29999995231628","img/flower2.png","75","126.29999995231628","2","0","1","2","1,0,0,1,1,0,1,0,1","1,0,0,1,1,0,1,0,1","1",""
"","html-keyboard-response","179","62844","0.0-179.0","3PM8NZGV8Z27ZASLIPN4DC34Q6RXQQ","A50NVZ6AI91O","3WRBLBQ2GRU63BU2LFOJL1G32T90GO","","null","<img src=""img/flower2.png"" style=""width:200px;border:14px solid red;"">","null","","","","","","","","",""
"","image-keyboard-response","180","62924","0.0-180.0","3PM8NZGV8Z27ZASLIPN4DC34Q6RXQQ","A50NVZ6AI91O","3WRBLBQ2GRU63BU2LFOJL1G32T90GO","","77.5","img/flower6.png","74","79.09999990463257","1","1","2","2","1,0,0,1,1,0,1,0,1","1,0,0,1,1,0,1,0,1","1",""
"","html-keyboard-response","181","63227","0.0-181.0","3PM8NZGV8Z27ZASLIPN4DC34Q6RXQQ","A50NVZ6AI91O","3WRBLBQ2GRU63BU2LFOJL1G32T90GO","","null","<img src=""img/flower6.png"" style=""width:200px; border:14px solid green;"">","null","","","","","","","","",""
"","image-keyboard-response","182","63437","0.0-182.0","3PM8NZGV8Z27ZASLIPN4DC34Q6RXQQ","A50NVZ6AI91O","3WRBLBQ2GRU63BU2LFOJL1G32T90GO","","208.20000004768372","img/flower4.png","76","209.69999980926514","3","1","3","1","1,0.333,0.333,0.333,1,0.333,0.333,0.333,1","1,0.333,0.333,0.333,1,0.333,0.333,0.333,1","1",""
"","html-keyboard-response","183","63738","0.0-183.0","3PM8NZGV8Z27ZASLIPN4DC34Q6RXQQ","A50NVZ6AI91O","3WRBLBQ2GRU63BU2LFOJL1G32T90GO","","null","<img src=""img/flower4.png"" style=""width:200px; border:14px solid green;"">","null","","","","","","","","",""
"","image-keyboard-response","184","63939","0.0-184.0","3PM8NZGV8Z27ZASLIPN4DC34Q6RXQQ","A50NVZ6AI91O","3WRBLBQ2GRU63BU2LFOJL1G32T90GO","","199.59999990463257","img/flower3.png","75","200.79999995231628","2","1","2","1","1,0.333,0.333,0.333,1,0.333,0.333,0.333,1","1,0.333,0.333,0.333,1,0.333,0.333,0.333,1","1",""
"","html-keyboard-response","185","64242","0.0-185.0","3PM8NZGV8Z27ZASLIPN4DC34Q6RXQQ","A50NVZ6AI91O","3WRBLBQ2GRU63BU2LFOJL1G32T90GO","","null","<img src=""img/flower3.png"" style=""width:200px; border:14px solid green;"">","null","","","","","","","","",""
"","image-keyboard-response","186","64373","0.0-186.0","3PM8NZGV8Z27ZASLIPN4DC34Q6RXQQ","A50NVZ6AI91O","3WRBLBQ2GRU63BU2LFOJL1G32T90GO","","128.90000009536743","img/flower3.png","74","130.70000004768372","1","0","2","1","1,0.333,0.333,0.333,1,0.333,0.333,0.333,1","1,0.333,0.333,0.333,1,0.333,0.333,0.333,1","1",""
"","html-keyboard-response","187","64676","0.0-187.0","3PM8NZGV8Z27ZASLIPN4DC34Q6RXQQ","A50NVZ6AI91O","3WRBLBQ2GRU63BU2LFOJL1G32T90GO","","null","<img src=""img/flower3.png"" style=""width:200px;border:14px solid red;"">","null","","","","","","","","",""
"","image-keyboard-response","188","64973","0.0-188.0","3PM8NZGV8Z27ZASLIPN4DC34Q6RXQQ","A50NVZ6AI91O","3WRBLBQ2GRU63BU2LFOJL1G32T90GO","","295.2000000476837","img/flower3.png","76","296.80000019073486","3","0","2","1","1,0.333,0.333,0.333,1,0.333,0.333,0.333,1","1,0.333,0.333,0.333,1,0.333,0.333,0.333,1","1",""
"","html-keyboard-response","189","65276","0.0-189.0","3PM8NZGV8Z27ZASLIPN4DC34Q6RXQQ","A50NVZ6AI91O","3WRBLBQ2GRU63BU2LFOJL1G32T90GO","","null","<img src=""img/flower3.png"" style=""width:200px;border:14px solid red;"">","null","","","","","","","","",""
"","image-keyboard-response","190","65413","0.0-190.0","3PM8NZGV8Z27ZASLIPN4DC34Q6RXQQ","A50NVZ6AI91O","3WRBLBQ2GRU63BU2LFOJL1G32T90GO","","135.09999990463257","img/flower1.png","75","136.40000009536743","2","1","1","1","1,0.333,0.333,0.333,1,0.333,0.333,0.333,1","1,0.333,0.333,0.333,1,0.333,0.333,0.333,1","1",""
"","html-keyboard-response","191","65716","0.0-191.0","3PM8NZGV8Z27ZASLIPN4DC34Q6RXQQ","A50NVZ6AI91O","3WRBLBQ2GRU63BU2LFOJL1G32T90GO","","null","<img src=""img/flower1.png"" style=""width:200px; border:14px solid green;"">","null","","","","","","","","",""
"","image-keyboard-response","192","65776","0.0-192.0","3PM8NZGV8Z27ZASLIPN4DC34Q6RXQQ","A50NVZ6AI91O","3WRBLBQ2GRU63BU2LFOJL1G32T90GO","","57.700000047683716","img/flower3.png","74","59.200000047683716","1","0","2","1","1,0.333,0.333,0.333,1,0.333,0.333,0.333,1","1,0.333,0.333,0.333,1,0.333,0.333,0.333,1","1",""
"","html-keyboard-response","193","66077","0.0-193.0","3PM8NZGV8Z27ZASLIPN4DC34Q6RXQQ","A50NVZ6AI91O","3WRBLBQ2GRU63BU2LFOJL1G32T90GO","","null","<img src=""img/flower3.png"" style=""width:200px;border:14px solid red;"">","null","","","","","","","","",""
"","image-keyboard-response","194","66342","0.0-194.0","3PM8NZGV8Z27ZASLIPN4DC34Q6RXQQ","A50NVZ6AI91O","3WRBLBQ2GRU63BU2LFOJL1G32T90GO","","262.7999999523163","img/flower4.png","76","264.7999999523163","3","1","3","1","1,0.333,0.333,0.333,1,0.333,0.333,0.333,1","1,0.333,0.333,0.333,1,0.333,0.333,0.333,1","1",""
"","html-keyboard-response","195","66645","0.0-195.0","3PM8NZGV8Z27ZASLIPN4DC34Q6RXQQ","A50NVZ6AI91O","3WRBLBQ2GRU63BU2LFOJL1G32T90GO","","null","<img src=""img/flower4.png"" style=""width:200px; border:14px solid green;"">","null","","","","","","","","",""
"","image-keyboard-response","196","66788","0.0-196.0","3PM8NZGV8Z27ZASLIPN4DC34Q6RXQQ","A50NVZ6AI91O","3WRBLBQ2GRU63BU2LFOJL1G32T90GO","","140.59999990463257","img/flower1.png","75","142.60000014305115","2","0","1","1","1,0.333,0.333,0.333,1,0.333,0.333,0.333,1","1,0.333,0.333,0.333,1,0.333,0.333,0.333,1","1",""
"","html-keyboard-response","197","67093","0.0-197.0","3PM8NZGV8Z27ZASLIPN4DC34Q6RXQQ","A50NVZ6AI91O","3WRBLBQ2GRU63BU2LFOJL1G32T90GO","","null","<img src=""img/flower1.png"" style=""width:200px;border:14px solid red;"">","null","","","","","","","","",""
"","image-keyboard-response","198","67230","0.0-198.0","3PM8NZGV8Z27ZASLIPN4DC34Q6RXQQ","A50NVZ6AI91O","3WRBLBQ2GRU63BU2LFOJL1G32T90GO","","135","img/flower3.png","74","137","1","0","2","1","1,0.333,0.333,0.333,1,0.333,0.333,0.333,1","1,0.333,0.333,0.333,1,0.333,0.333,0.333,1","1",""
"","html-keyboard-response","199","67533","0.0-199.0","3PM8NZGV8Z27ZASLIPN4DC34Q6RXQQ","A50NVZ6AI91O","3WRBLBQ2GRU63BU2LFOJL1G32T90GO","","null","<img src=""img/flower3.png"" style=""width:200px;border:14px solid red;"">","null","","","","","","","","",""
"","image-keyboard-response","200","67727","0.0-200.0","3PM8NZGV8Z27ZASLIPN4DC34Q6RXQQ","A50NVZ6AI91O","3WRBLBQ2GRU63BU2LFOJL1G32T90GO","","191.59999990463257","img/flower3.png","76","193.60000014305115","3","1","2","1","1,0.333,0.333,0.333,1,0.333,0.333,0.333,1","1,0.333,0.333,0.333,1,0.333,0.333,0.333,1","1",""
"","html-keyboard-response","201","68045","0.0-201.0","3PM8NZGV8Z27ZASLIPN4DC34Q6RXQQ","A50NVZ6AI91O","3WRBLBQ2GRU63BU2LFOJL1G32T90GO","","null","<img src=""img/flower3.png"" style=""width:200px; border:14px solid green;"">","null","","","","","","","","",""
"","image-keyboard-response","202","68196","0.0-202.0","3PM8NZGV8Z27ZASLIPN4DC34Q6RXQQ","A50NVZ6AI91O","3WRBLBQ2GRU63BU2LFOJL1G32T90GO","","148.59999990463257","img/flower3.png","75","150.5","2","1","2","1","1,0.333,0.333,0.333,1,0.333,0.333,0.333,1","1,0.333,0.333,0.333,1,0.333,0.333,0.333,1","1",""
"","html-keyboard-response","203","68499","0.0-203.0","3PM8NZGV8Z27ZASLIPN4DC34Q6RXQQ","A50NVZ6AI91O","3WRBLBQ2GRU63BU2LFOJL1G32T90GO","","null","<img src=""img/flower3.png"" style=""width:200px; border:14px solid green;"">","null","","","","","","","","",""
"","image-keyboard-response","204","68594","0.0-204.0","3PM8NZGV8Z27ZASLIPN4DC34Q6RXQQ","A50NVZ6AI91O","3WRBLBQ2GRU63BU2LFOJL1G32T90GO","","92.70000004768372","img/flower1.png","74","94.59999990463257","1","1","1","1","1,0.333,0.333,0.333,1,0.333,0.333,0.333,1","1,0.333,0.333,0.333,1,0.333,0.333,0.333,1","1",""
"","html-keyboard-response","205","68897","0.0-205.0","3PM8NZGV8Z27ZASLIPN4DC34Q6RXQQ","A50NVZ6AI91O","3WRBLBQ2GRU63BU2LFOJL1G32T90GO","","null","<img src=""img/flower1.png"" style=""width:200px; border:14px solid green;"">","null","","","","","","","","",""
"","image-keyboard-response","206","69031","0.0-206.0","3PM8NZGV8Z27ZASLIPN4DC34Q6RXQQ","A50NVZ6AI91O","3WRBLBQ2GRU63BU2LFOJL1G32T90GO","","131.29999995231628","img/flower1.png","76","133.10000014305115","3","0","1","1","1,0.333,0.333,0.333,1,0.333,0.333,0.333,1","1,0.333,0.333,0.333,1,0.333,0.333,0.333,1","1",""
"","html-keyboard-response","207","69335","0.0-207.0","3PM8NZGV8Z27ZASLIPN4DC34Q6RXQQ","A50NVZ6AI91O","3WRBLBQ2GRU63BU2LFOJL1G32T90GO","","null","<img src=""img/flower1.png"" style=""width:200px;border:14px solid red;"">","null","","","","","","","","",""
"","image-keyboard-response","208","69546","0.0-208.0","3PM8NZGV8Z27ZASLIPN4DC34Q6RXQQ","A50NVZ6AI91O","3WRBLBQ2GRU63BU2LFOJL1G32T90GO","","209.5","img/flower3.png","75","211.09999990463257","2","1","2","1","1,0.333,0.333,0.333,1,0.333,0.333,0.333,1","1,0.333,0.333,0.333,1,0.333,0.333,0.333,1","1",""
"","html-keyboard-response","209","69849","0.0-209.0","3PM8NZGV8Z27ZASLIPN4DC34Q6RXQQ","A50NVZ6AI91O","3WRBLBQ2GRU63BU2LFOJL1G32T90GO","","null","<img src=""img/flower3.png"" style=""width:200px; border:14px solid green;"">","null","","","","","","","","",""
"","image-keyboard-response","210","69961","0.0-210.0","3PM8NZGV8Z27ZASLIPN4DC34Q6RXQQ","A50NVZ6AI91O","3WRBLBQ2GRU63BU2LFOJL1G32T90GO","","109.10000014305115","img/flower3.png","74","111","1","0","2","1","1,0.333,0.333,0.333,1,0.333,0.333,0.333,1","1,0.333,0.333,0.333,1,0.333,0.333,0.333,1","1",""
"","html-keyboard-response","211","70263","0.0-211.0","3PM8NZGV8Z27ZASLIPN4DC34Q6RXQQ","A50NVZ6AI91O","3WRBLBQ2GRU63BU2LFOJL1G32T90GO","","null","<img src=""img/flower3.png"" style=""width:200px;border:14px solid red;"">","null","","","","","","","","",""
"","image-keyboard-response","212","70366","0.0-212.0","3PM8NZGV8Z27ZASLIPN4DC34Q6RXQQ","A50NVZ6AI91O","3WRBLBQ2GRU63BU2LFOJL1G32T90GO","","100.09999990463257","img/flower1.png","76","102.19999980926514","3","1","1","1","1,0.333,0.333,0.333,1,0.333,0.333,0.333,1","1,0.333,0.333,0.333,1,0.333,0.333,0.333,1","1",""
"","html-keyboard-response","213","70669","0.0-213.0","3PM8NZGV8Z27ZASLIPN4DC34Q6RXQQ","A50NVZ6AI91O","3WRBLBQ2GRU63BU2LFOJL1G32T90GO","","null","<img src=""img/flower1.png"" style=""width:200px; border:14px solid green;"">","null","","","","","","","","",""
"","image-keyboard-response","214","70703","0.0-214.0","3PM8NZGV8Z27ZASLIPN4DC34Q6RXQQ","A50NVZ6AI91O","3WRBLBQ2GRU63BU2LFOJL1G32T90GO","","32.299999952316284","img/flower4.png","75","34","2","0","3","1","1,0.333,0.333,0.333,1,0.333,0.333,0.333,1","1,0.333,0.333,0.333,1,0.333,0.333,0.333,1","1",""
"","html-keyboard-response","215","71007","0.0-215.0","3PM8NZGV8Z27ZASLIPN4DC34Q6RXQQ","A50NVZ6AI91O","3WRBLBQ2GRU63BU2LFOJL1G32T90GO","","null","<img src=""img/flower4.png"" style=""width:200px;border:14px solid red;"">","null","","","","","","","","",""
"","image-keyboard-response","216","71123","0.0-216.0","3PM8NZGV8Z27ZASLIPN4DC34Q6RXQQ","A50NVZ6AI91O","3WRBLBQ2GRU63BU2LFOJL1G32T90GO","","114.5","img/flower3.png","74","116.5","1","1","2","1","1,0.333,0.333,0.333,1,0.333,0.333,0.333,1","1,0.333,0.333,0.333,1,0.333,0.333,0.333,1","1",""
"","html-keyboard-response","217","71427","0.0-217.0","3PM8NZGV8Z27ZASLIPN4DC34Q6RXQQ","A50NVZ6AI91O","3WRBLBQ2GRU63BU2LFOJL1G32T90GO","","null","<img src=""img/flower3.png"" style=""width:200px; border:14px solid green;"">","null","","","","","","","","",""
"","image-keyboard-response","218","71464","0.0-218.0","3PM8NZGV8Z27ZASLIPN4DC34Q6RXQQ","A50NVZ6AI91O","3WRBLBQ2GRU63BU2LFOJL1G32T90GO","","36.200000047683716","img/flower3.png","76","37.39999985694885","3","0","2","1","1,0.333,0.333,0.333,1,0.333,0.333,0.333,1","1,0.333,0.333,0.333,1,0.333,0.333,0.333,1","1",""
"","html-keyboard-response","219","71767","0.0-219.0","3PM8NZGV8Z27ZASLIPN4DC34Q6RXQQ","A50NVZ6AI91O","3WRBLBQ2GRU63BU2LFOJL1G32T90GO","","null","<img src=""img/flower3.png"" style=""width:200px;border:14px solid red;"">","null","","","","","","","","",""
"","image-keyboard-response","220","71871","0.0-220.0","3PM8NZGV8Z27ZASLIPN4DC34Q6RXQQ","A50NVZ6AI91O","3WRBLBQ2GRU63BU2LFOJL1G32T90GO","","102.19999980926514","img/flower3.png","75","104","2","1","2","1","1,0.333,0.333,0.333,1,0.333,0.333,0.333,1","1,0.333,0.333,0.333,1,0.333,0.333,0.333,1","1",""
"","html-keyboard-response","221","72175","0.0-221.0","3PM8NZGV8Z27ZASLIPN4DC34Q6RXQQ","A50NVZ6AI91O","3WRBLBQ2GRU63BU2LFOJL1G32T90GO","","null","<img src=""img/flower3.png"" style=""width:200px; border:14px solid green;"">","null","","","","","","","","",""
"","image-keyboard-response","222","72249","0.0-222.0","3PM8NZGV8Z27ZASLIPN4DC34Q6RXQQ","A50NVZ6AI91O","3WRBLBQ2GRU63BU2LFOJL1G32T90GO","","72.39999985694885","img/flower3.png","74","73.90000009536743","1","0","2","1","1,0.333,0.333,0.333,1,0.333,0.333,0.333,1","1,0.333,0.333,0.333,1,0.333,0.333,0.333,1","1",""
"","html-keyboard-response","223","72552","0.0-223.0","3PM8NZGV8Z27ZASLIPN4DC34Q6RXQQ","A50NVZ6AI91O","3WRBLBQ2GRU63BU2LFOJL1G32T90GO","","null","<img src=""img/flower3.png"" style=""width:200px;border:14px solid red;"">","null","","","","","","","","",""
"","image-keyboard-response","224","72583","0.0-224.0","3PM8NZGV8Z27ZASLIPN4DC34Q6RXQQ","A50NVZ6AI91O","3WRBLBQ2GRU63BU2LFOJL1G32T90GO","","29","img/flower1.png","76","30.5","3","0","1","1","1,0.333,0.333,0.333,1,0.333,0.333,0.333,1","1,0.333,0.333,0.333,1,0.333,0.333,0.333,1","1",""
"","html-keyboard-response","225","72885","0.0-225.0","3PM8NZGV8Z27ZASLIPN4DC34Q6RXQQ","A50NVZ6AI91O","3WRBLBQ2GRU63BU2LFOJL1G32T90GO","","null","<img src=""img/flower1.png"" style=""width:200px;border:14px solid red;"">","null","","","","","","","","",""
"","image-keyboard-response","226","72961","0.0-226.0","3PM8NZGV8Z27ZASLIPN4DC34Q6RXQQ","A50NVZ6AI91O","3WRBLBQ2GRU63BU2LFOJL1G32T90GO","","73.19999980926514","img/flower4.png","75","75.09999990463257","2","0","3","1","1,0.333,0.333,0.333,1,0.333,0.333,0.333,1","1,0.333,0.333,0.333,1,0.333,0.333,0.333,1","1",""
"","html-keyboard-response","227","73263","0.0-227.0","3PM8NZGV8Z27ZASLIPN4DC34Q6RXQQ","A50NVZ6AI91O","3WRBLBQ2GRU63BU2LFOJL1G32T90GO","","null","<img src=""img/flower4.png"" style=""width:200px;border:14px solid red;"">","null","","","","","","","","",""
"","image-keyboard-response","228","73271","0.0-228.0","3PM8NZGV8Z27ZASLIPN4DC34Q6RXQQ","A50NVZ6AI91O","3WRBLBQ2GRU63BU2LFOJL1G32T90GO","","7.1000001430511475","img/flower1.png","74","7.700000047683716","1","1","1","1","1,0.333,0.333,0.333,1,0.333,0.333,0.333,1","1,0.333,0.333,0.333,1,0.333,0.333,0.333,1","1",""
"","html-keyboard-response","229","73572","0.0-229.0","3PM8NZGV8Z27ZASLIPN4DC34Q6RXQQ","A50NVZ6AI91O","3WRBLBQ2GRU63BU2LFOJL1G32T90GO","","null","<img src=""img/flower1.png"" style=""width:200px; border:14px solid green;"">","null","","","","","","","","",""
"","image-keyboard-response","230","73611","0.0-230.0","3PM8NZGV8Z27ZASLIPN4DC34Q6RXQQ","A50NVZ6AI91O","3WRBLBQ2GRU63BU2LFOJL1G32T90GO","","36.799999952316284","img/flower3.png","76","38.5","3","1","2","1","1,0.333,0.333,0.333,1,0.333,0.333,0.333,1","1,0.333,0.333,0.333,1,0.333,0.333,0.333,1","1",""
"","html-keyboard-response","231","73913","0.0-231.0","3PM8NZGV8Z27ZASLIPN4DC34Q6RXQQ","A50NVZ6AI91O","3WRBLBQ2GRU63BU2LFOJL1G32T90GO","","null","<img src=""img/flower3.png"" style=""width:200px; border:14px solid green;"">","null","","","","","","","","",""
"","image-keyboard-response","232","73978","0.0-232.0","3PM8NZGV8Z27ZASLIPN4DC34Q6RXQQ","A50NVZ6AI91O","3WRBLBQ2GRU63BU2LFOJL1G32T90GO","","62.39999985694885","img/flower3.png","76","64.20000004768372","3","0","2","1","1,0.333,0.333,0.333,1,0.333,0.333,0.333,1","1,0.333,0.333,0.333,1,0.333,0.333,0.333,1","1",""
"","html-keyboard-response","233","74281","0.0-233.0","3PM8NZGV8Z27ZASLIPN4DC34Q6RXQQ","A50NVZ6AI91O","3WRBLBQ2GRU63BU2LFOJL1G32T90GO","","null","<img src=""img/flower3.png"" style=""width:200px;border:14px solid red;"">","null","","","","","","","","",""
"","image-keyboard-response","234","74567","0.0-234.0","3PM8NZGV8Z27ZASLIPN4DC34Q6RXQQ","A50NVZ6AI91O","3WRBLBQ2GRU63BU2LFOJL1G32T90GO","","284.2000000476837","img/flower4.png","74","286","1","0","3","1","1,0.333,0.333,0.333,1,0.333,0.333,0.333,1","1,0.333,0.333,0.333,1,0.333,0.333,0.333,1","1",""
"","html-keyboard-response","235","74876","0.0-235.0","3PM8NZGV8Z27ZASLIPN4DC34Q6RXQQ","A50NVZ6AI91O","3WRBLBQ2GRU63BU2LFOJL1G32T90GO","","null","<img src=""img/flower4.png"" style=""width:200px;border:14px solid red;"">","null","","","","","","","","",""
"","image-keyboard-response","236","74958","0.0-236.0","3PM8NZGV8Z27ZASLIPN4DC34Q6RXQQ","A50NVZ6AI91O","3WRBLBQ2GRU63BU2LFOJL1G32T90GO","","80.5","img/flower4.png","75","81.29999995231628","2","0","3","1","1,0.333,0.333,0.333,1,0.333,0.333,0.333,1","1,0.333,0.333,0.333,1,0.333,0.333,0.333,1","1",""
"","html-keyboard-response","237","75260","0.0-237.0","3PM8NZGV8Z27ZASLIPN4DC34Q6RXQQ","A50NVZ6AI91O","3WRBLBQ2GRU63BU2LFOJL1G32T90GO","","null","<img src=""img/flower4.png"" style=""width:200px;border:14px solid red;"">","null","","","","","","","","",""
"","image-keyboard-response","238","75269","0.0-238.0","3PM8NZGV8Z27ZASLIPN4DC34Q6RXQQ","A50NVZ6AI91O","3WRBLBQ2GRU63BU2LFOJL1G32T90GO","","6.6000001430511475","img/flower1.png","76","8.200000047683716","3","0","1","1","1,0.333,0.333,0.333,1,0.333,0.333,0.333,1","1,0.333,0.333,0.333,1,0.333,0.333,0.333,1","1",""
"","html-keyboard-response","239","75571","0.0-239.0","3PM8NZGV8Z27ZASLIPN4DC34Q6RXQQ","A50NVZ6AI91O","3WRBLBQ2GRU63BU2LFOJL1G32T90GO","","null","<img src=""img/flower1.png"" style=""width:200px;border:14px solid red;"">","null","","","","","","","","",""
"","image-keyboard-response","240","75720","0.0-240.0","3PM8NZGV8Z27ZASLIPN4DC34Q6RXQQ","A50NVZ6AI91O","3WRBLBQ2GRU63BU2LFOJL1G32T90GO","","146.59999990463257","img/flower4.png","75","147.89999985694885","2","0","3","1","1,0.333,0.333,0.333,1,0.333,0.333,0.333,1","1,0.333,0.333,0.333,1,0.333,0.333,0.333,1","1",""
"","html-keyboard-response","241","76021","0.0-241.0","3PM8NZGV8Z27ZASLIPN4DC34Q6RXQQ","A50NVZ6AI91O","3WRBLBQ2GRU63BU2LFOJL1G32T90GO","","null","<img src=""img/flower4.png"" style=""width:200px;border:14px solid red;"">","null","","","","","","","","",""
"","image-keyboard-response","242","76058","0.0-242.0","3PM8NZGV8Z27ZASLIPN4DC34Q6RXQQ","A50NVZ6AI91O","3WRBLBQ2GRU63BU2LFOJL1G32T90GO","","34.799999952316284","img/flower1.png","74","36.39999985694885","1","1","1","1","1,0.333,0.333,0.333,1,0.333,0.333,0.333,1","1,0.333,0.333,0.333,1,0.333,0.333,0.333,1","1",""
"","html-keyboard-response","243","76360","0.0-243.0","3PM8NZGV8Z27ZASLIPN4DC34Q6RXQQ","A50NVZ6AI91O","3WRBLBQ2GRU63BU2LFOJL1G32T90GO","","null","<img src=""img/flower1.png"" style=""width:200px; border:14px solid green;"">","null","","","","","","","","",""
"","image-keyboard-response","244","76431","0.0-244.0","3PM8NZGV8Z27ZASLIPN4DC34Q6RXQQ","A50NVZ6AI91O","3WRBLBQ2GRU63BU2LFOJL1G32T90GO","","69.20000004768372","img/flower4.png","76","71","3","1","3","1","1,0.333,0.333,0.333,1,0.333,0.333,0.333,1","1,0.333,0.333,0.333,1,0.333,0.333,0.333,1","1",""
"","html-keyboard-response","245","76734","0.0-245.0","3PM8NZGV8Z27ZASLIPN4DC34Q6RXQQ","A50NVZ6AI91O","3WRBLBQ2GRU63BU2LFOJL1G32T90GO","","null","<img src=""img/flower4.png"" style=""width:200px; border:14px solid green;"">","null","","","","","","","","",""
"","image-keyboard-response","246","76792","0.0-246.0","3PM8NZGV8Z27ZASLIPN4DC34Q6RXQQ","A50NVZ6AI91O","3WRBLBQ2GRU63BU2LFOJL1G32T90GO","","56.90000009536743","img/flower1.png","75","58.299999952316284","2","0","1","1","1,0.333,0.333,0.333,1,0.333,0.333,0.333,1","1,0.333,0.333,0.333,1,0.333,0.333,0.333,1","1",""
"","html-keyboard-response","247","77095","0.0-247.0","3PM8NZGV8Z27ZASLIPN4DC34Q6RXQQ","A50NVZ6AI91O","3WRBLBQ2GRU63BU2LFOJL1G32T90GO","","null","<img src=""img/flower1.png"" style=""width:200px;border:14px solid red;"">","null","","","","","","","","",""
"","image-keyboard-response","248","77124","0.0-248.0","3PM8NZGV8Z27ZASLIPN4DC34Q6RXQQ","A50NVZ6AI91O","3WRBLBQ2GRU63BU2LFOJL1G32T90GO","","27.200000047683716","img/flower4.png","74","28.59999990463257","1","0","3","1","1,0.333,0.333,0.333,1,0.333,0.333,0.333,1","1,0.333,0.333,0.333,1,0.333,0.333,0.333,1","1",""
"","html-keyboard-response","249","77426","0.0-249.0","3PM8NZGV8Z27ZASLIPN4DC34Q6RXQQ","A50NVZ6AI91O","3WRBLBQ2GRU63BU2LFOJL1G32T90GO","","null","<img src=""img/flower4.png"" style=""width:200px;border:14px solid red;"">","null","","","","","","","","",""
"","image-keyboard-response","250","77539","0.0-250.0","3PM8NZGV8Z27ZASLIPN4DC34Q6RXQQ","A50NVZ6AI91O","3WRBLBQ2GRU63BU2LFOJL1G32T90GO","","111.79999995231628","img/flower4.png","76","113.5","3","1","3","1","1,0.333,0.333,0.333,1,0.333,0.333,0.333,1","1,0.333,0.333,0.333,1,0.333,0.333,0.333,1","1",""
"","html-keyboard-response","251","77842","0.0-251.0","3PM8NZGV8Z27ZASLIPN4DC34Q6RXQQ","A50NVZ6AI91O","3WRBLBQ2GRU63BU2LFOJL1G32T90GO","","null","<img src=""img/flower4.png"" style=""width:200px; border:14px solid green;"">","null","","","","","","","","",""
"","image-keyboard-response","252","78099","0.0-252.0","3PM8NZGV8Z27ZASLIPN4DC34Q6RXQQ","A50NVZ6AI91O","3WRBLBQ2GRU63BU2LFOJL1G32T90GO","","253.90000009536743","img/flower4.png","75","255.79999995231628","2","0","3","1","1,0.333,0.333,0.333,1,0.333,0.333,0.333,1","1,0.333,0.333,0.333,1,0.333,0.333,0.333,1","1",""
"","html-keyboard-response","253","78402","0.0-253.0","3PM8NZGV8Z27ZASLIPN4DC34Q6RXQQ","A50NVZ6AI91O","3WRBLBQ2GRU63BU2LFOJL1G32T90GO","","null","<img src=""img/flower4.png"" style=""width:200px;border:14px solid red;"">","null","","","","","","","","",""
"","image-keyboard-response","254","78525","0.0-254.0","3PM8NZGV8Z27ZASLIPN4DC34Q6RXQQ","A50NVZ6AI91O","3WRBLBQ2GRU63BU2LFOJL1G32T90GO","","121","img/flower1.png","74","123.10000014305115","1","1","1","1","1,0.333,0.333,0.333,1,0.333,0.333,0.333,1","1,0.333,0.333,0.333,1,0.333,0.333,0.333,1","1",""
"","html-keyboard-response","255","78828","0.0-255.0","3PM8NZGV8Z27ZASLIPN4DC34Q6RXQQ","A50NVZ6AI91O","3WRBLBQ2GRU63BU2LFOJL1G32T90GO","","null","<img src=""img/flower1.png"" style=""width:200px; border:14px solid green;"">","null","","","","","","","","",""
"","image-keyboard-response","256","78880","0.0-256.0","3PM8NZGV8Z27ZASLIPN4DC34Q6RXQQ","A50NVZ6AI91O","3WRBLBQ2GRU63BU2LFOJL1G32T90GO","","49.59999990463257","img/flower1.png","76","51.19999980926514","3","0","1","1","1,0.333,0.333,0.333,1,0.333,0.333,0.333,1","1,0.333,0.333,0.333,1,0.333,0.333,0.333,1","1",""
"","html-keyboard-response","257","79183","0.0-257.0","3PM8NZGV8Z27ZASLIPN4DC34Q6RXQQ","A50NVZ6AI91O","3WRBLBQ2GRU63BU2LFOJL1G32T90GO","","null","<img src=""img/flower1.png"" style=""width:200px;border:14px solid red;"">","null","","","","","","","","",""
"","image-keyboard-response","258","79297","0.0-258.0","3PM8NZGV8Z27ZASLIPN4DC34Q6RXQQ","A50NVZ6AI91O","3WRBLBQ2GRU63BU2LFOJL1G32T90GO","","111.20000004768372","img/flower4.png","75","113.20000004768372","2","1","3","1","1,0.333,0.333,0.333,1,0.333,0.333,0.333,1","1,0.333,0.333,0.333,1,0.333,0.333,0.333,1","1",""
"","html-keyboard-response","259","79600","0.0-259.0","3PM8NZGV8Z27ZASLIPN4DC34Q6RXQQ","A50NVZ6AI91O","3WRBLBQ2GRU63BU2LFOJL1G32T90GO","","null","<img src=""img/flower4.png"" style=""width:200px; border:14px solid green;"">","null","","","","","","","","",""
"","image-keyboard-response","260","79784","0.0-260.0","3PM8NZGV8Z27ZASLIPN4DC34Q6RXQQ","A50NVZ6AI91O","3WRBLBQ2GRU63BU2LFOJL1G32T90GO","","181","img/flower4.png","74","182.79999995231628","1","0","3","1","1,0.333,0.333,0.333,1,0.333,0.333,0.333,1","1,0.333,0.333,0.333,1,0.333,0.333,0.333,1","1",""
"","html-keyboard-response","261","80086","0.0-261.0","3PM8NZGV8Z27ZASLIPN4DC34Q6RXQQ","A50NVZ6AI91O","3WRBLBQ2GRU63BU2LFOJL1G32T90GO","","null","<img src=""img/flower4.png"" style=""width:200px;border:14px solid red;"">","null","","","","","","","","",""
"","image-keyboard-response","262","80219","0.0-262.0","3PM8NZGV8Z27ZASLIPN4DC34Q6RXQQ","A50NVZ6AI91O","3WRBLBQ2GRU63BU2LFOJL1G32T90GO","","129.90000009536743","img/flower1.png","75","132","2","0","1","1","1,0.333,0.333,0.333,1,0.333,0.333,0.333,1","1,0.333,0.333,0.333,1,0.333,0.333,0.333,1","1",""
"","html-keyboard-response","263","80522","0.0-263.0","3PM8NZGV8Z27ZASLIPN4DC34Q6RXQQ","A50NVZ6AI91O","3WRBLBQ2GRU63BU2LFOJL1G32T90GO","","null","<img src=""img/flower1.png"" style=""width:200px;border:14px solid red;"">","null","","","","","","","","",""
"","image-keyboard-response","264","80860","0.0-264.0","3PM8NZGV8Z27ZASLIPN4DC34Q6RXQQ","A50NVZ6AI91O","3WRBLBQ2GRU63BU2LFOJL1G32T90GO","","336.2000000476837","img/flower4.png","76","338","3","1","3","1","1,0.333,0.333,0.333,1,0.333,0.333,0.333,1","1,0.333,0.333,0.333,1,0.333,0.333,0.333,1","1",""
"","html-keyboard-response","265","81163","0.0-265.0","3PM8NZGV8Z27ZASLIPN4DC34Q6RXQQ","A50NVZ6AI91O","3WRBLBQ2GRU63BU2LFOJL1G32T90GO","","null","<img src=""img/flower4.png"" style=""width:200px; border:14px solid green;"">","null","","","","","","","","",""
"","image-keyboard-response","266","81275","0.0-266.0","3PM8NZGV8Z27ZASLIPN4DC34Q6RXQQ","A50NVZ6AI91O","3WRBLBQ2GRU63BU2LFOJL1G32T90GO","","109.60000014305115","img/flower1.png","75","111.5","2","0","1","1","1,0.333,0.333,0.333,1,0.333,0.333,0.333,1","1,0.333,0.333,0.333,1,0.333,0.333,0.333,1","1",""
"","html-keyboard-response","267","81578","0.0-267.0","3PM8NZGV8Z27ZASLIPN4DC34Q6RXQQ","A50NVZ6AI91O","3WRBLBQ2GRU63BU2LFOJL1G32T90GO","","null","<img src=""img/flower1.png"" style=""width:200px;border:14px solid red;"">","null","","","","","","","","",""
"","image-keyboard-response","268","81594","0.0-268.0","3PM8NZGV8Z27ZASLIPN4DC34Q6RXQQ","A50NVZ6AI91O","3WRBLBQ2GRU63BU2LFOJL1G32T90GO","","13.899999856948853","img/flower1.png","74","15.5","1","1","1","1","1,0.333,0.333,0.333,1,0.333,0.333,0.333,1","1,0.333,0.333,0.333,1,0.333,0.333,0.333,1","1",""
"","html-keyboard-response","269","81896","0.0-269.0","3PM8NZGV8Z27ZASLIPN4DC34Q6RXQQ","A50NVZ6AI91O","3WRBLBQ2GRU63BU2LFOJL1G32T90GO","","null","<img src=""img/flower1.png"" style=""width:200px; border:14px solid green;"">","null","","","","","","","","",""
"","image-keyboard-response","270","81989","0.0-270.0","3PM8NZGV8Z27ZASLIPN4DC34Q6RXQQ","A50NVZ6AI91O","3WRBLBQ2GRU63BU2LFOJL1G32T90GO","","91","img/flower3.png","75","92.79999995231628","2","1","2","1","1,0.333,0.333,0.333,1,0.333,0.333,0.333,1","1,0.333,0.333,0.333,1,0.333,0.333,0.333,1","1",""
"","html-keyboard-response","271","82292","0.0-271.0","3PM8NZGV8Z27ZASLIPN4DC34Q6RXQQ","A50NVZ6AI91O","3WRBLBQ2GRU63BU2LFOJL1G32T90GO","","null","<img src=""img/flower3.png"" style=""width:200px; border:14px solid green;"">","null","","","","","","","","",""
"","image-keyboard-response","272","82499","0.0-272.0","3PM8NZGV8Z27ZASLIPN4DC34Q6RXQQ","A50NVZ6AI91O","3WRBLBQ2GRU63BU2LFOJL1G32T90GO","","205.39999985694885","img/flower4.png","76","207.10000014305115","3","1","3","1","1,0.333,0.333,0.333,1,0.333,0.333,0.333,1","1,0.333,0.333,0.333,1,0.333,0.333,0.333,1","1",""
"","html-keyboard-response","273","82802","0.0-273.0","3PM8NZGV8Z27ZASLIPN4DC34Q6RXQQ","A50NVZ6AI91O","3WRBLBQ2GRU63BU2LFOJL1G32T90GO","","null","<img src=""img/flower4.png"" style=""width:200px; border:14px solid green;"">","null","","","","","","","","",""
"","image-keyboard-response","274","82912","0.0-274.0","3PM8NZGV8Z27ZASLIPN4DC34Q6RXQQ","A50NVZ6AI91O","3WRBLBQ2GRU63BU2LFOJL1G32T90GO","","107.80000019073486","img/flower1.png","76","109.90000009536743","3","0","1","1","1,0.333,0.333,0.333,1,0.333,0.333,0.333,1","1,0.333,0.333,0.333,1,0.333,0.333,0.333,1","1",""
"","html-keyboard-response","275","83216","0.0-275.0","3PM8NZGV8Z27ZASLIPN4DC34Q6RXQQ","A50NVZ6AI91O","3WRBLBQ2GRU63BU2LFOJL1G32T90GO","","null","<img src=""img/flower1.png"" style=""width:200px;border:14px solid red;"">","null","","","","","","","","",""
"","image-keyboard-response","276","83292","0.0-276.0","3PM8NZGV8Z27ZASLIPN4DC34Q6RXQQ","A50NVZ6AI91O","3WRBLBQ2GRU63BU2LFOJL1G32T90GO","","74.09999990463257","img/flower3.png","75","75.90000009536743","2","1","2","1","1,0.333,0.333,0.333,1,0.333,0.333,0.333,1","1,0.333,0.333,0.333,1,0.333,0.333,0.333,1","1",""
"","html-keyboard-response","277","83595","0.0-277.0","3PM8NZGV8Z27ZASLIPN4DC34Q6RXQQ","A50NVZ6AI91O","3WRBLBQ2GRU63BU2LFOJL1G32T90GO","","null","<img src=""img/flower3.png"" style=""width:200px; border:14px solid green;"">","null","","","","","","","","",""
"","image-keyboard-response","278","84075","0.0-278.0","3PM8NZGV8Z27ZASLIPN4DC34Q6RXQQ","A50NVZ6AI91O","3WRBLBQ2GRU63BU2LFOJL1G32T90GO","","477.7000000476837","img/flower4.png","74","479.7000000476837","1","1","3","1","1,0.333,0.333,0.333,1,0.333,0.333,0.333,1","1,0.333,0.333,0.333,1,0.333,0.333,0.333,1","1",""
"","html-keyboard-response","279","84378","0.0-279.0","3PM8NZGV8Z27ZASLIPN4DC34Q6RXQQ","A50NVZ6AI91O","3WRBLBQ2GRU63BU2LFOJL1G32T90GO","","null","<img src=""img/flower4.png"" style=""width:200px; border:14px solid green;"">","null","","","","","","","","",""
"","image-keyboard-response","280","84506","0.0-280.0","3PM8NZGV8Z27ZASLIPN4DC34Q6RXQQ","A50NVZ6AI91O","3WRBLBQ2GRU63BU2LFOJL1G32T90GO","","126.29999995231628","img/flower3.png","76","127.40000009536743","3","1","2","1","1,0.333,0.333,0.333,1,0.333,0.333,0.333,1","1,0.333,0.333,0.333,1,0.333,0.333,0.333,1","1",""
"","html-keyboard-response","281","84808","0.0-281.0","3PM8NZGV8Z27ZASLIPN4DC34Q6RXQQ","A50NVZ6AI91O","3WRBLBQ2GRU63BU2LFOJL1G32T90GO","","null","<img src=""img/flower3.png"" style=""width:200px; border:14px solid green;"">","null","","","","","","","","",""
"","image-keyboard-response","282","84929","0.0-282.0","3PM8NZGV8Z27ZASLIPN4DC34Q6RXQQ","A50NVZ6AI91O","3WRBLBQ2GRU63BU2LFOJL1G32T90GO","","119.90000009536743","img/flower1.png","75","120.89999985694885","2","0","1","1","1,0.333,0.333,0.333,1,0.333,0.333,0.333,1","1,0.333,0.333,0.333,1,0.333,0.333,0.333,1","1",""
"","html-keyboard-response","283","85232","0.0-283.0","3PM8NZGV8Z27ZASLIPN4DC34Q6RXQQ","A50NVZ6AI91O","3WRBLBQ2GRU63BU2LFOJL1G32T90GO","","null","<img src=""img/flower1.png"" style=""width:200px;border:14px solid red;"">","null","","","","","","","","",""
"","image-keyboard-response","284","85238","0.0-284.0","3PM8NZGV8Z27ZASLIPN4DC34Q6RXQQ","A50NVZ6AI91O","3WRBLBQ2GRU63BU2LFOJL1G32T90GO","","4.300000190734863","img/flower3.png","74","5.699999809265137","1","1","2","1","1,0.333,0.333,0.333,1,0.333,0.333,0.333,1","1,0.333,0.333,0.333,1,0.333,0.333,0.333,1","1",""
"","html-keyboard-response","285","85540","0.0-285.0","3PM8NZGV8Z27ZASLIPN4DC34Q6RXQQ","A50NVZ6AI91O","3WRBLBQ2GRU63BU2LFOJL1G32T90GO","","null","<img src=""img/flower3.png"" style=""width:200px; border:14px solid green;"">","null","","","","","","","","",""
"","image-keyboard-response","286","85647","0.0-286.0","3PM8NZGV8Z27ZASLIPN4DC34Q6RXQQ","A50NVZ6AI91O","3WRBLBQ2GRU63BU2LFOJL1G32T90GO","","105.29999995231628","img/flower3.png","75","106.89999985694885","2","1","2","1","1,0.333,0.333,0.333,1,0.333,0.333,0.333,1","1,0.333,0.333,0.333,1,0.333,0.333,0.333,1","1",""
"","html-keyboard-response","287","85951","0.0-287.0","3PM8NZGV8Z27ZASLIPN4DC34Q6RXQQ","A50NVZ6AI91O","3WRBLBQ2GRU63BU2LFOJL1G32T90GO","","null","<img src=""img/flower3.png"" style=""width:200px; border:14px solid green;"">","null","","","","","","","","",""
"","image-keyboard-response","288","86091","0.0-288.0","3PM8NZGV8Z27ZASLIPN4DC34Q6RXQQ","A50NVZ6AI91O","3WRBLBQ2GRU63BU2LFOJL1G32T90GO","","138.09999990463257","img/flower3.png","76","139.89999985694885","3","0","2","1","1,0.333,0.333,0.333,1,0.333,0.333,0.333,1","1,0.333,0.333,0.333,1,0.333,0.333,0.333,1","1",""
"","html-keyboard-response","289","86394","0.0-289.0","3PM8NZGV8Z27ZASLIPN4DC34Q6RXQQ","A50NVZ6AI91O","3WRBLBQ2GRU63BU2LFOJL1G32T90GO","","null","<img src=""img/flower3.png"" style=""width:200px;border:14px solid red;"">","null","","","","","","","","",""
"","image-keyboard-response","290","86602","0.0-290.0","3PM8NZGV8Z27ZASLIPN4DC34Q6RXQQ","A50NVZ6AI91O","3WRBLBQ2GRU63BU2LFOJL1G32T90GO","","205.79999995231628","img/flower4.png","75","207.69999980926514","2","1","3","1","1,0.333,0.333,0.333,1,0.333,0.333,0.333,1","1,0.333,0.333,0.333,1,0.333,0.333,0.333,1","1",""
"","html-keyboard-response","291","86905","0.0-291.0","3PM8NZGV8Z27ZASLIPN4DC34Q6RXQQ","A50NVZ6AI91O","3WRBLBQ2GRU63BU2LFOJL1G32T90GO","","null","<img src=""img/flower4.png"" style=""width:200px; border:14px solid green;"">","null","","","","","","","","",""
"","image-keyboard-response","292","87039","0.0-292.0","3PM8NZGV8Z27ZASLIPN4DC34Q6RXQQ","A50NVZ6AI91O","3WRBLBQ2GRU63BU2LFOJL1G32T90GO","","131","img/flower3.png","74","132.90000009536743","1","0","2","1","1,0.333,0.333,0.333,1,0.333,0.333,0.333,1","1,0.333,0.333,0.333,1,0.333,0.333,0.333,1","1",""
"","html-keyboard-response","293","87346","0.0-293.0","3PM8NZGV8Z27ZASLIPN4DC34Q6RXQQ","A50NVZ6AI91O","3WRBLBQ2GRU63BU2LFOJL1G32T90GO","","null","<img src=""img/flower3.png"" style=""width:200px;border:14px solid red;"">","null","","","","","","","","",""
"","image-keyboard-response","294","87502","0.0-294.0","3PM8NZGV8Z27ZASLIPN4DC34Q6RXQQ","A50NVZ6AI91O","3WRBLBQ2GRU63BU2LFOJL1G32T90GO","","153.90000009536743","img/flower4.png","76","155.39999985694885","3","1","3","1","1,0.333,0.333,0.333,1,0.333,0.333,0.333,1","1,0.333,0.333,0.333,1,0.333,0.333,0.333,1","1",""
"","html-keyboard-response","295","87804","0.0-295.0","3PM8NZGV8Z27ZASLIPN4DC34Q6RXQQ","A50NVZ6AI91O","3WRBLBQ2GRU63BU2LFOJL1G32T90GO","","null","<img src=""img/flower4.png"" style=""width:200px; border:14px solid green;"">","null","","","","","","","","",""
"","image-keyboard-response","296","87901","0.0-296.0","3PM8NZGV8Z27ZASLIPN4DC34Q6RXQQ","A50NVZ6AI91O","3WRBLBQ2GRU63BU2LFOJL1G32T90GO","","95.09999990463257","img/flower1.png","75","96.59999990463257","2","1","1","1","1,0.333,0.333,0.333,1,0.333,0.333,0.333,1","1,0.333,0.333,0.333,1,0.333,0.333,0.333,1","1",""
"","html-keyboard-response","297","88203","0.0-297.0","3PM8NZGV8Z27ZASLIPN4DC34Q6RXQQ","A50NVZ6AI91O","3WRBLBQ2GRU63BU2LFOJL1G32T90GO","","null","<img src=""img/flower1.png"" style=""width:200px; border:14px solid green;"">","null","","","","","","","","",""
"","image-keyboard-response","298","88286","0.0-298.0","3PM8NZGV8Z27ZASLIPN4DC34Q6RXQQ","A50NVZ6AI91O","3WRBLBQ2GRU63BU2LFOJL1G32T90GO","","80.20000004768372","img/flower3.png","74","82.10000014305115","1","1","2","1","1,0.333,0.333,0.333,1,0.333,0.333,0.333,1","1,0.333,0.333,0.333,1,0.333,0.333,0.333,1","1",""
"","html-keyboard-response","299","88589","0.0-299.0","3PM8NZGV8Z27ZASLIPN4DC34Q6RXQQ","A50NVZ6AI91O","3WRBLBQ2GRU63BU2LFOJL1G32T90GO","","null","<img src=""img/flower3.png"" style=""width:200px; border:14px solid green;"">","null","","","","","","","","",""
"","image-keyboard-response","300","88767","0.0-300.0","3PM8NZGV8Z27ZASLIPN4DC34Q6RXQQ","A50NVZ6AI91O","3WRBLBQ2GRU63BU2LFOJL1G32T90GO","","175.59999990463257","img/flower1.png","76","177.59999990463257","3","0","1","1","1,0.333,0.333,0.333,1,0.333,0.333,0.333,1","1,0.333,0.333,0.333,1,0.333,0.333,0.333,1","1",""
"","html-keyboard-response","301","89070","0.0-301.0","3PM8NZGV8Z27ZASLIPN4DC34Q6RXQQ","A50NVZ6AI91O","3WRBLBQ2GRU63BU2LFOJL1G32T90GO","","null","<img src=""img/flower1.png"" style=""width:200px;border:14px solid red;"">","null","","","","","","","","",""
"","image-keyboard-response","302","89384","0.0-302.0","3PM8NZGV8Z27ZASLIPN4DC34Q6RXQQ","A50NVZ6AI91O","3WRBLBQ2GRU63BU2LFOJL1G32T90GO","","313","img/flower4.png","76","313.60000014305115","3","1","3","1","1,0.333,0.333,0.333,1,0.333,0.333,0.333,1","1,0.333,0.333,0.333,1,0.333,0.333,0.333,1","1",""
"","html-keyboard-response","303","89685","0.0-303.0","3PM8NZGV8Z27ZASLIPN4DC34Q6RXQQ","A50NVZ6AI91O","3WRBLBQ2GRU63BU2LFOJL1G32T90GO","","null","<img src=""img/flower4.png"" style=""width:200px; border:14px solid green;"">","null","","","","","","","","",""
"","image-keyboard-response","304","89935","0.0-304.0","3PM8NZGV8Z27ZASLIPN4DC34Q6RXQQ","A50NVZ6AI91O","3WRBLBQ2GRU63BU2LFOJL1G32T90GO","","247.40000009536743","img/flower4.png","75","249.09999990463257","2","1","3","1","1,0.333,0.333,0.333,1,0.333,0.333,0.333,1","1,0.333,0.333,0.333,1,0.333,0.333,0.333,1","1",""
"","html-keyboard-response","305","90238","0.0-305.0","3PM8NZGV8Z27ZASLIPN4DC34Q6RXQQ","A50NVZ6AI91O","3WRBLBQ2GRU63BU2LFOJL1G32T90GO","","null","<img src=""img/flower4.png"" style=""width:200px; border:14px solid green;"">","null","","","","","","","","",""
"","image-keyboard-response","306","90285","0.0-306.0","3PM8NZGV8Z27ZASLIPN4DC34Q6RXQQ","A50NVZ6AI91O","3WRBLBQ2GRU63BU2LFOJL1G32T90GO","","44.19999980926514","img/flower3.png","75","46.10000014305115","2","1","2","1","1,0.333,0.333,0.333,1,0.333,0.333,0.333,1","1,0.333,0.333,0.333,1,0.333,0.333,0.333,1","1",""
"","html-keyboard-response","307","90588","0.0-307.0","3PM8NZGV8Z27ZASLIPN4DC34Q6RXQQ","A50NVZ6AI91O","3WRBLBQ2GRU63BU2LFOJL1G32T90GO","","null","<img src=""img/flower3.png"" style=""width:200px; border:14px solid green;"">","null","","","","","","","","",""
"","image-keyboard-response","308","90705","0.0-308.0","3PM8NZGV8Z27ZASLIPN4DC34Q6RXQQ","A50NVZ6AI91O","3WRBLBQ2GRU63BU2LFOJL1G32T90GO","","115.09999990463257","img/flower3.png","74","117","1","0","2","1","1,0.333,0.333,0.333,1,0.333,0.333,0.333,1","1,0.333,0.333,0.333,1,0.333,0.333,0.333,1","1",""
"","html-keyboard-response","309","91008","0.0-309.0","3PM8NZGV8Z27ZASLIPN4DC34Q6RXQQ","A50NVZ6AI91O","3WRBLBQ2GRU63BU2LFOJL1G32T90GO","","null","<img src=""img/flower3.png"" style=""width:200px;border:14px solid red;"">","null","","","","","","","","",""
"","image-keyboard-response","310","91336","0.0-310.0","3PM8NZGV8Z27ZASLIPN4DC34Q6RXQQ","A50NVZ6AI91O","3WRBLBQ2GRU63BU2LFOJL1G32T90GO","","325.7999999523163","img/flower4.png","76","327.7999999523163","3","1","3","1","1,0.333,0.333,0.333,1,0.333,0.333,0.333,1","1,0.333,0.333,0.333,1,0.333,0.333,0.333,1","1",""
"","html-keyboard-response","311","91639","0.0-311.0","3PM8NZGV8Z27ZASLIPN4DC34Q6RXQQ","A50NVZ6AI91O","3WRBLBQ2GRU63BU2LFOJL1G32T90GO","","null","<img src=""img/flower4.png"" style=""width:200px; border:14px solid green;"">","null","","","","","","","","",""
"","image-keyboard-response","312","91754","0.0-312.0","3PM8NZGV8Z27ZASLIPN4DC34Q6RXQQ","A50NVZ6AI91O","3WRBLBQ2GRU63BU2LFOJL1G32T90GO","","112.79999995231628","img/flower1.png","75","114.5","2","0","1","1","1,0.333,0.333,0.333,1,0.333,0.333,0.333,1","1,0.333,0.333,0.333,1,0.333,0.333,0.333,1","1",""
"","html-keyboard-response","313","92058","0.0-313.0","3PM8NZGV8Z27ZASLIPN4DC34Q6RXQQ","A50NVZ6AI91O","3WRBLBQ2GRU63BU2LFOJL1G32T90GO","","null","<img src=""img/flower1.png"" style=""width:200px;border:14px solid red;"">","null","","","","","","","","",""
"","image-keyboard-response","314","92209","0.0-314.0","3PM8NZGV8Z27ZASLIPN4DC34Q6RXQQ","A50NVZ6AI91O","3WRBLBQ2GRU63BU2LFOJL1G32T90GO","","148.79999995231628","img/flower1.png","74","150.70000004768372","1","1","1","1","1,0.333,0.333,0.333,1,0.333,0.333,0.333,1","1,0.333,0.333,0.333,1,0.333,0.333,0.333,1","1",""
"","html-keyboard-response","315","92512","0.0-315.0","3PM8NZGV8Z27ZASLIPN4DC34Q6RXQQ","A50NVZ6AI91O","3WRBLBQ2GRU63BU2LFOJL1G32T90GO","","null","<img src=""img/flower1.png"" style=""width:200px; border:14px solid green;"">","null","","","","","","","","",""
"","image-keyboard-response","316","92883","0.0-316.0","3PM8NZGV8Z27ZASLIPN4DC34Q6RXQQ","A50NVZ6AI91O","3WRBLBQ2GRU63BU2LFOJL1G32T90GO","","368.7999999523163","img/flower4.png","75","370.89999985694885","2","0","3","1","1,0.333,0.333,0.333,1,0.333,0.333,0.333,1","1,0.333,0.333,0.333,1,0.333,0.333,0.333,1","1",""
"","html-keyboard-response","317","93186","0.0-317.0","3PM8NZGV8Z27ZASLIPN4DC34Q6RXQQ","A50NVZ6AI91O","3WRBLBQ2GRU63BU2LFOJL1G32T90GO","","null","<img src=""img/flower4.png"" style=""width:200px;border:14px solid red;"">","null","","","","","","","","",""
"","image-keyboard-response","318","93333","0.0-318.0","3PM8NZGV8Z27ZASLIPN4DC34Q6RXQQ","A50NVZ6AI91O","3WRBLBQ2GRU63BU2LFOJL1G32T90GO","","145.10000014305115","img/flower1.png","76","147.10000014305115","3","0","1","1","1,0.333,0.333,0.333,1,0.333,0.333,0.333,1","1,0.333,0.333,0.333,1,0.333,0.333,0.333,1","1",""
"","html-keyboard-response","319","93639","0.0-319.0","3PM8NZGV8Z27ZASLIPN4DC34Q6RXQQ","A50NVZ6AI91O","3WRBLBQ2GRU63BU2LFOJL1G32T90GO","","null","<img src=""img/flower1.png"" style=""width:200px;border:14px solid red;"">","null","","","","","","","","",""
"","image-keyboard-response","320","93952","0.0-320.0","3PM8NZGV8Z27ZASLIPN4DC34Q6RXQQ","A50NVZ6AI91O","3WRBLBQ2GRU63BU2LFOJL1G32T90GO","","312.59999990463257","img/flower3.png","76","313","3","0","2","1","1,0.333,0.333,0.333,1,0.333,0.333,0.333,1","1,0.333,0.333,0.333,1,0.333,0.333,0.333,1","1",""
"","html-keyboard-response","321","94253","0.0-321.0","3PM8NZGV8Z27ZASLIPN4DC34Q6RXQQ","A50NVZ6AI91O","3WRBLBQ2GRU63BU2LFOJL1G32T90GO","","null","<img src=""img/flower3.png"" style=""width:200px;border:14px solid red;"">","null","","","","","","","","",""
"","image-keyboard-response","322","94381","0.0-322.0","3PM8NZGV8Z27ZASLIPN4DC34Q6RXQQ","A50NVZ6AI91O","3WRBLBQ2GRU63BU2LFOJL1G32T90GO","","126.10000014305115","img/flower4.png","75","127.5","2","0","3","1","1,0.333,0.333,0.333,1,0.333,0.333,0.333,1","1,0.333,0.333,0.333,1,0.333,0.333,0.333,1","1",""
"","html-keyboard-response","323","94684","0.0-323.0","3PM8NZGV8Z27ZASLIPN4DC34Q6RXQQ","A50NVZ6AI91O","3WRBLBQ2GRU63BU2LFOJL1G32T90GO","","null","<img src=""img/flower4.png"" style=""width:200px;border:14px solid red;"">","null","","","","","","","","",""
"","image-keyboard-response","324","94843","0.0-324.0","3PM8NZGV8Z27ZASLIPN4DC34Q6RXQQ","A50NVZ6AI91O","3WRBLBQ2GRU63BU2LFOJL1G32T90GO","","156.5","img/flower3.png","74","158.40000009536743","1","1","2","1","1,0.333,0.333,0.333,1,0.333,0.333,0.333,1","1,0.333,0.333,0.333,1,0.333,0.333,0.333,1","1",""
"","html-keyboard-response","325","95146","0.0-325.0","3PM8NZGV8Z27ZASLIPN4DC34Q6RXQQ","A50NVZ6AI91O","3WRBLBQ2GRU63BU2LFOJL1G32T90GO","","null","<img src=""img/flower3.png"" style=""width:200px; border:14px solid green;"">","null","","","","","","","","",""
"","image-keyboard-response","326","95353","0.0-326.0","3PM8NZGV8Z27ZASLIPN4DC34Q6RXQQ","A50NVZ6AI91O","3WRBLBQ2GRU63BU2LFOJL1G32T90GO","","204.60000014305115","img/flower4.png","76","206.40000009536743","3","1","3","1","1,0.333,0.333,0.333,1,0.333,0.333,0.333,1","1,0.333,0.333,0.333,1,0.333,0.333,0.333,1","1",""
"","html-keyboard-response","327","95657","0.0-327.0","3PM8NZGV8Z27ZASLIPN4DC34Q6RXQQ","A50NVZ6AI91O","3WRBLBQ2GRU63BU2LFOJL1G32T90GO","","null","<img src=""img/flower4.png"" style=""width:200px; border:14px solid green;"">","null","","","","","","","","",""
"","image-keyboard-response","328","95663","0.0-328.0","3PM8NZGV8Z27ZASLIPN4DC34Q6RXQQ","A50NVZ6AI91O","3WRBLBQ2GRU63BU2LFOJL1G32T90GO","","4.299999952316284","img/flower3.png","75","5.5","2","1","2","1","1,0.333,0.333,0.333,1,0.333,0.333,0.333,1","1,0.333,0.333,0.333,1,0.333,0.333,0.333,1","1",""
"","html-keyboard-response","329","95965","0.0-329.0","3PM8NZGV8Z27ZASLIPN4DC34Q6RXQQ","A50NVZ6AI91O","3WRBLBQ2GRU63BU2LFOJL1G32T90GO","","null","<img src=""img/flower3.png"" style=""width:200px; border:14px solid green;"">","null","","","","","","","","",""
"","image-keyboard-response","330","96060","0.0-330.0","3PM8NZGV8Z27ZASLIPN4DC34Q6RXQQ","A50NVZ6AI91O","3WRBLBQ2GRU63BU2LFOJL1G32T90GO","","93.09999990463257","img/flower1.png","74","94.69999980926514","1","1","1","1","1,0.333,0.333,0.333,1,0.333,0.333,0.333,1","1,0.333,0.333,0.333,1,0.333,0.333,0.333,1","1",""
"","html-keyboard-response","331","96363","0.0-331.0","3PM8NZGV8Z27ZASLIPN4DC34Q6RXQQ","A50NVZ6AI91O","3WRBLBQ2GRU63BU2LFOJL1G32T90GO","","null","<img src=""img/flower1.png"" style=""width:200px; border:14px solid green;"">","null","","","","","","","","",""
"","image-keyboard-response","332","96483","0.0-332.0","3PM8NZGV8Z27ZASLIPN4DC34Q6RXQQ","A50NVZ6AI91O","3WRBLBQ2GRU63BU2LFOJL1G32T90GO","","117","img/flower3.png","76","119.10000014305115","3","0","2","1","1,0.333,0.333,0.333,1,0.333,0.333,0.333,1","1,0.333,0.333,0.333,1,0.333,0.333,0.333,1","1",""
"","html-keyboard-response","333","96787","0.0-333.0","3PM8NZGV8Z27ZASLIPN4DC34Q6RXQQ","A50NVZ6AI91O","3WRBLBQ2GRU63BU2LFOJL1G32T90GO","","null","<img src=""img/flower3.png"" style=""width:200px;border:14px solid red;"">","null","","","","","","","","",""
"","image-keyboard-response","334","96909","0.0-334.0","3PM8NZGV8Z27ZASLIPN4DC34Q6RXQQ","A50NVZ6AI91O","3WRBLBQ2GRU63BU2LFOJL1G32T90GO","","119.40000009536743","img/flower4.png","76","121.60000014305115","3","1","3","1","1,0.333,0.333,0.333,1,0.333,0.333,0.333,1","1,0.333,0.333,0.333,1,0.333,0.333,0.333,1","1",""
"","html-keyboard-response","335","97213","0.0-335.0","3PM8NZGV8Z27ZASLIPN4DC34Q6RXQQ","A50NVZ6AI91O","3WRBLBQ2GRU63BU2LFOJL1G32T90GO","","null","<img src=""img/flower4.png"" style=""width:200px; border:14px solid green;"">","null","","","","","","","","",""
"","image-keyboard-response","336","97247","0.0-336.0","3PM8NZGV8Z27ZASLIPN4DC34Q6RXQQ","A50NVZ6AI91O","3WRBLBQ2GRU63BU2LFOJL1G32T90GO","","32.19999980926514","img/flower4.png","75","33.59999990463257","2","0","3","1","1,0.333,0.333,0.333,1,0.333,0.333,0.333,1","1,0.333,0.333,0.333,1,0.333,0.333,0.333,1","1",""
"","html-keyboard-response","337","97550","0.0-337.0","3PM8NZGV8Z27ZASLIPN4DC34Q6RXQQ","A50NVZ6AI91O","3WRBLBQ2GRU63BU2LFOJL1G32T90GO","","null","<img src=""img/flower4.png"" style=""width:200px;border:14px solid red;"">","null","","","","","","","","",""
"","image-keyboard-response","338","97598","0.0-338.0","3PM8NZGV8Z27ZASLIPN4DC34Q6RXQQ","A50NVZ6AI91O","3WRBLBQ2GRU63BU2LFOJL1G32T90GO","","45.700000047683716","img/flower4.png","74","47","1","0","3","1","1,0.333,0.333,0.333,1,0.333,0.333,0.333,1","1,0.333,0.333,0.333,1,0.333,0.333,0.333,1","1",""
"","html-keyboard-response","339","97900","0.0-339.0","3PM8NZGV8Z27ZASLIPN4DC34Q6RXQQ","A50NVZ6AI91O","3WRBLBQ2GRU63BU2LFOJL1G32T90GO","","null","<img src=""img/flower4.png"" style=""width:200px;border:14px solid red;"">","null","","","","","","","","",""
"","image-keyboard-response","340","97904","0.0-340.0","3PM8NZGV8Z27ZASLIPN4DC34Q6RXQQ","A50NVZ6AI91O","3WRBLBQ2GRU63BU2LFOJL1G32T90GO","","2.799999952316284","img/flower1.png","76","3.3999998569488525","3","0","1","1","1,0.333,0.333,0.333,1,0.333,0.333,0.333,1","1,0.333,0.333,0.333,1,0.333,0.333,0.333,1","1",""
"","html-keyboard-response","341","98205","0.0-341.0","3PM8NZGV8Z27ZASLIPN4DC34Q6RXQQ","A50NVZ6AI91O","3WRBLBQ2GRU63BU2LFOJL1G32T90GO","","null","<img src=""img/flower1.png"" style=""width:200px;border:14px solid red;"">","null","","","","","","","","",""
"","image-keyboard-response","342","98281","0.0-342.0","3PM8NZGV8Z27ZASLIPN4DC34Q6RXQQ","A50NVZ6AI91O","3WRBLBQ2GRU63BU2LFOJL1G32T90GO","","73.39999985694885","img/flower1.png","75","75.20000004768372","2","0","1","1","1,0.333,0.333,0.333,1,0.333,0.333,0.333,1","1,0.333,0.333,0.333,1,0.333,0.333,0.333,1","1",""
"","html-keyboard-response","343","98584","0.0-343.0","3PM8NZGV8Z27ZASLIPN4DC34Q6RXQQ","A50NVZ6AI91O","3WRBLBQ2GRU63BU2LFOJL1G32T90GO","","null","<img src=""img/flower1.png"" style=""width:200px;border:14px solid red;"">","null","","","","","","","","",""
"","image-keyboard-response","344","98593","0.0-344.0","3PM8NZGV8Z27ZASLIPN4DC34Q6RXQQ","A50NVZ6AI91O","3WRBLBQ2GRU63BU2LFOJL1G32T90GO","","8.600000143051147","img/flower1.png","74","9.100000143051147","1","1","1","1","1,0.333,0.333,0.333,1,0.333,0.333,0.333,1","1,0.333,0.333,0.333,1,0.333,0.333,0.333,1","1",""
"","html-keyboard-response","345","98894","0.0-345.0","3PM8NZGV8Z27ZASLIPN4DC34Q6RXQQ","A50NVZ6AI91O","3WRBLBQ2GRU63BU2LFOJL1G32T90GO","","null","<img src=""img/flower1.png"" style=""width:200px; border:14px solid green;"">","null","","","","","","","","",""
"","image-keyboard-response","346","99186","0.0-346.0","3PM8NZGV8Z27ZASLIPN4DC34Q6RXQQ","A50NVZ6AI91O","3WRBLBQ2GRU63BU2LFOJL1G32T90GO","","288.7999999523163","img/flower1.png","74","290.59999990463257","1","1","1","1","1,0.333,0.333,0.333,1,0.333,0.333,0.333,1","1,0.333,0.333,0.333,1,0.333,0.333,0.333,1","1",""
"","html-keyboard-response","347","99488","0.0-347.0","3PM8NZGV8Z27ZASLIPN4DC34Q6RXQQ","A50NVZ6AI91O","3WRBLBQ2GRU63BU2LFOJL1G32T90GO","","null","<img src=""img/flower1.png"" style=""width:200px; border:14px solid green;"">","null","","","","","","","","",""
"","image-keyboard-response","348","99731","0.0-348.0","3PM8NZGV8Z27ZASLIPN4DC34Q6RXQQ","A50NVZ6AI91O","3WRBLBQ2GRU63BU2LFOJL1G32T90GO","","242.10000014305115","img/flower4.png","74","242.90000009536743","1","1","3","1","1,0.333,0.333,0.333,1,0.333,0.333,0.333,1","1,0.333,0.333,0.333,1,0.333,0.333,0.333,1","1",""
"","html-keyboard-response","349","100035","0.0-349.0","3PM8NZGV8Z27ZASLIPN4DC34Q6RXQQ","A50NVZ6AI91O","3WRBLBQ2GRU63BU2LFOJL1G32T90GO","","null","<img src=""img/flower4.png"" style=""width:200px; border:14px solid green;"">","null","","","","","","","","",""
"","image-keyboard-response","350","100118","0.0-350.0","3PM8NZGV8Z27ZASLIPN4DC34Q6RXQQ","A50NVZ6AI91O","3WRBLBQ2GRU63BU2LFOJL1G32T90GO","","81","img/flower4.png","74","83","1","1","3","1","1,0.333,0.333,0.333,1,0.333,0.333,0.333,1","1,0.333,0.333,0.333,1,0.333,0.333,0.333,1","1",""
"","html-keyboard-response","351","100421","0.0-351.0","3PM8NZGV8Z27ZASLIPN4DC34Q6RXQQ","A50NVZ6AI91O","3WRBLBQ2GRU63BU2LFOJL1G32T90GO","","null","<img src=""img/flower4.png"" style=""width:200px; border:14px solid green;"">","null","","","","","","","","",""
"","image-keyboard-response","352","100616","0.0-352.0","3PM8NZGV8Z27ZASLIPN4DC34Q6RXQQ","A50NVZ6AI91O","3WRBLBQ2GRU63BU2LFOJL1G32T90GO","","192.39999985694885","img/flower1.png","76","194.39999985694885","3","0","1","1","1,0.333,0.333,0.333,1,0.333,0.333,0.333,1","1,0.333,0.333,0.333,1,0.333,0.333,0.333,1","1",""
"","html-keyboard-response","353","100918","0.0-353.0","3PM8NZGV8Z27ZASLIPN4DC34Q6RXQQ","A50NVZ6AI91O","3WRBLBQ2GRU63BU2LFOJL1G32T90GO","","null","<img src=""img/flower1.png"" style=""width:200px;border:14px solid red;"">","null","","","","","","","","",""
"","image-keyboard-response","354","101111","0.0-354.0","3PM8NZGV8Z27ZASLIPN4DC34Q6RXQQ","A50NVZ6AI91O","3WRBLBQ2GRU63BU2LFOJL1G32T90GO","","190.90000009536743","img/flower1.png","76","192.79999995231628","3","0","1","1","1,0.333,0.333,0.333,1,0.333,0.333,0.333,1","1,0.333,0.333,0.333,1,0.333,0.333,0.333,1","1",""
"","html-keyboard-response","355","101414","0.0-355.0","3PM8NZGV8Z27ZASLIPN4DC34Q6RXQQ","A50NVZ6AI91O","3WRBLBQ2GRU63BU2LFOJL1G32T90GO","","null","<img src=""img/flower1.png"" style=""width:200px;border:14px solid red;"">","null","","","","","","","","",""
"","image-keyboard-response","356","101486","0.0-356.0","3PM8NZGV8Z27ZASLIPN4DC34Q6RXQQ","A50NVZ6AI91O","3WRBLBQ2GRU63BU2LFOJL1G32T90GO","","69.19999980926514","img/flower1.png","76","70.59999990463257","3","0","1","1","1,0.333,0.333,0.333,1,0.333,0.333,0.333,1","1,0.333,0.333,0.333,1,0.333,0.333,0.333,1","1",""
"","html-keyboard-response","357","101788","0.0-357.0","3PM8NZGV8Z27ZASLIPN4DC34Q6RXQQ","A50NVZ6AI91O","3WRBLBQ2GRU63BU2LFOJL1G32T90GO","","null","<img src=""img/flower1.png"" style=""width:200px;border:14px solid red;"">","null","","","","","","","","",""
"","image-keyboard-response","358","101850","0.0-358.0","3PM8NZGV8Z27ZASLIPN4DC34Q6RXQQ","A50NVZ6AI91O","3WRBLBQ2GRU63BU2LFOJL1G32T90GO","","60.39999985694885","img/flower4.png","76","62.40000009536743","3","1","3","1","1,0.333,0.333,0.333,1,0.333,0.333,0.333,1","1,0.333,0.333,0.333,1,0.333,0.333,0.333,1","1",""
"","html-keyboard-response","359","102153","0.0-359.0","3PM8NZGV8Z27ZASLIPN4DC34Q6RXQQ","A50NVZ6AI91O","3WRBLBQ2GRU63BU2LFOJL1G32T90GO","","null","<img src=""img/flower4.png"" style=""width:200px; border:14px solid green;"">","null","","","","","","","","",""
"","image-keyboard-response","360","102197","0.0-360.0","3PM8NZGV8Z27ZASLIPN4DC34Q6RXQQ","A50NVZ6AI91O","3WRBLBQ2GRU63BU2LFOJL1G32T90GO","","42","img/flower3.png","76","43.60000014305115","3","0","2","1","1,0.333,0.333,0.333,1,0.333,0.333,0.333,1","1,0.333,0.333,0.333,1,0.333,0.333,0.333,1","1",""
"","html-keyboard-response","361","102499","0.0-361.0","3PM8NZGV8Z27ZASLIPN4DC34Q6RXQQ","A50NVZ6AI91O","3WRBLBQ2GRU63BU2LFOJL1G32T90GO","","null","<img src=""img/flower3.png"" style=""width:200px;border:14px solid red;"">","null","","","","","","","","",""
"","html-keyboard-response","362","104572","0.0-362.0","3PM8NZGV8Z27ZASLIPN4DC34Q6RXQQ","A50NVZ6AI91O","3WRBLBQ2GRU63BU2LFOJL1G32T90GO","","","","","","","","","","","","",""
"","instructions","363","105501","0.0-363.0","3PM8NZGV8Z27ZASLIPN4DC34Q6RXQQ","A50NVZ6AI91O","3WRBLBQ2GRU63BU2LFOJL1G32T90GO","[{""page_index"":0,""viewing_time"":928.0999999046326}]","928.2999999523163","","","","","","","","","","",""
"","survey-text","364","110362","0.0-364.0","3PM8NZGV8Z27ZASLIPN4DC34Q6RXQQ","A50NVZ6AI91O","3WRBLBQ2GRU63BU2LFOJL1G32T90GO","","4856.299999952316","","","","","","","","","","","{""Q0"":""A50NVZ6AI91O""}"
