"success","trial_type","trial_index","time_elapsed","internal_node_id","assignmentID","mturkID","hitID","view_history","rt","stimulus","key_press","reactionTime","a","r","s","cond","reward_cond","reward_cond_actual","reward_matrix_idx","responses"
"true","fullscreen","0","5833","0.0-0.0","3D3VGR7TA11VVD07BF5GBMO5FSPR38","A5CIHEPULDFUF","3HUR21WDDUBEMSLDIXZW1FAIHW8YX3","","","","","","","","","","","","",""
"","instructions","1","26493","0.0-1.0","3D3VGR7TA11VVD07BF5GBMO5FSPR38","A5CIHEPULDFUF","3HUR21WDDUBEMSLDIXZW1FAIHW8YX3","[{""page_index"":0,""viewing_time"":3302.7000000476837},{""page_index"":1,""viewing_time"":2987.9000000953674},{""page_index"":2,""viewing_time"":1030.3999998569489},{""page_index"":3,""viewing_time"":2271.4000000953674},{""page_index"":4,""viewing_time"":2662.399999856949},{""page_index"":5,""viewing_time"":1803.3000001907349},{""page_index"":6,""viewing_time"":2126.2999999523163},{""page_index"":7,""viewing_time"":4469.099999904633}]","20654.10000014305","","","","","","","","","","",""
"","image-keyboard-response","2","27891","0.0-2.0","3D3VGR7TA11VVD07BF5GBMO5FSPR38","A5CIHEPULDFUF","3HUR21WDDUBEMSLDIXZW1FAIHW8YX3","","1394.5","img/flower6.png","74","1397.5999999046326","1","1","1","1","1,0.333,0.333,0.333,1,0.333,0.333,0.333,1","1,0.333,0.333,0.333,1,0.333,0.333,0.333,1","1",""
"","html-keyboard-response","3","28195","0.0-3.0","3D3VGR7TA11VVD07BF5GBMO5FSPR38","A5CIHEPULDFUF","3HUR21WDDUBEMSLDIXZW1FAIHW8YX3","","null","<img src=""img/flower6.png"" style=""width:200px; border:14px solid green;"">","null","","","","","","","","",""
"","image-keyboard-response","4","28799","0.0-4.0","3D3VGR7TA11VVD07BF5GBMO5FSPR38","A5CIHEPULDFUF","3HUR21WDDUBEMSLDIXZW1FAIHW8YX3","","600.7000000476837","img/flower6.png","74","602.9000000953674","1","1","1","1","1,0.333,0.333,0.333,1,0.333,0.333,0.333,1","1,0.333,0.333,0.333,1,0.333,0.333,0.333,1","1",""
"","html-keyboard-response","5","29101","0.0-5.0","3D3VGR7TA11VVD07BF5GBMO5FSPR38","A5CIHEPULDFUF","3HUR21WDDUBEMSLDIXZW1FAIHW8YX3","","null","<img src=""img/flower6.png"" style=""width:200px; border:14px solid green;"">","null","","","","","","","","",""
"","image-keyboard-response","6","29671","0.0-6.0","3D3VGR7TA11VVD07BF5GBMO5FSPR38","A5CIHEPULDFUF","3HUR21WDDUBEMSLDIXZW1FAIHW8YX3","","567.2000000476837","img/flower3.png","75","569.2000000476837","2","1","2","1","1,0.333,0.333,0.333,1,0.333,0.333,0.333,1","1,0.333,0.333,0.333,1,0.333,0.333,0.333,1","1",""
"","html-keyboard-response","7","29976","0.0-7.0","3D3VGR7TA11VVD07BF5GBMO5FSPR38","A5CIHEPULDFUF","3HUR21WDDUBEMSLDIXZW1FAIHW8YX3","","null","<img src=""img/flower3.png"" style=""width:200px; border:14px solid green;"">","null","","","","","","","","",""
"","image-keyboard-response","8","30834","0.0-8.0","3D3VGR7TA11VVD07BF5GBMO5FSPR38","A5CIHEPULDFUF","3HUR21WDDUBEMSLDIXZW1FAIHW8YX3","","854.2000000476837","img/flower2.png","76","857.4000000953674","3","1","3","1","1,0.333,0.333,0.333,1,0.333,0.333,0.333,1","1,0.333,0.333,0.333,1,0.333,0.333,0.333,1","1",""
"","html-keyboard-response","9","31137","0.0-9.0","3D3VGR7TA11VVD07BF5GBMO5FSPR38","A5CIHEPULDFUF","3HUR21WDDUBEMSLDIXZW1FAIHW8YX3","","null","<img src=""img/flower2.png"" style=""width:200px; border:14px solid green;"">","null","","","","","","","","",""
"","image-keyboard-response","10","31779","0.0-10.0","3D3VGR7TA11VVD07BF5GBMO5FSPR38","A5CIHEPULDFUF","3HUR21WDDUBEMSLDIXZW1FAIHW8YX3","","637.9000000953674","img/flower6.png","74","641.2000000476837","1","1","1","1","1,0.333,0.333,0.333,1,0.333,0.333,0.333,1","1,0.333,0.333,0.333,1,0.333,0.333,0.333,1","1",""
"","html-keyboard-response","11","32082","0.0-11.0","3D3VGR7TA11VVD07BF5GBMO5FSPR38","A5CIHEPULDFUF","3HUR21WDDUBEMSLDIXZW1FAIHW8YX3","","null","<img src=""img/flower6.png"" style=""width:200px; border:14px solid green;"">","null","","","","","","","","",""
"","image-keyboard-response","12","32637","0.0-12.0","3D3VGR7TA11VVD07BF5GBMO5FSPR38","A5CIHEPULDFUF","3HUR21WDDUBEMSLDIXZW1FAIHW8YX3","","549.4000000953674","img/flower3.png","75","555","2","1","2","1","1,0.333,0.333,0.333,1,0.333,0.333,0.333,1","1,0.333,0.333,0.333,1,0.333,0.333,0.333,1","1",""
"","html-keyboard-response","13","32940","0.0-13.0","3D3VGR7TA11VVD07BF5GBMO5FSPR38","A5CIHEPULDFUF","3HUR21WDDUBEMSLDIXZW1FAIHW8YX3","","null","<img src=""img/flower3.png"" style=""width:200px; border:14px solid green;"">","null","","","","","","","","",""
"","image-keyboard-response","14","33425","0.0-14.0","3D3VGR7TA11VVD07BF5GBMO5FSPR38","A5CIHEPULDFUF","3HUR21WDDUBEMSLDIXZW1FAIHW8YX3","","482.5","img/flower2.png","76","484.5","3","1","3","1","1,0.333,0.333,0.333,1,0.333,0.333,0.333,1","1,0.333,0.333,0.333,1,0.333,0.333,0.333,1","1",""
"","html-keyboard-response","15","33728","0.0-15.0","3D3VGR7TA11VVD07BF5GBMO5FSPR38","A5CIHEPULDFUF","3HUR21WDDUBEMSLDIXZW1FAIHW8YX3","","null","<img src=""img/flower2.png"" style=""width:200px; border:14px solid green;"">","null","","","","","","","","",""
"","image-keyboard-response","16","34435","0.0-16.0","3D3VGR7TA11VVD07BF5GBMO5FSPR38","A5CIHEPULDFUF","3HUR21WDDUBEMSLDIXZW1FAIHW8YX3","","704.5","img/flower6.png","74","706.3999998569489","1","1","1","1","1,0.333,0.333,0.333,1,0.333,0.333,0.333,1","1,0.333,0.333,0.333,1,0.333,0.333,0.333,1","1",""
"","html-keyboard-response","17","34738","0.0-17.0","3D3VGR7TA11VVD07BF5GBMO5FSPR38","A5CIHEPULDFUF","3HUR21WDDUBEMSLDIXZW1FAIHW8YX3","","null","<img src=""img/flower6.png"" style=""width:200px; border:14px solid green;"">","null","","","","","","","","",""
"","image-keyboard-response","18","35394","0.0-18.0","3D3VGR7TA11VVD07BF5GBMO5FSPR38","A5CIHEPULDFUF","3HUR21WDDUBEMSLDIXZW1FAIHW8YX3","","653.5","img/flower6.png","74","655.5","1","1","1","1","1,0.333,0.333,0.333,1,0.333,0.333,0.333,1","1,0.333,0.333,0.333,1,0.333,0.333,0.333,1","1",""
"","html-keyboard-response","19","35697","0.0-19.0","3D3VGR7TA11VVD07BF5GBMO5FSPR38","A5CIHEPULDFUF","3HUR21WDDUBEMSLDIXZW1FAIHW8YX3","","null","<img src=""img/flower6.png"" style=""width:200px; border:14px solid green;"">","null","","","","","","","","",""
"","image-keyboard-response","20","36232","0.0-20.0","3D3VGR7TA11VVD07BF5GBMO5FSPR38","A5CIHEPULDFUF","3HUR21WDDUBEMSLDIXZW1FAIHW8YX3","","532.4000000953674","img/flower6.png","74","534.3000001907349","1","1","1","1","1,0.333,0.333,0.333,1,0.333,0.333,0.333,1","1,0.333,0.333,0.333,1,0.333,0.333,0.333,1","1",""
"","html-keyboard-response","21","36535","0.0-21.0","3D3VGR7TA11VVD07BF5GBMO5FSPR38","A5CIHEPULDFUF","3HUR21WDDUBEMSLDIXZW1FAIHW8YX3","","null","<img src=""img/flower6.png"" style=""width:200px; border:14px solid green;"">","null","","","","","","","","",""
"","image-keyboard-response","22","37195","0.0-22.0","3D3VGR7TA11VVD07BF5GBMO5FSPR38","A5CIHEPULDFUF","3HUR21WDDUBEMSLDIXZW1FAIHW8YX3","","657.9000000953674","img/flower3.png","75","659.8000001907349","2","1","2","1","1,0.333,0.333,0.333,1,0.333,0.333,0.333,1","1,0.333,0.333,0.333,1,0.333,0.333,0.333,1","1",""
"","html-keyboard-response","23","37506","0.0-23.0","3D3VGR7TA11VVD07BF5GBMO5FSPR38","A5CIHEPULDFUF","3HUR21WDDUBEMSLDIXZW1FAIHW8YX3","","null","<img src=""img/flower3.png"" style=""width:200px; border:14px solid green;"">","null","","","","","","","","",""
"","image-keyboard-response","24","38234","0.0-24.0","3D3VGR7TA11VVD07BF5GBMO5FSPR38","A5CIHEPULDFUF","3HUR21WDDUBEMSLDIXZW1FAIHW8YX3","","726.5","img/flower6.png","74","728","1","1","1","1","1,0.333,0.333,0.333,1,0.333,0.333,0.333,1","1,0.333,0.333,0.333,1,0.333,0.333,0.333,1","1",""
"","html-keyboard-response","25","38537","0.0-25.0","3D3VGR7TA11VVD07BF5GBMO5FSPR38","A5CIHEPULDFUF","3HUR21WDDUBEMSLDIXZW1FAIHW8YX3","","null","<img src=""img/flower6.png"" style=""width:200px; border:14px solid green;"">","null","","","","","","","","",""
"","image-keyboard-response","26","38948","0.0-26.0","3D3VGR7TA11VVD07BF5GBMO5FSPR38","A5CIHEPULDFUF","3HUR21WDDUBEMSLDIXZW1FAIHW8YX3","","405.19999980926514","img/flower6.png","74","410.7999999523163","1","1","1","1","1,0.333,0.333,0.333,1,0.333,0.333,0.333,1","1,0.333,0.333,0.333,1,0.333,0.333,0.333,1","1",""
"","html-keyboard-response","27","39251","0.0-27.0","3D3VGR7TA11VVD07BF5GBMO5FSPR38","A5CIHEPULDFUF","3HUR21WDDUBEMSLDIXZW1FAIHW8YX3","","null","<img src=""img/flower6.png"" style=""width:200px; border:14px solid green;"">","null","","","","","","","","",""
"","image-keyboard-response","28","39877","0.0-28.0","3D3VGR7TA11VVD07BF5GBMO5FSPR38","A5CIHEPULDFUF","3HUR21WDDUBEMSLDIXZW1FAIHW8YX3","","623","img/flower3.png","75","625.2999999523163","2","1","2","1","1,0.333,0.333,0.333,1,0.333,0.333,0.333,1","1,0.333,0.333,0.333,1,0.333,0.333,0.333,1","1",""
"","html-keyboard-response","29","40179","0.0-29.0","3D3VGR7TA11VVD07BF5GBMO5FSPR38","A5CIHEPULDFUF","3HUR21WDDUBEMSLDIXZW1FAIHW8YX3","","null","<img src=""img/flower3.png"" style=""width:200px; border:14px solid green;"">","null","","","","","","","","",""
"","image-keyboard-response","30","40624","0.0-30.0","3D3VGR7TA11VVD07BF5GBMO5FSPR38","A5CIHEPULDFUF","3HUR21WDDUBEMSLDIXZW1FAIHW8YX3","","442.59999990463257","img/flower3.png","75","444.59999990463257","2","1","2","1","1,0.333,0.333,0.333,1,0.333,0.333,0.333,1","1,0.333,0.333,0.333,1,0.333,0.333,0.333,1","1",""
"","html-keyboard-response","31","40926","0.0-31.0","3D3VGR7TA11VVD07BF5GBMO5FSPR38","A5CIHEPULDFUF","3HUR21WDDUBEMSLDIXZW1FAIHW8YX3","","null","<img src=""img/flower3.png"" style=""width:200px; border:14px solid green;"">","null","","","","","","","","",""
"","image-keyboard-response","32","41316","0.0-32.0","3D3VGR7TA11VVD07BF5GBMO5FSPR38","A5CIHEPULDFUF","3HUR21WDDUBEMSLDIXZW1FAIHW8YX3","","387.59999990463257","img/flower3.png","75","389.40000009536743","2","1","2","1","1,0.333,0.333,0.333,1,0.333,0.333,0.333,1","1,0.333,0.333,0.333,1,0.333,0.333,0.333,1","1",""
"","html-keyboard-response","33","41620","0.0-33.0","3D3VGR7TA11VVD07BF5GBMO5FSPR38","A5CIHEPULDFUF","3HUR21WDDUBEMSLDIXZW1FAIHW8YX3","","null","<img src=""img/flower3.png"" style=""width:200px; border:14px solid green;"">","null","","","","","","","","",""
"","image-keyboard-response","34","41976","0.0-34.0","3D3VGR7TA11VVD07BF5GBMO5FSPR38","A5CIHEPULDFUF","3HUR21WDDUBEMSLDIXZW1FAIHW8YX3","","354.40000009536743","img/flower3.png","75","356.5","2","1","2","1","1,0.333,0.333,0.333,1,0.333,0.333,0.333,1","1,0.333,0.333,0.333,1,0.333,0.333,0.333,1","1",""
"","html-keyboard-response","35","42280","0.0-35.0","3D3VGR7TA11VVD07BF5GBMO5FSPR38","A5CIHEPULDFUF","3HUR21WDDUBEMSLDIXZW1FAIHW8YX3","","null","<img src=""img/flower3.png"" style=""width:200px; border:14px solid green;"">","null","","","","","","","","",""
"","image-keyboard-response","36","43021","0.0-36.0","3D3VGR7TA11VVD07BF5GBMO5FSPR38","A5CIHEPULDFUF","3HUR21WDDUBEMSLDIXZW1FAIHW8YX3","","738.8999998569489","img/flower2.png","76","740.6000001430511","3","1","3","1","1,0.333,0.333,0.333,1,0.333,0.333,0.333,1","1,0.333,0.333,0.333,1,0.333,0.333,0.333,1","1",""
"","html-keyboard-response","37","43324","0.0-37.0","3D3VGR7TA11VVD07BF5GBMO5FSPR38","A5CIHEPULDFUF","3HUR21WDDUBEMSLDIXZW1FAIHW8YX3","","null","<img src=""img/flower2.png"" style=""width:200px; border:14px solid green;"">","null","","","","","","","","",""
"","image-keyboard-response","38","43718","0.0-38.0","3D3VGR7TA11VVD07BF5GBMO5FSPR38","A5CIHEPULDFUF","3HUR21WDDUBEMSLDIXZW1FAIHW8YX3","","392.30000019073486","img/flower2.png","76","394","3","1","3","1","1,0.333,0.333,0.333,1,0.333,0.333,0.333,1","1,0.333,0.333,0.333,1,0.333,0.333,0.333,1","1",""
"","html-keyboard-response","39","44021","0.0-39.0","3D3VGR7TA11VVD07BF5GBMO5FSPR38","A5CIHEPULDFUF","3HUR21WDDUBEMSLDIXZW1FAIHW8YX3","","null","<img src=""img/flower2.png"" style=""width:200px; border:14px solid green;"">","null","","","","","","","","",""
"","image-keyboard-response","40","44687","0.0-40.0","3D3VGR7TA11VVD07BF5GBMO5FSPR38","A5CIHEPULDFUF","3HUR21WDDUBEMSLDIXZW1FAIHW8YX3","","659.7000000476837","img/flower6.png","74","665.2999999523163","1","1","1","1","1,0.333,0.333,0.333,1,0.333,0.333,0.333,1","1,0.333,0.333,0.333,1,0.333,0.333,0.333,1","1",""
"","html-keyboard-response","41","44990","0.0-41.0","3D3VGR7TA11VVD07BF5GBMO5FSPR38","A5CIHEPULDFUF","3HUR21WDDUBEMSLDIXZW1FAIHW8YX3","","null","<img src=""img/flower6.png"" style=""width:200px; border:14px solid green;"">","null","","","","","","","","",""
"","image-keyboard-response","42","45566","0.0-42.0","3D3VGR7TA11VVD07BF5GBMO5FSPR38","A5CIHEPULDFUF","3HUR21WDDUBEMSLDIXZW1FAIHW8YX3","","573.5","img/flower3.png","75","575.5999999046326","2","1","2","1","1,0.333,0.333,0.333,1,0.333,0.333,0.333,1","1,0.333,0.333,0.333,1,0.333,0.333,0.333,1","1",""
"","html-keyboard-response","43","45868","0.0-43.0","3D3VGR7TA11VVD07BF5GBMO5FSPR38","A5CIHEPULDFUF","3HUR21WDDUBEMSLDIXZW1FAIHW8YX3","","null","<img src=""img/flower3.png"" style=""width:200px; border:14px solid green;"">","null","","","","","","","","",""
"","image-keyboard-response","44","46341","0.0-44.0","3D3VGR7TA11VVD07BF5GBMO5FSPR38","A5CIHEPULDFUF","3HUR21WDDUBEMSLDIXZW1FAIHW8YX3","","470.40000009536743","img/flower3.png","75","473","2","1","2","1","1,0.333,0.333,0.333,1,0.333,0.333,0.333,1","1,0.333,0.333,0.333,1,0.333,0.333,0.333,1","1",""
"","html-keyboard-response","45","46644","0.0-45.0","3D3VGR7TA11VVD07BF5GBMO5FSPR38","A5CIHEPULDFUF","3HUR21WDDUBEMSLDIXZW1FAIHW8YX3","","null","<img src=""img/flower3.png"" style=""width:200px; border:14px solid green;"">","null","","","","","","","","",""
"","image-keyboard-response","46","47203","0.0-46.0","3D3VGR7TA11VVD07BF5GBMO5FSPR38","A5CIHEPULDFUF","3HUR21WDDUBEMSLDIXZW1FAIHW8YX3","","552.5999999046326","img/flower3.png","75","557.6000001430511","2","1","2","1","1,0.333,0.333,0.333,1,0.333,0.333,0.333,1","1,0.333,0.333,0.333,1,0.333,0.333,0.333,1","1",""
"","html-keyboard-response","47","47506","0.0-47.0","3D3VGR7TA11VVD07BF5GBMO5FSPR38","A5CIHEPULDFUF","3HUR21WDDUBEMSLDIXZW1FAIHW8YX3","","null","<img src=""img/flower3.png"" style=""width:200px; border:14px solid green;"">","null","","","","","","","","",""
"","image-keyboard-response","48","47916","0.0-48.0","3D3VGR7TA11VVD07BF5GBMO5FSPR38","A5CIHEPULDFUF","3HUR21WDDUBEMSLDIXZW1FAIHW8YX3","","408.09999990463257","img/flower3.png","75","410","2","1","2","1","1,0.333,0.333,0.333,1,0.333,0.333,0.333,1","1,0.333,0.333,0.333,1,0.333,0.333,0.333,1","1",""
"","html-keyboard-response","49","48219","0.0-49.0","3D3VGR7TA11VVD07BF5GBMO5FSPR38","A5CIHEPULDFUF","3HUR21WDDUBEMSLDIXZW1FAIHW8YX3","","null","<img src=""img/flower3.png"" style=""width:200px; border:14px solid green;"">","null","","","","","","","","",""
"","image-keyboard-response","50","48814","0.0-50.0","3D3VGR7TA11VVD07BF5GBMO5FSPR38","A5CIHEPULDFUF","3HUR21WDDUBEMSLDIXZW1FAIHW8YX3","","591.4000000953674","img/flower2.png","76","593.2000000476837","3","1","3","1","1,0.333,0.333,0.333,1,0.333,0.333,0.333,1","1,0.333,0.333,0.333,1,0.333,0.333,0.333,1","1",""
"","html-keyboard-response","51","49117","0.0-51.0","3D3VGR7TA11VVD07BF5GBMO5FSPR38","A5CIHEPULDFUF","3HUR21WDDUBEMSLDIXZW1FAIHW8YX3","","null","<img src=""img/flower2.png"" style=""width:200px; border:14px solid green;"">","null","","","","","","","","",""
"","image-keyboard-response","52","49646","0.0-52.0","3D3VGR7TA11VVD07BF5GBMO5FSPR38","A5CIHEPULDFUF","3HUR21WDDUBEMSLDIXZW1FAIHW8YX3","","524","img/flower6.png","74","528.5","1","1","1","1","1,0.333,0.333,0.333,1,0.333,0.333,0.333,1","1,0.333,0.333,0.333,1,0.333,0.333,0.333,1","1",""
"","html-keyboard-response","53","49949","0.0-53.0","3D3VGR7TA11VVD07BF5GBMO5FSPR38","A5CIHEPULDFUF","3HUR21WDDUBEMSLDIXZW1FAIHW8YX3","","null","<img src=""img/flower6.png"" style=""width:200px; border:14px solid green;"">","null","","","","","","","","",""
"","image-keyboard-response","54","50429","0.0-54.0","3D3VGR7TA11VVD07BF5GBMO5FSPR38","A5CIHEPULDFUF","3HUR21WDDUBEMSLDIXZW1FAIHW8YX3","","477.7000000476837","img/flower6.png","74","479.5","1","1","1","1","1,0.333,0.333,0.333,1,0.333,0.333,0.333,1","1,0.333,0.333,0.333,1,0.333,0.333,0.333,1","1",""
"","html-keyboard-response","55","50744","0.0-55.0","3D3VGR7TA11VVD07BF5GBMO5FSPR38","A5CIHEPULDFUF","3HUR21WDDUBEMSLDIXZW1FAIHW8YX3","","null","<img src=""img/flower6.png"" style=""width:200px; border:14px solid green;"">","null","","","","","","","","",""
"","image-keyboard-response","56","51719","0.0-56.0","3D3VGR7TA11VVD07BF5GBMO5FSPR38","A5CIHEPULDFUF","3HUR21WDDUBEMSLDIXZW1FAIHW8YX3","","968.2999999523163","img/flower2.png","76","973.8000001907349","3","1","3","1","1,0.333,0.333,0.333,1,0.333,0.333,0.333,1","1,0.333,0.333,0.333,1,0.333,0.333,0.333,1","1",""
"","html-keyboard-response","57","52035","0.0-57.0","3D3VGR7TA11VVD07BF5GBMO5FSPR38","A5CIHEPULDFUF","3HUR21WDDUBEMSLDIXZW1FAIHW8YX3","","null","<img src=""img/flower2.png"" style=""width:200px; border:14px solid green;"">","null","","","","","","","","",""
"","image-keyboard-response","58","52401","0.0-58.0","3D3VGR7TA11VVD07BF5GBMO5FSPR38","A5CIHEPULDFUF","3HUR21WDDUBEMSLDIXZW1FAIHW8YX3","","359.59999990463257","img/flower2.png","76","365.2000000476837","3","1","3","1","1,0.333,0.333,0.333,1,0.333,0.333,0.333,1","1,0.333,0.333,0.333,1,0.333,0.333,0.333,1","1",""
"","html-keyboard-response","59","52703","0.0-59.0","3D3VGR7TA11VVD07BF5GBMO5FSPR38","A5CIHEPULDFUF","3HUR21WDDUBEMSLDIXZW1FAIHW8YX3","","null","<img src=""img/flower2.png"" style=""width:200px; border:14px solid green;"">","null","","","","","","","","",""
"","image-keyboard-response","60","53437","0.0-60.0","3D3VGR7TA11VVD07BF5GBMO5FSPR38","A5CIHEPULDFUF","3HUR21WDDUBEMSLDIXZW1FAIHW8YX3","","727.5","img/flower3.png","75","732.7000000476837","2","1","2","1","1,0.333,0.333,0.333,1,0.333,0.333,0.333,1","1,0.333,0.333,0.333,1,0.333,0.333,0.333,1","1",""
"","html-keyboard-response","61","53740","0.0-61.0","3D3VGR7TA11VVD07BF5GBMO5FSPR38","A5CIHEPULDFUF","3HUR21WDDUBEMSLDIXZW1FAIHW8YX3","","null","<img src=""img/flower3.png"" style=""width:200px; border:14px solid green;"">","null","","","","","","","","",""
"","image-keyboard-response","62","54344","0.0-62.0","3D3VGR7TA11VVD07BF5GBMO5FSPR38","A5CIHEPULDFUF","3HUR21WDDUBEMSLDIXZW1FAIHW8YX3","","602.1999998092651","img/flower6.png","74","604","1","1","1","1","1,0.333,0.333,0.333,1,0.333,0.333,0.333,1","1,0.333,0.333,0.333,1,0.333,0.333,0.333,1","1",""
"","html-keyboard-response","63","54648","0.0-63.0","3D3VGR7TA11VVD07BF5GBMO5FSPR38","A5CIHEPULDFUF","3HUR21WDDUBEMSLDIXZW1FAIHW8YX3","","null","<img src=""img/flower6.png"" style=""width:200px; border:14px solid green;"">","null","","","","","","","","",""
"","image-keyboard-response","64","55072","0.0-64.0","3D3VGR7TA11VVD07BF5GBMO5FSPR38","A5CIHEPULDFUF","3HUR21WDDUBEMSLDIXZW1FAIHW8YX3","","422.7000000476837","img/flower6.png","74","424.90000009536743","1","1","1","1","1,0.333,0.333,0.333,1,0.333,0.333,0.333,1","1,0.333,0.333,0.333,1,0.333,0.333,0.333,1","1",""
"","html-keyboard-response","65","55376","0.0-65.0","3D3VGR7TA11VVD07BF5GBMO5FSPR38","A5CIHEPULDFUF","3HUR21WDDUBEMSLDIXZW1FAIHW8YX3","","null","<img src=""img/flower6.png"" style=""width:200px; border:14px solid green;"">","null","","","","","","","","",""
"","image-keyboard-response","66","55984","0.0-66.0","3D3VGR7TA11VVD07BF5GBMO5FSPR38","A5CIHEPULDFUF","3HUR21WDDUBEMSLDIXZW1FAIHW8YX3","","598.2000000476837","img/flower3.png","75","604.2000000476837","2","1","2","1","1,0.333,0.333,0.333,1,0.333,0.333,0.333,1","1,0.333,0.333,0.333,1,0.333,0.333,0.333,1","1",""
"","html-keyboard-response","67","56286","0.0-67.0","3D3VGR7TA11VVD07BF5GBMO5FSPR38","A5CIHEPULDFUF","3HUR21WDDUBEMSLDIXZW1FAIHW8YX3","","null","<img src=""img/flower3.png"" style=""width:200px; border:14px solid green;"">","null","","","","","","","","",""
"","image-keyboard-response","68","56937","0.0-68.0","3D3VGR7TA11VVD07BF5GBMO5FSPR38","A5CIHEPULDFUF","3HUR21WDDUBEMSLDIXZW1FAIHW8YX3","","642.3999998569489","img/flower2.png","76","648.3999998569489","3","1","3","1","1,0.333,0.333,0.333,1,0.333,0.333,0.333,1","1,0.333,0.333,0.333,1,0.333,0.333,0.333,1","1",""
"","html-keyboard-response","69","57240","0.0-69.0","3D3VGR7TA11VVD07BF5GBMO5FSPR38","A5CIHEPULDFUF","3HUR21WDDUBEMSLDIXZW1FAIHW8YX3","","null","<img src=""img/flower2.png"" style=""width:200px; border:14px solid green;"">","null","","","","","","","","",""
"","image-keyboard-response","70","57627","0.0-70.0","3D3VGR7TA11VVD07BF5GBMO5FSPR38","A5CIHEPULDFUF","3HUR21WDDUBEMSLDIXZW1FAIHW8YX3","","384.7999999523163","img/flower2.png","76","386.89999985694885","3","1","3","1","1,0.333,0.333,0.333,1,0.333,0.333,0.333,1","1,0.333,0.333,0.333,1,0.333,0.333,0.333,1","1",""
"","html-keyboard-response","71","57930","0.0-71.0","3D3VGR7TA11VVD07BF5GBMO5FSPR38","A5CIHEPULDFUF","3HUR21WDDUBEMSLDIXZW1FAIHW8YX3","","null","<img src=""img/flower2.png"" style=""width:200px; border:14px solid green;"">","null","","","","","","","","",""
"","image-keyboard-response","72","58493","0.0-72.0","3D3VGR7TA11VVD07BF5GBMO5FSPR38","A5CIHEPULDFUF","3HUR21WDDUBEMSLDIXZW1FAIHW8YX3","","560.5999999046326","img/flower6.png","74","562.3999998569489","1","1","1","1","1,0.333,0.333,0.333,1,0.333,0.333,0.333,1","1,0.333,0.333,0.333,1,0.333,0.333,0.333,1","1",""
"","html-keyboard-response","73","58795","0.0-73.0","3D3VGR7TA11VVD07BF5GBMO5FSPR38","A5CIHEPULDFUF","3HUR21WDDUBEMSLDIXZW1FAIHW8YX3","","null","<img src=""img/flower6.png"" style=""width:200px; border:14px solid green;"">","null","","","","","","","","",""
"","image-keyboard-response","74","59212","0.0-74.0","3D3VGR7TA11VVD07BF5GBMO5FSPR38","A5CIHEPULDFUF","3HUR21WDDUBEMSLDIXZW1FAIHW8YX3","","414.80000019073486","img/flower6.png","74","416.60000014305115","1","1","1","1","1,0.333,0.333,0.333,1,0.333,0.333,0.333,1","1,0.333,0.333,0.333,1,0.333,0.333,0.333,1","1",""
"","html-keyboard-response","75","59516","0.0-75.0","3D3VGR7TA11VVD07BF5GBMO5FSPR38","A5CIHEPULDFUF","3HUR21WDDUBEMSLDIXZW1FAIHW8YX3","","null","<img src=""img/flower6.png"" style=""width:200px; border:14px solid green;"">","null","","","","","","","","",""
"","image-keyboard-response","76","60083","0.0-76.0","3D3VGR7TA11VVD07BF5GBMO5FSPR38","A5CIHEPULDFUF","3HUR21WDDUBEMSLDIXZW1FAIHW8YX3","","564","img/flower3.png","75","567.2999999523163","2","1","2","1","1,0.333,0.333,0.333,1,0.333,0.333,0.333,1","1,0.333,0.333,0.333,1,0.333,0.333,0.333,1","1",""
"","html-keyboard-response","77","60390","0.0-77.0","3D3VGR7TA11VVD07BF5GBMO5FSPR38","A5CIHEPULDFUF","3HUR21WDDUBEMSLDIXZW1FAIHW8YX3","","null","<img src=""img/flower3.png"" style=""width:200px; border:14px solid green;"">","null","","","","","","","","",""
"","image-keyboard-response","78","61117","0.0-78.0","3D3VGR7TA11VVD07BF5GBMO5FSPR38","A5CIHEPULDFUF","3HUR21WDDUBEMSLDIXZW1FAIHW8YX3","","724.2999999523163","img/flower6.png","76","726.1000001430511","3","0","1","1","1,0.333,0.333,0.333,1,0.333,0.333,0.333,1","1,0.333,0.333,0.333,1,0.333,0.333,0.333,1","1",""
"","html-keyboard-response","79","61420","0.0-79.0","3D3VGR7TA11VVD07BF5GBMO5FSPR38","A5CIHEPULDFUF","3HUR21WDDUBEMSLDIXZW1FAIHW8YX3","","null","<img src=""img/flower6.png"" style=""width:200px;border:14px solid red;"">","null","","","","","","","","",""
"","image-keyboard-response","80","61520","0.0-80.0","3D3VGR7TA11VVD07BF5GBMO5FSPR38","A5CIHEPULDFUF","3HUR21WDDUBEMSLDIXZW1FAIHW8YX3","","98","img/flower2.png","74","99.89999985694885","1","0","3","1","1,0.333,0.333,0.333,1,0.333,0.333,0.333,1","1,0.333,0.333,0.333,1,0.333,0.333,0.333,1","1",""
"","html-keyboard-response","81","61822","0.0-81.0","3D3VGR7TA11VVD07BF5GBMO5FSPR38","A5CIHEPULDFUF","3HUR21WDDUBEMSLDIXZW1FAIHW8YX3","","null","<img src=""img/flower2.png"" style=""width:200px;border:14px solid red;"">","null","","","","","","","","",""
"","image-keyboard-response","82","62579","0.0-82.0","3D3VGR7TA11VVD07BF5GBMO5FSPR38","A5CIHEPULDFUF","3HUR21WDDUBEMSLDIXZW1FAIHW8YX3","","754.5","img/flower6.png","74","756.4000000953674","1","1","1","1","1,0.333,0.333,0.333,1,0.333,0.333,0.333,1","1,0.333,0.333,0.333,1,0.333,0.333,0.333,1","1",""
"","html-keyboard-response","83","62882","0.0-83.0","3D3VGR7TA11VVD07BF5GBMO5FSPR38","A5CIHEPULDFUF","3HUR21WDDUBEMSLDIXZW1FAIHW8YX3","","null","<img src=""img/flower6.png"" style=""width:200px; border:14px solid green;"">","null","","","","","","","","",""
"","image-keyboard-response","84","63533","0.0-84.0","3D3VGR7TA11VVD07BF5GBMO5FSPR38","A5CIHEPULDFUF","3HUR21WDDUBEMSLDIXZW1FAIHW8YX3","","648.2999999523163","img/flower2.png","75","650.2999999523163","2","0","3","1","1,0.333,0.333,0.333,1,0.333,0.333,0.333,1","1,0.333,0.333,0.333,1,0.333,0.333,0.333,1","1",""
"","html-keyboard-response","85","63836","0.0-85.0","3D3VGR7TA11VVD07BF5GBMO5FSPR38","A5CIHEPULDFUF","3HUR21WDDUBEMSLDIXZW1FAIHW8YX3","","null","<img src=""img/flower2.png"" style=""width:200px;border:14px solid red;"">","null","","","","","","","","",""
"","image-keyboard-response","86","64402","0.0-86.0","3D3VGR7TA11VVD07BF5GBMO5FSPR38","A5CIHEPULDFUF","3HUR21WDDUBEMSLDIXZW1FAIHW8YX3","","564.0999999046326","img/flower6.png","74","565.7999999523163","1","1","1","1","1,0.333,0.333,0.333,1,0.333,0.333,0.333,1","1,0.333,0.333,0.333,1,0.333,0.333,0.333,1","1",""
"","html-keyboard-response","87","64706","0.0-87.0","3D3VGR7TA11VVD07BF5GBMO5FSPR38","A5CIHEPULDFUF","3HUR21WDDUBEMSLDIXZW1FAIHW8YX3","","null","<img src=""img/flower6.png"" style=""width:200px; border:14px solid green;"">","null","","","","","","","","",""
"","image-keyboard-response","88","65137","0.0-88.0","3D3VGR7TA11VVD07BF5GBMO5FSPR38","A5CIHEPULDFUF","3HUR21WDDUBEMSLDIXZW1FAIHW8YX3","","429.10000014305115","img/flower6.png","74","431.19999980926514","1","1","1","1","1,0.333,0.333,0.333,1,0.333,0.333,0.333,1","1,0.333,0.333,0.333,1,0.333,0.333,0.333,1","1",""
"","html-keyboard-response","89","65440","0.0-89.0","3D3VGR7TA11VVD07BF5GBMO5FSPR38","A5CIHEPULDFUF","3HUR21WDDUBEMSLDIXZW1FAIHW8YX3","","null","<img src=""img/flower6.png"" style=""width:200px; border:14px solid green;"">","null","","","","","","","","",""
"","image-keyboard-response","90","66059","0.0-90.0","3D3VGR7TA11VVD07BF5GBMO5FSPR38","A5CIHEPULDFUF","3HUR21WDDUBEMSLDIXZW1FAIHW8YX3","","616.7000000476837","img/flower3.png","75","618.6999998092651","2","1","2","1","1,0.333,0.333,0.333,1,0.333,0.333,0.333,1","1,0.333,0.333,0.333,1,0.333,0.333,0.333,1","1",""
"","html-keyboard-response","91","66361","0.0-91.0","3D3VGR7TA11VVD07BF5GBMO5FSPR38","A5CIHEPULDFUF","3HUR21WDDUBEMSLDIXZW1FAIHW8YX3","","null","<img src=""img/flower3.png"" style=""width:200px; border:14px solid green;"">","null","","","","","","","","",""
"","image-keyboard-response","92","67033","0.0-92.0","3D3VGR7TA11VVD07BF5GBMO5FSPR38","A5CIHEPULDFUF","3HUR21WDDUBEMSLDIXZW1FAIHW8YX3","","670.0999999046326","img/flower2.png","76","672.0999999046326","3","1","3","1","1,0.333,0.333,0.333,1,0.333,0.333,0.333,1","1,0.333,0.333,0.333,1,0.333,0.333,0.333,1","1",""
"","html-keyboard-response","93","67337","0.0-93.0","3D3VGR7TA11VVD07BF5GBMO5FSPR38","A5CIHEPULDFUF","3HUR21WDDUBEMSLDIXZW1FAIHW8YX3","","null","<img src=""img/flower2.png"" style=""width:200px; border:14px solid green;"">","null","","","","","","","","",""
"","image-keyboard-response","94","67682","0.0-94.0","3D3VGR7TA11VVD07BF5GBMO5FSPR38","A5CIHEPULDFUF","3HUR21WDDUBEMSLDIXZW1FAIHW8YX3","","343.09999990463257","img/flower2.png","76","345.09999990463257","3","1","3","1","1,0.333,0.333,0.333,1,0.333,0.333,0.333,1","1,0.333,0.333,0.333,1,0.333,0.333,0.333,1","1",""
"","html-keyboard-response","95","67985","0.0-95.0","3D3VGR7TA11VVD07BF5GBMO5FSPR38","A5CIHEPULDFUF","3HUR21WDDUBEMSLDIXZW1FAIHW8YX3","","null","<img src=""img/flower2.png"" style=""width:200px; border:14px solid green;"">","null","","","","","","","","",""
"","image-keyboard-response","96","68553","0.0-96.0","3D3VGR7TA11VVD07BF5GBMO5FSPR38","A5CIHEPULDFUF","3HUR21WDDUBEMSLDIXZW1FAIHW8YX3","","565.7999999523163","img/flower6.png","74","567.8000001907349","1","1","1","1","1,0.333,0.333,0.333,1,0.333,0.333,0.333,1","1,0.333,0.333,0.333,1,0.333,0.333,0.333,1","1",""
"","html-keyboard-response","97","68857","0.0-97.0","3D3VGR7TA11VVD07BF5GBMO5FSPR38","A5CIHEPULDFUF","3HUR21WDDUBEMSLDIXZW1FAIHW8YX3","","null","<img src=""img/flower6.png"" style=""width:200px; border:14px solid green;"">","null","","","","","","","","",""
"","image-keyboard-response","98","69382","0.0-98.0","3D3VGR7TA11VVD07BF5GBMO5FSPR38","A5CIHEPULDFUF","3HUR21WDDUBEMSLDIXZW1FAIHW8YX3","","523.4000000953674","img/flower2.png","76","525.1999998092651","3","1","3","1","1,0.333,0.333,0.333,1,0.333,0.333,0.333,1","1,0.333,0.333,0.333,1,0.333,0.333,0.333,1","1",""
"","html-keyboard-response","99","69686","0.0-99.0","3D3VGR7TA11VVD07BF5GBMO5FSPR38","A5CIHEPULDFUF","3HUR21WDDUBEMSLDIXZW1FAIHW8YX3","","null","<img src=""img/flower2.png"" style=""width:200px; border:14px solid green;"">","null","","","","","","","","",""
"","image-keyboard-response","100","70485","0.0-100.0","3D3VGR7TA11VVD07BF5GBMO5FSPR38","A5CIHEPULDFUF","3HUR21WDDUBEMSLDIXZW1FAIHW8YX3","","796.9000000953674","img/flower3.png","75","798.7000000476837","2","1","2","1","1,0.333,0.333,0.333,1,0.333,0.333,0.333,1","1,0.333,0.333,0.333,1,0.333,0.333,0.333,1","1",""
"","html-keyboard-response","101","70788","0.0-101.0","3D3VGR7TA11VVD07BF5GBMO5FSPR38","A5CIHEPULDFUF","3HUR21WDDUBEMSLDIXZW1FAIHW8YX3","","null","<img src=""img/flower3.png"" style=""width:200px; border:14px solid green;"">","null","","","","","","","","",""
"","image-keyboard-response","102","71131","0.0-102.0","3D3VGR7TA11VVD07BF5GBMO5FSPR38","A5CIHEPULDFUF","3HUR21WDDUBEMSLDIXZW1FAIHW8YX3","","340.69999980926514","img/flower3.png","75","342.90000009536743","2","1","2","1","1,0.333,0.333,0.333,1,0.333,0.333,0.333,1","1,0.333,0.333,0.333,1,0.333,0.333,0.333,1","1",""
"","html-keyboard-response","103","71434","0.0-103.0","3D3VGR7TA11VVD07BF5GBMO5FSPR38","A5CIHEPULDFUF","3HUR21WDDUBEMSLDIXZW1FAIHW8YX3","","null","<img src=""img/flower3.png"" style=""width:200px; border:14px solid green;"">","null","","","","","","","","",""
"","image-keyboard-response","104","71746","0.0-104.0","3D3VGR7TA11VVD07BF5GBMO5FSPR38","A5CIHEPULDFUF","3HUR21WDDUBEMSLDIXZW1FAIHW8YX3","","309.7999999523163","img/flower3.png","75","311.7000000476837","2","1","2","1","1,0.333,0.333,0.333,1,0.333,0.333,0.333,1","1,0.333,0.333,0.333,1,0.333,0.333,0.333,1","1",""
"","html-keyboard-response","105","72049","0.0-105.0","3D3VGR7TA11VVD07BF5GBMO5FSPR38","A5CIHEPULDFUF","3HUR21WDDUBEMSLDIXZW1FAIHW8YX3","","null","<img src=""img/flower3.png"" style=""width:200px; border:14px solid green;"">","null","","","","","","","","",""
"","image-keyboard-response","106","72633","0.0-106.0","3D3VGR7TA11VVD07BF5GBMO5FSPR38","A5CIHEPULDFUF","3HUR21WDDUBEMSLDIXZW1FAIHW8YX3","","576.7999999523163","img/flower6.png","74","582.2000000476837","1","1","1","1","1,0.333,0.333,0.333,1,0.333,0.333,0.333,1","1,0.333,0.333,0.333,1,0.333,0.333,0.333,1","1",""
"","html-keyboard-response","107","72935","0.0-107.0","3D3VGR7TA11VVD07BF5GBMO5FSPR38","A5CIHEPULDFUF","3HUR21WDDUBEMSLDIXZW1FAIHW8YX3","","null","<img src=""img/flower6.png"" style=""width:200px; border:14px solid green;"">","null","","","","","","","","",""
"","image-keyboard-response","108","73577","0.0-108.0","3D3VGR7TA11VVD07BF5GBMO5FSPR38","A5CIHEPULDFUF","3HUR21WDDUBEMSLDIXZW1FAIHW8YX3","","635.2999999523163","img/flower3.png","75","640.8000001907349","2","1","2","1","1,0.333,0.333,0.333,1,0.333,0.333,0.333,1","1,0.333,0.333,0.333,1,0.333,0.333,0.333,1","1",""
"","html-keyboard-response","109","73886","0.0-109.0","3D3VGR7TA11VVD07BF5GBMO5FSPR38","A5CIHEPULDFUF","3HUR21WDDUBEMSLDIXZW1FAIHW8YX3","","null","<img src=""img/flower3.png"" style=""width:200px; border:14px solid green;"">","null","","","","","","","","",""
"","image-keyboard-response","110","74622","0.0-110.0","3D3VGR7TA11VVD07BF5GBMO5FSPR38","A5CIHEPULDFUF","3HUR21WDDUBEMSLDIXZW1FAIHW8YX3","","733.1000001430511","img/flower2.png","76","735.8999998569489","3","1","3","1","1,0.333,0.333,0.333,1,0.333,0.333,0.333,1","1,0.333,0.333,0.333,1,0.333,0.333,0.333,1","1",""
"","html-keyboard-response","111","74927","0.0-111.0","3D3VGR7TA11VVD07BF5GBMO5FSPR38","A5CIHEPULDFUF","3HUR21WDDUBEMSLDIXZW1FAIHW8YX3","","null","<img src=""img/flower2.png"" style=""width:200px; border:14px solid green;"">","null","","","","","","","","",""
"","image-keyboard-response","112","75332","0.0-112.0","3D3VGR7TA11VVD07BF5GBMO5FSPR38","A5CIHEPULDFUF","3HUR21WDDUBEMSLDIXZW1FAIHW8YX3","","398.40000009536743","img/flower2.png","76","403.89999985694885","3","1","3","1","1,0.333,0.333,0.333,1,0.333,0.333,0.333,1","1,0.333,0.333,0.333,1,0.333,0.333,0.333,1","1",""
"","html-keyboard-response","113","75635","0.0-113.0","3D3VGR7TA11VVD07BF5GBMO5FSPR38","A5CIHEPULDFUF","3HUR21WDDUBEMSLDIXZW1FAIHW8YX3","","null","<img src=""img/flower2.png"" style=""width:200px; border:14px solid green;"">","null","","","","","","","","",""
"","image-keyboard-response","114","76063","0.0-114.0","3D3VGR7TA11VVD07BF5GBMO5FSPR38","A5CIHEPULDFUF","3HUR21WDDUBEMSLDIXZW1FAIHW8YX3","","426.2000000476837","img/flower2.png","76","428","3","1","3","1","1,0.333,0.333,0.333,1,0.333,0.333,0.333,1","1,0.333,0.333,0.333,1,0.333,0.333,0.333,1","1",""
"","html-keyboard-response","115","76366","0.0-115.0","3D3VGR7TA11VVD07BF5GBMO5FSPR38","A5CIHEPULDFUF","3HUR21WDDUBEMSLDIXZW1FAIHW8YX3","","null","<img src=""img/flower2.png"" style=""width:200px; border:14px solid green;"">","null","","","","","","","","",""
"","image-keyboard-response","116","76974","0.0-116.0","3D3VGR7TA11VVD07BF5GBMO5FSPR38","A5CIHEPULDFUF","3HUR21WDDUBEMSLDIXZW1FAIHW8YX3","","602.4000000953674","img/flower3.png","75","608","2","1","2","1","1,0.333,0.333,0.333,1,0.333,0.333,0.333,1","1,0.333,0.333,0.333,1,0.333,0.333,0.333,1","1",""
"","html-keyboard-response","117","77277","0.0-117.0","3D3VGR7TA11VVD07BF5GBMO5FSPR38","A5CIHEPULDFUF","3HUR21WDDUBEMSLDIXZW1FAIHW8YX3","","null","<img src=""img/flower3.png"" style=""width:200px; border:14px solid green;"">","null","","","","","","","","",""
"","image-keyboard-response","118","78525","0.0-118.0","3D3VGR7TA11VVD07BF5GBMO5FSPR38","A5CIHEPULDFUF","3HUR21WDDUBEMSLDIXZW1FAIHW8YX3","","1245.6000001430511","img/flower2.png","76","1247.3000001907349","3","1","3","1","1,0.333,0.333,0.333,1,0.333,0.333,0.333,1","1,0.333,0.333,0.333,1,0.333,0.333,0.333,1","1",""
"","html-keyboard-response","119","78828","0.0-119.0","3D3VGR7TA11VVD07BF5GBMO5FSPR38","A5CIHEPULDFUF","3HUR21WDDUBEMSLDIXZW1FAIHW8YX3","","null","<img src=""img/flower2.png"" style=""width:200px; border:14px solid green;"">","null","","","","","","","","",""
"","image-keyboard-response","120","79224","0.0-120.0","3D3VGR7TA11VVD07BF5GBMO5FSPR38","A5CIHEPULDFUF","3HUR21WDDUBEMSLDIXZW1FAIHW8YX3","","394","img/flower2.png","76","395.90000009536743","3","1","3","1","1,0.333,0.333,0.333,1,0.333,0.333,0.333,1","1,0.333,0.333,0.333,1,0.333,0.333,0.333,1","1",""
"","html-keyboard-response","121","79527","0.0-121.0","3D3VGR7TA11VVD07BF5GBMO5FSPR38","A5CIHEPULDFUF","3HUR21WDDUBEMSLDIXZW1FAIHW8YX3","","null","<img src=""img/flower2.png"" style=""width:200px; border:14px solid green;"">","null","","","","","","","","",""
"","image-keyboard-response","122","79829","0.0-122.0","3D3VGR7TA11VVD07BF5GBMO5FSPR38","A5CIHEPULDFUF","3HUR21WDDUBEMSLDIXZW1FAIHW8YX3","","300.09999990463257","img/flower2.png","76","302","3","1","3","1","1,0.333,0.333,0.333,1,0.333,0.333,0.333,1","1,0.333,0.333,0.333,1,0.333,0.333,0.333,1","1",""
"","html-keyboard-response","123","80133","0.0-123.0","3D3VGR7TA11VVD07BF5GBMO5FSPR38","A5CIHEPULDFUF","3HUR21WDDUBEMSLDIXZW1FAIHW8YX3","","null","<img src=""img/flower2.png"" style=""width:200px; border:14px solid green;"">","null","","","","","","","","",""
"","image-keyboard-response","124","80832","0.0-124.0","3D3VGR7TA11VVD07BF5GBMO5FSPR38","A5CIHEPULDFUF","3HUR21WDDUBEMSLDIXZW1FAIHW8YX3","","697.7999999523163","img/flower3.png","75","699.5","2","1","2","1","1,0.333,0.333,0.333,1,0.333,0.333,0.333,1","1,0.333,0.333,0.333,1,0.333,0.333,0.333,1","1",""
"","html-keyboard-response","125","81141","0.0-125.0","3D3VGR7TA11VVD07BF5GBMO5FSPR38","A5CIHEPULDFUF","3HUR21WDDUBEMSLDIXZW1FAIHW8YX3","","null","<img src=""img/flower3.png"" style=""width:200px; border:14px solid green;"">","null","","","","","","","","",""
"","image-keyboard-response","126","81792","0.0-126.0","3D3VGR7TA11VVD07BF5GBMO5FSPR38","A5CIHEPULDFUF","3HUR21WDDUBEMSLDIXZW1FAIHW8YX3","","648.7999999523163","img/flower2.png","76","650.5","3","1","3","1","1,0.333,0.333,0.333,1,0.333,0.333,0.333,1","1,0.333,0.333,0.333,1,0.333,0.333,0.333,1","1",""
"","html-keyboard-response","127","82094","0.0-127.0","3D3VGR7TA11VVD07BF5GBMO5FSPR38","A5CIHEPULDFUF","3HUR21WDDUBEMSLDIXZW1FAIHW8YX3","","null","<img src=""img/flower2.png"" style=""width:200px; border:14px solid green;"">","null","","","","","","","","",""
"","image-keyboard-response","128","82468","0.0-128.0","3D3VGR7TA11VVD07BF5GBMO5FSPR38","A5CIHEPULDFUF","3HUR21WDDUBEMSLDIXZW1FAIHW8YX3","","372.5","img/flower2.png","76","374.2999999523163","3","1","3","1","1,0.333,0.333,0.333,1,0.333,0.333,0.333,1","1,0.333,0.333,0.333,1,0.333,0.333,0.333,1","1",""
"","html-keyboard-response","129","82770","0.0-129.0","3D3VGR7TA11VVD07BF5GBMO5FSPR38","A5CIHEPULDFUF","3HUR21WDDUBEMSLDIXZW1FAIHW8YX3","","null","<img src=""img/flower2.png"" style=""width:200px; border:14px solid green;"">","null","","","","","","","","",""
"","image-keyboard-response","130","83053","0.0-130.0","3D3VGR7TA11VVD07BF5GBMO5FSPR38","A5CIHEPULDFUF","3HUR21WDDUBEMSLDIXZW1FAIHW8YX3","","280.2999999523163","img/flower2.png","76","282.2999999523163","3","1","3","1","1,0.333,0.333,0.333,1,0.333,0.333,0.333,1","1,0.333,0.333,0.333,1,0.333,0.333,0.333,1","1",""
"","html-keyboard-response","131","83356","0.0-131.0","3D3VGR7TA11VVD07BF5GBMO5FSPR38","A5CIHEPULDFUF","3HUR21WDDUBEMSLDIXZW1FAIHW8YX3","","null","<img src=""img/flower2.png"" style=""width:200px; border:14px solid green;"">","null","","","","","","","","",""
"","image-keyboard-response","132","83971","0.0-132.0","3D3VGR7TA11VVD07BF5GBMO5FSPR38","A5CIHEPULDFUF","3HUR21WDDUBEMSLDIXZW1FAIHW8YX3","","613.0999999046326","img/flower6.png","74","614.9000000953674","1","1","1","1","1,0.333,0.333,0.333,1,0.333,0.333,0.333,1","1,0.333,0.333,0.333,1,0.333,0.333,0.333,1","1",""
"","html-keyboard-response","133","84280","0.0-133.0","3D3VGR7TA11VVD07BF5GBMO5FSPR38","A5CIHEPULDFUF","3HUR21WDDUBEMSLDIXZW1FAIHW8YX3","","null","<img src=""img/flower6.png"" style=""width:200px; border:14px solid green;"">","null","","","","","","","","",""
"","image-keyboard-response","134","85082","0.0-134.0","3D3VGR7TA11VVD07BF5GBMO5FSPR38","A5CIHEPULDFUF","3HUR21WDDUBEMSLDIXZW1FAIHW8YX3","","795.1999998092651","img/flower2.png","76","801.6999998092651","3","1","3","1","1,0.333,0.333,0.333,1,0.333,0.333,0.333,1","1,0.333,0.333,0.333,1,0.333,0.333,0.333,1","1",""
"","html-keyboard-response","135","85390","0.0-135.0","3D3VGR7TA11VVD07BF5GBMO5FSPR38","A5CIHEPULDFUF","3HUR21WDDUBEMSLDIXZW1FAIHW8YX3","","null","<img src=""img/flower2.png"" style=""width:200px; border:14px solid green;"">","null","","","","","","","","",""
"","image-keyboard-response","136","86008","0.0-136.0","3D3VGR7TA11VVD07BF5GBMO5FSPR38","A5CIHEPULDFUF","3HUR21WDDUBEMSLDIXZW1FAIHW8YX3","","613.2000000476837","img/flower3.png","75","618.2000000476837","2","1","2","1","1,0.333,0.333,0.333,1,0.333,0.333,0.333,1","1,0.333,0.333,0.333,1,0.333,0.333,0.333,1","1",""
"","html-keyboard-response","137","86317","0.0-137.0","3D3VGR7TA11VVD07BF5GBMO5FSPR38","A5CIHEPULDFUF","3HUR21WDDUBEMSLDIXZW1FAIHW8YX3","","null","<img src=""img/flower3.png"" style=""width:200px; border:14px solid green;"">","null","","","","","","","","",""
"","image-keyboard-response","138","86767","0.0-138.0","3D3VGR7TA11VVD07BF5GBMO5FSPR38","A5CIHEPULDFUF","3HUR21WDDUBEMSLDIXZW1FAIHW8YX3","","448.09999990463257","img/flower3.png","75","449.7000000476837","2","1","2","1","1,0.333,0.333,0.333,1,0.333,0.333,0.333,1","1,0.333,0.333,0.333,1,0.333,0.333,0.333,1","1",""
"","html-keyboard-response","139","87069","0.0-139.0","3D3VGR7TA11VVD07BF5GBMO5FSPR38","A5CIHEPULDFUF","3HUR21WDDUBEMSLDIXZW1FAIHW8YX3","","null","<img src=""img/flower3.png"" style=""width:200px; border:14px solid green;"">","null","","","","","","","","",""
"","image-keyboard-response","140","87765","0.0-140.0","3D3VGR7TA11VVD07BF5GBMO5FSPR38","A5CIHEPULDFUF","3HUR21WDDUBEMSLDIXZW1FAIHW8YX3","","693","img/flower6.png","74","695","1","1","1","1","1,0.333,0.333,0.333,1,0.333,0.333,0.333,1","1,0.333,0.333,0.333,1,0.333,0.333,0.333,1","1",""
"","html-keyboard-response","141","88067","0.0-141.0","3D3VGR7TA11VVD07BF5GBMO5FSPR38","A5CIHEPULDFUF","3HUR21WDDUBEMSLDIXZW1FAIHW8YX3","","null","<img src=""img/flower6.png"" style=""width:200px; border:14px solid green;"">","null","","","","","","","","",""
"","image-keyboard-response","142","88452","0.0-142.0","3D3VGR7TA11VVD07BF5GBMO5FSPR38","A5CIHEPULDFUF","3HUR21WDDUBEMSLDIXZW1FAIHW8YX3","","383.7000000476837","img/flower6.png","74","385.7000000476837","1","1","1","1","1,0.333,0.333,0.333,1,0.333,0.333,0.333,1","1,0.333,0.333,0.333,1,0.333,0.333,0.333,1","1",""
"","html-keyboard-response","143","88755","0.0-143.0","3D3VGR7TA11VVD07BF5GBMO5FSPR38","A5CIHEPULDFUF","3HUR21WDDUBEMSLDIXZW1FAIHW8YX3","","null","<img src=""img/flower6.png"" style=""width:200px; border:14px solid green;"">","null","","","","","","","","",""
"","image-keyboard-response","144","89350","0.0-144.0","3D3VGR7TA11VVD07BF5GBMO5FSPR38","A5CIHEPULDFUF","3HUR21WDDUBEMSLDIXZW1FAIHW8YX3","","593.6000001430511","img/flower3.png","75","595.5","2","1","2","1","1,0.333,0.333,0.333,1,0.333,0.333,0.333,1","1,0.333,0.333,0.333,1,0.333,0.333,0.333,1","1",""
"","html-keyboard-response","145","89666","0.0-145.0","3D3VGR7TA11VVD07BF5GBMO5FSPR38","A5CIHEPULDFUF","3HUR21WDDUBEMSLDIXZW1FAIHW8YX3","","null","<img src=""img/flower3.png"" style=""width:200px; border:14px solid green;"">","null","","","","","","","","",""
"","image-keyboard-response","146","90170","0.0-146.0","3D3VGR7TA11VVD07BF5GBMO5FSPR38","A5CIHEPULDFUF","3HUR21WDDUBEMSLDIXZW1FAIHW8YX3","","501.7999999523163","img/flower6.png","74","503.69999980926514","1","1","1","1","1,0.333,0.333,0.333,1,0.333,0.333,0.333,1","1,0.333,0.333,0.333,1,0.333,0.333,0.333,1","1",""
"","html-keyboard-response","147","90472","0.0-147.0","3D3VGR7TA11VVD07BF5GBMO5FSPR38","A5CIHEPULDFUF","3HUR21WDDUBEMSLDIXZW1FAIHW8YX3","","null","<img src=""img/flower6.png"" style=""width:200px; border:14px solid green;"">","null","","","","","","","","",""
"","image-keyboard-response","148","91007","0.0-148.0","3D3VGR7TA11VVD07BF5GBMO5FSPR38","A5CIHEPULDFUF","3HUR21WDDUBEMSLDIXZW1FAIHW8YX3","","533.4000000953674","img/flower3.png","75","534.9000000953674","2","1","2","1","1,0.333,0.333,0.333,1,0.333,0.333,0.333,1","1,0.333,0.333,0.333,1,0.333,0.333,0.333,1","1",""
"","html-keyboard-response","149","91310","0.0-149.0","3D3VGR7TA11VVD07BF5GBMO5FSPR38","A5CIHEPULDFUF","3HUR21WDDUBEMSLDIXZW1FAIHW8YX3","","null","<img src=""img/flower3.png"" style=""width:200px; border:14px solid green;"">","null","","","","","","","","",""
"","image-keyboard-response","150","91801","0.0-150.0","3D3VGR7TA11VVD07BF5GBMO5FSPR38","A5CIHEPULDFUF","3HUR21WDDUBEMSLDIXZW1FAIHW8YX3","","488.2000000476837","img/flower6.png","74","490.2999999523163","1","1","1","1","1,0.333,0.333,0.333,1,0.333,0.333,0.333,1","1,0.333,0.333,0.333,1,0.333,0.333,0.333,1","1",""
"","html-keyboard-response","151","92103","0.0-151.0","3D3VGR7TA11VVD07BF5GBMO5FSPR38","A5CIHEPULDFUF","3HUR21WDDUBEMSLDIXZW1FAIHW8YX3","","null","<img src=""img/flower6.png"" style=""width:200px; border:14px solid green;"">","null","","","","","","","","",""
"","image-keyboard-response","152","92677","0.0-152.0","3D3VGR7TA11VVD07BF5GBMO5FSPR38","A5CIHEPULDFUF","3HUR21WDDUBEMSLDIXZW1FAIHW8YX3","","571.5","img/flower3.png","75","573.5","2","1","2","1","1,0.333,0.333,0.333,1,0.333,0.333,0.333,1","1,0.333,0.333,0.333,1,0.333,0.333,0.333,1","1",""
"","html-keyboard-response","153","92989","0.0-153.0","3D3VGR7TA11VVD07BF5GBMO5FSPR38","A5CIHEPULDFUF","3HUR21WDDUBEMSLDIXZW1FAIHW8YX3","","null","<img src=""img/flower3.png"" style=""width:200px; border:14px solid green;"">","null","","","","","","","","",""
"","image-keyboard-response","154","93514","0.0-154.0","3D3VGR7TA11VVD07BF5GBMO5FSPR38","A5CIHEPULDFUF","3HUR21WDDUBEMSLDIXZW1FAIHW8YX3","","522.4000000953674","img/flower2.png","76","524.9000000953674","3","1","3","1","1,0.333,0.333,0.333,1,0.333,0.333,0.333,1","1,0.333,0.333,0.333,1,0.333,0.333,0.333,1","1",""
"","html-keyboard-response","155","93817","0.0-155.0","3D3VGR7TA11VVD07BF5GBMO5FSPR38","A5CIHEPULDFUF","3HUR21WDDUBEMSLDIXZW1FAIHW8YX3","","null","<img src=""img/flower2.png"" style=""width:200px; border:14px solid green;"">","null","","","","","","","","",""
"","image-keyboard-response","156","94213","0.0-156.0","3D3VGR7TA11VVD07BF5GBMO5FSPR38","A5CIHEPULDFUF","3HUR21WDDUBEMSLDIXZW1FAIHW8YX3","","393.59999990463257","img/flower2.png","76","395.39999985694885","3","1","3","1","1,0.333,0.333,0.333,1,0.333,0.333,0.333,1","1,0.333,0.333,0.333,1,0.333,0.333,0.333,1","1",""
"","html-keyboard-response","157","94515","0.0-157.0","3D3VGR7TA11VVD07BF5GBMO5FSPR38","A5CIHEPULDFUF","3HUR21WDDUBEMSLDIXZW1FAIHW8YX3","","null","<img src=""img/flower2.png"" style=""width:200px; border:14px solid green;"">","null","","","","","","","","",""
"","image-keyboard-response","158","94731","0.0-158.0","3D3VGR7TA11VVD07BF5GBMO5FSPR38","A5CIHEPULDFUF","3HUR21WDDUBEMSLDIXZW1FAIHW8YX3","","214.10000014305115","img/flower2.png","76","216.09999990463257","3","1","3","1","1,0.333,0.333,0.333,1,0.333,0.333,0.333,1","1,0.333,0.333,0.333,1,0.333,0.333,0.333,1","1",""
"","html-keyboard-response","159","95035","0.0-159.0","3D3VGR7TA11VVD07BF5GBMO5FSPR38","A5CIHEPULDFUF","3HUR21WDDUBEMSLDIXZW1FAIHW8YX3","","null","<img src=""img/flower2.png"" style=""width:200px; border:14px solid green;"">","null","","","","","","","","",""
"","image-keyboard-response","160","95595","0.0-160.0","3D3VGR7TA11VVD07BF5GBMO5FSPR38","A5CIHEPULDFUF","3HUR21WDDUBEMSLDIXZW1FAIHW8YX3","","558","img/flower3.png","75","560.2000000476837","2","1","2","1","1,0.333,0.333,0.333,1,0.333,0.333,0.333,1","1,0.333,0.333,0.333,1,0.333,0.333,0.333,1","1",""
"","html-keyboard-response","161","95899","0.0-161.0","3D3VGR7TA11VVD07BF5GBMO5FSPR38","A5CIHEPULDFUF","3HUR21WDDUBEMSLDIXZW1FAIHW8YX3","","null","<img src=""img/flower3.png"" style=""width:200px; border:14px solid green;"">","null","","","","","","","","",""
"","image-keyboard-response","162","96379","0.0-162.0","3D3VGR7TA11VVD07BF5GBMO5FSPR38","A5CIHEPULDFUF","3HUR21WDDUBEMSLDIXZW1FAIHW8YX3","","477","img/flower6.png","74","478.90000009536743","1","1","1","1","1,0.333,0.333,0.333,1,0.333,0.333,0.333,1","1,0.333,0.333,0.333,1,0.333,0.333,0.333,1","1",""
"","html-keyboard-response","163","96681","0.0-163.0","3D3VGR7TA11VVD07BF5GBMO5FSPR38","A5CIHEPULDFUF","3HUR21WDDUBEMSLDIXZW1FAIHW8YX3","","null","<img src=""img/flower6.png"" style=""width:200px; border:14px solid green;"">","null","","","","","","","","",""
"","image-keyboard-response","164","97027","0.0-164.0","3D3VGR7TA11VVD07BF5GBMO5FSPR38","A5CIHEPULDFUF","3HUR21WDDUBEMSLDIXZW1FAIHW8YX3","","342.5","img/flower6.png","74","345.90000009536743","1","1","1","1","1,0.333,0.333,0.333,1,0.333,0.333,0.333,1","1,0.333,0.333,0.333,1,0.333,0.333,0.333,1","1",""
"","html-keyboard-response","165","97334","0.0-165.0","3D3VGR7TA11VVD07BF5GBMO5FSPR38","A5CIHEPULDFUF","3HUR21WDDUBEMSLDIXZW1FAIHW8YX3","","null","<img src=""img/flower6.png"" style=""width:200px; border:14px solid green;"">","null","","","","","","","","",""
"","image-keyboard-response","166","98168","0.0-166.0","3D3VGR7TA11VVD07BF5GBMO5FSPR38","A5CIHEPULDFUF","3HUR21WDDUBEMSLDIXZW1FAIHW8YX3","","831.9000000953674","img/flower3.png","75","833.7000000476837","2","1","2","1","1,0.333,0.333,0.333,1,0.333,0.333,0.333,1","1,0.333,0.333,0.333,1,0.333,0.333,0.333,1","1",""
"","html-keyboard-response","167","98470","0.0-167.0","3D3VGR7TA11VVD07BF5GBMO5FSPR38","A5CIHEPULDFUF","3HUR21WDDUBEMSLDIXZW1FAIHW8YX3","","null","<img src=""img/flower3.png"" style=""width:200px; border:14px solid green;"">","null","","","","","","","","",""
"","image-keyboard-response","168","99095","0.0-168.0","3D3VGR7TA11VVD07BF5GBMO5FSPR38","A5CIHEPULDFUF","3HUR21WDDUBEMSLDIXZW1FAIHW8YX3","","622.8999998569489","img/flower2.png","76","624.7999999523163","3","1","3","1","1,0.333,0.333,0.333,1,0.333,0.333,0.333,1","1,0.333,0.333,0.333,1,0.333,0.333,0.333,1","1",""
"","html-keyboard-response","169","99399","0.0-169.0","3D3VGR7TA11VVD07BF5GBMO5FSPR38","A5CIHEPULDFUF","3HUR21WDDUBEMSLDIXZW1FAIHW8YX3","","null","<img src=""img/flower2.png"" style=""width:200px; border:14px solid green;"">","null","","","","","","","","",""
"","image-keyboard-response","170","100017","0.0-170.0","3D3VGR7TA11VVD07BF5GBMO5FSPR38","A5CIHEPULDFUF","3HUR21WDDUBEMSLDIXZW1FAIHW8YX3","","616.2999999523163","img/flower3.png","75","618.1999998092651","2","1","2","1","1,0.333,0.333,0.333,1,0.333,0.333,0.333,1","1,0.333,0.333,0.333,1,0.333,0.333,0.333,1","1",""
"","html-keyboard-response","171","100319","0.0-171.0","3D3VGR7TA11VVD07BF5GBMO5FSPR38","A5CIHEPULDFUF","3HUR21WDDUBEMSLDIXZW1FAIHW8YX3","","null","<img src=""img/flower3.png"" style=""width:200px; border:14px solid green;"">","null","","","","","","","","",""
"","image-keyboard-response","172","101028","0.0-172.0","3D3VGR7TA11VVD07BF5GBMO5FSPR38","A5CIHEPULDFUF","3HUR21WDDUBEMSLDIXZW1FAIHW8YX3","","706.5999999046326","img/flower2.png","76","708.5","3","1","3","1","1,0.333,0.333,0.333,1,0.333,0.333,0.333,1","1,0.333,0.333,0.333,1,0.333,0.333,0.333,1","1",""
"","html-keyboard-response","173","101337","0.0-173.0","3D3VGR7TA11VVD07BF5GBMO5FSPR38","A5CIHEPULDFUF","3HUR21WDDUBEMSLDIXZW1FAIHW8YX3","","null","<img src=""img/flower2.png"" style=""width:200px; border:14px solid green;"">","null","","","","","","","","",""
"","image-keyboard-response","174","101999","0.0-174.0","3D3VGR7TA11VVD07BF5GBMO5FSPR38","A5CIHEPULDFUF","3HUR21WDDUBEMSLDIXZW1FAIHW8YX3","","660.4000000953674","img/flower6.png","74","662.2000000476837","1","1","1","1","1,0.333,0.333,0.333,1,0.333,0.333,0.333,1","1,0.333,0.333,0.333,1,0.333,0.333,0.333,1","1",""
"","html-keyboard-response","175","102301","0.0-175.0","3D3VGR7TA11VVD07BF5GBMO5FSPR38","A5CIHEPULDFUF","3HUR21WDDUBEMSLDIXZW1FAIHW8YX3","","null","<img src=""img/flower6.png"" style=""width:200px; border:14px solid green;"">","null","","","","","","","","",""
"","image-keyboard-response","176","102853","0.0-176.0","3D3VGR7TA11VVD07BF5GBMO5FSPR38","A5CIHEPULDFUF","3HUR21WDDUBEMSLDIXZW1FAIHW8YX3","","549.5999999046326","img/flower3.png","75","551.3999998569489","2","1","2","1","1,0.333,0.333,0.333,1,0.333,0.333,0.333,1","1,0.333,0.333,0.333,1,0.333,0.333,0.333,1","1",""
"","html-keyboard-response","177","103157","0.0-177.0","3D3VGR7TA11VVD07BF5GBMO5FSPR38","A5CIHEPULDFUF","3HUR21WDDUBEMSLDIXZW1FAIHW8YX3","","null","<img src=""img/flower3.png"" style=""width:200px; border:14px solid green;"">","null","","","","","","","","",""
"","image-keyboard-response","178","103914","0.0-178.0","3D3VGR7TA11VVD07BF5GBMO5FSPR38","A5CIHEPULDFUF","3HUR21WDDUBEMSLDIXZW1FAIHW8YX3","","755.4000000953674","img/flower2.png","76","757.5","3","1","3","1","1,0.333,0.333,0.333,1,0.333,0.333,0.333,1","1,0.333,0.333,0.333,1,0.333,0.333,0.333,1","1",""
"","html-keyboard-response","179","104218","0.0-179.0","3D3VGR7TA11VVD07BF5GBMO5FSPR38","A5CIHEPULDFUF","3HUR21WDDUBEMSLDIXZW1FAIHW8YX3","","null","<img src=""img/flower2.png"" style=""width:200px; border:14px solid green;"">","null","","","","","","","","",""
"","image-keyboard-response","180","104741","0.0-180.0","3D3VGR7TA11VVD07BF5GBMO5FSPR38","A5CIHEPULDFUF","3HUR21WDDUBEMSLDIXZW1FAIHW8YX3","","521.5","img/flower6.png","74","523","1","1","1","1","1,0.333,0.333,0.333,1,0.333,0.333,0.333,1","1,0.333,0.333,0.333,1,0.333,0.333,0.333,1","1",""
"","html-keyboard-response","181","105045","0.0-181.0","3D3VGR7TA11VVD07BF5GBMO5FSPR38","A5CIHEPULDFUF","3HUR21WDDUBEMSLDIXZW1FAIHW8YX3","","null","<img src=""img/flower6.png"" style=""width:200px; border:14px solid green;"">","null","","","","","","","","",""
"","html-keyboard-response","182","108595","0.0-182.0","3D3VGR7TA11VVD07BF5GBMO5FSPR38","A5CIHEPULDFUF","3HUR21WDDUBEMSLDIXZW1FAIHW8YX3","","","","","","","","","","","","",""
"","image-keyboard-response","183","109740","0.0-183.0","3D3VGR7TA11VVD07BF5GBMO5FSPR38","A5CIHEPULDFUF","3HUR21WDDUBEMSLDIXZW1FAIHW8YX3","","1142.2999999523163","img/flower1.png","75","1144.5999999046326","2","0","1","2","1,0,0,1,1,0,1,0,1","1,0,0,1,1,0,1,0,1","1",""
"","html-keyboard-response","184","110046","0.0-184.0","3D3VGR7TA11VVD07BF5GBMO5FSPR38","A5CIHEPULDFUF","3HUR21WDDUBEMSLDIXZW1FAIHW8YX3","","null","<img src=""img/flower1.png"" style=""width:200px;border:14px solid red;"">","null","","","","","","","","",""
"","image-keyboard-response","185","110478","0.0-185.0","3D3VGR7TA11VVD07BF5GBMO5FSPR38","A5CIHEPULDFUF","3HUR21WDDUBEMSLDIXZW1FAIHW8YX3","","424.7000000476837","img/flower1.png","74","430.2000000476837","1","1","1","2","1,0,0,1,1,0,1,0,1","1,0,0,1,1,0,1,0,1","1",""
"","html-keyboard-response","186","110782","0.0-186.0","3D3VGR7TA11VVD07BF5GBMO5FSPR38","A5CIHEPULDFUF","3HUR21WDDUBEMSLDIXZW1FAIHW8YX3","","null","<img src=""img/flower1.png"" style=""width:200px; border:14px solid green;"">","null","","","","","","","","",""
"","image-keyboard-response","187","111306","0.0-187.0","3D3VGR7TA11VVD07BF5GBMO5FSPR38","A5CIHEPULDFUF","3HUR21WDDUBEMSLDIXZW1FAIHW8YX3","","521.7999999523163","img/flower1.png","74","523.3999998569489","1","1","1","2","1,0,0,1,1,0,1,0,1","1,0,0,1,1,0,1,0,1","1",""
"","html-keyboard-response","188","111608","0.0-188.0","3D3VGR7TA11VVD07BF5GBMO5FSPR38","A5CIHEPULDFUF","3HUR21WDDUBEMSLDIXZW1FAIHW8YX3","","null","<img src=""img/flower1.png"" style=""width:200px; border:14px solid green;"">","null","","","","","","","","",""
"","image-keyboard-response","189","111996","0.0-189.0","3D3VGR7TA11VVD07BF5GBMO5FSPR38","A5CIHEPULDFUF","3HUR21WDDUBEMSLDIXZW1FAIHW8YX3","","386","img/flower1.png","74","388.2000000476837","1","1","1","2","1,0,0,1,1,0,1,0,1","1,0,0,1,1,0,1,0,1","1",""
"","html-keyboard-response","190","112300","0.0-190.0","3D3VGR7TA11VVD07BF5GBMO5FSPR38","A5CIHEPULDFUF","3HUR21WDDUBEMSLDIXZW1FAIHW8YX3","","null","<img src=""img/flower1.png"" style=""width:200px; border:14px solid green;"">","null","","","","","","","","",""
"","image-keyboard-response","191","113320","0.0-191.0","3D3VGR7TA11VVD07BF5GBMO5FSPR38","A5CIHEPULDFUF","3HUR21WDDUBEMSLDIXZW1FAIHW8YX3","","1016.3999998569489","img/flower4.png","75","1020.2000000476837","2","1","2","2","1,0,0,1,1,0,1,0,1","1,0,0,1,1,0,1,0,1","1",""
"","html-keyboard-response","192","113627","0.0-192.0","3D3VGR7TA11VVD07BF5GBMO5FSPR38","A5CIHEPULDFUF","3HUR21WDDUBEMSLDIXZW1FAIHW8YX3","","null","<img src=""img/flower4.png"" style=""width:200px; border:14px solid green;"">","null","","","","","","","","",""
"","image-keyboard-response","193","114458","0.0-193.0","3D3VGR7TA11VVD07BF5GBMO5FSPR38","A5CIHEPULDFUF","3HUR21WDDUBEMSLDIXZW1FAIHW8YX3","","828.8000001907349","img/flower5.png","76","830.6000001430511","3","1","3","2","1,0,0,1,1,0,1,0,1","1,0,0,1,1,0,1,0,1","1",""
"","html-keyboard-response","194","114761","0.0-194.0","3D3VGR7TA11VVD07BF5GBMO5FSPR38","A5CIHEPULDFUF","3HUR21WDDUBEMSLDIXZW1FAIHW8YX3","","null","<img src=""img/flower5.png"" style=""width:200px; border:14px solid green;"">","null","","","","","","","","",""
"","image-keyboard-response","195","115522","0.0-195.0","3D3VGR7TA11VVD07BF5GBMO5FSPR38","A5CIHEPULDFUF","3HUR21WDDUBEMSLDIXZW1FAIHW8YX3","","751.0999999046326","img/flower4.png","75","757.6000001430511","2","1","2","2","1,0,0,1,1,0,1,0,1","1,0,0,1,1,0,1,0,1","1",""
"","html-keyboard-response","196","115826","0.0-196.0","3D3VGR7TA11VVD07BF5GBMO5FSPR38","A5CIHEPULDFUF","3HUR21WDDUBEMSLDIXZW1FAIHW8YX3","","null","<img src=""img/flower4.png"" style=""width:200px; border:14px solid green;"">","null","","","","","","","","",""
"","image-keyboard-response","197","116189","0.0-197.0","3D3VGR7TA11VVD07BF5GBMO5FSPR38","A5CIHEPULDFUF","3HUR21WDDUBEMSLDIXZW1FAIHW8YX3","","361.10000014305115","img/flower4.png","75","363.09999990463257","2","1","2","2","1,0,0,1,1,0,1,0,1","1,0,0,1,1,0,1,0,1","1",""
"","html-keyboard-response","198","116491","0.0-198.0","3D3VGR7TA11VVD07BF5GBMO5FSPR38","A5CIHEPULDFUF","3HUR21WDDUBEMSLDIXZW1FAIHW8YX3","","null","<img src=""img/flower4.png"" style=""width:200px; border:14px solid green;"">","null","","","","","","","","",""
"","image-keyboard-response","199","116778","0.0-199.0","3D3VGR7TA11VVD07BF5GBMO5FSPR38","A5CIHEPULDFUF","3HUR21WDDUBEMSLDIXZW1FAIHW8YX3","","284","img/flower4.png","75","285.7999999523163","2","1","2","2","1,0,0,1,1,0,1,0,1","1,0,0,1,1,0,1,0,1","1",""
"","html-keyboard-response","200","117080","0.0-200.0","3D3VGR7TA11VVD07BF5GBMO5FSPR38","A5CIHEPULDFUF","3HUR21WDDUBEMSLDIXZW1FAIHW8YX3","","null","<img src=""img/flower4.png"" style=""width:200px; border:14px solid green;"">","null","","","","","","","","",""
"","image-keyboard-response","201","117909","0.0-201.0","3D3VGR7TA11VVD07BF5GBMO5FSPR38","A5CIHEPULDFUF","3HUR21WDDUBEMSLDIXZW1FAIHW8YX3","","826.2000000476837","img/flower1.png","74","829.2999999523163","1","1","1","2","1,0,0,1,1,0,1,0,1","1,0,0,1,1,0,1,0,1","1",""
"","html-keyboard-response","202","118227","0.0-202.0","3D3VGR7TA11VVD07BF5GBMO5FSPR38","A5CIHEPULDFUF","3HUR21WDDUBEMSLDIXZW1FAIHW8YX3","","null","<img src=""img/flower1.png"" style=""width:200px; border:14px solid green;"">","null","","","","","","","","",""
"","image-keyboard-response","203","118949","0.0-203.0","3D3VGR7TA11VVD07BF5GBMO5FSPR38","A5CIHEPULDFUF","3HUR21WDDUBEMSLDIXZW1FAIHW8YX3","","720.1000001430511","img/flower5.png","76","722","3","1","3","2","1,0,0,1,1,0,1,0,1","1,0,0,1,1,0,1,0,1","1",""
"","html-keyboard-response","204","119252","0.0-204.0","3D3VGR7TA11VVD07BF5GBMO5FSPR38","A5CIHEPULDFUF","3HUR21WDDUBEMSLDIXZW1FAIHW8YX3","","null","<img src=""img/flower5.png"" style=""width:200px; border:14px solid green;"">","null","","","","","","","","",""
"","image-keyboard-response","205","119955","0.0-205.0","3D3VGR7TA11VVD07BF5GBMO5FSPR38","A5CIHEPULDFUF","3HUR21WDDUBEMSLDIXZW1FAIHW8YX3","","697.2000000476837","img/flower1.png","74","702.3999998569489","1","1","1","2","1,0,0,1,1,0,1,0,1","1,0,0,1,1,0,1,0,1","1",""
"","html-keyboard-response","206","120258","0.0-206.0","3D3VGR7TA11VVD07BF5GBMO5FSPR38","A5CIHEPULDFUF","3HUR21WDDUBEMSLDIXZW1FAIHW8YX3","","null","<img src=""img/flower1.png"" style=""width:200px; border:14px solid green;"">","null","","","","","","","","",""
"","image-keyboard-response","207","120784","0.0-207.0","3D3VGR7TA11VVD07BF5GBMO5FSPR38","A5CIHEPULDFUF","3HUR21WDDUBEMSLDIXZW1FAIHW8YX3","","518.7000000476837","img/flower4.png","75","524.2999999523163","2","1","2","2","1,0,0,1,1,0,1,0,1","1,0,0,1,1,0,1,0,1","1",""
"","html-keyboard-response","208","121087","0.0-208.0","3D3VGR7TA11VVD07BF5GBMO5FSPR38","A5CIHEPULDFUF","3HUR21WDDUBEMSLDIXZW1FAIHW8YX3","","null","<img src=""img/flower4.png"" style=""width:200px; border:14px solid green;"">","null","","","","","","","","",""
"","image-keyboard-response","209","121534","0.0-209.0","3D3VGR7TA11VVD07BF5GBMO5FSPR38","A5CIHEPULDFUF","3HUR21WDDUBEMSLDIXZW1FAIHW8YX3","","444.19999980926514","img/flower4.png","75","446.2999999523163","2","1","2","2","1,0,0,1,1,0,1,0,1","1,0,0,1,1,0,1,0,1","1",""
"","html-keyboard-response","210","121837","0.0-210.0","3D3VGR7TA11VVD07BF5GBMO5FSPR38","A5CIHEPULDFUF","3HUR21WDDUBEMSLDIXZW1FAIHW8YX3","","null","<img src=""img/flower4.png"" style=""width:200px; border:14px solid green;"">","null","","","","","","","","",""
"","image-keyboard-response","211","122601","0.0-211.0","3D3VGR7TA11VVD07BF5GBMO5FSPR38","A5CIHEPULDFUF","3HUR21WDDUBEMSLDIXZW1FAIHW8YX3","","761.7000000476837","img/flower5.png","76","763.2000000476837","3","1","3","2","1,0,0,1,1,0,1,0,1","1,0,0,1,1,0,1,0,1","1",""
"","html-keyboard-response","212","122903","0.0-212.0","3D3VGR7TA11VVD07BF5GBMO5FSPR38","A5CIHEPULDFUF","3HUR21WDDUBEMSLDIXZW1FAIHW8YX3","","null","<img src=""img/flower5.png"" style=""width:200px; border:14px solid green;"">","null","","","","","","","","",""
"","image-keyboard-response","213","123257","0.0-213.0","3D3VGR7TA11VVD07BF5GBMO5FSPR38","A5CIHEPULDFUF","3HUR21WDDUBEMSLDIXZW1FAIHW8YX3","","351.60000014305115","img/flower5.png","76","353.5","3","1","3","2","1,0,0,1,1,0,1,0,1","1,0,0,1,1,0,1,0,1","1",""
"","html-keyboard-response","214","123560","0.0-214.0","3D3VGR7TA11VVD07BF5GBMO5FSPR38","A5CIHEPULDFUF","3HUR21WDDUBEMSLDIXZW1FAIHW8YX3","","null","<img src=""img/flower5.png"" style=""width:200px; border:14px solid green;"">","null","","","","","","","","",""
"","image-keyboard-response","215","123877","0.0-215.0","3D3VGR7TA11VVD07BF5GBMO5FSPR38","A5CIHEPULDFUF","3HUR21WDDUBEMSLDIXZW1FAIHW8YX3","","315.2999999523163","img/flower5.png","76","317.19999980926514","3","1","3","2","1,0,0,1,1,0,1,0,1","1,0,0,1,1,0,1,0,1","1",""
"","html-keyboard-response","216","124181","0.0-216.0","3D3VGR7TA11VVD07BF5GBMO5FSPR38","A5CIHEPULDFUF","3HUR21WDDUBEMSLDIXZW1FAIHW8YX3","","null","<img src=""img/flower5.png"" style=""width:200px; border:14px solid green;"">","null","","","","","","","","",""
"","image-keyboard-response","217","124860","0.0-217.0","3D3VGR7TA11VVD07BF5GBMO5FSPR38","A5CIHEPULDFUF","3HUR21WDDUBEMSLDIXZW1FAIHW8YX3","","676.8999998569489","img/flower1.png","75","678.7999999523163","2","0","1","2","1,0,0,1,1,0,1,0,1","1,0,0,1,1,0,1,0,1","1",""
"","html-keyboard-response","218","125162","0.0-218.0","3D3VGR7TA11VVD07BF5GBMO5FSPR38","A5CIHEPULDFUF","3HUR21WDDUBEMSLDIXZW1FAIHW8YX3","","null","<img src=""img/flower1.png"" style=""width:200px;border:14px solid red;"">","null","","","","","","","","",""
"","image-keyboard-response","219","125694","0.0-219.0","3D3VGR7TA11VVD07BF5GBMO5FSPR38","A5CIHEPULDFUF","3HUR21WDDUBEMSLDIXZW1FAIHW8YX3","","530","img/flower1.png","74","531.8999998569489","1","1","1","2","1,0,0,1,1,0,1,0,1","1,0,0,1,1,0,1,0,1","1",""
"","html-keyboard-response","220","125998","0.0-220.0","3D3VGR7TA11VVD07BF5GBMO5FSPR38","A5CIHEPULDFUF","3HUR21WDDUBEMSLDIXZW1FAIHW8YX3","","null","<img src=""img/flower1.png"" style=""width:200px; border:14px solid green;"">","null","","","","","","","","",""
"","image-keyboard-response","221","126779","0.0-221.0","3D3VGR7TA11VVD07BF5GBMO5FSPR38","A5CIHEPULDFUF","3HUR21WDDUBEMSLDIXZW1FAIHW8YX3","","778.5","img/flower5.png","76","780.3999998569489","3","1","3","2","1,0,0,1,1,0,1,0,1","1,0,0,1,1,0,1,0,1","1",""
"","html-keyboard-response","222","127081","0.0-222.0","3D3VGR7TA11VVD07BF5GBMO5FSPR38","A5CIHEPULDFUF","3HUR21WDDUBEMSLDIXZW1FAIHW8YX3","","null","<img src=""img/flower5.png"" style=""width:200px; border:14px solid green;"">","null","","","","","","","","",""
"","image-keyboard-response","223","127605","0.0-223.0","3D3VGR7TA11VVD07BF5GBMO5FSPR38","A5CIHEPULDFUF","3HUR21WDDUBEMSLDIXZW1FAIHW8YX3","","521.8999998569489","img/flower4.png","75","523.7000000476837","2","1","2","2","1,0,0,1,1,0,1,0,1","1,0,0,1,1,0,1,0,1","1",""
"","html-keyboard-response","224","127908","0.0-224.0","3D3VGR7TA11VVD07BF5GBMO5FSPR38","A5CIHEPULDFUF","3HUR21WDDUBEMSLDIXZW1FAIHW8YX3","","null","<img src=""img/flower4.png"" style=""width:200px; border:14px solid green;"">","null","","","","","","","","",""
"","image-keyboard-response","225","128559","0.0-225.0","3D3VGR7TA11VVD07BF5GBMO5FSPR38","A5CIHEPULDFUF","3HUR21WDDUBEMSLDIXZW1FAIHW8YX3","","648.7999999523163","img/flower5.png","76","650.7000000476837","3","1","3","2","1,0,0,1,1,0,1,0,1","1,0,0,1,1,0,1,0,1","1",""
"","html-keyboard-response","226","128861","0.0-226.0","3D3VGR7TA11VVD07BF5GBMO5FSPR38","A5CIHEPULDFUF","3HUR21WDDUBEMSLDIXZW1FAIHW8YX3","","null","<img src=""img/flower5.png"" style=""width:200px; border:14px solid green;"">","null","","","","","","","","",""
"","image-keyboard-response","227","129783","0.0-227.0","3D3VGR7TA11VVD07BF5GBMO5FSPR38","A5CIHEPULDFUF","3HUR21WDDUBEMSLDIXZW1FAIHW8YX3","","920.0999999046326","img/flower1.png","74","922","1","1","1","2","1,0,0,1,1,0,1,0,1","1,0,0,1,1,0,1,0,1","1",""
"","html-keyboard-response","228","130087","0.0-228.0","3D3VGR7TA11VVD07BF5GBMO5FSPR38","A5CIHEPULDFUF","3HUR21WDDUBEMSLDIXZW1FAIHW8YX3","","null","<img src=""img/flower1.png"" style=""width:200px; border:14px solid green;"">","null","","","","","","","","",""
"","image-keyboard-response","229","130762","0.0-229.0","3D3VGR7TA11VVD07BF5GBMO5FSPR38","A5CIHEPULDFUF","3HUR21WDDUBEMSLDIXZW1FAIHW8YX3","","672.7000000476837","img/flower4.png","75","674.7000000476837","2","1","2","2","1,0,0,1,1,0,1,0,1","1,0,0,1,1,0,1,0,1","1",""
"","html-keyboard-response","230","131064","0.0-230.0","3D3VGR7TA11VVD07BF5GBMO5FSPR38","A5CIHEPULDFUF","3HUR21WDDUBEMSLDIXZW1FAIHW8YX3","","null","<img src=""img/flower4.png"" style=""width:200px; border:14px solid green;"">","null","","","","","","","","",""
"","image-keyboard-response","231","131452","0.0-231.0","3D3VGR7TA11VVD07BF5GBMO5FSPR38","A5CIHEPULDFUF","3HUR21WDDUBEMSLDIXZW1FAIHW8YX3","","385.40000009536743","img/flower4.png","75","387.7000000476837","2","1","2","2","1,0,0,1,1,0,1,0,1","1,0,0,1,1,0,1,0,1","1",""
"","html-keyboard-response","232","131754","0.0-232.0","3D3VGR7TA11VVD07BF5GBMO5FSPR38","A5CIHEPULDFUF","3HUR21WDDUBEMSLDIXZW1FAIHW8YX3","","null","<img src=""img/flower4.png"" style=""width:200px; border:14px solid green;"">","null","","","","","","","","",""
"","image-keyboard-response","233","132093","0.0-233.0","3D3VGR7TA11VVD07BF5GBMO5FSPR38","A5CIHEPULDFUF","3HUR21WDDUBEMSLDIXZW1FAIHW8YX3","","336.2999999523163","img/flower4.png","75","338.2000000476837","2","1","2","2","1,0,0,1,1,0,1,0,1","1,0,0,1,1,0,1,0,1","1",""
"","html-keyboard-response","234","132395","0.0-234.0","3D3VGR7TA11VVD07BF5GBMO5FSPR38","A5CIHEPULDFUF","3HUR21WDDUBEMSLDIXZW1FAIHW8YX3","","null","<img src=""img/flower4.png"" style=""width:200px; border:14px solid green;"">","null","","","","","","","","",""
"","image-keyboard-response","235","132707","0.0-235.0","3D3VGR7TA11VVD07BF5GBMO5FSPR38","A5CIHEPULDFUF","3HUR21WDDUBEMSLDIXZW1FAIHW8YX3","","310.2000000476837","img/flower4.png","75","312.39999985694885","2","1","2","2","1,0,0,1,1,0,1,0,1","1,0,0,1,1,0,1,0,1","1",""
"","html-keyboard-response","236","133010","0.0-236.0","3D3VGR7TA11VVD07BF5GBMO5FSPR38","A5CIHEPULDFUF","3HUR21WDDUBEMSLDIXZW1FAIHW8YX3","","null","<img src=""img/flower4.png"" style=""width:200px; border:14px solid green;"">","null","","","","","","","","",""
"","image-keyboard-response","237","133291","0.0-237.0","3D3VGR7TA11VVD07BF5GBMO5FSPR38","A5CIHEPULDFUF","3HUR21WDDUBEMSLDIXZW1FAIHW8YX3","","278.40000009536743","img/flower4.png","75","280","2","1","2","2","1,0,0,1,1,0,1,0,1","1,0,0,1,1,0,1,0,1","1",""
"","html-keyboard-response","238","133594","0.0-238.0","3D3VGR7TA11VVD07BF5GBMO5FSPR38","A5CIHEPULDFUF","3HUR21WDDUBEMSLDIXZW1FAIHW8YX3","","null","<img src=""img/flower4.png"" style=""width:200px; border:14px solid green;"">","null","","","","","","","","",""
"","image-keyboard-response","239","134294","0.0-239.0","3D3VGR7TA11VVD07BF5GBMO5FSPR38","A5CIHEPULDFUF","3HUR21WDDUBEMSLDIXZW1FAIHW8YX3","","698.1000001430511","img/flower5.png","76","699.7999999523163","3","1","3","2","1,0,0,1,1,0,1,0,1","1,0,0,1,1,0,1,0,1","1",""
"","html-keyboard-response","240","134602","0.0-240.0","3D3VGR7TA11VVD07BF5GBMO5FSPR38","A5CIHEPULDFUF","3HUR21WDDUBEMSLDIXZW1FAIHW8YX3","","null","<img src=""img/flower5.png"" style=""width:200px; border:14px solid green;"">","null","","","","","","","","",""
"","image-keyboard-response","241","135233","0.0-241.0","3D3VGR7TA11VVD07BF5GBMO5FSPR38","A5CIHEPULDFUF","3HUR21WDDUBEMSLDIXZW1FAIHW8YX3","","623.4000000953674","img/flower4.png","75","629.0999999046326","2","1","2","2","1,0,0,1,1,0,1,0,1","1,0,0,1,1,0,1,0,1","1",""
"","html-keyboard-response","242","135536","0.0-242.0","3D3VGR7TA11VVD07BF5GBMO5FSPR38","A5CIHEPULDFUF","3HUR21WDDUBEMSLDIXZW1FAIHW8YX3","","null","<img src=""img/flower4.png"" style=""width:200px; border:14px solid green;"">","null","","","","","","","","",""
"","image-keyboard-response","243","136135","0.0-243.0","3D3VGR7TA11VVD07BF5GBMO5FSPR38","A5CIHEPULDFUF","3HUR21WDDUBEMSLDIXZW1FAIHW8YX3","","596.4000000953674","img/flower5.png","76","598.2000000476837","3","1","3","2","1,0,0,1,1,0,1,0,1","1,0,0,1,1,0,1,0,1","1",""
"","html-keyboard-response","244","136438","0.0-244.0","3D3VGR7TA11VVD07BF5GBMO5FSPR38","A5CIHEPULDFUF","3HUR21WDDUBEMSLDIXZW1FAIHW8YX3","","null","<img src=""img/flower5.png"" style=""width:200px; border:14px solid green;"">","null","","","","","","","","",""
"","image-keyboard-response","245","136914","0.0-245.0","3D3VGR7TA11VVD07BF5GBMO5FSPR38","A5CIHEPULDFUF","3HUR21WDDUBEMSLDIXZW1FAIHW8YX3","","473.7999999523163","img/flower1.png","74","475.69999980926514","1","1","1","2","1,0,0,1,1,0,1,0,1","1,0,0,1,1,0,1,0,1","1",""
"","html-keyboard-response","246","137217","0.0-246.0","3D3VGR7TA11VVD07BF5GBMO5FSPR38","A5CIHEPULDFUF","3HUR21WDDUBEMSLDIXZW1FAIHW8YX3","","null","<img src=""img/flower1.png"" style=""width:200px; border:14px solid green;"">","null","","","","","","","","",""
"","image-keyboard-response","247","137610","0.0-247.0","3D3VGR7TA11VVD07BF5GBMO5FSPR38","A5CIHEPULDFUF","3HUR21WDDUBEMSLDIXZW1FAIHW8YX3","","390.2000000476837","img/flower1.png","74","392.09999990463257","1","1","1","2","1,0,0,1,1,0,1,0,1","1,0,0,1,1,0,1,0,1","1",""
"","html-keyboard-response","248","137912","0.0-248.0","3D3VGR7TA11VVD07BF5GBMO5FSPR38","A5CIHEPULDFUF","3HUR21WDDUBEMSLDIXZW1FAIHW8YX3","","null","<img src=""img/flower1.png"" style=""width:200px; border:14px solid green;"">","null","","","","","","","","",""
"","image-keyboard-response","249","138273","0.0-249.0","3D3VGR7TA11VVD07BF5GBMO5FSPR38","A5CIHEPULDFUF","3HUR21WDDUBEMSLDIXZW1FAIHW8YX3","","355.7999999523163","img/flower1.png","74","359","1","1","1","2","1,0,0,1,1,0,1,0,1","1,0,0,1,1,0,1,0,1","1",""
"","html-keyboard-response","250","138577","0.0-250.0","3D3VGR7TA11VVD07BF5GBMO5FSPR38","A5CIHEPULDFUF","3HUR21WDDUBEMSLDIXZW1FAIHW8YX3","","null","<img src=""img/flower1.png"" style=""width:200px; border:14px solid green;"">","null","","","","","","","","",""
"","image-keyboard-response","251","139285","0.0-251.0","3D3VGR7TA11VVD07BF5GBMO5FSPR38","A5CIHEPULDFUF","3HUR21WDDUBEMSLDIXZW1FAIHW8YX3","","700.3999998569489","img/flower5.png","76","707.2999999523163","3","1","3","2","1,0,0,1,1,0,1,0,1","1,0,0,1,1,0,1,0,1","1",""
"","html-keyboard-response","252","139593","0.0-252.0","3D3VGR7TA11VVD07BF5GBMO5FSPR38","A5CIHEPULDFUF","3HUR21WDDUBEMSLDIXZW1FAIHW8YX3","","null","<img src=""img/flower5.png"" style=""width:200px; border:14px solid green;"">","null","","","","","","","","",""
"","image-keyboard-response","253","139959","0.0-253.0","3D3VGR7TA11VVD07BF5GBMO5FSPR38","A5CIHEPULDFUF","3HUR21WDDUBEMSLDIXZW1FAIHW8YX3","","363.10000014305115","img/flower5.png","76","365","3","1","3","2","1,0,0,1,1,0,1,0,1","1,0,0,1,1,0,1,0,1","1",""
"","html-keyboard-response","254","140262","0.0-254.0","3D3VGR7TA11VVD07BF5GBMO5FSPR38","A5CIHEPULDFUF","3HUR21WDDUBEMSLDIXZW1FAIHW8YX3","","null","<img src=""img/flower5.png"" style=""width:200px; border:14px solid green;"">","null","","","","","","","","",""
"","image-keyboard-response","255","140500","0.0-255.0","3D3VGR7TA11VVD07BF5GBMO5FSPR38","A5CIHEPULDFUF","3HUR21WDDUBEMSLDIXZW1FAIHW8YX3","","233.40000009536743","img/flower4.png","76","236.29999995231628","3","0","2","2","1,0,0,1,1,0,1,0,1","1,0,0,1,1,0,1,0,1","1",""
"","html-keyboard-response","256","140803","0.0-256.0","3D3VGR7TA11VVD07BF5GBMO5FSPR38","A5CIHEPULDFUF","3HUR21WDDUBEMSLDIXZW1FAIHW8YX3","","null","<img src=""img/flower4.png"" style=""width:200px;border:14px solid red;"">","null","","","","","","","","",""
"","image-keyboard-response","257","141492","0.0-257.0","3D3VGR7TA11VVD07BF5GBMO5FSPR38","A5CIHEPULDFUF","3HUR21WDDUBEMSLDIXZW1FAIHW8YX3","","687.0999999046326","img/flower1.png","74","689","1","1","1","2","1,0,0,1,1,0,1,0,1","1,0,0,1,1,0,1,0,1","1",""
"","html-keyboard-response","258","141796","0.0-258.0","3D3VGR7TA11VVD07BF5GBMO5FSPR38","A5CIHEPULDFUF","3HUR21WDDUBEMSLDIXZW1FAIHW8YX3","","null","<img src=""img/flower1.png"" style=""width:200px; border:14px solid green;"">","null","","","","","","","","",""
"","image-keyboard-response","259","142490","0.0-259.0","3D3VGR7TA11VVD07BF5GBMO5FSPR38","A5CIHEPULDFUF","3HUR21WDDUBEMSLDIXZW1FAIHW8YX3","","687.3999998569489","img/flower4.png","75","693","2","1","2","2","1,0,0,1,1,0,1,0,1","1,0,0,1,1,0,1,0,1","1",""
"","html-keyboard-response","260","142793","0.0-260.0","3D3VGR7TA11VVD07BF5GBMO5FSPR38","A5CIHEPULDFUF","3HUR21WDDUBEMSLDIXZW1FAIHW8YX3","","null","<img src=""img/flower4.png"" style=""width:200px; border:14px solid green;"">","null","","","","","","","","",""
"","image-keyboard-response","261","143197","0.0-261.0","3D3VGR7TA11VVD07BF5GBMO5FSPR38","A5CIHEPULDFUF","3HUR21WDDUBEMSLDIXZW1FAIHW8YX3","","401.5","img/flower4.png","75","403.80000019073486","2","1","2","2","1,0,0,1,1,0,1,0,1","1,0,0,1,1,0,1,0,1","1",""
"","html-keyboard-response","262","143500","0.0-262.0","3D3VGR7TA11VVD07BF5GBMO5FSPR38","A5CIHEPULDFUF","3HUR21WDDUBEMSLDIXZW1FAIHW8YX3","","null","<img src=""img/flower4.png"" style=""width:200px; border:14px solid green;"">","null","","","","","","","","",""
"","image-keyboard-response","263","144112","0.0-263.0","3D3VGR7TA11VVD07BF5GBMO5FSPR38","A5CIHEPULDFUF","3HUR21WDDUBEMSLDIXZW1FAIHW8YX3","","609.5999999046326","img/flower5.png","76","611.6000001430511","3","1","3","2","1,0,0,1,1,0,1,0,1","1,0,0,1,1,0,1,0,1","1",""
"","html-keyboard-response","264","144414","0.0-264.0","3D3VGR7TA11VVD07BF5GBMO5FSPR38","A5CIHEPULDFUF","3HUR21WDDUBEMSLDIXZW1FAIHW8YX3","","null","<img src=""img/flower5.png"" style=""width:200px; border:14px solid green;"">","null","","","","","","","","",""
"","image-keyboard-response","265","145124","0.0-265.0","3D3VGR7TA11VVD07BF5GBMO5FSPR38","A5CIHEPULDFUF","3HUR21WDDUBEMSLDIXZW1FAIHW8YX3","","707","img/flower1.png","74","709.1000001430511","1","1","1","2","1,0,0,1,1,0,1,0,1","1,0,0,1,1,0,1,0,1","1",""
"","html-keyboard-response","266","145426","0.0-266.0","3D3VGR7TA11VVD07BF5GBMO5FSPR38","A5CIHEPULDFUF","3HUR21WDDUBEMSLDIXZW1FAIHW8YX3","","null","<img src=""img/flower1.png"" style=""width:200px; border:14px solid green;"">","null","","","","","","","","",""
"","image-keyboard-response","267","145787","0.0-267.0","3D3VGR7TA11VVD07BF5GBMO5FSPR38","A5CIHEPULDFUF","3HUR21WDDUBEMSLDIXZW1FAIHW8YX3","","358.59999990463257","img/flower1.png","74","360.5","1","1","1","2","1,0,0,1,1,0,1,0,1","1,0,0,1,1,0,1,0,1","1",""
"","html-keyboard-response","268","146095","0.0-268.0","3D3VGR7TA11VVD07BF5GBMO5FSPR38","A5CIHEPULDFUF","3HUR21WDDUBEMSLDIXZW1FAIHW8YX3","","null","<img src=""img/flower1.png"" style=""width:200px; border:14px solid green;"">","null","","","","","","","","",""
"","image-keyboard-response","269","146504","0.0-269.0","3D3VGR7TA11VVD07BF5GBMO5FSPR38","A5CIHEPULDFUF","3HUR21WDDUBEMSLDIXZW1FAIHW8YX3","","406.40000009536743","img/flower1.png","74","408.5","1","1","1","2","1,0,0,1,1,0,1,0,1","1,0,0,1,1,0,1,0,1","1",""
"","html-keyboard-response","270","146807","0.0-270.0","3D3VGR7TA11VVD07BF5GBMO5FSPR38","A5CIHEPULDFUF","3HUR21WDDUBEMSLDIXZW1FAIHW8YX3","","null","<img src=""img/flower1.png"" style=""width:200px; border:14px solid green;"">","null","","","","","","","","",""
"","image-keyboard-response","271","147405","0.0-271.0","3D3VGR7TA11VVD07BF5GBMO5FSPR38","A5CIHEPULDFUF","3HUR21WDDUBEMSLDIXZW1FAIHW8YX3","","596.0999999046326","img/flower5.png","76","597.9000000953674","3","1","3","2","1,0,0,1,1,0,1,0,1","1,0,0,1,1,0,1,0,1","1",""
"","html-keyboard-response","272","147709","0.0-272.0","3D3VGR7TA11VVD07BF5GBMO5FSPR38","A5CIHEPULDFUF","3HUR21WDDUBEMSLDIXZW1FAIHW8YX3","","null","<img src=""img/flower5.png"" style=""width:200px; border:14px solid green;"">","null","","","","","","","","",""
"","image-keyboard-response","273","148113","0.0-273.0","3D3VGR7TA11VVD07BF5GBMO5FSPR38","A5CIHEPULDFUF","3HUR21WDDUBEMSLDIXZW1FAIHW8YX3","","401.7000000476837","img/flower5.png","76","403.59999990463257","3","1","3","2","1,0,0,1,1,0,1,0,1","1,0,0,1,1,0,1,0,1","1",""
"","html-keyboard-response","274","148416","0.0-274.0","3D3VGR7TA11VVD07BF5GBMO5FSPR38","A5CIHEPULDFUF","3HUR21WDDUBEMSLDIXZW1FAIHW8YX3","","null","<img src=""img/flower5.png"" style=""width:200px; border:14px solid green;"">","null","","","","","","","","",""
"","image-keyboard-response","275","149098","0.0-275.0","3D3VGR7TA11VVD07BF5GBMO5FSPR38","A5CIHEPULDFUF","3HUR21WDDUBEMSLDIXZW1FAIHW8YX3","","680.1000001430511","img/flower1.png","74","681.8000001907349","1","1","1","2","1,0,0,1,1,0,1,0,1","1,0,0,1,1,0,1,0,1","1",""
"","html-keyboard-response","276","149405","0.0-276.0","3D3VGR7TA11VVD07BF5GBMO5FSPR38","A5CIHEPULDFUF","3HUR21WDDUBEMSLDIXZW1FAIHW8YX3","","null","<img src=""img/flower1.png"" style=""width:200px; border:14px solid green;"">","null","","","","","","","","",""
"","image-keyboard-response","277","150086","0.0-277.0","3D3VGR7TA11VVD07BF5GBMO5FSPR38","A5CIHEPULDFUF","3HUR21WDDUBEMSLDIXZW1FAIHW8YX3","","678.5","img/flower5.png","76","680.3999998569489","3","1","3","2","1,0,0,1,1,0,1,0,1","1,0,0,1,1,0,1,0,1","1",""
"","html-keyboard-response","278","150390","0.0-278.0","3D3VGR7TA11VVD07BF5GBMO5FSPR38","A5CIHEPULDFUF","3HUR21WDDUBEMSLDIXZW1FAIHW8YX3","","null","<img src=""img/flower5.png"" style=""width:200px; border:14px solid green;"">","null","","","","","","","","",""
"","image-keyboard-response","279","150942","0.0-279.0","3D3VGR7TA11VVD07BF5GBMO5FSPR38","A5CIHEPULDFUF","3HUR21WDDUBEMSLDIXZW1FAIHW8YX3","","549.7999999523163","img/flower4.png","75","551.7000000476837","2","1","2","2","1,0,0,1,1,0,1,0,1","1,0,0,1,1,0,1,0,1","1",""
"","html-keyboard-response","280","151244","0.0-280.0","3D3VGR7TA11VVD07BF5GBMO5FSPR38","A5CIHEPULDFUF","3HUR21WDDUBEMSLDIXZW1FAIHW8YX3","","null","<img src=""img/flower4.png"" style=""width:200px; border:14px solid green;"">","null","","","","","","","","",""
"","image-keyboard-response","281","151824","0.0-281.0","3D3VGR7TA11VVD07BF5GBMO5FSPR38","A5CIHEPULDFUF","3HUR21WDDUBEMSLDIXZW1FAIHW8YX3","","577.5","img/flower5.png","74","579.3000001907349","1","1","3","2","1,0,0,1,1,0,1,0,1","1,0,0,1,1,0,1,0,1","1",""
"","html-keyboard-response","282","152127","0.0-282.0","3D3VGR7TA11VVD07BF5GBMO5FSPR38","A5CIHEPULDFUF","3HUR21WDDUBEMSLDIXZW1FAIHW8YX3","","null","<img src=""img/flower5.png"" style=""width:200px; border:14px solid green;"">","null","","","","","","","","",""
"","image-keyboard-response","283","154130","0.0-283.0","3D3VGR7TA11VVD07BF5GBMO5FSPR38","A5CIHEPULDFUF","3HUR21WDDUBEMSLDIXZW1FAIHW8YX3","","","img/flower1.png","","2002.2000000476837","-1","0","1","2","1,0,0,1,1,0,1,0,1","1,0,0,1,1,0,1,0,1","1",""
"","html-keyboard-response","284","154437","0.0-284.0","3D3VGR7TA11VVD07BF5GBMO5FSPR38","A5CIHEPULDFUF","3HUR21WDDUBEMSLDIXZW1FAIHW8YX3","","null","<img src=""img/flower1.png"" style=""width:200px;border:14px solid red;"">","null","","","","","","","","",""
"","image-keyboard-response","285","155185","0.0-285.0","3D3VGR7TA11VVD07BF5GBMO5FSPR38","A5CIHEPULDFUF","3HUR21WDDUBEMSLDIXZW1FAIHW8YX3","","746.3999998569489","img/flower4.png","75","748.2000000476837","2","1","2","2","1,0,0,1,1,0,1,0,1","1,0,0,1,1,0,1,0,1","1",""
"","html-keyboard-response","286","155487","0.0-286.0","3D3VGR7TA11VVD07BF5GBMO5FSPR38","A5CIHEPULDFUF","3HUR21WDDUBEMSLDIXZW1FAIHW8YX3","","null","<img src=""img/flower4.png"" style=""width:200px; border:14px solid green;"">","null","","","","","","","","",""
"","image-keyboard-response","287","156115","0.0-287.0","3D3VGR7TA11VVD07BF5GBMO5FSPR38","A5CIHEPULDFUF","3HUR21WDDUBEMSLDIXZW1FAIHW8YX3","","620.1000001430511","img/flower5.png","76","626.1000001430511","3","1","3","2","1,0,0,1,1,0,1,0,1","1,0,0,1,1,0,1,0,1","1",""
"","html-keyboard-response","288","156418","0.0-288.0","3D3VGR7TA11VVD07BF5GBMO5FSPR38","A5CIHEPULDFUF","3HUR21WDDUBEMSLDIXZW1FAIHW8YX3","","null","<img src=""img/flower5.png"" style=""width:200px; border:14px solid green;"">","null","","","","","","","","",""
"","image-keyboard-response","289","157059","0.0-289.0","3D3VGR7TA11VVD07BF5GBMO5FSPR38","A5CIHEPULDFUF","3HUR21WDDUBEMSLDIXZW1FAIHW8YX3","","638.3999998569489","img/flower4.png","74","640.0999999046326","1","1","2","2","1,0,0,1,1,0,1,0,1","1,0,0,1,1,0,1,0,1","1",""
"","html-keyboard-response","290","157367","0.0-290.0","3D3VGR7TA11VVD07BF5GBMO5FSPR38","A5CIHEPULDFUF","3HUR21WDDUBEMSLDIXZW1FAIHW8YX3","","null","<img src=""img/flower4.png"" style=""width:200px; border:14px solid green;"">","null","","","","","","","","",""
"","image-keyboard-response","291","158135","0.0-291.0","3D3VGR7TA11VVD07BF5GBMO5FSPR38","A5CIHEPULDFUF","3HUR21WDDUBEMSLDIXZW1FAIHW8YX3","","765.0999999046326","img/flower1.png","75","767","2","0","1","2","1,0,0,1,1,0,1,0,1","1,0,0,1,1,0,1,0,1","1",""
"","html-keyboard-response","292","158438","0.0-292.0","3D3VGR7TA11VVD07BF5GBMO5FSPR38","A5CIHEPULDFUF","3HUR21WDDUBEMSLDIXZW1FAIHW8YX3","","null","<img src=""img/flower1.png"" style=""width:200px;border:14px solid red;"">","null","","","","","","","","",""
"","image-keyboard-response","293","158817","0.0-293.0","3D3VGR7TA11VVD07BF5GBMO5FSPR38","A5CIHEPULDFUF","3HUR21WDDUBEMSLDIXZW1FAIHW8YX3","","376.89999985694885","img/flower1.png","74","378.80000019073486","1","1","1","2","1,0,0,1,1,0,1,0,1","1,0,0,1,1,0,1,0,1","1",""
"","html-keyboard-response","294","159119","0.0-294.0","3D3VGR7TA11VVD07BF5GBMO5FSPR38","A5CIHEPULDFUF","3HUR21WDDUBEMSLDIXZW1FAIHW8YX3","","null","<img src=""img/flower1.png"" style=""width:200px; border:14px solid green;"">","null","","","","","","","","",""
"","image-keyboard-response","295","159663","0.0-295.0","3D3VGR7TA11VVD07BF5GBMO5FSPR38","A5CIHEPULDFUF","3HUR21WDDUBEMSLDIXZW1FAIHW8YX3","","538.2000000476837","img/flower1.png","74","542.7000000476837","1","1","1","2","1,0,0,1,1,0,1,0,1","1,0,0,1,1,0,1,0,1","1",""
"","html-keyboard-response","296","159966","0.0-296.0","3D3VGR7TA11VVD07BF5GBMO5FSPR38","A5CIHEPULDFUF","3HUR21WDDUBEMSLDIXZW1FAIHW8YX3","","null","<img src=""img/flower1.png"" style=""width:200px; border:14px solid green;"">","null","","","","","","","","",""
"","image-keyboard-response","297","160559","0.0-297.0","3D3VGR7TA11VVD07BF5GBMO5FSPR38","A5CIHEPULDFUF","3HUR21WDDUBEMSLDIXZW1FAIHW8YX3","","591.3999998569489","img/flower5.png","76","593.1000001430511","3","1","3","2","1,0,0,1,1,0,1,0,1","1,0,0,1,1,0,1,0,1","1",""
"","html-keyboard-response","298","160863","0.0-298.0","3D3VGR7TA11VVD07BF5GBMO5FSPR38","A5CIHEPULDFUF","3HUR21WDDUBEMSLDIXZW1FAIHW8YX3","","null","<img src=""img/flower5.png"" style=""width:200px; border:14px solid green;"">","null","","","","","","","","",""
"","image-keyboard-response","299","161245","0.0-299.0","3D3VGR7TA11VVD07BF5GBMO5FSPR38","A5CIHEPULDFUF","3HUR21WDDUBEMSLDIXZW1FAIHW8YX3","","379.19999980926514","img/flower5.png","76","382","3","1","3","2","1,0,0,1,1,0,1,0,1","1,0,0,1,1,0,1,0,1","1",""
"","html-keyboard-response","300","161549","0.0-300.0","3D3VGR7TA11VVD07BF5GBMO5FSPR38","A5CIHEPULDFUF","3HUR21WDDUBEMSLDIXZW1FAIHW8YX3","","null","<img src=""img/flower5.png"" style=""width:200px; border:14px solid green;"">","null","","","","","","","","",""
"","image-keyboard-response","301","161843","0.0-301.0","3D3VGR7TA11VVD07BF5GBMO5FSPR38","A5CIHEPULDFUF","3HUR21WDDUBEMSLDIXZW1FAIHW8YX3","","287.80000019073486","img/flower5.png","76","293.5","3","1","3","2","1,0,0,1,1,0,1,0,1","1,0,0,1,1,0,1,0,1","1",""
"","html-keyboard-response","302","162146","0.0-302.0","3D3VGR7TA11VVD07BF5GBMO5FSPR38","A5CIHEPULDFUF","3HUR21WDDUBEMSLDIXZW1FAIHW8YX3","","null","<img src=""img/flower5.png"" style=""width:200px; border:14px solid green;"">","null","","","","","","","","",""
"","image-keyboard-response","303","162819","0.0-303.0","3D3VGR7TA11VVD07BF5GBMO5FSPR38","A5CIHEPULDFUF","3HUR21WDDUBEMSLDIXZW1FAIHW8YX3","","671","img/flower1.png","74","672.7999999523163","1","1","1","2","1,0,0,1,1,0,1,0,1","1,0,0,1,1,0,1,0,1","1",""
"","html-keyboard-response","304","163122","0.0-304.0","3D3VGR7TA11VVD07BF5GBMO5FSPR38","A5CIHEPULDFUF","3HUR21WDDUBEMSLDIXZW1FAIHW8YX3","","null","<img src=""img/flower1.png"" style=""width:200px; border:14px solid green;"">","null","","","","","","","","",""
"","image-keyboard-response","305","163723","0.0-305.0","3D3VGR7TA11VVD07BF5GBMO5FSPR38","A5CIHEPULDFUF","3HUR21WDDUBEMSLDIXZW1FAIHW8YX3","","598.4000000953674","img/flower5.png","76","600.5","3","1","3","2","1,0,0,1,1,0,1,0,1","1,0,0,1,1,0,1,0,1","1",""
"","html-keyboard-response","306","164027","0.0-306.0","3D3VGR7TA11VVD07BF5GBMO5FSPR38","A5CIHEPULDFUF","3HUR21WDDUBEMSLDIXZW1FAIHW8YX3","","null","<img src=""img/flower5.png"" style=""width:200px; border:14px solid green;"">","null","","","","","","","","",""
"","image-keyboard-response","307","164686","0.0-307.0","3D3VGR7TA11VVD07BF5GBMO5FSPR38","A5CIHEPULDFUF","3HUR21WDDUBEMSLDIXZW1FAIHW8YX3","","656.3999998569489","img/flower1.png","74","658.2999999523163","1","1","1","2","1,0,0,1,1,0,1,0,1","1,0,0,1,1,0,1,0,1","1",""
"","html-keyboard-response","308","164989","0.0-308.0","3D3VGR7TA11VVD07BF5GBMO5FSPR38","A5CIHEPULDFUF","3HUR21WDDUBEMSLDIXZW1FAIHW8YX3","","null","<img src=""img/flower1.png"" style=""width:200px; border:14px solid green;"">","null","","","","","","","","",""
"","image-keyboard-response","309","165431","0.0-309.0","3D3VGR7TA11VVD07BF5GBMO5FSPR38","A5CIHEPULDFUF","3HUR21WDDUBEMSLDIXZW1FAIHW8YX3","","439.59999990463257","img/flower1.png","74","441.2999999523163","1","1","1","2","1,0,0,1,1,0,1,0,1","1,0,0,1,1,0,1,0,1","1",""
"","html-keyboard-response","310","165734","0.0-310.0","3D3VGR7TA11VVD07BF5GBMO5FSPR38","A5CIHEPULDFUF","3HUR21WDDUBEMSLDIXZW1FAIHW8YX3","","null","<img src=""img/flower1.png"" style=""width:200px; border:14px solid green;"">","null","","","","","","","","",""
"","image-keyboard-response","311","165924","0.0-311.0","3D3VGR7TA11VVD07BF5GBMO5FSPR38","A5CIHEPULDFUF","3HUR21WDDUBEMSLDIXZW1FAIHW8YX3","","188","img/flower5.png","74","190","1","1","3","2","1,0,0,1,1,0,1,0,1","1,0,0,1,1,0,1,0,1","1",""
"","html-keyboard-response","312","166227","0.0-312.0","3D3VGR7TA11VVD07BF5GBMO5FSPR38","A5CIHEPULDFUF","3HUR21WDDUBEMSLDIXZW1FAIHW8YX3","","null","<img src=""img/flower5.png"" style=""width:200px; border:14px solid green;"">","null","","","","","","","","",""
"","image-keyboard-response","313","166899","0.0-313.0","3D3VGR7TA11VVD07BF5GBMO5FSPR38","A5CIHEPULDFUF","3HUR21WDDUBEMSLDIXZW1FAIHW8YX3","","669.7000000476837","img/flower5.png","76","671.4000000953674","3","1","3","2","1,0,0,1,1,0,1,0,1","1,0,0,1,1,0,1,0,1","1",""
"","html-keyboard-response","314","167202","0.0-314.0","3D3VGR7TA11VVD07BF5GBMO5FSPR38","A5CIHEPULDFUF","3HUR21WDDUBEMSLDIXZW1FAIHW8YX3","","null","<img src=""img/flower5.png"" style=""width:200px; border:14px solid green;"">","null","","","","","","","","",""
"","image-keyboard-response","315","167380","0.0-315.0","3D3VGR7TA11VVD07BF5GBMO5FSPR38","A5CIHEPULDFUF","3HUR21WDDUBEMSLDIXZW1FAIHW8YX3","","175.39999985694885","img/flower5.png","76","177.10000014305115","3","1","3","2","1,0,0,1,1,0,1,0,1","1,0,0,1,1,0,1,0,1","1",""
"","html-keyboard-response","316","167683","0.0-316.0","3D3VGR7TA11VVD07BF5GBMO5FSPR38","A5CIHEPULDFUF","3HUR21WDDUBEMSLDIXZW1FAIHW8YX3","","null","<img src=""img/flower5.png"" style=""width:200px; border:14px solid green;"">","null","","","","","","","","",""
"","image-keyboard-response","317","167831","0.0-317.0","3D3VGR7TA11VVD07BF5GBMO5FSPR38","A5CIHEPULDFUF","3HUR21WDDUBEMSLDIXZW1FAIHW8YX3","","145.29999995231628","img/flower4.png","76","147.29999995231628","3","0","2","2","1,0,0,1,1,0,1,0,1","1,0,0,1,1,0,1,0,1","1",""
"","html-keyboard-response","318","168134","0.0-318.0","3D3VGR7TA11VVD07BF5GBMO5FSPR38","A5CIHEPULDFUF","3HUR21WDDUBEMSLDIXZW1FAIHW8YX3","","null","<img src=""img/flower4.png"" style=""width:200px;border:14px solid red;"">","null","","","","","","","","",""
"","image-keyboard-response","319","168362","0.0-319.0","3D3VGR7TA11VVD07BF5GBMO5FSPR38","A5CIHEPULDFUF","3HUR21WDDUBEMSLDIXZW1FAIHW8YX3","","224.60000014305115","img/flower1.png","75","227.09999990463257","2","0","1","2","1,0,0,1,1,0,1,0,1","1,0,0,1,1,0,1,0,1","1",""
"","html-keyboard-response","320","168664","0.0-320.0","3D3VGR7TA11VVD07BF5GBMO5FSPR38","A5CIHEPULDFUF","3HUR21WDDUBEMSLDIXZW1FAIHW8YX3","","null","<img src=""img/flower1.png"" style=""width:200px;border:14px solid red;"">","null","","","","","","","","",""
"","image-keyboard-response","321","169356","0.0-321.0","3D3VGR7TA11VVD07BF5GBMO5FSPR38","A5CIHEPULDFUF","3HUR21WDDUBEMSLDIXZW1FAIHW8YX3","","690.3000001907349","img/flower5.png","76","692.3999998569489","3","1","3","2","1,0,0,1,1,0,1,0,1","1,0,0,1,1,0,1,0,1","1",""
"","html-keyboard-response","322","169659","0.0-322.0","3D3VGR7TA11VVD07BF5GBMO5FSPR38","A5CIHEPULDFUF","3HUR21WDDUBEMSLDIXZW1FAIHW8YX3","","null","<img src=""img/flower5.png"" style=""width:200px; border:14px solid green;"">","null","","","","","","","","",""
"","image-keyboard-response","323","170472","0.0-323.0","3D3VGR7TA11VVD07BF5GBMO5FSPR38","A5CIHEPULDFUF","3HUR21WDDUBEMSLDIXZW1FAIHW8YX3","","810.7999999523163","img/flower4.png","75","812.5","2","1","2","2","1,0,0,1,1,0,1,0,1","1,0,0,1,1,0,1,0,1","1",""
"","html-keyboard-response","324","170775","0.0-324.0","3D3VGR7TA11VVD07BF5GBMO5FSPR38","A5CIHEPULDFUF","3HUR21WDDUBEMSLDIXZW1FAIHW8YX3","","null","<img src=""img/flower4.png"" style=""width:200px; border:14px solid green;"">","null","","","","","","","","",""
"","image-keyboard-response","325","171760","0.0-325.0","3D3VGR7TA11VVD07BF5GBMO5FSPR38","A5CIHEPULDFUF","3HUR21WDDUBEMSLDIXZW1FAIHW8YX3","","982.2999999523163","img/flower1.png","76","984.2999999523163","3","0","1","2","1,0,0,1,1,0,1,0,1","1,0,0,1,1,0,1,0,1","1",""
"","html-keyboard-response","326","172063","0.0-326.0","3D3VGR7TA11VVD07BF5GBMO5FSPR38","A5CIHEPULDFUF","3HUR21WDDUBEMSLDIXZW1FAIHW8YX3","","null","<img src=""img/flower1.png"" style=""width:200px;border:14px solid red;"">","null","","","","","","","","",""
"","image-keyboard-response","327","172414","0.0-327.0","3D3VGR7TA11VVD07BF5GBMO5FSPR38","A5CIHEPULDFUF","3HUR21WDDUBEMSLDIXZW1FAIHW8YX3","","347.7000000476837","img/flower1.png","74","350.40000009536743","1","1","1","2","1,0,0,1,1,0,1,0,1","1,0,0,1,1,0,1,0,1","1",""
"","html-keyboard-response","328","172720","0.0-328.0","3D3VGR7TA11VVD07BF5GBMO5FSPR38","A5CIHEPULDFUF","3HUR21WDDUBEMSLDIXZW1FAIHW8YX3","","null","<img src=""img/flower1.png"" style=""width:200px; border:14px solid green;"">","null","","","","","","","","",""
"","image-keyboard-response","329","173475","0.0-329.0","3D3VGR7TA11VVD07BF5GBMO5FSPR38","A5CIHEPULDFUF","3HUR21WDDUBEMSLDIXZW1FAIHW8YX3","","753.2999999523163","img/flower4.png","75","755.5999999046326","2","1","2","2","1,0,0,1,1,0,1,0,1","1,0,0,1,1,0,1,0,1","1",""
"","html-keyboard-response","330","173785","0.0-330.0","3D3VGR7TA11VVD07BF5GBMO5FSPR38","A5CIHEPULDFUF","3HUR21WDDUBEMSLDIXZW1FAIHW8YX3","","null","<img src=""img/flower4.png"" style=""width:200px; border:14px solid green;"">","null","","","","","","","","",""
"","image-keyboard-response","331","174164","0.0-331.0","3D3VGR7TA11VVD07BF5GBMO5FSPR38","A5CIHEPULDFUF","3HUR21WDDUBEMSLDIXZW1FAIHW8YX3","","373.2999999523163","img/flower4.png","75","378.7999999523163","2","1","2","2","1,0,0,1,1,0,1,0,1","1,0,0,1,1,0,1,0,1","1",""
"","html-keyboard-response","332","174468","0.0-332.0","3D3VGR7TA11VVD07BF5GBMO5FSPR38","A5CIHEPULDFUF","3HUR21WDDUBEMSLDIXZW1FAIHW8YX3","","null","<img src=""img/flower4.png"" style=""width:200px; border:14px solid green;"">","null","","","","","","","","",""
"","image-keyboard-response","333","175108","0.0-333.0","3D3VGR7TA11VVD07BF5GBMO5FSPR38","A5CIHEPULDFUF","3HUR21WDDUBEMSLDIXZW1FAIHW8YX3","","638.2999999523163","img/flower5.png","76","640.1999998092651","3","1","3","2","1,0,0,1,1,0,1,0,1","1,0,0,1,1,0,1,0,1","1",""
"","html-keyboard-response","334","175412","0.0-334.0","3D3VGR7TA11VVD07BF5GBMO5FSPR38","A5CIHEPULDFUF","3HUR21WDDUBEMSLDIXZW1FAIHW8YX3","","null","<img src=""img/flower5.png"" style=""width:200px; border:14px solid green;"">","null","","","","","","","","",""
"","image-keyboard-response","335","176187","0.0-335.0","3D3VGR7TA11VVD07BF5GBMO5FSPR38","A5CIHEPULDFUF","3HUR21WDDUBEMSLDIXZW1FAIHW8YX3","","772.5999999046326","img/flower1.png","74","774.7000000476837","1","1","1","2","1,0,0,1,1,0,1,0,1","1,0,0,1,1,0,1,0,1","1",""
"","html-keyboard-response","336","176490","0.0-336.0","3D3VGR7TA11VVD07BF5GBMO5FSPR38","A5CIHEPULDFUF","3HUR21WDDUBEMSLDIXZW1FAIHW8YX3","","null","<img src=""img/flower1.png"" style=""width:200px; border:14px solid green;"">","null","","","","","","","","",""
"","image-keyboard-response","337","176855","0.0-337.0","3D3VGR7TA11VVD07BF5GBMO5FSPR38","A5CIHEPULDFUF","3HUR21WDDUBEMSLDIXZW1FAIHW8YX3","","363.2000000476837","img/flower1.png","74","365.2000000476837","1","1","1","2","1,0,0,1,1,0,1,0,1","1,0,0,1,1,0,1,0,1","1",""
"","html-keyboard-response","338","177157","0.0-338.0","3D3VGR7TA11VVD07BF5GBMO5FSPR38","A5CIHEPULDFUF","3HUR21WDDUBEMSLDIXZW1FAIHW8YX3","","null","<img src=""img/flower1.png"" style=""width:200px; border:14px solid green;"">","null","","","","","","","","",""
"","image-keyboard-response","339","177831","0.0-339.0","3D3VGR7TA11VVD07BF5GBMO5FSPR38","A5CIHEPULDFUF","3HUR21WDDUBEMSLDIXZW1FAIHW8YX3","","668.3999998569489","img/flower5.png","76","673.7000000476837","3","1","3","2","1,0,0,1,1,0,1,0,1","1,0,0,1,1,0,1,0,1","1",""
"","html-keyboard-response","340","178135","0.0-340.0","3D3VGR7TA11VVD07BF5GBMO5FSPR38","A5CIHEPULDFUF","3HUR21WDDUBEMSLDIXZW1FAIHW8YX3","","null","<img src=""img/flower5.png"" style=""width:200px; border:14px solid green;"">","null","","","","","","","","",""
"","image-keyboard-response","341","178744","0.0-341.0","3D3VGR7TA11VVD07BF5GBMO5FSPR38","A5CIHEPULDFUF","3HUR21WDDUBEMSLDIXZW1FAIHW8YX3","","606.7999999523163","img/flower4.png","75","608.7000000476837","2","1","2","2","1,0,0,1,1,0,1,0,1","1,0,0,1,1,0,1,0,1","1",""
"","html-keyboard-response","342","179047","0.0-342.0","3D3VGR7TA11VVD07BF5GBMO5FSPR38","A5CIHEPULDFUF","3HUR21WDDUBEMSLDIXZW1FAIHW8YX3","","null","<img src=""img/flower4.png"" style=""width:200px; border:14px solid green;"">","null","","","","","","","","",""
"","image-keyboard-response","343","179461","0.0-343.0","3D3VGR7TA11VVD07BF5GBMO5FSPR38","A5CIHEPULDFUF","3HUR21WDDUBEMSLDIXZW1FAIHW8YX3","","409.7000000476837","img/flower4.png","75","413.59999990463257","2","1","2","2","1,0,0,1,1,0,1,0,1","1,0,0,1,1,0,1,0,1","1",""
"","html-keyboard-response","344","179763","0.0-344.0","3D3VGR7TA11VVD07BF5GBMO5FSPR38","A5CIHEPULDFUF","3HUR21WDDUBEMSLDIXZW1FAIHW8YX3","","null","<img src=""img/flower4.png"" style=""width:200px; border:14px solid green;"">","null","","","","","","","","",""
"","image-keyboard-response","345","180475","0.0-345.0","3D3VGR7TA11VVD07BF5GBMO5FSPR38","A5CIHEPULDFUF","3HUR21WDDUBEMSLDIXZW1FAIHW8YX3","","709.5","img/flower5.png","76","711.1999998092651","3","1","3","2","1,0,0,1,1,0,1,0,1","1,0,0,1,1,0,1,0,1","1",""
"","html-keyboard-response","346","180778","0.0-346.0","3D3VGR7TA11VVD07BF5GBMO5FSPR38","A5CIHEPULDFUF","3HUR21WDDUBEMSLDIXZW1FAIHW8YX3","","null","<img src=""img/flower5.png"" style=""width:200px; border:14px solid green;"">","null","","","","","","","","",""
"","image-keyboard-response","347","181494","0.0-347.0","3D3VGR7TA11VVD07BF5GBMO5FSPR38","A5CIHEPULDFUF","3HUR21WDDUBEMSLDIXZW1FAIHW8YX3","","712.8999998569489","img/flower4.png","75","714.6999998092651","2","1","2","2","1,0,0,1,1,0,1,0,1","1,0,0,1,1,0,1,0,1","1",""
"","html-keyboard-response","348","181797","0.0-348.0","3D3VGR7TA11VVD07BF5GBMO5FSPR38","A5CIHEPULDFUF","3HUR21WDDUBEMSLDIXZW1FAIHW8YX3","","null","<img src=""img/flower4.png"" style=""width:200px; border:14px solid green;"">","null","","","","","","","","",""
"","image-keyboard-response","349","182210","0.0-349.0","3D3VGR7TA11VVD07BF5GBMO5FSPR38","A5CIHEPULDFUF","3HUR21WDDUBEMSLDIXZW1FAIHW8YX3","","411.2000000476837","img/flower4.png","75","412.7000000476837","2","1","2","2","1,0,0,1,1,0,1,0,1","1,0,0,1,1,0,1,0,1","1",""
"","html-keyboard-response","350","182514","0.0-350.0","3D3VGR7TA11VVD07BF5GBMO5FSPR38","A5CIHEPULDFUF","3HUR21WDDUBEMSLDIXZW1FAIHW8YX3","","null","<img src=""img/flower4.png"" style=""width:200px; border:14px solid green;"">","null","","","","","","","","",""
"","image-keyboard-response","351","183165","0.0-351.0","3D3VGR7TA11VVD07BF5GBMO5FSPR38","A5CIHEPULDFUF","3HUR21WDDUBEMSLDIXZW1FAIHW8YX3","","647.9000000953674","img/flower5.png","76","649.9000000953674","3","1","3","2","1,0,0,1,1,0,1,0,1","1,0,0,1,1,0,1,0,1","1",""
"","html-keyboard-response","352","183467","0.0-352.0","3D3VGR7TA11VVD07BF5GBMO5FSPR38","A5CIHEPULDFUF","3HUR21WDDUBEMSLDIXZW1FAIHW8YX3","","null","<img src=""img/flower5.png"" style=""width:200px; border:14px solid green;"">","null","","","","","","","","",""
"","image-keyboard-response","353","183846","0.0-353.0","3D3VGR7TA11VVD07BF5GBMO5FSPR38","A5CIHEPULDFUF","3HUR21WDDUBEMSLDIXZW1FAIHW8YX3","","376.7000000476837","img/flower5.png","76","378.59999990463257","3","1","3","2","1,0,0,1,1,0,1,0,1","1,0,0,1,1,0,1,0,1","1",""
"","html-keyboard-response","354","184149","0.0-354.0","3D3VGR7TA11VVD07BF5GBMO5FSPR38","A5CIHEPULDFUF","3HUR21WDDUBEMSLDIXZW1FAIHW8YX3","","null","<img src=""img/flower5.png"" style=""width:200px; border:14px solid green;"">","null","","","","","","","","",""
"","image-keyboard-response","355","184854","0.0-355.0","3D3VGR7TA11VVD07BF5GBMO5FSPR38","A5CIHEPULDFUF","3HUR21WDDUBEMSLDIXZW1FAIHW8YX3","","703.6000001430511","img/flower1.png","74","705.4000000953674","1","1","1","2","1,0,0,1,1,0,1,0,1","1,0,0,1,1,0,1,0,1","1",""
"","html-keyboard-response","356","185158","0.0-356.0","3D3VGR7TA11VVD07BF5GBMO5FSPR38","A5CIHEPULDFUF","3HUR21WDDUBEMSLDIXZW1FAIHW8YX3","","null","<img src=""img/flower1.png"" style=""width:200px; border:14px solid green;"">","null","","","","","","","","",""
"","image-keyboard-response","357","185790","0.0-357.0","3D3VGR7TA11VVD07BF5GBMO5FSPR38","A5CIHEPULDFUF","3HUR21WDDUBEMSLDIXZW1FAIHW8YX3","","630.5999999046326","img/flower4.png","75","632.6000001430511","2","1","2","2","1,0,0,1,1,0,1,0,1","1,0,0,1,1,0,1,0,1","1",""
"","html-keyboard-response","358","186104","0.0-358.0","3D3VGR7TA11VVD07BF5GBMO5FSPR38","A5CIHEPULDFUF","3HUR21WDDUBEMSLDIXZW1FAIHW8YX3","","null","<img src=""img/flower4.png"" style=""width:200px; border:14px solid green;"">","null","","","","","","","","",""
"","image-keyboard-response","359","186494","0.0-359.0","3D3VGR7TA11VVD07BF5GBMO5FSPR38","A5CIHEPULDFUF","3HUR21WDDUBEMSLDIXZW1FAIHW8YX3","","383.2999999523163","img/flower4.png","75","388.89999985694885","2","1","2","2","1,0,0,1,1,0,1,0,1","1,0,0,1,1,0,1,0,1","1",""
"","html-keyboard-response","360","186796","0.0-360.0","3D3VGR7TA11VVD07BF5GBMO5FSPR38","A5CIHEPULDFUF","3HUR21WDDUBEMSLDIXZW1FAIHW8YX3","","null","<img src=""img/flower4.png"" style=""width:200px; border:14px solid green;"">","null","","","","","","","","",""
"","image-keyboard-response","361","187159","0.0-361.0","3D3VGR7TA11VVD07BF5GBMO5FSPR38","A5CIHEPULDFUF","3HUR21WDDUBEMSLDIXZW1FAIHW8YX3","","360.2000000476837","img/flower4.png","75","362.19999980926514","2","1","2","2","1,0,0,1,1,0,1,0,1","1,0,0,1,1,0,1,0,1","1",""
"","html-keyboard-response","362","187461","0.0-362.0","3D3VGR7TA11VVD07BF5GBMO5FSPR38","A5CIHEPULDFUF","3HUR21WDDUBEMSLDIXZW1FAIHW8YX3","","null","<img src=""img/flower4.png"" style=""width:200px; border:14px solid green;"">","null","","","","","","","","",""
"","instructions","363","191670","0.0-363.0","3D3VGR7TA11VVD07BF5GBMO5FSPR38","A5CIHEPULDFUF","3HUR21WDDUBEMSLDIXZW1FAIHW8YX3","[{""page_index"":0,""viewing_time"":4206.199999809265}]","4207.099999904633","","","","","","","","","","",""
"","survey-text","364","197314","0.0-364.0","3D3VGR7TA11VVD07BF5GBMO5FSPR38","A5CIHEPULDFUF","3HUR21WDDUBEMSLDIXZW1FAIHW8YX3","","5632.5","","","","","","","","","","","{""Q0"":""A5CIHEPULDFUF""}"
