"rt","url","trial_type","trial_index","time_elapsed","internal_node_id","assignmentID","mturkID","hitID","success","view_history","stimulus","key_press","reactionTime","a","r","s","reward_cond","responses"
"3431.899999856949","consent.html","external-html","0","3485","0.0-0.0","3Z7ISHFUH1HQY1S4XDUPO6YF1ZK8ZZ","A5P12YJP805RG","3UAU495MIIEABANG75FBFHDC9WUUOI","","","","","","","","","",""
"","","fullscreen","1","5950","0.0-1.0","3Z7ISHFUH1HQY1S4XDUPO6YF1ZK8ZZ","A5P12YJP805RG","3UAU495MIIEABANG75FBFHDC9WUUOI","true","","","","","","","","",""
"39422.09999990463","","instructions","2","45373","0.0-2.0","3Z7ISHFUH1HQY1S4XDUPO6YF1ZK8ZZ","A5P12YJP805RG","3UAU495MIIEABANG75FBFHDC9WUUOI","","[{""page_index"":0,""viewing_time"":11333.399999856949},{""page_index"":1,""viewing_time"":4496.400000095367},{""page_index"":2,""viewing_time"":4455.5},{""page_index"":3,""viewing_time"":3272.5},{""page_index"":4,""viewing_time"":3207.7000000476837},{""page_index"":5,""viewing_time"":6887.899999856949},{""page_index"":6,""viewing_time"":5768.299999952316}]","","","","","","","",""
"11422.799999952316","","instructions","3","56795","0.0-3.0","3Z7ISHFUH1HQY1S4XDUPO6YF1ZK8ZZ","A5P12YJP805RG","3UAU495MIIEABANG75FBFHDC9WUUOI","","[{""page_index"":0,""viewing_time"":11422.5}]","","","","","","","",""
"715.2000000476837","","image-keyboard-response","4","57511","0.0-4.0","3Z7ISHFUH1HQY1S4XDUPO6YF1ZK8ZZ","A5P12YJP805RG","3UAU495MIIEABANG75FBFHDC9WUUOI","","","img/flower5.png","74","715.8999998569489","1","0","2","",""
"null","","html-keyboard-response","5","57828","0.0-5.0","3Z7ISHFUH1HQY1S4XDUPO6YF1ZK8ZZ","A5P12YJP805RG","3UAU495MIIEABANG75FBFHDC9WUUOI","","","<img src=""img/flower5.png"" style=""width:200px;border:14px solid red;"">","null","","","","","",""
"674.5","","image-keyboard-response","6","58503","0.0-6.0","3Z7ISHFUH1HQY1S4XDUPO6YF1ZK8ZZ","A5P12YJP805RG","3UAU495MIIEABANG75FBFHDC9WUUOI","","","img/flower4.png","74","675.2000000476837","1","1","1","",""
"null","","html-keyboard-response","7","58807","0.0-7.0","3Z7ISHFUH1HQY1S4XDUPO6YF1ZK8ZZ","A5P12YJP805RG","3UAU495MIIEABANG75FBFHDC9WUUOI","","","<img src=""img/flower4.png"" style=""width:200px; border:14px solid green;"">","null","","","","","",""
"431.5","","image-keyboard-response","8","59239","0.0-8.0","3Z7ISHFUH1HQY1S4XDUPO6YF1ZK8ZZ","A5P12YJP805RG","3UAU495MIIEABANG75FBFHDC9WUUOI","","","img/flower4.png","74","432.19999980926514","1","1","1","",""
"null","","html-keyboard-response","9","59550","0.0-9.0","3Z7ISHFUH1HQY1S4XDUPO6YF1ZK8ZZ","A5P12YJP805RG","3UAU495MIIEABANG75FBFHDC9WUUOI","","","<img src=""img/flower4.png"" style=""width:200px; border:14px solid green;"">","null","","","","","",""
"536.7000000476837","","image-keyboard-response","10","60088","0.0-10.0","3Z7ISHFUH1HQY1S4XDUPO6YF1ZK8ZZ","A5P12YJP805RG","3UAU495MIIEABANG75FBFHDC9WUUOI","","","img/flower5.png","75","537.2999999523163","2","1","2","",""
"null","","html-keyboard-response","11","60399","0.0-11.0","3Z7ISHFUH1HQY1S4XDUPO6YF1ZK8ZZ","A5P12YJP805RG","3UAU495MIIEABANG75FBFHDC9WUUOI","","","<img src=""img/flower5.png"" style=""width:200px; border:14px solid green;"">","null","","","","","",""
"367.7000000476837","","image-keyboard-response","12","60768","0.0-12.0","3Z7ISHFUH1HQY1S4XDUPO6YF1ZK8ZZ","A5P12YJP805RG","3UAU495MIIEABANG75FBFHDC9WUUOI","","","img/flower5.png","75","368.5","2","1","2","",""
"null","","html-keyboard-response","13","61070","0.0-13.0","3Z7ISHFUH1HQY1S4XDUPO6YF1ZK8ZZ","A5P12YJP805RG","3UAU495MIIEABANG75FBFHDC9WUUOI","","","<img src=""img/flower5.png"" style=""width:200px; border:14px solid green;"">","null","","","","","",""
"321.19999980926514","","image-keyboard-response","14","61392","0.0-14.0","3Z7ISHFUH1HQY1S4XDUPO6YF1ZK8ZZ","A5P12YJP805RG","3UAU495MIIEABANG75FBFHDC9WUUOI","","","img/flower5.png","75","321.7000000476837","2","1","2","",""
"null","","html-keyboard-response","15","61703","0.0-15.0","3Z7ISHFUH1HQY1S4XDUPO6YF1ZK8ZZ","A5P12YJP805RG","3UAU495MIIEABANG75FBFHDC9WUUOI","","","<img src=""img/flower5.png"" style=""width:200px; border:14px solid green;"">","null","","","","","",""
"848.7000000476837","","image-keyboard-response","16","62552","0.0-16.0","3Z7ISHFUH1HQY1S4XDUPO6YF1ZK8ZZ","A5P12YJP805RG","3UAU495MIIEABANG75FBFHDC9WUUOI","","","img/flower6.png","76","849.2000000476837","3","1","3","",""
"null","","html-keyboard-response","17","62863","0.0-17.0","3Z7ISHFUH1HQY1S4XDUPO6YF1ZK8ZZ","A5P12YJP805RG","3UAU495MIIEABANG75FBFHDC9WUUOI","","","<img src=""img/flower6.png"" style=""width:200px; border:14px solid green;"">","null","","","","","",""
"504.7999999523163","","image-keyboard-response","18","63368","0.0-18.0","3Z7ISHFUH1HQY1S4XDUPO6YF1ZK8ZZ","A5P12YJP805RG","3UAU495MIIEABANG75FBFHDC9WUUOI","","","img/flower4.png","74","505.5","1","1","1","",""
"null","","html-keyboard-response","19","63670","0.0-19.0","3Z7ISHFUH1HQY1S4XDUPO6YF1ZK8ZZ","A5P12YJP805RG","3UAU495MIIEABANG75FBFHDC9WUUOI","","","<img src=""img/flower4.png"" style=""width:200px; border:14px solid green;"">","null","","","","","",""
"312.7999999523163","","image-keyboard-response","20","63984","0.0-20.0","3Z7ISHFUH1HQY1S4XDUPO6YF1ZK8ZZ","A5P12YJP805RG","3UAU495MIIEABANG75FBFHDC9WUUOI","","","img/flower4.png","74","313.40000009536743","1","1","1","",""
"null","","html-keyboard-response","21","64292","0.0-21.0","3Z7ISHFUH1HQY1S4XDUPO6YF1ZK8ZZ","A5P12YJP805RG","3UAU495MIIEABANG75FBFHDC9WUUOI","","","<img src=""img/flower4.png"" style=""width:200px; border:14px solid green;"">","null","","","","","",""
"579.7000000476837","","image-keyboard-response","22","64873","0.0-22.0","3Z7ISHFUH1HQY1S4XDUPO6YF1ZK8ZZ","A5P12YJP805RG","3UAU495MIIEABANG75FBFHDC9WUUOI","","","img/flower6.png","76","580.4000000953674","3","1","3","",""
"null","","html-keyboard-response","23","65176","0.0-23.0","3Z7ISHFUH1HQY1S4XDUPO6YF1ZK8ZZ","A5P12YJP805RG","3UAU495MIIEABANG75FBFHDC9WUUOI","","","<img src=""img/flower6.png"" style=""width:200px; border:14px solid green;"">","null","","","","","",""
"336","","image-keyboard-response","24","65513","0.0-24.0","3Z7ISHFUH1HQY1S4XDUPO6YF1ZK8ZZ","A5P12YJP805RG","3UAU495MIIEABANG75FBFHDC9WUUOI","","","img/flower6.png","76","336.7000000476837","3","1","3","",""
"null","","html-keyboard-response","25","65814","0.0-25.0","3Z7ISHFUH1HQY1S4XDUPO6YF1ZK8ZZ","A5P12YJP805RG","3UAU495MIIEABANG75FBFHDC9WUUOI","","","<img src=""img/flower6.png"" style=""width:200px; border:14px solid green;"">","null","","","","","",""
"1386.2000000476837","","image-keyboard-response","26","67200","0.0-26.0","3Z7ISHFUH1HQY1S4XDUPO6YF1ZK8ZZ","A5P12YJP805RG","3UAU495MIIEABANG75FBFHDC9WUUOI","","","img/flower5.png","75","1386.7000000476837","2","1","2","",""
"null","","html-keyboard-response","27","67504","0.0-27.0","3Z7ISHFUH1HQY1S4XDUPO6YF1ZK8ZZ","A5P12YJP805RG","3UAU495MIIEABANG75FBFHDC9WUUOI","","","<img src=""img/flower5.png"" style=""width:200px; border:14px solid green;"">","null","","","","","",""
"688.5","","image-keyboard-response","28","68193","0.0-28.0","3Z7ISHFUH1HQY1S4XDUPO6YF1ZK8ZZ","A5P12YJP805RG","3UAU495MIIEABANG75FBFHDC9WUUOI","","","img/flower6.png","76","689.2000000476837","3","1","3","",""
"null","","html-keyboard-response","29","68498","0.0-29.0","3Z7ISHFUH1HQY1S4XDUPO6YF1ZK8ZZ","A5P12YJP805RG","3UAU495MIIEABANG75FBFHDC9WUUOI","","","<img src=""img/flower6.png"" style=""width:200px; border:14px solid green;"">","null","","","","","",""
"486.59999990463257","","image-keyboard-response","30","68985","0.0-30.0","3Z7ISHFUH1HQY1S4XDUPO6YF1ZK8ZZ","A5P12YJP805RG","3UAU495MIIEABANG75FBFHDC9WUUOI","","","img/flower5.png","75","487.2000000476837","2","1","2","",""
"null","","html-keyboard-response","31","69288","0.0-31.0","3Z7ISHFUH1HQY1S4XDUPO6YF1ZK8ZZ","A5P12YJP805RG","3UAU495MIIEABANG75FBFHDC9WUUOI","","","<img src=""img/flower5.png"" style=""width:200px; border:14px solid green;"">","null","","","","","",""
"351.7999999523163","","image-keyboard-response","32","69641","0.0-32.0","3Z7ISHFUH1HQY1S4XDUPO6YF1ZK8ZZ","A5P12YJP805RG","3UAU495MIIEABANG75FBFHDC9WUUOI","","","img/flower5.png","75","352.19999980926514","2","0","2","",""
"null","","html-keyboard-response","33","69941","0.0-33.0","3Z7ISHFUH1HQY1S4XDUPO6YF1ZK8ZZ","A5P12YJP805RG","3UAU495MIIEABANG75FBFHDC9WUUOI","","","<img src=""img/flower5.png"" style=""width:200px;border:14px solid red;"">","null","","","","","",""
"859.5999999046326","","image-keyboard-response","34","70802","0.0-34.0","3Z7ISHFUH1HQY1S4XDUPO6YF1ZK8ZZ","A5P12YJP805RG","3UAU495MIIEABANG75FBFHDC9WUUOI","","","img/flower4.png","74","860.1000001430511","1","1","1","",""
"null","","html-keyboard-response","35","71116","0.0-35.0","3Z7ISHFUH1HQY1S4XDUPO6YF1ZK8ZZ","A5P12YJP805RG","3UAU495MIIEABANG75FBFHDC9WUUOI","","","<img src=""img/flower4.png"" style=""width:200px; border:14px solid green;"">","null","","","","","",""
"340.5","","image-keyboard-response","36","71457","0.0-36.0","3Z7ISHFUH1HQY1S4XDUPO6YF1ZK8ZZ","A5P12YJP805RG","3UAU495MIIEABANG75FBFHDC9WUUOI","","","img/flower4.png","74","340.90000009536743","1","1","1","",""
"null","","html-keyboard-response","37","71774","0.0-37.0","3Z7ISHFUH1HQY1S4XDUPO6YF1ZK8ZZ","A5P12YJP805RG","3UAU495MIIEABANG75FBFHDC9WUUOI","","","<img src=""img/flower4.png"" style=""width:200px; border:14px solid green;"">","null","","","","","",""
"315.10000014305115","","image-keyboard-response","38","72089","0.0-38.0","3Z7ISHFUH1HQY1S4XDUPO6YF1ZK8ZZ","A5P12YJP805RG","3UAU495MIIEABANG75FBFHDC9WUUOI","","","img/flower4.png","74","315.59999990463257","1","1","1","",""
"null","","html-keyboard-response","39","72392","0.0-39.0","3Z7ISHFUH1HQY1S4XDUPO6YF1ZK8ZZ","A5P12YJP805RG","3UAU495MIIEABANG75FBFHDC9WUUOI","","","<img src=""img/flower4.png"" style=""width:200px; border:14px solid green;"">","null","","","","","",""
"632.7000000476837","","image-keyboard-response","40","73025","0.0-40.0","3Z7ISHFUH1HQY1S4XDUPO6YF1ZK8ZZ","A5P12YJP805RG","3UAU495MIIEABANG75FBFHDC9WUUOI","","","img/flower6.png","76","633.1999998092651","3","1","3","",""
"null","","html-keyboard-response","41","73339","0.0-41.0","3Z7ISHFUH1HQY1S4XDUPO6YF1ZK8ZZ","A5P12YJP805RG","3UAU495MIIEABANG75FBFHDC9WUUOI","","","<img src=""img/flower6.png"" style=""width:200px; border:14px solid green;"">","null","","","","","",""
"717.8000001907349","","image-keyboard-response","42","74058","0.0-42.0","3Z7ISHFUH1HQY1S4XDUPO6YF1ZK8ZZ","A5P12YJP805RG","3UAU495MIIEABANG75FBFHDC9WUUOI","","","img/flower4.png","74","718.3999998569489","1","1","1","",""
"null","","html-keyboard-response","43","74365","0.0-43.0","3Z7ISHFUH1HQY1S4XDUPO6YF1ZK8ZZ","A5P12YJP805RG","3UAU495MIIEABANG75FBFHDC9WUUOI","","","<img src=""img/flower4.png"" style=""width:200px; border:14px solid green;"">","null","","","","","",""
"324.7999999523163","","image-keyboard-response","44","74690","0.0-44.0","3Z7ISHFUH1HQY1S4XDUPO6YF1ZK8ZZ","A5P12YJP805RG","3UAU495MIIEABANG75FBFHDC9WUUOI","","","img/flower4.png","74","325.2999999523163","1","1","1","",""
"null","","html-keyboard-response","45","75000","0.0-45.0","3Z7ISHFUH1HQY1S4XDUPO6YF1ZK8ZZ","A5P12YJP805RG","3UAU495MIIEABANG75FBFHDC9WUUOI","","","<img src=""img/flower4.png"" style=""width:200px; border:14px solid green;"">","null","","","","","",""
"337.40000009536743","","image-keyboard-response","46","75338","0.0-46.0","3Z7ISHFUH1HQY1S4XDUPO6YF1ZK8ZZ","A5P12YJP805RG","3UAU495MIIEABANG75FBFHDC9WUUOI","","","img/flower4.png","74","337.7999999523163","1","1","1","",""
"null","","html-keyboard-response","47","75651","0.0-47.0","3Z7ISHFUH1HQY1S4XDUPO6YF1ZK8ZZ","A5P12YJP805RG","3UAU495MIIEABANG75FBFHDC9WUUOI","","","<img src=""img/flower4.png"" style=""width:200px; border:14px solid green;"">","null","","","","","",""
"742.2000000476837","","image-keyboard-response","48","76394","0.0-48.0","3Z7ISHFUH1HQY1S4XDUPO6YF1ZK8ZZ","A5P12YJP805RG","3UAU495MIIEABANG75FBFHDC9WUUOI","","","img/flower5.png","75","742.7999999523163","2","1","2","",""
"null","","html-keyboard-response","49","76704","0.0-49.0","3Z7ISHFUH1HQY1S4XDUPO6YF1ZK8ZZ","A5P12YJP805RG","3UAU495MIIEABANG75FBFHDC9WUUOI","","","<img src=""img/flower5.png"" style=""width:200px; border:14px solid green;"">","null","","","","","",""
"705.5","","image-keyboard-response","50","77410","0.0-50.0","3Z7ISHFUH1HQY1S4XDUPO6YF1ZK8ZZ","A5P12YJP805RG","3UAU495MIIEABANG75FBFHDC9WUUOI","","","img/flower6.png","76","706","3","1","3","",""
"null","","html-keyboard-response","51","77711","0.0-51.0","3Z7ISHFUH1HQY1S4XDUPO6YF1ZK8ZZ","A5P12YJP805RG","3UAU495MIIEABANG75FBFHDC9WUUOI","","","<img src=""img/flower6.png"" style=""width:200px; border:14px solid green;"">","null","","","","","",""
"330.2999999523163","","image-keyboard-response","52","78042","0.0-52.0","3Z7ISHFUH1HQY1S4XDUPO6YF1ZK8ZZ","A5P12YJP805RG","3UAU495MIIEABANG75FBFHDC9WUUOI","","","img/flower6.png","76","330.89999985694885","3","0","3","",""
"null","","html-keyboard-response","53","78346","0.0-53.0","3Z7ISHFUH1HQY1S4XDUPO6YF1ZK8ZZ","A5P12YJP805RG","3UAU495MIIEABANG75FBFHDC9WUUOI","","","<img src=""img/flower6.png"" style=""width:200px;border:14px solid red;"">","null","","","","","",""
"1119","","image-keyboard-response","54","79466","0.0-54.0","3Z7ISHFUH1HQY1S4XDUPO6YF1ZK8ZZ","A5P12YJP805RG","3UAU495MIIEABANG75FBFHDC9WUUOI","","","img/flower5.png","75","1119.6999998092651","2","1","2","",""
"null","","html-keyboard-response","55","79774","0.0-55.0","3Z7ISHFUH1HQY1S4XDUPO6YF1ZK8ZZ","A5P12YJP805RG","3UAU495MIIEABANG75FBFHDC9WUUOI","","","<img src=""img/flower5.png"" style=""width:200px; border:14px solid green;"">","null","","","","","",""
"555.4000000953674","","image-keyboard-response","56","80331","0.0-56.0","3Z7ISHFUH1HQY1S4XDUPO6YF1ZK8ZZ","A5P12YJP805RG","3UAU495MIIEABANG75FBFHDC9WUUOI","","","img/flower6.png","76","555.9000000953674","3","1","3","",""
"null","","html-keyboard-response","57","80642","0.0-57.0","3Z7ISHFUH1HQY1S4XDUPO6YF1ZK8ZZ","A5P12YJP805RG","3UAU495MIIEABANG75FBFHDC9WUUOI","","","<img src=""img/flower6.png"" style=""width:200px; border:14px solid green;"">","null","","","","","",""
"543.4000000953674","","image-keyboard-response","58","81186","0.0-58.0","3Z7ISHFUH1HQY1S4XDUPO6YF1ZK8ZZ","A5P12YJP805RG","3UAU495MIIEABANG75FBFHDC9WUUOI","","","img/flower5.png","75","543.8999998569489","2","1","2","",""
"null","","html-keyboard-response","59","81493","0.0-59.0","3Z7ISHFUH1HQY1S4XDUPO6YF1ZK8ZZ","A5P12YJP805RG","3UAU495MIIEABANG75FBFHDC9WUUOI","","","<img src=""img/flower5.png"" style=""width:200px; border:14px solid green;"">","null","","","","","",""
"437","","image-keyboard-response","60","81931","0.0-60.0","3Z7ISHFUH1HQY1S4XDUPO6YF1ZK8ZZ","A5P12YJP805RG","3UAU495MIIEABANG75FBFHDC9WUUOI","","","img/flower6.png","76","437.39999985694885","3","1","3","",""
"null","","html-keyboard-response","61","82236","0.0-61.0","3Z7ISHFUH1HQY1S4XDUPO6YF1ZK8ZZ","A5P12YJP805RG","3UAU495MIIEABANG75FBFHDC9WUUOI","","","<img src=""img/flower6.png"" style=""width:200px; border:14px solid green;"">","null","","","","","",""
"326.7999999523163","","image-keyboard-response","62","82563","0.0-62.0","3Z7ISHFUH1HQY1S4XDUPO6YF1ZK8ZZ","A5P12YJP805RG","3UAU495MIIEABANG75FBFHDC9WUUOI","","","img/flower6.png","76","327.2999999523163","3","0","3","",""
"null","","html-keyboard-response","63","82875","0.0-63.0","3Z7ISHFUH1HQY1S4XDUPO6YF1ZK8ZZ","A5P12YJP805RG","3UAU495MIIEABANG75FBFHDC9WUUOI","","","<img src=""img/flower6.png"" style=""width:200px;border:14px solid red;"">","null","","","","","",""
"12280.399999856949","","instructions","64","95155","0.0-64.0","3Z7ISHFUH1HQY1S4XDUPO6YF1ZK8ZZ","A5P12YJP805RG","3UAU495MIIEABANG75FBFHDC9WUUOI","","[{""page_index"":0,""viewing_time"":2656.0999999046326},{""page_index"":1,""viewing_time"":9624.100000143051}]","","","","","","","",""
"720.7000000476837","","image-keyboard-response","65","95877","0.0-65.0","3Z7ISHFUH1HQY1S4XDUPO6YF1ZK8ZZ","A5P12YJP805RG","3UAU495MIIEABANG75FBFHDC9WUUOI","","","img/flower4.png","74","721.4000000953674","1","1","1","",""
"null","","html-keyboard-response","66","96184","0.0-66.0","3Z7ISHFUH1HQY1S4XDUPO6YF1ZK8ZZ","A5P12YJP805RG","3UAU495MIIEABANG75FBFHDC9WUUOI","","","<img src=""img/flower4.png"" style=""width:200px; border:14px solid green;"">","null","","","","","",""
"716.5","","image-keyboard-response","67","96901","0.0-67.0","3Z7ISHFUH1HQY1S4XDUPO6YF1ZK8ZZ","A5P12YJP805RG","3UAU495MIIEABANG75FBFHDC9WUUOI","","","img/flower5.png","75","717.1000001430511","2","1","2","",""
"null","","html-keyboard-response","68","97202","0.0-68.0","3Z7ISHFUH1HQY1S4XDUPO6YF1ZK8ZZ","A5P12YJP805RG","3UAU495MIIEABANG75FBFHDC9WUUOI","","","<img src=""img/flower5.png"" style=""width:200px; border:14px solid green;"">","null","","","","","",""
"562.5","","image-keyboard-response","69","97765","0.0-69.0","3Z7ISHFUH1HQY1S4XDUPO6YF1ZK8ZZ","A5P12YJP805RG","3UAU495MIIEABANG75FBFHDC9WUUOI","","","img/flower4.png","74","563","1","0","1","",""
"null","","html-keyboard-response","70","98067","0.0-70.0","3Z7ISHFUH1HQY1S4XDUPO6YF1ZK8ZZ","A5P12YJP805RG","3UAU495MIIEABANG75FBFHDC9WUUOI","","","<img src=""img/flower4.png"" style=""width:200px;border:14px solid red;"">","null","","","","","",""
"593.5999999046326","","image-keyboard-response","71","98661","0.0-71.0","3Z7ISHFUH1HQY1S4XDUPO6YF1ZK8ZZ","A5P12YJP805RG","3UAU495MIIEABANG75FBFHDC9WUUOI","","","img/flower5.png","75","594.1000001430511","2","1","2","",""
"null","","html-keyboard-response","72","98966","0.0-72.0","3Z7ISHFUH1HQY1S4XDUPO6YF1ZK8ZZ","A5P12YJP805RG","3UAU495MIIEABANG75FBFHDC9WUUOI","","","<img src=""img/flower5.png"" style=""width:200px; border:14px solid green;"">","null","","","","","",""
"575.2000000476837","","image-keyboard-response","73","99542","0.0-73.0","3Z7ISHFUH1HQY1S4XDUPO6YF1ZK8ZZ","A5P12YJP805RG","3UAU495MIIEABANG75FBFHDC9WUUOI","","","img/flower6.png","76","575.7999999523163","3","1","3","",""
"null","","html-keyboard-response","74","99852","0.0-74.0","3Z7ISHFUH1HQY1S4XDUPO6YF1ZK8ZZ","A5P12YJP805RG","3UAU495MIIEABANG75FBFHDC9WUUOI","","","<img src=""img/flower6.png"" style=""width:200px; border:14px solid green;"">","null","","","","","",""
"329","","image-keyboard-response","75","100181","0.0-75.0","3Z7ISHFUH1HQY1S4XDUPO6YF1ZK8ZZ","A5P12YJP805RG","3UAU495MIIEABANG75FBFHDC9WUUOI","","","img/flower6.png","76","329.5","3","1","3","",""
"null","","html-keyboard-response","76","100485","0.0-76.0","3Z7ISHFUH1HQY1S4XDUPO6YF1ZK8ZZ","A5P12YJP805RG","3UAU495MIIEABANG75FBFHDC9WUUOI","","","<img src=""img/flower6.png"" style=""width:200px; border:14px solid green;"">","null","","","","","",""
"312.2999999523163","","image-keyboard-response","77","100797","0.0-77.0","3Z7ISHFUH1HQY1S4XDUPO6YF1ZK8ZZ","A5P12YJP805RG","3UAU495MIIEABANG75FBFHDC9WUUOI","","","img/flower6.png","76","312.7000000476837","3","1","3","",""
"null","","html-keyboard-response","78","101104","0.0-78.0","3Z7ISHFUH1HQY1S4XDUPO6YF1ZK8ZZ","A5P12YJP805RG","3UAU495MIIEABANG75FBFHDC9WUUOI","","","<img src=""img/flower6.png"" style=""width:200px; border:14px solid green;"">","null","","","","","",""
"485.39999985694885","","image-keyboard-response","79","101590","0.0-79.0","3Z7ISHFUH1HQY1S4XDUPO6YF1ZK8ZZ","A5P12YJP805RG","3UAU495MIIEABANG75FBFHDC9WUUOI","","","img/flower4.png","74","486","1","1","1","",""
"null","","html-keyboard-response","80","101896","0.0-80.0","3Z7ISHFUH1HQY1S4XDUPO6YF1ZK8ZZ","A5P12YJP805RG","3UAU495MIIEABANG75FBFHDC9WUUOI","","","<img src=""img/flower4.png"" style=""width:200px; border:14px solid green;"">","null","","","","","",""
"620.8000001907349","","image-keyboard-response","81","102518","0.0-81.0","3Z7ISHFUH1HQY1S4XDUPO6YF1ZK8ZZ","A5P12YJP805RG","3UAU495MIIEABANG75FBFHDC9WUUOI","","","img/flower6.png","76","621.3999998569489","3","0","3","",""
"null","","html-keyboard-response","82","102826","0.0-82.0","3Z7ISHFUH1HQY1S4XDUPO6YF1ZK8ZZ","A5P12YJP805RG","3UAU495MIIEABANG75FBFHDC9WUUOI","","","<img src=""img/flower6.png"" style=""width:200px;border:14px solid red;"">","null","","","","","",""
"659.3000001907349","","image-keyboard-response","83","103486","0.0-83.0","3Z7ISHFUH1HQY1S4XDUPO6YF1ZK8ZZ","A5P12YJP805RG","3UAU495MIIEABANG75FBFHDC9WUUOI","","","img/flower5.png","75","659.8999998569489","2","1","2","",""
"null","","html-keyboard-response","84","103800","0.0-84.0","3Z7ISHFUH1HQY1S4XDUPO6YF1ZK8ZZ","A5P12YJP805RG","3UAU495MIIEABANG75FBFHDC9WUUOI","","","<img src=""img/flower5.png"" style=""width:200px; border:14px solid green;"">","null","","","","","",""
"317.5","","image-keyboard-response","85","104118","0.0-85.0","3Z7ISHFUH1HQY1S4XDUPO6YF1ZK8ZZ","A5P12YJP805RG","3UAU495MIIEABANG75FBFHDC9WUUOI","","","img/flower5.png","75","318","2","1","2","",""
"null","","html-keyboard-response","86","104434","0.0-86.0","3Z7ISHFUH1HQY1S4XDUPO6YF1ZK8ZZ","A5P12YJP805RG","3UAU495MIIEABANG75FBFHDC9WUUOI","","","<img src=""img/flower5.png"" style=""width:200px; border:14px solid green;"">","null","","","","","",""
"315.59999990463257","","image-keyboard-response","87","104750","0.0-87.0","3Z7ISHFUH1HQY1S4XDUPO6YF1ZK8ZZ","A5P12YJP805RG","3UAU495MIIEABANG75FBFHDC9WUUOI","","","img/flower5.png","75","316.09999990463257","2","1","2","",""
"null","","html-keyboard-response","88","105058","0.0-88.0","3Z7ISHFUH1HQY1S4XDUPO6YF1ZK8ZZ","A5P12YJP805RG","3UAU495MIIEABANG75FBFHDC9WUUOI","","","<img src=""img/flower5.png"" style=""width:200px; border:14px solid green;"">","null","","","","","",""
"499.80000019073486","","image-keyboard-response","89","105558","0.0-89.0","3Z7ISHFUH1HQY1S4XDUPO6YF1ZK8ZZ","A5P12YJP805RG","3UAU495MIIEABANG75FBFHDC9WUUOI","","","img/flower6.png","76","500.2000000476837","3","1","3","",""
"null","","html-keyboard-response","90","105866","0.0-90.0","3Z7ISHFUH1HQY1S4XDUPO6YF1ZK8ZZ","A5P12YJP805RG","3UAU495MIIEABANG75FBFHDC9WUUOI","","","<img src=""img/flower6.png"" style=""width:200px; border:14px solid green;"">","null","","","","","",""
"691.5999999046326","","image-keyboard-response","91","106558","0.0-91.0","3Z7ISHFUH1HQY1S4XDUPO6YF1ZK8ZZ","A5P12YJP805RG","3UAU495MIIEABANG75FBFHDC9WUUOI","","","img/flower4.png","74","692.2000000476837","1","0","1","",""
"null","","html-keyboard-response","92","106861","0.0-92.0","3Z7ISHFUH1HQY1S4XDUPO6YF1ZK8ZZ","A5P12YJP805RG","3UAU495MIIEABANG75FBFHDC9WUUOI","","","<img src=""img/flower4.png"" style=""width:200px;border:14px solid red;"">","null","","","","","",""
"689.0999999046326","","image-keyboard-response","93","107551","0.0-93.0","3Z7ISHFUH1HQY1S4XDUPO6YF1ZK8ZZ","A5P12YJP805RG","3UAU495MIIEABANG75FBFHDC9WUUOI","","","img/flower5.png","75","689.7000000476837","2","1","2","",""
"null","","html-keyboard-response","94","107854","0.0-94.0","3Z7ISHFUH1HQY1S4XDUPO6YF1ZK8ZZ","A5P12YJP805RG","3UAU495MIIEABANG75FBFHDC9WUUOI","","","<img src=""img/flower5.png"" style=""width:200px; border:14px solid green;"">","null","","","","","",""
"632","","image-keyboard-response","95","108487","0.0-95.0","3Z7ISHFUH1HQY1S4XDUPO6YF1ZK8ZZ","A5P12YJP805RG","3UAU495MIIEABANG75FBFHDC9WUUOI","","","img/flower6.png","76","632.5","3","1","3","",""
"null","","html-keyboard-response","96","108788","0.0-96.0","3Z7ISHFUH1HQY1S4XDUPO6YF1ZK8ZZ","A5P12YJP805RG","3UAU495MIIEABANG75FBFHDC9WUUOI","","","<img src=""img/flower6.png"" style=""width:200px; border:14px solid green;"">","null","","","","","",""
"346","","image-keyboard-response","97","109135","0.0-97.0","3Z7ISHFUH1HQY1S4XDUPO6YF1ZK8ZZ","A5P12YJP805RG","3UAU495MIIEABANG75FBFHDC9WUUOI","","","img/flower6.png","76","346.39999985694885","3","1","3","",""
"null","","html-keyboard-response","98","109444","0.0-98.0","3Z7ISHFUH1HQY1S4XDUPO6YF1ZK8ZZ","A5P12YJP805RG","3UAU495MIIEABANG75FBFHDC9WUUOI","","","<img src=""img/flower6.png"" style=""width:200px; border:14px solid green;"">","null","","","","","",""
"802.1000001430511","","image-keyboard-response","99","110247","0.0-99.0","3Z7ISHFUH1HQY1S4XDUPO6YF1ZK8ZZ","A5P12YJP805RG","3UAU495MIIEABANG75FBFHDC9WUUOI","","","img/flower5.png","75","802.7999999523163","2","0","2","",""
"null","","html-keyboard-response","100","110561","0.0-100.0","3Z7ISHFUH1HQY1S4XDUPO6YF1ZK8ZZ","A5P12YJP805RG","3UAU495MIIEABANG75FBFHDC9WUUOI","","","<img src=""img/flower5.png"" style=""width:200px;border:14px solid red;"">","null","","","","","",""
"332.90000009536743","","image-keyboard-response","101","110895","0.0-101.0","3Z7ISHFUH1HQY1S4XDUPO6YF1ZK8ZZ","A5P12YJP805RG","3UAU495MIIEABANG75FBFHDC9WUUOI","","","img/flower5.png","75","333.2999999523163","2","1","2","",""
"null","","html-keyboard-response","102","111196","0.0-102.0","3Z7ISHFUH1HQY1S4XDUPO6YF1ZK8ZZ","A5P12YJP805RG","3UAU495MIIEABANG75FBFHDC9WUUOI","","","<img src=""img/flower5.png"" style=""width:200px; border:14px solid green;"">","null","","","","","",""
"554.2000000476837","","image-keyboard-response","103","111751","0.0-103.0","3Z7ISHFUH1HQY1S4XDUPO6YF1ZK8ZZ","A5P12YJP805RG","3UAU495MIIEABANG75FBFHDC9WUUOI","","","img/flower4.png","74","554.5","1","1","1","",""
"null","","html-keyboard-response","104","112066","0.0-104.0","3Z7ISHFUH1HQY1S4XDUPO6YF1ZK8ZZ","A5P12YJP805RG","3UAU495MIIEABANG75FBFHDC9WUUOI","","","<img src=""img/flower4.png"" style=""width:200px; border:14px solid green;"">","null","","","","","",""
"268.39999985694885","","image-keyboard-response","105","112335","0.0-105.0","3Z7ISHFUH1HQY1S4XDUPO6YF1ZK8ZZ","A5P12YJP805RG","3UAU495MIIEABANG75FBFHDC9WUUOI","","","img/flower4.png","74","269","1","1","1","",""
"null","","html-keyboard-response","106","112637","0.0-106.0","3Z7ISHFUH1HQY1S4XDUPO6YF1ZK8ZZ","A5P12YJP805RG","3UAU495MIIEABANG75FBFHDC9WUUOI","","","<img src=""img/flower4.png"" style=""width:200px; border:14px solid green;"">","null","","","","","",""
"705.7000000476837","","image-keyboard-response","107","113343","0.0-107.0","3Z7ISHFUH1HQY1S4XDUPO6YF1ZK8ZZ","A5P12YJP805RG","3UAU495MIIEABANG75FBFHDC9WUUOI","","","img/flower6.png","76","706.2999999523163","3","0","3","",""
"null","","html-keyboard-response","108","113648","0.0-108.0","3Z7ISHFUH1HQY1S4XDUPO6YF1ZK8ZZ","A5P12YJP805RG","3UAU495MIIEABANG75FBFHDC9WUUOI","","","<img src=""img/flower6.png"" style=""width:200px;border:14px solid red;"">","null","","","","","",""
"615.2000000476837","","image-keyboard-response","109","114263","0.0-109.0","3Z7ISHFUH1HQY1S4XDUPO6YF1ZK8ZZ","A5P12YJP805RG","3UAU495MIIEABANG75FBFHDC9WUUOI","","","img/flower4.png","75","615.7000000476837","2","1","1","",""
"null","","html-keyboard-response","110","114578","0.0-110.0","3Z7ISHFUH1HQY1S4XDUPO6YF1ZK8ZZ","A5P12YJP805RG","3UAU495MIIEABANG75FBFHDC9WUUOI","","","<img src=""img/flower4.png"" style=""width:200px; border:14px solid green;"">","null","","","","","",""
"1653.2000000476837","","image-keyboard-response","111","116232","0.0-111.0","3Z7ISHFUH1HQY1S4XDUPO6YF1ZK8ZZ","A5P12YJP805RG","3UAU495MIIEABANG75FBFHDC9WUUOI","","","img/flower5.png","75","1653.7000000476837","2","1","2","",""
"null","","html-keyboard-response","112","116544","0.0-112.0","3Z7ISHFUH1HQY1S4XDUPO6YF1ZK8ZZ","A5P12YJP805RG","3UAU495MIIEABANG75FBFHDC9WUUOI","","","<img src=""img/flower5.png"" style=""width:200px; border:14px solid green;"">","null","","","","","",""
"623.5","","image-keyboard-response","113","117168","0.0-113.0","3Z7ISHFUH1HQY1S4XDUPO6YF1ZK8ZZ","A5P12YJP805RG","3UAU495MIIEABANG75FBFHDC9WUUOI","","","img/flower6.png","76","624","3","1","3","",""
"null","","html-keyboard-response","114","117474","0.0-114.0","3Z7ISHFUH1HQY1S4XDUPO6YF1ZK8ZZ","A5P12YJP805RG","3UAU495MIIEABANG75FBFHDC9WUUOI","","","<img src=""img/flower6.png"" style=""width:200px; border:14px solid green;"">","null","","","","","",""
"317.09999990463257","","image-keyboard-response","115","117792","0.0-115.0","3Z7ISHFUH1HQY1S4XDUPO6YF1ZK8ZZ","A5P12YJP805RG","3UAU495MIIEABANG75FBFHDC9WUUOI","","","img/flower6.png","76","317.59999990463257","3","1","3","",""
"null","","html-keyboard-response","116","118095","0.0-116.0","3Z7ISHFUH1HQY1S4XDUPO6YF1ZK8ZZ","A5P12YJP805RG","3UAU495MIIEABANG75FBFHDC9WUUOI","","","<img src=""img/flower6.png"" style=""width:200px; border:14px solid green;"">","null","","","","","",""
"720.4000000953674","","image-keyboard-response","117","118816","0.0-117.0","3Z7ISHFUH1HQY1S4XDUPO6YF1ZK8ZZ","A5P12YJP805RG","3UAU495MIIEABANG75FBFHDC9WUUOI","","","img/flower5.png","75","720.7999999523163","2","1","2","",""
"null","","html-keyboard-response","118","119120","0.0-118.0","3Z7ISHFUH1HQY1S4XDUPO6YF1ZK8ZZ","A5P12YJP805RG","3UAU495MIIEABANG75FBFHDC9WUUOI","","","<img src=""img/flower5.png"" style=""width:200px; border:14px solid green;"">","null","","","","","",""
"520.3000001907349","","image-keyboard-response","119","119640","0.0-119.0","3Z7ISHFUH1HQY1S4XDUPO6YF1ZK8ZZ","A5P12YJP805RG","3UAU495MIIEABANG75FBFHDC9WUUOI","","","img/flower4.png","74","520.7999999523163","1","1","1","",""
"null","","html-keyboard-response","120","119950","0.0-120.0","3Z7ISHFUH1HQY1S4XDUPO6YF1ZK8ZZ","A5P12YJP805RG","3UAU495MIIEABANG75FBFHDC9WUUOI","","","<img src=""img/flower4.png"" style=""width:200px; border:14px solid green;"">","null","","","","","",""
"305.2999999523163","","image-keyboard-response","121","120256","0.0-121.0","3Z7ISHFUH1HQY1S4XDUPO6YF1ZK8ZZ","A5P12YJP805RG","3UAU495MIIEABANG75FBFHDC9WUUOI","","","img/flower4.png","74","306","1","0","1","",""
"null","","html-keyboard-response","122","120570","0.0-122.0","3Z7ISHFUH1HQY1S4XDUPO6YF1ZK8ZZ","A5P12YJP805RG","3UAU495MIIEABANG75FBFHDC9WUUOI","","","<img src=""img/flower4.png"" style=""width:200px;border:14px solid red;"">","null","","","","","",""
"349.2999999523163","","image-keyboard-response","123","120920","0.0-123.0","3Z7ISHFUH1HQY1S4XDUPO6YF1ZK8ZZ","A5P12YJP805RG","3UAU495MIIEABANG75FBFHDC9WUUOI","","","img/flower4.png","74","350","1","1","1","",""
"null","","html-keyboard-response","124","121235","0.0-124.0","3Z7ISHFUH1HQY1S4XDUPO6YF1ZK8ZZ","A5P12YJP805RG","3UAU495MIIEABANG75FBFHDC9WUUOI","","","<img src=""img/flower4.png"" style=""width:200px; border:14px solid green;"">","null","","","","","",""
"2159.600000143051","","instructions","125","123395","0.0-125.0","3Z7ISHFUH1HQY1S4XDUPO6YF1ZK8ZZ","A5P12YJP805RG","3UAU495MIIEABANG75FBFHDC9WUUOI","","[{""page_index"":0,""viewing_time"":2159.5}]","","","","","","","",""
"1021.0999999046326","","image-keyboard-response","126","124417","0.0-126.0","3Z7ISHFUH1HQY1S4XDUPO6YF1ZK8ZZ","A5P12YJP805RG","3UAU495MIIEABANG75FBFHDC9WUUOI","","","img/flower5.png","75","1021.7999999523163","2","0","1","1,0.5,0.5,0.5,1,0.5,0.5,0.5,1",""
"null","","html-keyboard-response","127","124730","0.0-127.0","3Z7ISHFUH1HQY1S4XDUPO6YF1ZK8ZZ","A5P12YJP805RG","3UAU495MIIEABANG75FBFHDC9WUUOI","","","<img src=""img/flower5.png"" style=""width:200px;border:14px solid red;"">","null","","","","","",""
"630.2999999523163","","image-keyboard-response","128","125361","0.0-128.0","3Z7ISHFUH1HQY1S4XDUPO6YF1ZK8ZZ","A5P12YJP805RG","3UAU495MIIEABANG75FBFHDC9WUUOI","","","img/flower6.png","76","630.7999999523163","3","0","2","1,0.5,0.5,0.5,1,0.5,0.5,0.5,1",""
"null","","html-keyboard-response","129","125673","0.0-129.0","3Z7ISHFUH1HQY1S4XDUPO6YF1ZK8ZZ","A5P12YJP805RG","3UAU495MIIEABANG75FBFHDC9WUUOI","","","<img src=""img/flower6.png"" style=""width:200px;border:14px solid red;"">","null","","","","","",""
"608.9000000953674","","image-keyboard-response","130","126282","0.0-130.0","3Z7ISHFUH1HQY1S4XDUPO6YF1ZK8ZZ","A5P12YJP805RG","3UAU495MIIEABANG75FBFHDC9WUUOI","","","img/flower5.png","75","609.3999998569489","2","1","1","1,0.5,0.5,0.5,1,0.5,0.5,0.5,1",""
"null","","html-keyboard-response","131","126588","0.0-131.0","3Z7ISHFUH1HQY1S4XDUPO6YF1ZK8ZZ","A5P12YJP805RG","3UAU495MIIEABANG75FBFHDC9WUUOI","","","<img src=""img/flower5.png"" style=""width:200px; border:14px solid green;"">","null","","","","","",""
"325.09999990463257","","image-keyboard-response","132","126914","0.0-132.0","3Z7ISHFUH1HQY1S4XDUPO6YF1ZK8ZZ","A5P12YJP805RG","3UAU495MIIEABANG75FBFHDC9WUUOI","","","img/flower5.png","75","325.59999990463257","2","1","1","1,0.5,0.5,0.5,1,0.5,0.5,0.5,1",""
"null","","html-keyboard-response","133","127227","0.0-133.0","3Z7ISHFUH1HQY1S4XDUPO6YF1ZK8ZZ","A5P12YJP805RG","3UAU495MIIEABANG75FBFHDC9WUUOI","","","<img src=""img/flower5.png"" style=""width:200px; border:14px solid green;"">","null","","","","","",""
"662.1000001430511","","image-keyboard-response","134","127890","0.0-134.0","3Z7ISHFUH1HQY1S4XDUPO6YF1ZK8ZZ","A5P12YJP805RG","3UAU495MIIEABANG75FBFHDC9WUUOI","","","img/flower6.png","76","662.9000000953674","3","1","2","1,0.5,0.5,0.5,1,0.5,0.5,0.5,1",""
"null","","html-keyboard-response","135","128193","0.0-135.0","3Z7ISHFUH1HQY1S4XDUPO6YF1ZK8ZZ","A5P12YJP805RG","3UAU495MIIEABANG75FBFHDC9WUUOI","","","<img src=""img/flower6.png"" style=""width:200px; border:14px solid green;"">","null","","","","","",""
"911.7000000476837","","image-keyboard-response","136","129106","0.0-136.0","3Z7ISHFUH1HQY1S4XDUPO6YF1ZK8ZZ","A5P12YJP805RG","3UAU495MIIEABANG75FBFHDC9WUUOI","","","img/flower3.png","74","912.3000001907349","1","0","3","1,0.5,0.5,0.5,1,0.5,0.5,0.5,1",""
"null","","html-keyboard-response","137","129416","0.0-137.0","3Z7ISHFUH1HQY1S4XDUPO6YF1ZK8ZZ","A5P12YJP805RG","3UAU495MIIEABANG75FBFHDC9WUUOI","","","<img src=""img/flower3.png"" style=""width:200px;border:14px solid red;"">","null","","","","","",""
"329.10000014305115","","image-keyboard-response","138","129746","0.0-138.0","3Z7ISHFUH1HQY1S4XDUPO6YF1ZK8ZZ","A5P12YJP805RG","3UAU495MIIEABANG75FBFHDC9WUUOI","","","img/flower3.png","74","329.7000000476837","1","1","3","1,0.5,0.5,0.5,1,0.5,0.5,0.5,1",""
"null","","html-keyboard-response","139","130055","0.0-139.0","3Z7ISHFUH1HQY1S4XDUPO6YF1ZK8ZZ","A5P12YJP805RG","3UAU495MIIEABANG75FBFHDC9WUUOI","","","<img src=""img/flower3.png"" style=""width:200px; border:14px solid green;"">","null","","","","","",""
"674.5999999046326","","image-keyboard-response","140","130730","0.0-140.0","3Z7ISHFUH1HQY1S4XDUPO6YF1ZK8ZZ","A5P12YJP805RG","3UAU495MIIEABANG75FBFHDC9WUUOI","","","img/flower6.png","76","675.1000001430511","3","0","2","1,0.5,0.5,0.5,1,0.5,0.5,0.5,1",""
"null","","html-keyboard-response","141","131032","0.0-141.0","3Z7ISHFUH1HQY1S4XDUPO6YF1ZK8ZZ","A5P12YJP805RG","3UAU495MIIEABANG75FBFHDC9WUUOI","","","<img src=""img/flower6.png"" style=""width:200px;border:14px solid red;"">","null","","","","","",""
"753.6000001430511","","image-keyboard-response","142","131786","0.0-142.0","3Z7ISHFUH1HQY1S4XDUPO6YF1ZK8ZZ","A5P12YJP805RG","3UAU495MIIEABANG75FBFHDC9WUUOI","","","img/flower5.png","75","754.2000000476837","2","1","1","1,0.5,0.5,0.5,1,0.5,0.5,0.5,1",""
"null","","html-keyboard-response","143","132092","0.0-143.0","3Z7ISHFUH1HQY1S4XDUPO6YF1ZK8ZZ","A5P12YJP805RG","3UAU495MIIEABANG75FBFHDC9WUUOI","","","<img src=""img/flower5.png"" style=""width:200px; border:14px solid green;"">","null","","","","","",""
"525.7999999523163","","image-keyboard-response","144","132618","0.0-144.0","3Z7ISHFUH1HQY1S4XDUPO6YF1ZK8ZZ","A5P12YJP805RG","3UAU495MIIEABANG75FBFHDC9WUUOI","","","img/flower3.png","74","526.5","1","1","3","1,0.5,0.5,0.5,1,0.5,0.5,0.5,1",""
"null","","html-keyboard-response","145","132927","0.0-145.0","3Z7ISHFUH1HQY1S4XDUPO6YF1ZK8ZZ","A5P12YJP805RG","3UAU495MIIEABANG75FBFHDC9WUUOI","","","<img src=""img/flower3.png"" style=""width:200px; border:14px solid green;"">","null","","","","","",""
"595.2999999523163","","image-keyboard-response","146","133523","0.0-146.0","3Z7ISHFUH1HQY1S4XDUPO6YF1ZK8ZZ","A5P12YJP805RG","3UAU495MIIEABANG75FBFHDC9WUUOI","","","img/flower6.png","76","595.9000000953674","3","1","2","1,0.5,0.5,0.5,1,0.5,0.5,0.5,1",""
"null","","html-keyboard-response","147","133825","0.0-147.0","3Z7ISHFUH1HQY1S4XDUPO6YF1ZK8ZZ","A5P12YJP805RG","3UAU495MIIEABANG75FBFHDC9WUUOI","","","<img src=""img/flower6.png"" style=""width:200px; border:14px solid green;"">","null","","","","","",""
"649.2000000476837","","image-keyboard-response","148","134475","0.0-148.0","3Z7ISHFUH1HQY1S4XDUPO6YF1ZK8ZZ","A5P12YJP805RG","3UAU495MIIEABANG75FBFHDC9WUUOI","","","img/flower5.png","75","649.7000000476837","2","0","1","1,0.5,0.5,0.5,1,0.5,0.5,0.5,1",""
"null","","html-keyboard-response","149","134789","0.0-149.0","3Z7ISHFUH1HQY1S4XDUPO6YF1ZK8ZZ","A5P12YJP805RG","3UAU495MIIEABANG75FBFHDC9WUUOI","","","<img src=""img/flower5.png"" style=""width:200px;border:14px solid red;"">","null","","","","","",""
"356.5","","image-keyboard-response","150","135147","0.0-150.0","3Z7ISHFUH1HQY1S4XDUPO6YF1ZK8ZZ","A5P12YJP805RG","3UAU495MIIEABANG75FBFHDC9WUUOI","","","img/flower5.png","75","357","2","1","1","1,0.5,0.5,0.5,1,0.5,0.5,0.5,1",""
"null","","html-keyboard-response","151","135458","0.0-151.0","3Z7ISHFUH1HQY1S4XDUPO6YF1ZK8ZZ","A5P12YJP805RG","3UAU495MIIEABANG75FBFHDC9WUUOI","","","<img src=""img/flower5.png"" style=""width:200px; border:14px solid green;"">","null","","","","","",""
"608.5","","image-keyboard-response","152","136067","0.0-152.0","3Z7ISHFUH1HQY1S4XDUPO6YF1ZK8ZZ","A5P12YJP805RG","3UAU495MIIEABANG75FBFHDC9WUUOI","","","img/flower6.png","76","609.0999999046326","3","1","2","1,0.5,0.5,0.5,1,0.5,0.5,0.5,1",""
"null","","html-keyboard-response","153","136374","0.0-153.0","3Z7ISHFUH1HQY1S4XDUPO6YF1ZK8ZZ","A5P12YJP805RG","3UAU495MIIEABANG75FBFHDC9WUUOI","","","<img src=""img/flower6.png"" style=""width:200px; border:14px solid green;"">","null","","","","","",""
"332.5","","image-keyboard-response","154","136707","0.0-154.0","3Z7ISHFUH1HQY1S4XDUPO6YF1ZK8ZZ","A5P12YJP805RG","3UAU495MIIEABANG75FBFHDC9WUUOI","","","img/flower6.png","76","332.90000009536743","3","1","2","1,0.5,0.5,0.5,1,0.5,0.5,0.5,1",""
"null","","html-keyboard-response","155","137014","0.0-155.0","3Z7ISHFUH1HQY1S4XDUPO6YF1ZK8ZZ","A5P12YJP805RG","3UAU495MIIEABANG75FBFHDC9WUUOI","","","<img src=""img/flower6.png"" style=""width:200px; border:14px solid green;"">","null","","","","","",""
"644.6999998092651","","image-keyboard-response","156","137659","0.0-156.0","3Z7ISHFUH1HQY1S4XDUPO6YF1ZK8ZZ","A5P12YJP805RG","3UAU495MIIEABANG75FBFHDC9WUUOI","","","img/flower3.png","74","645.2000000476837","1","1","3","1,0.5,0.5,0.5,1,0.5,0.5,0.5,1",""
"null","","html-keyboard-response","157","137971","0.0-157.0","3Z7ISHFUH1HQY1S4XDUPO6YF1ZK8ZZ","A5P12YJP805RG","3UAU495MIIEABANG75FBFHDC9WUUOI","","","<img src=""img/flower3.png"" style=""width:200px; border:14px solid green;"">","null","","","","","",""
"695.5","","image-keyboard-response","158","138667","0.0-158.0","3Z7ISHFUH1HQY1S4XDUPO6YF1ZK8ZZ","A5P12YJP805RG","3UAU495MIIEABANG75FBFHDC9WUUOI","","","img/flower6.png","76","696","3","0","2","1,0.5,0.5,0.5,1,0.5,0.5,0.5,1",""
"null","","html-keyboard-response","159","138978","0.0-159.0","3Z7ISHFUH1HQY1S4XDUPO6YF1ZK8ZZ","A5P12YJP805RG","3UAU495MIIEABANG75FBFHDC9WUUOI","","","<img src=""img/flower6.png"" style=""width:200px;border:14px solid red;"">","null","","","","","",""
"769","","image-keyboard-response","160","139748","0.0-160.0","3Z7ISHFUH1HQY1S4XDUPO6YF1ZK8ZZ","A5P12YJP805RG","3UAU495MIIEABANG75FBFHDC9WUUOI","","","img/flower5.png","75","769.5","2","0","1","1,0.5,0.5,0.5,1,0.5,0.5,0.5,1",""
"null","","html-keyboard-response","161","140050","0.0-161.0","3Z7ISHFUH1HQY1S4XDUPO6YF1ZK8ZZ","A5P12YJP805RG","3UAU495MIIEABANG75FBFHDC9WUUOI","","","<img src=""img/flower5.png"" style=""width:200px;border:14px solid red;"">","null","","","","","",""
"576.5","","image-keyboard-response","162","140627","0.0-162.0","3Z7ISHFUH1HQY1S4XDUPO6YF1ZK8ZZ","A5P12YJP805RG","3UAU495MIIEABANG75FBFHDC9WUUOI","","","img/flower6.png","76","577.2999999523163","3","1","2","1,0.5,0.5,0.5,1,0.5,0.5,0.5,1",""
"null","","html-keyboard-response","163","140935","0.0-163.0","3Z7ISHFUH1HQY1S4XDUPO6YF1ZK8ZZ","A5P12YJP805RG","3UAU495MIIEABANG75FBFHDC9WUUOI","","","<img src=""img/flower6.png"" style=""width:200px; border:14px solid green;"">","null","","","","","",""
"515.7000000476837","","image-keyboard-response","164","141452","0.0-164.0","3Z7ISHFUH1HQY1S4XDUPO6YF1ZK8ZZ","A5P12YJP805RG","3UAU495MIIEABANG75FBFHDC9WUUOI","","","img/flower5.png","75","516.2999999523163","2","0","1","1,0.5,0.5,0.5,1,0.5,0.5,0.5,1",""
"null","","html-keyboard-response","165","141756","0.0-165.0","3Z7ISHFUH1HQY1S4XDUPO6YF1ZK8ZZ","A5P12YJP805RG","3UAU495MIIEABANG75FBFHDC9WUUOI","","","<img src=""img/flower5.png"" style=""width:200px;border:14px solid red;"">","null","","","","","",""
"703.2000000476837","","image-keyboard-response","166","142460","0.0-166.0","3Z7ISHFUH1HQY1S4XDUPO6YF1ZK8ZZ","A5P12YJP805RG","3UAU495MIIEABANG75FBFHDC9WUUOI","","","img/flower3.png","74","703.5999999046326","1","1","3","1,0.5,0.5,0.5,1,0.5,0.5,0.5,1",""
"null","","html-keyboard-response","167","142765","0.0-167.0","3Z7ISHFUH1HQY1S4XDUPO6YF1ZK8ZZ","A5P12YJP805RG","3UAU495MIIEABANG75FBFHDC9WUUOI","","","<img src=""img/flower3.png"" style=""width:200px; border:14px solid green;"">","null","","","","","",""
"334.2999999523163","","image-keyboard-response","168","143100","0.0-168.0","3Z7ISHFUH1HQY1S4XDUPO6YF1ZK8ZZ","A5P12YJP805RG","3UAU495MIIEABANG75FBFHDC9WUUOI","","","img/flower3.png","74","334.7999999523163","1","0","3","1,0.5,0.5,0.5,1,0.5,0.5,0.5,1",""
"null","","html-keyboard-response","169","143401","0.0-169.0","3Z7ISHFUH1HQY1S4XDUPO6YF1ZK8ZZ","A5P12YJP805RG","3UAU495MIIEABANG75FBFHDC9WUUOI","","","<img src=""img/flower3.png"" style=""width:200px;border:14px solid red;"">","null","","","","","",""
"681.8999998569489","","image-keyboard-response","170","144084","0.0-170.0","3Z7ISHFUH1HQY1S4XDUPO6YF1ZK8ZZ","A5P12YJP805RG","3UAU495MIIEABANG75FBFHDC9WUUOI","","","img/flower6.png","76","682.5999999046326","3","0","2","1,0.5,0.5,0.5,1,0.5,0.5,0.5,1",""
"null","","html-keyboard-response","171","144398","0.0-171.0","3Z7ISHFUH1HQY1S4XDUPO6YF1ZK8ZZ","A5P12YJP805RG","3UAU495MIIEABANG75FBFHDC9WUUOI","","","<img src=""img/flower6.png"" style=""width:200px;border:14px solid red;"">","null","","","","","",""
"325.2000000476837","","image-keyboard-response","172","144724","0.0-172.0","3Z7ISHFUH1HQY1S4XDUPO6YF1ZK8ZZ","A5P12YJP805RG","3UAU495MIIEABANG75FBFHDC9WUUOI","","","img/flower6.png","76","325.69999980926514","3","0","2","1,0.5,0.5,0.5,1,0.5,0.5,0.5,1",""
"null","","html-keyboard-response","173","145031","0.0-173.0","3Z7ISHFUH1HQY1S4XDUPO6YF1ZK8ZZ","A5P12YJP805RG","3UAU495MIIEABANG75FBFHDC9WUUOI","","","<img src=""img/flower6.png"" style=""width:200px;border:14px solid red;"">","null","","","","","",""
"1140.5","","image-keyboard-response","174","146173","0.0-174.0","3Z7ISHFUH1HQY1S4XDUPO6YF1ZK8ZZ","A5P12YJP805RG","3UAU495MIIEABANG75FBFHDC9WUUOI","","","img/flower5.png","76","1141.4000000953674","3","0","1","1,0.5,0.5,0.5,1,0.5,0.5,0.5,1",""
"null","","html-keyboard-response","175","146485","0.0-175.0","3Z7ISHFUH1HQY1S4XDUPO6YF1ZK8ZZ","A5P12YJP805RG","3UAU495MIIEABANG75FBFHDC9WUUOI","","","<img src=""img/flower5.png"" style=""width:200px;border:14px solid red;"">","null","","","","","",""
"263","","image-keyboard-response","176","146748","0.0-176.0","3Z7ISHFUH1HQY1S4XDUPO6YF1ZK8ZZ","A5P12YJP805RG","3UAU495MIIEABANG75FBFHDC9WUUOI","","","img/flower5.png","76","263.5","3","1","1","1,0.5,0.5,0.5,1,0.5,0.5,0.5,1",""
"null","","html-keyboard-response","177","147058","0.0-177.0","3Z7ISHFUH1HQY1S4XDUPO6YF1ZK8ZZ","A5P12YJP805RG","3UAU495MIIEABANG75FBFHDC9WUUOI","","","<img src=""img/flower5.png"" style=""width:200px; border:14px solid green;"">","null","","","","","",""
"745.4000000953674","","image-keyboard-response","178","147804","0.0-178.0","3Z7ISHFUH1HQY1S4XDUPO6YF1ZK8ZZ","A5P12YJP805RG","3UAU495MIIEABANG75FBFHDC9WUUOI","","","img/flower3.png","74","746","1","1","3","1,0.5,0.5,0.5,1,0.5,0.5,0.5,1",""
"null","","html-keyboard-response","179","148119","0.0-179.0","3Z7ISHFUH1HQY1S4XDUPO6YF1ZK8ZZ","A5P12YJP805RG","3UAU495MIIEABANG75FBFHDC9WUUOI","","","<img src=""img/flower3.png"" style=""width:200px; border:14px solid green;"">","null","","","","","",""
"1293.4000000953674","","image-keyboard-response","180","149413","0.0-180.0","3Z7ISHFUH1HQY1S4XDUPO6YF1ZK8ZZ","A5P12YJP805RG","3UAU495MIIEABANG75FBFHDC9WUUOI","","","img/flower6.png","75","1294.2000000476837","2","1","2","1,0.5,0.5,0.5,1,0.5,0.5,0.5,1",""
"null","","html-keyboard-response","181","149715","0.0-181.0","3Z7ISHFUH1HQY1S4XDUPO6YF1ZK8ZZ","A5P12YJP805RG","3UAU495MIIEABANG75FBFHDC9WUUOI","","","<img src=""img/flower6.png"" style=""width:200px; border:14px solid green;"">","null","","","","","",""
"753.4000000953674","","image-keyboard-response","182","150469","0.0-182.0","3Z7ISHFUH1HQY1S4XDUPO6YF1ZK8ZZ","A5P12YJP805RG","3UAU495MIIEABANG75FBFHDC9WUUOI","","","img/flower3.png","74","753.8999998569489","1","0","3","1,0.5,0.5,0.5,1,0.5,0.5,0.5,1",""
"null","","html-keyboard-response","183","150771","0.0-183.0","3Z7ISHFUH1HQY1S4XDUPO6YF1ZK8ZZ","A5P12YJP805RG","3UAU495MIIEABANG75FBFHDC9WUUOI","","","<img src=""img/flower3.png"" style=""width:200px;border:14px solid red;"">","null","","","","","",""
"385.40000009536743","","image-keyboard-response","184","151157","0.0-184.0","3Z7ISHFUH1HQY1S4XDUPO6YF1ZK8ZZ","A5P12YJP805RG","3UAU495MIIEABANG75FBFHDC9WUUOI","","","img/flower3.png","74","385.90000009536743","1","1","3","1,0.5,0.5,0.5,1,0.5,0.5,0.5,1",""
"null","","html-keyboard-response","185","151467","0.0-185.0","3Z7ISHFUH1HQY1S4XDUPO6YF1ZK8ZZ","A5P12YJP805RG","3UAU495MIIEABANG75FBFHDC9WUUOI","","","<img src=""img/flower3.png"" style=""width:200px; border:14px solid green;"">","null","","","","","",""
"849.2999999523163","","image-keyboard-response","186","152318","0.0-186.0","3Z7ISHFUH1HQY1S4XDUPO6YF1ZK8ZZ","A5P12YJP805RG","3UAU495MIIEABANG75FBFHDC9WUUOI","","","img/flower6.png","75","849.9000000953674","2","1","2","1,0.5,0.5,0.5,1,0.5,0.5,0.5,1",""
"null","","html-keyboard-response","187","152629","0.0-187.0","3Z7ISHFUH1HQY1S4XDUPO6YF1ZK8ZZ","A5P12YJP805RG","3UAU495MIIEABANG75FBFHDC9WUUOI","","","<img src=""img/flower6.png"" style=""width:200px; border:14px solid green;"">","null","","","","","",""
"311.60000014305115","","image-keyboard-response","188","152942","0.0-188.0","3Z7ISHFUH1HQY1S4XDUPO6YF1ZK8ZZ","A5P12YJP805RG","3UAU495MIIEABANG75FBFHDC9WUUOI","","","img/flower6.png","75","312.2000000476837","2","1","2","1,0.5,0.5,0.5,1,0.5,0.5,0.5,1",""
"null","","html-keyboard-response","189","153248","0.0-189.0","3Z7ISHFUH1HQY1S4XDUPO6YF1ZK8ZZ","A5P12YJP805RG","3UAU495MIIEABANG75FBFHDC9WUUOI","","","<img src=""img/flower6.png"" style=""width:200px; border:14px solid green;"">","null","","","","","",""
"301.2000000476837","","image-keyboard-response","190","153550","0.0-190.0","3Z7ISHFUH1HQY1S4XDUPO6YF1ZK8ZZ","A5P12YJP805RG","3UAU495MIIEABANG75FBFHDC9WUUOI","","","img/flower6.png","75","301.7000000476837","2","1","2","1,0.5,0.5,0.5,1,0.5,0.5,0.5,1",""
"null","","html-keyboard-response","191","153855","0.0-191.0","3Z7ISHFUH1HQY1S4XDUPO6YF1ZK8ZZ","A5P12YJP805RG","3UAU495MIIEABANG75FBFHDC9WUUOI","","","<img src=""img/flower6.png"" style=""width:200px; border:14px solid green;"">","null","","","","","",""
"1117.5999999046326","","image-keyboard-response","192","154974","0.0-192.0","3Z7ISHFUH1HQY1S4XDUPO6YF1ZK8ZZ","A5P12YJP805RG","3UAU495MIIEABANG75FBFHDC9WUUOI","","","img/flower3.png","76","1118.1000001430511","3","1","3","1,0.5,0.5,0.5,1,0.5,0.5,0.5,1",""
"null","","html-keyboard-response","193","155282","0.0-193.0","3Z7ISHFUH1HQY1S4XDUPO6YF1ZK8ZZ","A5P12YJP805RG","3UAU495MIIEABANG75FBFHDC9WUUOI","","","<img src=""img/flower3.png"" style=""width:200px; border:14px solid green;"">","null","","","","","",""
"299.5","","image-keyboard-response","194","155582","0.0-194.0","3Z7ISHFUH1HQY1S4XDUPO6YF1ZK8ZZ","A5P12YJP805RG","3UAU495MIIEABANG75FBFHDC9WUUOI","","","img/flower3.png","76","300.2000000476837","3","1","3","1,0.5,0.5,0.5,1,0.5,0.5,0.5,1",""
"null","","html-keyboard-response","195","155887","0.0-195.0","3Z7ISHFUH1HQY1S4XDUPO6YF1ZK8ZZ","A5P12YJP805RG","3UAU495MIIEABANG75FBFHDC9WUUOI","","","<img src=""img/flower3.png"" style=""width:200px; border:14px solid green;"">","null","","","","","",""
"1669.8999998569489","","image-keyboard-response","196","157558","0.0-196.0","3Z7ISHFUH1HQY1S4XDUPO6YF1ZK8ZZ","A5P12YJP805RG","3UAU495MIIEABANG75FBFHDC9WUUOI","","","img/flower5.png","74","1670.5999999046326","1","1","1","1,0.5,0.5,0.5,1,0.5,0.5,0.5,1",""
"null","","html-keyboard-response","197","157874","0.0-197.0","3Z7ISHFUH1HQY1S4XDUPO6YF1ZK8ZZ","A5P12YJP805RG","3UAU495MIIEABANG75FBFHDC9WUUOI","","","<img src=""img/flower5.png"" style=""width:200px; border:14px solid green;"">","null","","","","","",""
"1084.2999999523163","","image-keyboard-response","198","158958","0.0-198.0","3Z7ISHFUH1HQY1S4XDUPO6YF1ZK8ZZ","A5P12YJP805RG","3UAU495MIIEABANG75FBFHDC9WUUOI","","","img/flower6.png","75","1084.7999999523163","2","1","2","1,0.5,0.5,0.5,1,0.5,0.5,0.5,1",""
"null","","html-keyboard-response","199","159270","0.0-199.0","3Z7ISHFUH1HQY1S4XDUPO6YF1ZK8ZZ","A5P12YJP805RG","3UAU495MIIEABANG75FBFHDC9WUUOI","","","<img src=""img/flower6.png"" style=""width:200px; border:14px solid green;"">","null","","","","","",""
"1391.4000000953674","","image-keyboard-response","200","160662","0.0-200.0","3Z7ISHFUH1HQY1S4XDUPO6YF1ZK8ZZ","A5P12YJP805RG","3UAU495MIIEABANG75FBFHDC9WUUOI","","","img/flower3.png","76","1392.2000000476837","3","1","3","1,0.5,0.5,0.5,1,0.5,0.5,0.5,1",""
"null","","html-keyboard-response","201","160974","0.0-201.0","3Z7ISHFUH1HQY1S4XDUPO6YF1ZK8ZZ","A5P12YJP805RG","3UAU495MIIEABANG75FBFHDC9WUUOI","","","<img src=""img/flower3.png"" style=""width:200px; border:14px solid green;"">","null","","","","","",""
"1256.7000000476837","","image-keyboard-response","202","162231","0.0-202.0","3Z7ISHFUH1HQY1S4XDUPO6YF1ZK8ZZ","A5P12YJP805RG","3UAU495MIIEABANG75FBFHDC9WUUOI","","","img/flower5.png","74","1257.0999999046326","1","1","1","1,0.5,0.5,0.5,1,0.5,0.5,0.5,1",""
"null","","html-keyboard-response","203","162537","0.0-203.0","3Z7ISHFUH1HQY1S4XDUPO6YF1ZK8ZZ","A5P12YJP805RG","3UAU495MIIEABANG75FBFHDC9WUUOI","","","<img src=""img/flower5.png"" style=""width:200px; border:14px solid green;"">","null","","","","","",""
"1021.0999999046326","","image-keyboard-response","204","163559","0.0-204.0","3Z7ISHFUH1HQY1S4XDUPO6YF1ZK8ZZ","A5P12YJP805RG","3UAU495MIIEABANG75FBFHDC9WUUOI","","","img/flower3.png","76","1021.8000001907349","3","1","3","1,0.5,0.5,0.5,1,0.5,0.5,0.5,1",""
"null","","html-keyboard-response","205","163872","0.0-205.0","3Z7ISHFUH1HQY1S4XDUPO6YF1ZK8ZZ","A5P12YJP805RG","3UAU495MIIEABANG75FBFHDC9WUUOI","","","<img src=""img/flower3.png"" style=""width:200px; border:14px solid green;"">","null","","","","","",""
"341.59999990463257","","image-keyboard-response","206","164215","0.0-206.0","3Z7ISHFUH1HQY1S4XDUPO6YF1ZK8ZZ","A5P12YJP805RG","3UAU495MIIEABANG75FBFHDC9WUUOI","","","img/flower3.png","76","342.10000014305115","3","1","3","1,0.5,0.5,0.5,1,0.5,0.5,0.5,1",""
"null","","html-keyboard-response","207","164526","0.0-207.0","3Z7ISHFUH1HQY1S4XDUPO6YF1ZK8ZZ","A5P12YJP805RG","3UAU495MIIEABANG75FBFHDC9WUUOI","","","<img src=""img/flower3.png"" style=""width:200px; border:14px solid green;"">","null","","","","","",""
"1528.1999998092651","","image-keyboard-response","208","166055","0.0-208.0","3Z7ISHFUH1HQY1S4XDUPO6YF1ZK8ZZ","A5P12YJP805RG","3UAU495MIIEABANG75FBFHDC9WUUOI","","","img/flower6.png","74","1528.9000000953674","1","0","2","1,0.5,0.5,0.5,1,0.5,0.5,0.5,1",""
"null","","html-keyboard-response","209","166360","0.0-209.0","3Z7ISHFUH1HQY1S4XDUPO6YF1ZK8ZZ","A5P12YJP805RG","3UAU495MIIEABANG75FBFHDC9WUUOI","","","<img src=""img/flower6.png"" style=""width:200px;border:14px solid red;"">","null","","","","","",""
"1927.2000000476837","","image-keyboard-response","210","168288","0.0-210.0","3Z7ISHFUH1HQY1S4XDUPO6YF1ZK8ZZ","A5P12YJP805RG","3UAU495MIIEABANG75FBFHDC9WUUOI","","","img/flower5.png","76","1927.5999999046326","3","0","1","1,0.5,0.5,0.5,1,0.5,0.5,0.5,1",""
"null","","html-keyboard-response","211","168589","0.0-211.0","3Z7ISHFUH1HQY1S4XDUPO6YF1ZK8ZZ","A5P12YJP805RG","3UAU495MIIEABANG75FBFHDC9WUUOI","","","<img src=""img/flower5.png"" style=""width:200px;border:14px solid red;"">","null","","","","","",""
"1570","","image-keyboard-response","212","170160","0.0-212.0","3Z7ISHFUH1HQY1S4XDUPO6YF1ZK8ZZ","A5P12YJP805RG","3UAU495MIIEABANG75FBFHDC9WUUOI","","","img/flower3.png","76","1570.6000001430511","3","1","3","1,0.5,0.5,0.5,1,0.5,0.5,0.5,1",""
"null","","html-keyboard-response","213","170461","0.0-213.0","3Z7ISHFUH1HQY1S4XDUPO6YF1ZK8ZZ","A5P12YJP805RG","3UAU495MIIEABANG75FBFHDC9WUUOI","","","<img src=""img/flower3.png"" style=""width:200px; border:14px solid green;"">","null","","","","","",""
"641.6000001430511","","image-keyboard-response","214","171104","0.0-214.0","3Z7ISHFUH1HQY1S4XDUPO6YF1ZK8ZZ","A5P12YJP805RG","3UAU495MIIEABANG75FBFHDC9WUUOI","","","img/flower5.png","74","642.2999999523163","1","1","1","1,0.5,0.5,0.5,1,0.5,0.5,0.5,1",""
"null","","html-keyboard-response","215","171408","0.0-215.0","3Z7ISHFUH1HQY1S4XDUPO6YF1ZK8ZZ","A5P12YJP805RG","3UAU495MIIEABANG75FBFHDC9WUUOI","","","<img src=""img/flower5.png"" style=""width:200px; border:14px solid green;"">","null","","","","","",""
"335.90000009536743","","image-keyboard-response","216","171744","0.0-216.0","3Z7ISHFUH1HQY1S4XDUPO6YF1ZK8ZZ","A5P12YJP805RG","3UAU495MIIEABANG75FBFHDC9WUUOI","","","img/flower5.png","74","336.2999999523163","1","1","1","1,0.5,0.5,0.5,1,0.5,0.5,0.5,1",""
"null","","html-keyboard-response","217","172061","0.0-217.0","3Z7ISHFUH1HQY1S4XDUPO6YF1ZK8ZZ","A5P12YJP805RG","3UAU495MIIEABANG75FBFHDC9WUUOI","","","<img src=""img/flower5.png"" style=""width:200px; border:14px solid green;"">","null","","","","","",""
"954.6999998092651","","image-keyboard-response","218","173016","0.0-218.0","3Z7ISHFUH1HQY1S4XDUPO6YF1ZK8ZZ","A5P12YJP805RG","3UAU495MIIEABANG75FBFHDC9WUUOI","","","img/flower6.png","75","955.2999999523163","2","1","2","1,0.5,0.5,0.5,1,0.5,0.5,0.5,1",""
"null","","html-keyboard-response","219","173330","0.0-219.0","3Z7ISHFUH1HQY1S4XDUPO6YF1ZK8ZZ","A5P12YJP805RG","3UAU495MIIEABANG75FBFHDC9WUUOI","","","<img src=""img/flower6.png"" style=""width:200px; border:14px solid green;"">","null","","","","","",""
"309.7000000476837","","image-keyboard-response","220","173640","0.0-220.0","3Z7ISHFUH1HQY1S4XDUPO6YF1ZK8ZZ","A5P12YJP805RG","3UAU495MIIEABANG75FBFHDC9WUUOI","","","img/flower6.png","75","310.30000019073486","2","1","2","1,0.5,0.5,0.5,1,0.5,0.5,0.5,1",""
"null","","html-keyboard-response","221","173944","0.0-221.0","3Z7ISHFUH1HQY1S4XDUPO6YF1ZK8ZZ","A5P12YJP805RG","3UAU495MIIEABANG75FBFHDC9WUUOI","","","<img src=""img/flower6.png"" style=""width:200px; border:14px solid green;"">","null","","","","","",""
"319.39999985694885","","image-keyboard-response","222","174264","0.0-222.0","3Z7ISHFUH1HQY1S4XDUPO6YF1ZK8ZZ","A5P12YJP805RG","3UAU495MIIEABANG75FBFHDC9WUUOI","","","img/flower6.png","75","319.90000009536743","2","1","2","1,0.5,0.5,0.5,1,0.5,0.5,0.5,1",""
"null","","html-keyboard-response","223","174580","0.0-223.0","3Z7ISHFUH1HQY1S4XDUPO6YF1ZK8ZZ","A5P12YJP805RG","3UAU495MIIEABANG75FBFHDC9WUUOI","","","<img src=""img/flower6.png"" style=""width:200px; border:14px solid green;"">","null","","","","","",""
"987.5999999046326","","image-keyboard-response","224","175569","0.0-224.0","3Z7ISHFUH1HQY1S4XDUPO6YF1ZK8ZZ","A5P12YJP805RG","3UAU495MIIEABANG75FBFHDC9WUUOI","","","img/flower5.png","76","988.0999999046326","3","0","1","1,0.5,0.5,0.5,1,0.5,0.5,0.5,1",""
"null","","html-keyboard-response","225","175884","0.0-225.0","3Z7ISHFUH1HQY1S4XDUPO6YF1ZK8ZZ","A5P12YJP805RG","3UAU495MIIEABANG75FBFHDC9WUUOI","","","<img src=""img/flower5.png"" style=""width:200px;border:14px solid red;"">","null","","","","","",""
"2372.100000143051","","image-keyboard-response","226","178257","0.0-226.0","3Z7ISHFUH1HQY1S4XDUPO6YF1ZK8ZZ","A5P12YJP805RG","3UAU495MIIEABANG75FBFHDC9WUUOI","","","img/flower6.png","75","2372.699999809265","2","1","2","1,0.5,0.5,0.5,1,0.5,0.5,0.5,1",""
"null","","html-keyboard-response","227","178568","0.0-227.0","3Z7ISHFUH1HQY1S4XDUPO6YF1ZK8ZZ","A5P12YJP805RG","3UAU495MIIEABANG75FBFHDC9WUUOI","","","<img src=""img/flower6.png"" style=""width:200px; border:14px solid green;"">","null","","","","","",""
"296.09999990463257","","image-keyboard-response","228","178865","0.0-228.0","3Z7ISHFUH1HQY1S4XDUPO6YF1ZK8ZZ","A5P12YJP805RG","3UAU495MIIEABANG75FBFHDC9WUUOI","","","img/flower6.png","75","296.5","2","1","2","1,0.5,0.5,0.5,1,0.5,0.5,0.5,1",""
"null","","html-keyboard-response","229","179173","0.0-229.0","3Z7ISHFUH1HQY1S4XDUPO6YF1ZK8ZZ","A5P12YJP805RG","3UAU495MIIEABANG75FBFHDC9WUUOI","","","<img src=""img/flower6.png"" style=""width:200px; border:14px solid green;"">","null","","","","","",""
"1642.9000000953674","","image-keyboard-response","230","180817","0.0-230.0","3Z7ISHFUH1HQY1S4XDUPO6YF1ZK8ZZ","A5P12YJP805RG","3UAU495MIIEABANG75FBFHDC9WUUOI","","","img/flower3.png","76","1643.6999998092651","3","1","3","1,0.5,0.5,0.5,1,0.5,0.5,0.5,1",""
"null","","html-keyboard-response","231","181132","0.0-231.0","3Z7ISHFUH1HQY1S4XDUPO6YF1ZK8ZZ","A5P12YJP805RG","3UAU495MIIEABANG75FBFHDC9WUUOI","","","<img src=""img/flower3.png"" style=""width:200px; border:14px solid green;"">","null","","","","","",""
"3421.2999999523163","","image-keyboard-response","232","184554","0.0-232.0","3Z7ISHFUH1HQY1S4XDUPO6YF1ZK8ZZ","A5P12YJP805RG","3UAU495MIIEABANG75FBFHDC9WUUOI","","","img/flower6.png","75","3422","2","1","2","1,0.5,0.5,0.5,1,0.5,0.5,0.5,1",""
"null","","html-keyboard-response","233","184868","0.0-233.0","3Z7ISHFUH1HQY1S4XDUPO6YF1ZK8ZZ","A5P12YJP805RG","3UAU495MIIEABANG75FBFHDC9WUUOI","","","<img src=""img/flower6.png"" style=""width:200px; border:14px solid green;"">","null","","","","","",""
"365","","image-keyboard-response","234","185234","0.0-234.0","3Z7ISHFUH1HQY1S4XDUPO6YF1ZK8ZZ","A5P12YJP805RG","3UAU495MIIEABANG75FBFHDC9WUUOI","","","img/flower6.png","75","365.39999985694885","2","1","2","1,0.5,0.5,0.5,1,0.5,0.5,0.5,1",""
"null","","html-keyboard-response","235","185536","0.0-235.0","3Z7ISHFUH1HQY1S4XDUPO6YF1ZK8ZZ","A5P12YJP805RG","3UAU495MIIEABANG75FBFHDC9WUUOI","","","<img src=""img/flower6.png"" style=""width:200px; border:14px solid green;"">","null","","","","","",""
"825","","image-keyboard-response","236","186362","0.0-236.0","3Z7ISHFUH1HQY1S4XDUPO6YF1ZK8ZZ","A5P12YJP805RG","3UAU495MIIEABANG75FBFHDC9WUUOI","","","img/flower5.png","74","825.4000000953674","1","1","1","1,0.5,0.5,0.5,1,0.5,0.5,0.5,1",""
"null","","html-keyboard-response","237","186671","0.0-237.0","3Z7ISHFUH1HQY1S4XDUPO6YF1ZK8ZZ","A5P12YJP805RG","3UAU495MIIEABANG75FBFHDC9WUUOI","","","<img src=""img/flower5.png"" style=""width:200px; border:14px solid green;"">","null","","","","","",""
"266.7000000476837","","image-keyboard-response","238","186938","0.0-238.0","3Z7ISHFUH1HQY1S4XDUPO6YF1ZK8ZZ","A5P12YJP805RG","3UAU495MIIEABANG75FBFHDC9WUUOI","","","img/flower5.png","74","267.40000009536743","1","1","1","1,0.5,0.5,0.5,1,0.5,0.5,0.5,1",""
"null","","html-keyboard-response","239","187242","0.0-239.0","3Z7ISHFUH1HQY1S4XDUPO6YF1ZK8ZZ","A5P12YJP805RG","3UAU495MIIEABANG75FBFHDC9WUUOI","","","<img src=""img/flower5.png"" style=""width:200px; border:14px solid green;"">","null","","","","","",""
"311.2000000476837","","image-keyboard-response","240","187554","0.0-240.0","3Z7ISHFUH1HQY1S4XDUPO6YF1ZK8ZZ","A5P12YJP805RG","3UAU495MIIEABANG75FBFHDC9WUUOI","","","img/flower5.png","74","311.5","1","1","1","1,0.5,0.5,0.5,1,0.5,0.5,0.5,1",""
"null","","html-keyboard-response","241","187864","0.0-241.0","3Z7ISHFUH1HQY1S4XDUPO6YF1ZK8ZZ","A5P12YJP805RG","3UAU495MIIEABANG75FBFHDC9WUUOI","","","<img src=""img/flower5.png"" style=""width:200px; border:14px solid green;"">","null","","","","","",""
"1105.6000001430511","","image-keyboard-response","242","188971","0.0-242.0","3Z7ISHFUH1HQY1S4XDUPO6YF1ZK8ZZ","A5P12YJP805RG","3UAU495MIIEABANG75FBFHDC9WUUOI","","","img/flower6.png","75","1106.1000001430511","2","1","2","1,0.5,0.5,0.5,1,0.5,0.5,0.5,1",""
"null","","html-keyboard-response","243","189286","0.0-243.0","3Z7ISHFUH1HQY1S4XDUPO6YF1ZK8ZZ","A5P12YJP805RG","3UAU495MIIEABANG75FBFHDC9WUUOI","","","<img src=""img/flower6.png"" style=""width:200px; border:14px solid green;"">","null","","","","","",""
"268","","image-keyboard-response","244","189554","0.0-244.0","3Z7ISHFUH1HQY1S4XDUPO6YF1ZK8ZZ","A5P12YJP805RG","3UAU495MIIEABANG75FBFHDC9WUUOI","","","img/flower6.png","75","268.40000009536743","2","1","2","1,0.5,0.5,0.5,1,0.5,0.5,0.5,1",""
"null","","html-keyboard-response","245","189862","0.0-245.0","3Z7ISHFUH1HQY1S4XDUPO6YF1ZK8ZZ","A5P12YJP805RG","3UAU495MIIEABANG75FBFHDC9WUUOI","","","<img src=""img/flower6.png"" style=""width:200px; border:14px solid green;"">","null","","","","","",""
"676.1000001430511","","image-keyboard-response","246","190539","0.0-246.0","3Z7ISHFUH1HQY1S4XDUPO6YF1ZK8ZZ","A5P12YJP805RG","3UAU495MIIEABANG75FBFHDC9WUUOI","","","img/flower5.png","74","676.7000000476837","1","1","1","1,0.5,0.5,0.5,1,0.5,0.5,0.5,1",""
"null","","html-keyboard-response","247","190844","0.0-247.0","3Z7ISHFUH1HQY1S4XDUPO6YF1ZK8ZZ","A5P12YJP805RG","3UAU495MIIEABANG75FBFHDC9WUUOI","","","<img src=""img/flower5.png"" style=""width:200px; border:14px solid green;"">","null","","","","","",""
"670.5","","image-keyboard-response","248","191515","0.0-248.0","3Z7ISHFUH1HQY1S4XDUPO6YF1ZK8ZZ","A5P12YJP805RG","3UAU495MIIEABANG75FBFHDC9WUUOI","","","img/flower6.png","75","671","2","1","2","1,0.5,0.5,0.5,1,0.5,0.5,0.5,1",""
"null","","html-keyboard-response","249","191817","0.0-249.0","3Z7ISHFUH1HQY1S4XDUPO6YF1ZK8ZZ","A5P12YJP805RG","3UAU495MIIEABANG75FBFHDC9WUUOI","","","<img src=""img/flower6.png"" style=""width:200px; border:14px solid green;"">","null","","","","","",""
"777.7000000476837","","image-keyboard-response","250","192595","0.0-250.0","3Z7ISHFUH1HQY1S4XDUPO6YF1ZK8ZZ","A5P12YJP805RG","3UAU495MIIEABANG75FBFHDC9WUUOI","","","img/flower3.png","76","778.1999998092651","3","1","3","1,0.5,0.5,0.5,1,0.5,0.5,0.5,1",""
"null","","html-keyboard-response","251","192902","0.0-251.0","3Z7ISHFUH1HQY1S4XDUPO6YF1ZK8ZZ","A5P12YJP805RG","3UAU495MIIEABANG75FBFHDC9WUUOI","","","<img src=""img/flower3.png"" style=""width:200px; border:14px solid green;"">","null","","","","","",""
"1051.9000000953674","","image-keyboard-response","252","193955","0.0-252.0","3Z7ISHFUH1HQY1S4XDUPO6YF1ZK8ZZ","A5P12YJP805RG","3UAU495MIIEABANG75FBFHDC9WUUOI","","","img/flower5.png","74","1052.5","1","1","1","1,0.5,0.5,0.5,1,0.5,0.5,0.5,1",""
"null","","html-keyboard-response","253","194272","0.0-253.0","3Z7ISHFUH1HQY1S4XDUPO6YF1ZK8ZZ","A5P12YJP805RG","3UAU495MIIEABANG75FBFHDC9WUUOI","","","<img src=""img/flower5.png"" style=""width:200px; border:14px solid green;"">","null","","","","","",""
"1426.6000001430511","","image-keyboard-response","254","195699","0.0-254.0","3Z7ISHFUH1HQY1S4XDUPO6YF1ZK8ZZ","A5P12YJP805RG","3UAU495MIIEABANG75FBFHDC9WUUOI","","","img/flower3.png","76","1427","3","1","3","1,0.5,0.5,0.5,1,0.5,0.5,0.5,1",""
"null","","html-keyboard-response","255","196013","0.0-255.0","3Z7ISHFUH1HQY1S4XDUPO6YF1ZK8ZZ","A5P12YJP805RG","3UAU495MIIEABANG75FBFHDC9WUUOI","","","<img src=""img/flower3.png"" style=""width:200px; border:14px solid green;"">","null","","","","","",""
"902.2000000476837","","image-keyboard-response","256","196916","0.0-256.0","3Z7ISHFUH1HQY1S4XDUPO6YF1ZK8ZZ","A5P12YJP805RG","3UAU495MIIEABANG75FBFHDC9WUUOI","","","img/flower5.png","74","902.7000000476837","1","1","1","1,0.5,0.5,0.5,1,0.5,0.5,0.5,1",""
"null","","html-keyboard-response","257","197223","0.0-257.0","3Z7ISHFUH1HQY1S4XDUPO6YF1ZK8ZZ","A5P12YJP805RG","3UAU495MIIEABANG75FBFHDC9WUUOI","","","<img src=""img/flower5.png"" style=""width:200px; border:14px solid green;"">","null","","","","","",""
"644.2999999523163","","image-keyboard-response","258","197868","0.0-258.0","3Z7ISHFUH1HQY1S4XDUPO6YF1ZK8ZZ","A5P12YJP805RG","3UAU495MIIEABANG75FBFHDC9WUUOI","","","img/flower3.png","76","644.9000000953674","3","1","3","1,0.5,0.5,0.5,1,0.5,0.5,0.5,1",""
"null","","html-keyboard-response","259","198183","0.0-259.0","3Z7ISHFUH1HQY1S4XDUPO6YF1ZK8ZZ","A5P12YJP805RG","3UAU495MIIEABANG75FBFHDC9WUUOI","","","<img src=""img/flower3.png"" style=""width:200px; border:14px solid green;"">","null","","","","","",""
"556","","image-keyboard-response","260","198740","0.0-260.0","3Z7ISHFUH1HQY1S4XDUPO6YF1ZK8ZZ","A5P12YJP805RG","3UAU495MIIEABANG75FBFHDC9WUUOI","","","img/flower3.png","76","556.7000000476837","3","1","3","1,0.5,0.5,0.5,1,0.5,0.5,0.5,1",""
"null","","html-keyboard-response","261","199051","0.0-261.0","3Z7ISHFUH1HQY1S4XDUPO6YF1ZK8ZZ","A5P12YJP805RG","3UAU495MIIEABANG75FBFHDC9WUUOI","","","<img src=""img/flower3.png"" style=""width:200px; border:14px solid green;"">","null","","","","","",""
"3313.2000000476837","","image-keyboard-response","262","202365","0.0-262.0","3Z7ISHFUH1HQY1S4XDUPO6YF1ZK8ZZ","A5P12YJP805RG","3UAU495MIIEABANG75FBFHDC9WUUOI","","","img/flower5.png","74","3313.7000000476837","1","1","1","1,0.5,0.5,0.5,1,0.5,0.5,0.5,1",""
"null","","html-keyboard-response","263","202672","0.0-263.0","3Z7ISHFUH1HQY1S4XDUPO6YF1ZK8ZZ","A5P12YJP805RG","3UAU495MIIEABANG75FBFHDC9WUUOI","","","<img src=""img/flower5.png"" style=""width:200px; border:14px solid green;"">","null","","","","","",""
"339.7000000476837","","image-keyboard-response","264","203013","0.0-264.0","3Z7ISHFUH1HQY1S4XDUPO6YF1ZK8ZZ","A5P12YJP805RG","3UAU495MIIEABANG75FBFHDC9WUUOI","","","img/flower5.png","74","340.2999999523163","1","1","1","1,0.5,0.5,0.5,1,0.5,0.5,0.5,1",""
"null","","html-keyboard-response","265","203322","0.0-265.0","3Z7ISHFUH1HQY1S4XDUPO6YF1ZK8ZZ","A5P12YJP805RG","3UAU495MIIEABANG75FBFHDC9WUUOI","","","<img src=""img/flower5.png"" style=""width:200px; border:14px solid green;"">","null","","","","","",""
"314.30000019073486","","image-keyboard-response","266","203637","0.0-266.0","3Z7ISHFUH1HQY1S4XDUPO6YF1ZK8ZZ","A5P12YJP805RG","3UAU495MIIEABANG75FBFHDC9WUUOI","","","img/flower5.png","74","314.7999999523163","1","1","1","1,0.5,0.5,0.5,1,0.5,0.5,0.5,1",""
"null","","html-keyboard-response","267","203940","0.0-267.0","3Z7ISHFUH1HQY1S4XDUPO6YF1ZK8ZZ","A5P12YJP805RG","3UAU495MIIEABANG75FBFHDC9WUUOI","","","<img src=""img/flower5.png"" style=""width:200px; border:14px solid green;"">","null","","","","","",""
"321","","image-keyboard-response","268","204261","0.0-268.0","3Z7ISHFUH1HQY1S4XDUPO6YF1ZK8ZZ","A5P12YJP805RG","3UAU495MIIEABANG75FBFHDC9WUUOI","","","img/flower5.png","74","321.5","1","1","1","1,0.5,0.5,0.5,1,0.5,0.5,0.5,1",""
"null","","html-keyboard-response","269","204564","0.0-269.0","3Z7ISHFUH1HQY1S4XDUPO6YF1ZK8ZZ","A5P12YJP805RG","3UAU495MIIEABANG75FBFHDC9WUUOI","","","<img src=""img/flower5.png"" style=""width:200px; border:14px solid green;"">","null","","","","","",""
"2464.4000000953674","","image-keyboard-response","270","207029","0.0-270.0","3Z7ISHFUH1HQY1S4XDUPO6YF1ZK8ZZ","A5P12YJP805RG","3UAU495MIIEABANG75FBFHDC9WUUOI","","","img/flower3.png","76","2465.2000000476837","3","1","3","1,0.5,0.5,0.5,1,0.5,0.5,0.5,1",""
"null","","html-keyboard-response","271","207342","0.0-271.0","3Z7ISHFUH1HQY1S4XDUPO6YF1ZK8ZZ","A5P12YJP805RG","3UAU495MIIEABANG75FBFHDC9WUUOI","","","<img src=""img/flower3.png"" style=""width:200px; border:14px solid green;"">","null","","","","","",""
"637.9000000953674","","image-keyboard-response","272","207981","0.0-272.0","3Z7ISHFUH1HQY1S4XDUPO6YF1ZK8ZZ","A5P12YJP805RG","3UAU495MIIEABANG75FBFHDC9WUUOI","","","img/flower5.png","74","638.6000001430511","1","1","1","1,0.5,0.5,0.5,1,0.5,0.5,0.5,1",""
"null","","html-keyboard-response","273","208292","0.0-273.0","3Z7ISHFUH1HQY1S4XDUPO6YF1ZK8ZZ","A5P12YJP805RG","3UAU495MIIEABANG75FBFHDC9WUUOI","","","<img src=""img/flower5.png"" style=""width:200px; border:14px solid green;"">","null","","","","","",""
"497.30000019073486","","image-keyboard-response","274","208790","0.0-274.0","3Z7ISHFUH1HQY1S4XDUPO6YF1ZK8ZZ","A5P12YJP805RG","3UAU495MIIEABANG75FBFHDC9WUUOI","","","img/flower3.png","76","497.89999985694885","3","1","3","1,0.5,0.5,0.5,1,0.5,0.5,0.5,1",""
"null","","html-keyboard-response","275","209100","0.0-275.0","3Z7ISHFUH1HQY1S4XDUPO6YF1ZK8ZZ","A5P12YJP805RG","3UAU495MIIEABANG75FBFHDC9WUUOI","","","<img src=""img/flower3.png"" style=""width:200px; border:14px solid green;"">","null","","","","","",""
"393.7000000476837","","image-keyboard-response","276","209494","0.0-276.0","3Z7ISHFUH1HQY1S4XDUPO6YF1ZK8ZZ","A5P12YJP805RG","3UAU495MIIEABANG75FBFHDC9WUUOI","","","img/flower3.png","76","394.2000000476837","3","1","3","1,0.5,0.5,0.5,1,0.5,0.5,0.5,1",""
"null","","html-keyboard-response","277","209798","0.0-277.0","3Z7ISHFUH1HQY1S4XDUPO6YF1ZK8ZZ","A5P12YJP805RG","3UAU495MIIEABANG75FBFHDC9WUUOI","","","<img src=""img/flower3.png"" style=""width:200px; border:14px solid green;"">","null","","","","","",""
"806.5999999046326","","image-keyboard-response","278","210606","0.0-278.0","3Z7ISHFUH1HQY1S4XDUPO6YF1ZK8ZZ","A5P12YJP805RG","3UAU495MIIEABANG75FBFHDC9WUUOI","","","img/flower6.png","75","807.0999999046326","2","1","2","1,0.5,0.5,0.5,1,0.5,0.5,0.5,1",""
"null","","html-keyboard-response","279","210919","0.0-279.0","3Z7ISHFUH1HQY1S4XDUPO6YF1ZK8ZZ","A5P12YJP805RG","3UAU495MIIEABANG75FBFHDC9WUUOI","","","<img src=""img/flower6.png"" style=""width:200px; border:14px solid green;"">","null","","","","","",""
"1742.5999999046326","","image-keyboard-response","280","212663","0.0-280.0","3Z7ISHFUH1HQY1S4XDUPO6YF1ZK8ZZ","A5P12YJP805RG","3UAU495MIIEABANG75FBFHDC9WUUOI","","","img/flower5.png","76","1743.2000000476837","3","0","1","1,0.5,0.5,0.5,1,0.5,0.5,0.5,1",""
"null","","html-keyboard-response","281","212965","0.0-281.0","3Z7ISHFUH1HQY1S4XDUPO6YF1ZK8ZZ","A5P12YJP805RG","3UAU495MIIEABANG75FBFHDC9WUUOI","","","<img src=""img/flower5.png"" style=""width:200px;border:14px solid red;"">","null","","","","","",""
"1416.1000001430511","","image-keyboard-response","282","214382","0.0-282.0","3Z7ISHFUH1HQY1S4XDUPO6YF1ZK8ZZ","A5P12YJP805RG","3UAU495MIIEABANG75FBFHDC9WUUOI","","","img/flower3.png","76","1416.7000000476837","3","1","3","1,0.5,0.5,0.5,1,0.5,0.5,0.5,1",""
"null","","html-keyboard-response","283","214690","0.0-283.0","3Z7ISHFUH1HQY1S4XDUPO6YF1ZK8ZZ","A5P12YJP805RG","3UAU495MIIEABANG75FBFHDC9WUUOI","","","<img src=""img/flower3.png"" style=""width:200px; border:14px solid green;"">","null","","","","","",""
"1243.8999998569489","","image-keyboard-response","284","215934","0.0-284.0","3Z7ISHFUH1HQY1S4XDUPO6YF1ZK8ZZ","A5P12YJP805RG","3UAU495MIIEABANG75FBFHDC9WUUOI","","","img/flower6.png","75","1244.4000000953674","2","1","2","1,0.5,0.5,0.5,1,0.5,0.5,0.5,1",""
"null","","html-keyboard-response","285","216240","0.0-285.0","3Z7ISHFUH1HQY1S4XDUPO6YF1ZK8ZZ","A5P12YJP805RG","3UAU495MIIEABANG75FBFHDC9WUUOI","","","<img src=""img/flower6.png"" style=""width:200px; border:14px solid green;"">","null","","","","","",""
"2838.399999856949","","image-keyboard-response","286","219079","0.0-286.0","3Z7ISHFUH1HQY1S4XDUPO6YF1ZK8ZZ","A5P12YJP805RG","3UAU495MIIEABANG75FBFHDC9WUUOI","","","img/flower3.png","74","2838.9000000953674","1","1","3","1,0.5,0.5,0.5,1,0.5,0.5,0.5,1",""
"null","","html-keyboard-response","287","219380","0.0-287.0","3Z7ISHFUH1HQY1S4XDUPO6YF1ZK8ZZ","A5P12YJP805RG","3UAU495MIIEABANG75FBFHDC9WUUOI","","","<img src=""img/flower3.png"" style=""width:200px; border:14px solid green;"">","null","","","","","",""
"1346","","image-keyboard-response","288","220727","0.0-288.0","3Z7ISHFUH1HQY1S4XDUPO6YF1ZK8ZZ","A5P12YJP805RG","3UAU495MIIEABANG75FBFHDC9WUUOI","","","img/flower5.png","74","1346.5","1","1","1","1,0.5,0.5,0.5,1,0.5,0.5,0.5,1",""
"null","","html-keyboard-response","289","221029","0.0-289.0","3Z7ISHFUH1HQY1S4XDUPO6YF1ZK8ZZ","A5P12YJP805RG","3UAU495MIIEABANG75FBFHDC9WUUOI","","","<img src=""img/flower5.png"" style=""width:200px; border:14px solid green;"">","null","","","","","",""
"649.4000000953674","","image-keyboard-response","290","221679","0.0-290.0","3Z7ISHFUH1HQY1S4XDUPO6YF1ZK8ZZ","A5P12YJP805RG","3UAU495MIIEABANG75FBFHDC9WUUOI","","","img/flower3.png","76","650","3","1","3","1,0.5,0.5,0.5,1,0.5,0.5,0.5,1",""
"null","","html-keyboard-response","291","221994","0.0-291.0","3Z7ISHFUH1HQY1S4XDUPO6YF1ZK8ZZ","A5P12YJP805RG","3UAU495MIIEABANG75FBFHDC9WUUOI","","","<img src=""img/flower3.png"" style=""width:200px; border:14px solid green;"">","null","","","","","",""
"700.5","","image-keyboard-response","292","222695","0.0-292.0","3Z7ISHFUH1HQY1S4XDUPO6YF1ZK8ZZ","A5P12YJP805RG","3UAU495MIIEABANG75FBFHDC9WUUOI","","","img/flower5.png","74","700.9000000953674","1","1","1","1,0.5,0.5,0.5,1,0.5,0.5,0.5,1",""
"null","","html-keyboard-response","293","223000","0.0-293.0","3Z7ISHFUH1HQY1S4XDUPO6YF1ZK8ZZ","A5P12YJP805RG","3UAU495MIIEABANG75FBFHDC9WUUOI","","","<img src=""img/flower5.png"" style=""width:200px; border:14px solid green;"">","null","","","","","",""
"967.1000001430511","","image-keyboard-response","294","223968","0.0-294.0","3Z7ISHFUH1HQY1S4XDUPO6YF1ZK8ZZ","A5P12YJP805RG","3UAU495MIIEABANG75FBFHDC9WUUOI","","","img/flower6.png","75","967.7999999523163","2","1","2","1,0.5,0.5,0.5,1,0.5,0.5,0.5,1",""
"null","","html-keyboard-response","295","224270","0.0-295.0","3Z7ISHFUH1HQY1S4XDUPO6YF1ZK8ZZ","A5P12YJP805RG","3UAU495MIIEABANG75FBFHDC9WUUOI","","","<img src=""img/flower6.png"" style=""width:200px; border:14px solid green;"">","null","","","","","",""
"849.2999999523163","","image-keyboard-response","296","225120","0.0-296.0","3Z7ISHFUH1HQY1S4XDUPO6YF1ZK8ZZ","A5P12YJP805RG","3UAU495MIIEABANG75FBFHDC9WUUOI","","","img/flower3.png","76","849.8000001907349","3","1","3","1,0.5,0.5,0.5,1,0.5,0.5,0.5,1",""
"null","","html-keyboard-response","297","225434","0.0-297.0","3Z7ISHFUH1HQY1S4XDUPO6YF1ZK8ZZ","A5P12YJP805RG","3UAU495MIIEABANG75FBFHDC9WUUOI","","","<img src=""img/flower3.png"" style=""width:200px; border:14px solid green;"">","null","","","","","",""
"381.2000000476837","","image-keyboard-response","298","225816","0.0-298.0","3Z7ISHFUH1HQY1S4XDUPO6YF1ZK8ZZ","A5P12YJP805RG","3UAU495MIIEABANG75FBFHDC9WUUOI","","","img/flower3.png","76","381.69999980926514","3","1","3","1,0.5,0.5,0.5,1,0.5,0.5,0.5,1",""
"null","","html-keyboard-response","299","226132","0.0-299.0","3Z7ISHFUH1HQY1S4XDUPO6YF1ZK8ZZ","A5P12YJP805RG","3UAU495MIIEABANG75FBFHDC9WUUOI","","","<img src=""img/flower3.png"" style=""width:200px; border:14px solid green;"">","null","","","","","",""
"1106.7999999523163","","image-keyboard-response","300","227240","0.0-300.0","3Z7ISHFUH1HQY1S4XDUPO6YF1ZK8ZZ","A5P12YJP805RG","3UAU495MIIEABANG75FBFHDC9WUUOI","","","img/flower3.png","76","1107.5","3","1","3","1,0.5,0.5,0.5,1,0.5,0.5,0.5,1",""
"null","","html-keyboard-response","301","227548","0.0-301.0","3Z7ISHFUH1HQY1S4XDUPO6YF1ZK8ZZ","A5P12YJP805RG","3UAU495MIIEABANG75FBFHDC9WUUOI","","","<img src=""img/flower3.png"" style=""width:200px; border:14px solid green;"">","null","","","","","",""
"851","","image-keyboard-response","302","228400","0.0-302.0","3Z7ISHFUH1HQY1S4XDUPO6YF1ZK8ZZ","A5P12YJP805RG","3UAU495MIIEABANG75FBFHDC9WUUOI","","","img/flower6.png","75","851.7000000476837","2","1","2","1,0.5,0.5,0.5,1,0.5,0.5,0.5,1",""
"null","","html-keyboard-response","303","228712","0.0-303.0","3Z7ISHFUH1HQY1S4XDUPO6YF1ZK8ZZ","A5P12YJP805RG","3UAU495MIIEABANG75FBFHDC9WUUOI","","","<img src=""img/flower6.png"" style=""width:200px; border:14px solid green;"">","null","","","","","",""
"711.1999998092651","","image-keyboard-response","304","229424","0.0-304.0","3Z7ISHFUH1HQY1S4XDUPO6YF1ZK8ZZ","A5P12YJP805RG","3UAU495MIIEABANG75FBFHDC9WUUOI","","","img/flower3.png","76","711.8999998569489","3","1","3","1,0.5,0.5,0.5,1,0.5,0.5,0.5,1",""
"null","","html-keyboard-response","305","229737","0.0-305.0","3Z7ISHFUH1HQY1S4XDUPO6YF1ZK8ZZ","A5P12YJP805RG","3UAU495MIIEABANG75FBFHDC9WUUOI","","","<img src=""img/flower3.png"" style=""width:200px; border:14px solid green;"">","null","","","","","",""
"","","html-keyboard-response","306","231987","0.0-306.0","3Z7ISHFUH1HQY1S4XDUPO6YF1ZK8ZZ","A5P12YJP805RG","3UAU495MIIEABANG75FBFHDC9WUUOI","","","","","","","","","",""
"1277","","image-keyboard-response","307","233265","0.0-307.0","3Z7ISHFUH1HQY1S4XDUPO6YF1ZK8ZZ","A5P12YJP805RG","3UAU495MIIEABANG75FBFHDC9WUUOI","","","img/flower4.png","74","1277.7000000476837","1","1","1","1,1,0,0,1,1,1,0,1",""
"null","","html-keyboard-response","308","233580","0.0-308.0","3Z7ISHFUH1HQY1S4XDUPO6YF1ZK8ZZ","A5P12YJP805RG","3UAU495MIIEABANG75FBFHDC9WUUOI","","","<img src=""img/flower4.png"" style=""width:200px; border:14px solid green;"">","null","","","","","",""
"1012.4000000953674","","image-keyboard-response","309","234593","0.0-309.0","3Z7ISHFUH1HQY1S4XDUPO6YF1ZK8ZZ","A5P12YJP805RG","3UAU495MIIEABANG75FBFHDC9WUUOI","","","img/flower1.png","74","1013.2000000476837","1","1","3","1,1,0,0,1,1,1,0,1",""
"null","","html-keyboard-response","310","234908","0.0-310.0","3Z7ISHFUH1HQY1S4XDUPO6YF1ZK8ZZ","A5P12YJP805RG","3UAU495MIIEABANG75FBFHDC9WUUOI","","","<img src=""img/flower1.png"" style=""width:200px; border:14px solid green;"">","null","","","","","",""
"716.2000000476837","","image-keyboard-response","311","235625","0.0-311.0","3Z7ISHFUH1HQY1S4XDUPO6YF1ZK8ZZ","A5P12YJP805RG","3UAU495MIIEABANG75FBFHDC9WUUOI","","","img/flower2.png","74","717","1","0","2","1,1,0,0,1,1,1,0,1",""
"null","","html-keyboard-response","312","235932","0.0-312.0","3Z7ISHFUH1HQY1S4XDUPO6YF1ZK8ZZ","A5P12YJP805RG","3UAU495MIIEABANG75FBFHDC9WUUOI","","","<img src=""img/flower2.png"" style=""width:200px;border:14px solid red;"">","null","","","","","",""
"1028.7000000476837","","image-keyboard-response","313","236962","0.0-313.0","3Z7ISHFUH1HQY1S4XDUPO6YF1ZK8ZZ","A5P12YJP805RG","3UAU495MIIEABANG75FBFHDC9WUUOI","","","img/flower4.png","74","1029.2999999523163","1","1","1","1,1,0,0,1,1,1,0,1",""
"null","","html-keyboard-response","314","237266","0.0-314.0","3Z7ISHFUH1HQY1S4XDUPO6YF1ZK8ZZ","A5P12YJP805RG","3UAU495MIIEABANG75FBFHDC9WUUOI","","","<img src=""img/flower4.png"" style=""width:200px; border:14px solid green;"">","null","","","","","",""
"334.7999999523163","","image-keyboard-response","315","237602","0.0-315.0","3Z7ISHFUH1HQY1S4XDUPO6YF1ZK8ZZ","A5P12YJP805RG","3UAU495MIIEABANG75FBFHDC9WUUOI","","","img/flower4.png","74","335.59999990463257","1","1","1","1,1,0,0,1,1,1,0,1",""
"null","","html-keyboard-response","316","237904","0.0-316.0","3Z7ISHFUH1HQY1S4XDUPO6YF1ZK8ZZ","A5P12YJP805RG","3UAU495MIIEABANG75FBFHDC9WUUOI","","","<img src=""img/flower4.png"" style=""width:200px; border:14px solid green;"">","null","","","","","",""
"689.2999999523163","","image-keyboard-response","317","238594","0.0-317.0","3Z7ISHFUH1HQY1S4XDUPO6YF1ZK8ZZ","A5P12YJP805RG","3UAU495MIIEABANG75FBFHDC9WUUOI","","","img/flower1.png","74","690","1","1","3","1,1,0,0,1,1,1,0,1",""
"null","","html-keyboard-response","318","238903","0.0-318.0","3Z7ISHFUH1HQY1S4XDUPO6YF1ZK8ZZ","A5P12YJP805RG","3UAU495MIIEABANG75FBFHDC9WUUOI","","","<img src=""img/flower1.png"" style=""width:200px; border:14px solid green;"">","null","","","","","",""
"602.5","","image-keyboard-response","319","239506","0.0-319.0","3Z7ISHFUH1HQY1S4XDUPO6YF1ZK8ZZ","A5P12YJP805RG","3UAU495MIIEABANG75FBFHDC9WUUOI","","","img/flower2.png","74","603.3000001907349","1","0","2","1,1,0,0,1,1,1,0,1",""
"null","","html-keyboard-response","320","239820","0.0-320.0","3Z7ISHFUH1HQY1S4XDUPO6YF1ZK8ZZ","A5P12YJP805RG","3UAU495MIIEABANG75FBFHDC9WUUOI","","","<img src=""img/flower2.png"" style=""width:200px;border:14px solid red;"">","null","","","","","",""
"1541.7999999523163","","image-keyboard-response","321","241362","0.0-321.0","3Z7ISHFUH1HQY1S4XDUPO6YF1ZK8ZZ","A5P12YJP805RG","3UAU495MIIEABANG75FBFHDC9WUUOI","","","img/flower1.png","74","1542.2000000476837","1","1","3","1,1,0,0,1,1,1,0,1",""
"null","","html-keyboard-response","322","241667","0.0-322.0","3Z7ISHFUH1HQY1S4XDUPO6YF1ZK8ZZ","A5P12YJP805RG","3UAU495MIIEABANG75FBFHDC9WUUOI","","","<img src=""img/flower1.png"" style=""width:200px; border:14px solid green;"">","null","","","","","",""
"551.3000001907349","","image-keyboard-response","323","242219","0.0-323.0","3Z7ISHFUH1HQY1S4XDUPO6YF1ZK8ZZ","A5P12YJP805RG","3UAU495MIIEABANG75FBFHDC9WUUOI","","","img/flower4.png","74","551.7999999523163","1","1","1","1,1,0,0,1,1,1,0,1",""
"null","","html-keyboard-response","324","242523","0.0-324.0","3Z7ISHFUH1HQY1S4XDUPO6YF1ZK8ZZ","A5P12YJP805RG","3UAU495MIIEABANG75FBFHDC9WUUOI","","","<img src=""img/flower4.png"" style=""width:200px; border:14px solid green;"">","null","","","","","",""
"567.2999999523163","","image-keyboard-response","325","243091","0.0-325.0","3Z7ISHFUH1HQY1S4XDUPO6YF1ZK8ZZ","A5P12YJP805RG","3UAU495MIIEABANG75FBFHDC9WUUOI","","","img/flower1.png","74","567.9000000953674","1","1","3","1,1,0,0,1,1,1,0,1",""
"null","","html-keyboard-response","326","243407","0.0-326.0","3Z7ISHFUH1HQY1S4XDUPO6YF1ZK8ZZ","A5P12YJP805RG","3UAU495MIIEABANG75FBFHDC9WUUOI","","","<img src=""img/flower1.png"" style=""width:200px; border:14px solid green;"">","null","","","","","",""
"499.2000000476837","","image-keyboard-response","327","243907","0.0-327.0","3Z7ISHFUH1HQY1S4XDUPO6YF1ZK8ZZ","A5P12YJP805RG","3UAU495MIIEABANG75FBFHDC9WUUOI","","","img/flower4.png","74","499.7000000476837","1","1","1","1,1,0,0,1,1,1,0,1",""
"null","","html-keyboard-response","328","244210","0.0-328.0","3Z7ISHFUH1HQY1S4XDUPO6YF1ZK8ZZ","A5P12YJP805RG","3UAU495MIIEABANG75FBFHDC9WUUOI","","","<img src=""img/flower4.png"" style=""width:200px; border:14px solid green;"">","null","","","","","",""
"1023.6000001430511","","image-keyboard-response","329","245235","0.0-329.0","3Z7ISHFUH1HQY1S4XDUPO6YF1ZK8ZZ","A5P12YJP805RG","3UAU495MIIEABANG75FBFHDC9WUUOI","","","img/flower2.png","75","1024.2000000476837","2","1","2","1,1,0,0,1,1,1,0,1",""
"null","","html-keyboard-response","330","245545","0.0-330.0","3Z7ISHFUH1HQY1S4XDUPO6YF1ZK8ZZ","A5P12YJP805RG","3UAU495MIIEABANG75FBFHDC9WUUOI","","","<img src=""img/flower2.png"" style=""width:200px; border:14px solid green;"">","null","","","","","",""
"609.5","","image-keyboard-response","331","246155","0.0-331.0","3Z7ISHFUH1HQY1S4XDUPO6YF1ZK8ZZ","A5P12YJP805RG","3UAU495MIIEABANG75FBFHDC9WUUOI","","","img/flower1.png","74","610.0999999046326","1","1","3","1,1,0,0,1,1,1,0,1",""
"null","","html-keyboard-response","332","246463","0.0-332.0","3Z7ISHFUH1HQY1S4XDUPO6YF1ZK8ZZ","A5P12YJP805RG","3UAU495MIIEABANG75FBFHDC9WUUOI","","","<img src=""img/flower1.png"" style=""width:200px; border:14px solid green;"">","null","","","","","",""
"451","","image-keyboard-response","333","246915","0.0-333.0","3Z7ISHFUH1HQY1S4XDUPO6YF1ZK8ZZ","A5P12YJP805RG","3UAU495MIIEABANG75FBFHDC9WUUOI","","","img/flower4.png","74","451.5","1","1","1","1,1,0,0,1,1,1,0,1",""
"null","","html-keyboard-response","334","247225","0.0-334.0","3Z7ISHFUH1HQY1S4XDUPO6YF1ZK8ZZ","A5P12YJP805RG","3UAU495MIIEABANG75FBFHDC9WUUOI","","","<img src=""img/flower4.png"" style=""width:200px; border:14px solid green;"">","null","","","","","",""
"602.3999998569489","","image-keyboard-response","335","247828","0.0-335.0","3Z7ISHFUH1HQY1S4XDUPO6YF1ZK8ZZ","A5P12YJP805RG","3UAU495MIIEABANG75FBFHDC9WUUOI","","","img/flower1.png","74","603","1","1","3","1,1,0,0,1,1,1,0,1",""
"null","","html-keyboard-response","336","248142","0.0-336.0","3Z7ISHFUH1HQY1S4XDUPO6YF1ZK8ZZ","A5P12YJP805RG","3UAU495MIIEABANG75FBFHDC9WUUOI","","","<img src=""img/flower1.png"" style=""width:200px; border:14px solid green;"">","null","","","","","",""
"341.09999990463257","","image-keyboard-response","337","248484","0.0-337.0","3Z7ISHFUH1HQY1S4XDUPO6YF1ZK8ZZ","A5P12YJP805RG","3UAU495MIIEABANG75FBFHDC9WUUOI","","","img/flower1.png","74","341.7999999523163","1","1","3","1,1,0,0,1,1,1,0,1",""
"null","","html-keyboard-response","338","248794","0.0-338.0","3Z7ISHFUH1HQY1S4XDUPO6YF1ZK8ZZ","A5P12YJP805RG","3UAU495MIIEABANG75FBFHDC9WUUOI","","","<img src=""img/flower1.png"" style=""width:200px; border:14px solid green;"">","null","","","","","",""
"329","","image-keyboard-response","339","249124","0.0-339.0","3Z7ISHFUH1HQY1S4XDUPO6YF1ZK8ZZ","A5P12YJP805RG","3UAU495MIIEABANG75FBFHDC9WUUOI","","","img/flower1.png","74","329.60000014305115","1","1","3","1,1,0,0,1,1,1,0,1",""
"null","","html-keyboard-response","340","249427","0.0-340.0","3Z7ISHFUH1HQY1S4XDUPO6YF1ZK8ZZ","A5P12YJP805RG","3UAU495MIIEABANG75FBFHDC9WUUOI","","","<img src=""img/flower1.png"" style=""width:200px; border:14px solid green;"">","null","","","","","",""
"735.4000000953674","","image-keyboard-response","341","250164","0.0-341.0","3Z7ISHFUH1HQY1S4XDUPO6YF1ZK8ZZ","A5P12YJP805RG","3UAU495MIIEABANG75FBFHDC9WUUOI","","","img/flower2.png","75","736","2","1","2","1,1,0,0,1,1,1,0,1",""
"null","","html-keyboard-response","342","250479","0.0-342.0","3Z7ISHFUH1HQY1S4XDUPO6YF1ZK8ZZ","A5P12YJP805RG","3UAU495MIIEABANG75FBFHDC9WUUOI","","","<img src=""img/flower2.png"" style=""width:200px; border:14px solid green;"">","null","","","","","",""
"588.2000000476837","","image-keyboard-response","343","251068","0.0-343.0","3Z7ISHFUH1HQY1S4XDUPO6YF1ZK8ZZ","A5P12YJP805RG","3UAU495MIIEABANG75FBFHDC9WUUOI","","","img/flower1.png","74","588.6999998092651","1","1","3","1,1,0,0,1,1,1,0,1",""
"null","","html-keyboard-response","344","251377","0.0-344.0","3Z7ISHFUH1HQY1S4XDUPO6YF1ZK8ZZ","A5P12YJP805RG","3UAU495MIIEABANG75FBFHDC9WUUOI","","","<img src=""img/flower1.png"" style=""width:200px; border:14px solid green;"">","null","","","","","",""
"314.09999990463257","","image-keyboard-response","345","251692","0.0-345.0","3Z7ISHFUH1HQY1S4XDUPO6YF1ZK8ZZ","A5P12YJP805RG","3UAU495MIIEABANG75FBFHDC9WUUOI","","","img/flower1.png","74","314.60000014305115","1","1","3","1,1,0,0,1,1,1,0,1",""
"null","","html-keyboard-response","346","251994","0.0-346.0","3Z7ISHFUH1HQY1S4XDUPO6YF1ZK8ZZ","A5P12YJP805RG","3UAU495MIIEABANG75FBFHDC9WUUOI","","","<img src=""img/flower1.png"" style=""width:200px; border:14px solid green;"">","null","","","","","",""
"513.2999999523163","","image-keyboard-response","347","252508","0.0-347.0","3Z7ISHFUH1HQY1S4XDUPO6YF1ZK8ZZ","A5P12YJP805RG","3UAU495MIIEABANG75FBFHDC9WUUOI","","","img/flower4.png","74","513.7999999523163","1","1","1","1,1,0,0,1,1,1,0,1",""
"null","","html-keyboard-response","348","252814","0.0-348.0","3Z7ISHFUH1HQY1S4XDUPO6YF1ZK8ZZ","A5P12YJP805RG","3UAU495MIIEABANG75FBFHDC9WUUOI","","","<img src=""img/flower4.png"" style=""width:200px; border:14px solid green;"">","null","","","","","",""
"605.3000001907349","","image-keyboard-response","349","253420","0.0-349.0","3Z7ISHFUH1HQY1S4XDUPO6YF1ZK8ZZ","A5P12YJP805RG","3UAU495MIIEABANG75FBFHDC9WUUOI","","","img/flower1.png","74","605.7999999523163","1","1","3","1,1,0,0,1,1,1,0,1",""
"null","","html-keyboard-response","350","253724","0.0-350.0","3Z7ISHFUH1HQY1S4XDUPO6YF1ZK8ZZ","A5P12YJP805RG","3UAU495MIIEABANG75FBFHDC9WUUOI","","","<img src=""img/flower1.png"" style=""width:200px; border:14px solid green;"">","null","","","","","",""
"327.7000000476837","","image-keyboard-response","351","254052","0.0-351.0","3Z7ISHFUH1HQY1S4XDUPO6YF1ZK8ZZ","A5P12YJP805RG","3UAU495MIIEABANG75FBFHDC9WUUOI","","","img/flower1.png","74","328.2000000476837","1","1","3","1,1,0,0,1,1,1,0,1",""
"null","","html-keyboard-response","352","254359","0.0-352.0","3Z7ISHFUH1HQY1S4XDUPO6YF1ZK8ZZ","A5P12YJP805RG","3UAU495MIIEABANG75FBFHDC9WUUOI","","","<img src=""img/flower1.png"" style=""width:200px; border:14px solid green;"">","null","","","","","",""
"812.7000000476837","","image-keyboard-response","353","255172","0.0-353.0","3Z7ISHFUH1HQY1S4XDUPO6YF1ZK8ZZ","A5P12YJP805RG","3UAU495MIIEABANG75FBFHDC9WUUOI","","","img/flower2.png","75","813.2000000476837","2","1","2","1,1,0,0,1,1,1,0,1",""
"null","","html-keyboard-response","354","255474","0.0-354.0","3Z7ISHFUH1HQY1S4XDUPO6YF1ZK8ZZ","A5P12YJP805RG","3UAU495MIIEABANG75FBFHDC9WUUOI","","","<img src=""img/flower2.png"" style=""width:200px; border:14px solid green;"">","null","","","","","",""
"466","","image-keyboard-response","355","255940","0.0-355.0","3Z7ISHFUH1HQY1S4XDUPO6YF1ZK8ZZ","A5P12YJP805RG","3UAU495MIIEABANG75FBFHDC9WUUOI","","","img/flower4.png","74","466.69999980926514","1","1","1","1,1,0,0,1,1,1,0,1",""
"null","","html-keyboard-response","356","256250","0.0-356.0","3Z7ISHFUH1HQY1S4XDUPO6YF1ZK8ZZ","A5P12YJP805RG","3UAU495MIIEABANG75FBFHDC9WUUOI","","","<img src=""img/flower4.png"" style=""width:200px; border:14px solid green;"">","null","","","","","",""
"482","","image-keyboard-response","357","256733","0.0-357.0","3Z7ISHFUH1HQY1S4XDUPO6YF1ZK8ZZ","A5P12YJP805RG","3UAU495MIIEABANG75FBFHDC9WUUOI","","","img/flower2.png","75","482.7999999523163","2","1","2","1,1,0,0,1,1,1,0,1",""
"null","","html-keyboard-response","358","257040","0.0-358.0","3Z7ISHFUH1HQY1S4XDUPO6YF1ZK8ZZ","A5P12YJP805RG","3UAU495MIIEABANG75FBFHDC9WUUOI","","","<img src=""img/flower2.png"" style=""width:200px; border:14px solid green;"">","null","","","","","",""
"387.7000000476837","","image-keyboard-response","359","257429","0.0-359.0","3Z7ISHFUH1HQY1S4XDUPO6YF1ZK8ZZ","A5P12YJP805RG","3UAU495MIIEABANG75FBFHDC9WUUOI","","","img/flower2.png","75","388.40000009536743","2","1","2","1,1,0,0,1,1,1,0,1",""
"null","","html-keyboard-response","360","257736","0.0-360.0","3Z7ISHFUH1HQY1S4XDUPO6YF1ZK8ZZ","A5P12YJP805RG","3UAU495MIIEABANG75FBFHDC9WUUOI","","","<img src=""img/flower2.png"" style=""width:200px; border:14px solid green;"">","null","","","","","",""
"468","","image-keyboard-response","361","258205","0.0-361.0","3Z7ISHFUH1HQY1S4XDUPO6YF1ZK8ZZ","A5P12YJP805RG","3UAU495MIIEABANG75FBFHDC9WUUOI","","","img/flower4.png","74","468.59999990463257","1","1","1","1,1,0,0,1,1,1,0,1",""
"null","","html-keyboard-response","362","258509","0.0-362.0","3Z7ISHFUH1HQY1S4XDUPO6YF1ZK8ZZ","A5P12YJP805RG","3UAU495MIIEABANG75FBFHDC9WUUOI","","","<img src=""img/flower4.png"" style=""width:200px; border:14px solid green;"">","null","","","","","",""
"479.09999990463257","","image-keyboard-response","363","258989","0.0-363.0","3Z7ISHFUH1HQY1S4XDUPO6YF1ZK8ZZ","A5P12YJP805RG","3UAU495MIIEABANG75FBFHDC9WUUOI","","","img/flower2.png","75","479.60000014305115","2","1","2","1,1,0,0,1,1,1,0,1",""
"null","","html-keyboard-response","364","259295","0.0-364.0","3Z7ISHFUH1HQY1S4XDUPO6YF1ZK8ZZ","A5P12YJP805RG","3UAU495MIIEABANG75FBFHDC9WUUOI","","","<img src=""img/flower2.png"" style=""width:200px; border:14px solid green;"">","null","","","","","",""
"341","","image-keyboard-response","365","259637","0.0-365.0","3Z7ISHFUH1HQY1S4XDUPO6YF1ZK8ZZ","A5P12YJP805RG","3UAU495MIIEABANG75FBFHDC9WUUOI","","","img/flower2.png","75","341.40000009536743","2","1","2","1,1,0,0,1,1,1,0,1",""
"null","","html-keyboard-response","366","259951","0.0-366.0","3Z7ISHFUH1HQY1S4XDUPO6YF1ZK8ZZ","A5P12YJP805RG","3UAU495MIIEABANG75FBFHDC9WUUOI","","","<img src=""img/flower2.png"" style=""width:200px; border:14px solid green;"">","null","","","","","",""
"581.1999998092651","","image-keyboard-response","367","260533","0.0-367.0","3Z7ISHFUH1HQY1S4XDUPO6YF1ZK8ZZ","A5P12YJP805RG","3UAU495MIIEABANG75FBFHDC9WUUOI","","","img/flower4.png","74","581.7999999523163","1","1","1","1,1,0,0,1,1,1,0,1",""
"null","","html-keyboard-response","368","260850","0.0-368.0","3Z7ISHFUH1HQY1S4XDUPO6YF1ZK8ZZ","A5P12YJP805RG","3UAU495MIIEABANG75FBFHDC9WUUOI","","","<img src=""img/flower4.png"" style=""width:200px; border:14px solid green;"">","null","","","","","",""
"523.1999998092651","","image-keyboard-response","369","261374","0.0-369.0","3Z7ISHFUH1HQY1S4XDUPO6YF1ZK8ZZ","A5P12YJP805RG","3UAU495MIIEABANG75FBFHDC9WUUOI","","","img/flower1.png","74","523.7999999523163","1","1","3","1,1,0,0,1,1,1,0,1",""
"null","","html-keyboard-response","370","261690","0.0-370.0","3Z7ISHFUH1HQY1S4XDUPO6YF1ZK8ZZ","A5P12YJP805RG","3UAU495MIIEABANG75FBFHDC9WUUOI","","","<img src=""img/flower1.png"" style=""width:200px; border:14px solid green;"">","null","","","","","",""
"443.2000000476837","","image-keyboard-response","371","262134","0.0-371.0","3Z7ISHFUH1HQY1S4XDUPO6YF1ZK8ZZ","A5P12YJP805RG","3UAU495MIIEABANG75FBFHDC9WUUOI","","","img/flower4.png","74","443.90000009536743","1","1","1","1,1,0,0,1,1,1,0,1",""
"null","","html-keyboard-response","372","262435","0.0-372.0","3Z7ISHFUH1HQY1S4XDUPO6YF1ZK8ZZ","A5P12YJP805RG","3UAU495MIIEABANG75FBFHDC9WUUOI","","","<img src=""img/flower4.png"" style=""width:200px; border:14px solid green;"">","null","","","","","",""
"481.89999985694885","","image-keyboard-response","373","262917","0.0-373.0","3Z7ISHFUH1HQY1S4XDUPO6YF1ZK8ZZ","A5P12YJP805RG","3UAU495MIIEABANG75FBFHDC9WUUOI","","","img/flower1.png","74","482.59999990463257","1","1","3","1,1,0,0,1,1,1,0,1",""
"null","","html-keyboard-response","374","263225","0.0-374.0","3Z7ISHFUH1HQY1S4XDUPO6YF1ZK8ZZ","A5P12YJP805RG","3UAU495MIIEABANG75FBFHDC9WUUOI","","","<img src=""img/flower1.png"" style=""width:200px; border:14px solid green;"">","null","","","","","",""
"388.09999990463257","","image-keyboard-response","375","263614","0.0-375.0","3Z7ISHFUH1HQY1S4XDUPO6YF1ZK8ZZ","A5P12YJP805RG","3UAU495MIIEABANG75FBFHDC9WUUOI","","","img/flower1.png","74","388.7999999523163","1","1","3","1,1,0,0,1,1,1,0,1",""
"null","","html-keyboard-response","376","263923","0.0-376.0","3Z7ISHFUH1HQY1S4XDUPO6YF1ZK8ZZ","A5P12YJP805RG","3UAU495MIIEABANG75FBFHDC9WUUOI","","","<img src=""img/flower1.png"" style=""width:200px; border:14px solid green;"">","null","","","","","",""
"498.2000000476837","","image-keyboard-response","377","264422","0.0-377.0","3Z7ISHFUH1HQY1S4XDUPO6YF1ZK8ZZ","A5P12YJP805RG","3UAU495MIIEABANG75FBFHDC9WUUOI","","","img/flower4.png","74","498.90000009536743","1","1","1","1,1,0,0,1,1,1,0,1",""
"null","","html-keyboard-response","378","264731","0.0-378.0","3Z7ISHFUH1HQY1S4XDUPO6YF1ZK8ZZ","A5P12YJP805RG","3UAU495MIIEABANG75FBFHDC9WUUOI","","","<img src=""img/flower4.png"" style=""width:200px; border:14px solid green;"">","null","","","","","",""
"682.4000000953674","","image-keyboard-response","379","265414","0.0-379.0","3Z7ISHFUH1HQY1S4XDUPO6YF1ZK8ZZ","A5P12YJP805RG","3UAU495MIIEABANG75FBFHDC9WUUOI","","","img/flower2.png","75","682.7999999523163","2","1","2","1,1,0,0,1,1,1,0,1",""
"null","","html-keyboard-response","380","265723","0.0-380.0","3Z7ISHFUH1HQY1S4XDUPO6YF1ZK8ZZ","A5P12YJP805RG","3UAU495MIIEABANG75FBFHDC9WUUOI","","","<img src=""img/flower2.png"" style=""width:200px; border:14px solid green;"">","null","","","","","",""
"506.89999985694885","","image-keyboard-response","381","266230","0.0-381.0","3Z7ISHFUH1HQY1S4XDUPO6YF1ZK8ZZ","A5P12YJP805RG","3UAU495MIIEABANG75FBFHDC9WUUOI","","","img/flower4.png","74","507.59999990463257","1","1","1","1,1,0,0,1,1,1,0,1",""
"null","","html-keyboard-response","382","266540","0.0-382.0","3Z7ISHFUH1HQY1S4XDUPO6YF1ZK8ZZ","A5P12YJP805RG","3UAU495MIIEABANG75FBFHDC9WUUOI","","","<img src=""img/flower4.png"" style=""width:200px; border:14px solid green;"">","null","","","","","",""
"312.7999999523163","","image-keyboard-response","383","266854","0.0-383.0","3Z7ISHFUH1HQY1S4XDUPO6YF1ZK8ZZ","A5P12YJP805RG","3UAU495MIIEABANG75FBFHDC9WUUOI","","","img/flower4.png","74","313.40000009536743","1","1","1","1,1,0,0,1,1,1,0,1",""
"null","","html-keyboard-response","384","267161","0.0-384.0","3Z7ISHFUH1HQY1S4XDUPO6YF1ZK8ZZ","A5P12YJP805RG","3UAU495MIIEABANG75FBFHDC9WUUOI","","","<img src=""img/flower4.png"" style=""width:200px; border:14px solid green;"">","null","","","","","",""
"588.7000000476837","","image-keyboard-response","385","267751","0.0-385.0","3Z7ISHFUH1HQY1S4XDUPO6YF1ZK8ZZ","A5P12YJP805RG","3UAU495MIIEABANG75FBFHDC9WUUOI","","","img/flower2.png","75","589.2000000476837","2","1","2","1,1,0,0,1,1,1,0,1",""
"null","","html-keyboard-response","386","268053","0.0-386.0","3Z7ISHFUH1HQY1S4XDUPO6YF1ZK8ZZ","A5P12YJP805RG","3UAU495MIIEABANG75FBFHDC9WUUOI","","","<img src=""img/flower2.png"" style=""width:200px; border:14px solid green;"">","null","","","","","",""
"497.5","","image-keyboard-response","387","268551","0.0-387.0","3Z7ISHFUH1HQY1S4XDUPO6YF1ZK8ZZ","A5P12YJP805RG","3UAU495MIIEABANG75FBFHDC9WUUOI","","","img/flower4.png","74","498","1","1","1","1,1,0,0,1,1,1,0,1",""
"null","","html-keyboard-response","388","268855","0.0-388.0","3Z7ISHFUH1HQY1S4XDUPO6YF1ZK8ZZ","A5P12YJP805RG","3UAU495MIIEABANG75FBFHDC9WUUOI","","","<img src=""img/flower4.png"" style=""width:200px; border:14px solid green;"">","null","","","","","",""
"632.2999999523163","","image-keyboard-response","389","269487","0.0-389.0","3Z7ISHFUH1HQY1S4XDUPO6YF1ZK8ZZ","A5P12YJP805RG","3UAU495MIIEABANG75FBFHDC9WUUOI","","","img/flower1.png","74","632.7000000476837","1","1","3","1,1,0,0,1,1,1,0,1",""
"null","","html-keyboard-response","390","269789","0.0-390.0","3Z7ISHFUH1HQY1S4XDUPO6YF1ZK8ZZ","A5P12YJP805RG","3UAU495MIIEABANG75FBFHDC9WUUOI","","","<img src=""img/flower1.png"" style=""width:200px; border:14px solid green;"">","null","","","","","",""
"416.90000009536743","","image-keyboard-response","391","270207","0.0-391.0","3Z7ISHFUH1HQY1S4XDUPO6YF1ZK8ZZ","A5P12YJP805RG","3UAU495MIIEABANG75FBFHDC9WUUOI","","","img/flower4.png","74","417.5","1","1","1","1,1,0,0,1,1,1,0,1",""
"null","","html-keyboard-response","392","270517","0.0-392.0","3Z7ISHFUH1HQY1S4XDUPO6YF1ZK8ZZ","A5P12YJP805RG","3UAU495MIIEABANG75FBFHDC9WUUOI","","","<img src=""img/flower4.png"" style=""width:200px; border:14px solid green;"">","null","","","","","",""
"497.2999999523163","","image-keyboard-response","393","271015","0.0-393.0","3Z7ISHFUH1HQY1S4XDUPO6YF1ZK8ZZ","A5P12YJP805RG","3UAU495MIIEABANG75FBFHDC9WUUOI","","","img/flower2.png","75","497.90000009536743","2","1","2","1,1,0,0,1,1,1,0,1",""
"null","","html-keyboard-response","394","271326","0.0-394.0","3Z7ISHFUH1HQY1S4XDUPO6YF1ZK8ZZ","A5P12YJP805RG","3UAU495MIIEABANG75FBFHDC9WUUOI","","","<img src=""img/flower2.png"" style=""width:200px; border:14px solid green;"">","null","","","","","",""
"528","","image-keyboard-response","395","271855","0.0-395.0","3Z7ISHFUH1HQY1S4XDUPO6YF1ZK8ZZ","A5P12YJP805RG","3UAU495MIIEABANG75FBFHDC9WUUOI","","","img/flower4.png","74","528.4000000953674","1","1","1","1,1,0,0,1,1,1,0,1",""
"null","","html-keyboard-response","396","272166","0.0-396.0","3Z7ISHFUH1HQY1S4XDUPO6YF1ZK8ZZ","A5P12YJP805RG","3UAU495MIIEABANG75FBFHDC9WUUOI","","","<img src=""img/flower4.png"" style=""width:200px; border:14px solid green;"">","null","","","","","",""
"480.2000000476837","","image-keyboard-response","397","272647","0.0-397.0","3Z7ISHFUH1HQY1S4XDUPO6YF1ZK8ZZ","A5P12YJP805RG","3UAU495MIIEABANG75FBFHDC9WUUOI","","","img/flower2.png","75","480.7999999523163","2","1","2","1,1,0,0,1,1,1,0,1",""
"null","","html-keyboard-response","398","272959","0.0-398.0","3Z7ISHFUH1HQY1S4XDUPO6YF1ZK8ZZ","A5P12YJP805RG","3UAU495MIIEABANG75FBFHDC9WUUOI","","","<img src=""img/flower2.png"" style=""width:200px; border:14px solid green;"">","null","","","","","",""
"487","","image-keyboard-response","399","273447","0.0-399.0","3Z7ISHFUH1HQY1S4XDUPO6YF1ZK8ZZ","A5P12YJP805RG","3UAU495MIIEABANG75FBFHDC9WUUOI","","","img/flower4.png","74","487.5","1","1","1","1,1,0,0,1,1,1,0,1",""
"null","","html-keyboard-response","400","273762","0.0-400.0","3Z7ISHFUH1HQY1S4XDUPO6YF1ZK8ZZ","A5P12YJP805RG","3UAU495MIIEABANG75FBFHDC9WUUOI","","","<img src=""img/flower4.png"" style=""width:200px; border:14px solid green;"">","null","","","","","",""
"556.9000000953674","","image-keyboard-response","401","274320","0.0-401.0","3Z7ISHFUH1HQY1S4XDUPO6YF1ZK8ZZ","A5P12YJP805RG","3UAU495MIIEABANG75FBFHDC9WUUOI","","","img/flower1.png","74","557.5","1","1","3","1,1,0,0,1,1,1,0,1",""
"null","","html-keyboard-response","402","274629","0.0-402.0","3Z7ISHFUH1HQY1S4XDUPO6YF1ZK8ZZ","A5P12YJP805RG","3UAU495MIIEABANG75FBFHDC9WUUOI","","","<img src=""img/flower1.png"" style=""width:200px; border:14px solid green;"">","null","","","","","",""
"337.39999985694885","","image-keyboard-response","403","274967","0.0-403.0","3Z7ISHFUH1HQY1S4XDUPO6YF1ZK8ZZ","A5P12YJP805RG","3UAU495MIIEABANG75FBFHDC9WUUOI","","","img/flower1.png","74","338","1","1","3","1,1,0,0,1,1,1,0,1",""
"null","","html-keyboard-response","404","275279","0.0-404.0","3Z7ISHFUH1HQY1S4XDUPO6YF1ZK8ZZ","A5P12YJP805RG","3UAU495MIIEABANG75FBFHDC9WUUOI","","","<img src=""img/flower1.png"" style=""width:200px; border:14px solid green;"">","null","","","","","",""
"535.7999999523163","","image-keyboard-response","405","275815","0.0-405.0","3Z7ISHFUH1HQY1S4XDUPO6YF1ZK8ZZ","A5P12YJP805RG","3UAU495MIIEABANG75FBFHDC9WUUOI","","","img/flower2.png","75","536.3000001907349","2","1","2","1,1,0,0,1,1,1,0,1",""
