"success","trial_type","trial_index","time_elapsed","internal_node_id","assignmentID","mturkID","hitID","view_history","rt","stimulus","key_press","reactionTime","a","r","s","cond","reward_cond","reward_cond_actual","reward_matrix_idx","responses"
"true","fullscreen","0","2908","0.0-0.0","3HOSI13XH0AZCVJZM3G8J6TDR8DDDK","A7QAPZ1YVA0K2","3FVBZG9CLJ0K37PD5L6161S4HTM0HN","","","","","","","","","","","","",""
"","instructions","1","16984","0.0-1.0","3HOSI13XH0AZCVJZM3G8J6TDR8DDDK","A7QAPZ1YVA0K2","3FVBZG9CLJ0K37PD5L6161S4HTM0HN","[{""page_index"":0,""viewing_time"":1525},{""page_index"":1,""viewing_time"":1446},{""page_index"":2,""viewing_time"":102},{""page_index"":3,""viewing_time"":857},{""page_index"":4,""viewing_time"":4119},{""page_index"":5,""viewing_time"":3408},{""page_index"":6,""viewing_time"":1330},{""page_index"":7,""viewing_time"":1284}]","14072","","","","","","","","","","",""
"","image-keyboard-response","2","18066","0.0-2.0","3HOSI13XH0AZCVJZM3G8J6TDR8DDDK","A7QAPZ1YVA0K2","3FVBZG9CLJ0K37PD5L6161S4HTM0HN","","1079","img/flower5.png","75","1081","2","0","1","1","1,0.333,0.333,0.333,1,0.333,0.333,0.333,1","1,0.333,0.333,0.333,1,0.333,0.333,0.333,1","1",""
"","html-keyboard-response","3","18368","0.0-3.0","3HOSI13XH0AZCVJZM3G8J6TDR8DDDK","A7QAPZ1YVA0K2","3FVBZG9CLJ0K37PD5L6161S4HTM0HN","","null","<img src=""img/flower5.png"" style=""width:200px;border:14px solid red;"">","null","","","","","","","","",""
"","image-keyboard-response","4","18711","0.0-4.0","3HOSI13XH0AZCVJZM3G8J6TDR8DDDK","A7QAPZ1YVA0K2","3FVBZG9CLJ0K37PD5L6161S4HTM0HN","","339","img/flower6.png","74","342","1","1","3","1","1,0.333,0.333,0.333,1,0.333,0.333,0.333,1","1,0.333,0.333,0.333,1,0.333,0.333,0.333,1","1",""
"","html-keyboard-response","5","19012","0.0-5.0","3HOSI13XH0AZCVJZM3G8J6TDR8DDDK","A7QAPZ1YVA0K2","3FVBZG9CLJ0K37PD5L6161S4HTM0HN","","null","<img src=""img/flower6.png"" style=""width:200px; border:14px solid green;"">","null","","","","","","","","",""
"","image-keyboard-response","6","19402","0.0-6.0","3HOSI13XH0AZCVJZM3G8J6TDR8DDDK","A7QAPZ1YVA0K2","3FVBZG9CLJ0K37PD5L6161S4HTM0HN","","387","img/flower6.png","74","389","1","0","3","1","1,0.333,0.333,0.333,1,0.333,0.333,0.333,1","1,0.333,0.333,0.333,1,0.333,0.333,0.333,1","1",""
"","html-keyboard-response","7","19705","0.0-7.0","3HOSI13XH0AZCVJZM3G8J6TDR8DDDK","A7QAPZ1YVA0K2","3FVBZG9CLJ0K37PD5L6161S4HTM0HN","","null","<img src=""img/flower6.png"" style=""width:200px;border:14px solid red;"">","null","","","","","","","","",""
"","image-keyboard-response","8","20150","0.0-8.0","3HOSI13XH0AZCVJZM3G8J6TDR8DDDK","A7QAPZ1YVA0K2","3FVBZG9CLJ0K37PD5L6161S4HTM0HN","","443","img/flower2.png","76","444","3","1","2","1","1,0.333,0.333,0.333,1,0.333,0.333,0.333,1","1,0.333,0.333,0.333,1,0.333,0.333,0.333,1","1",""
"","html-keyboard-response","9","20454","0.0-9.0","3HOSI13XH0AZCVJZM3G8J6TDR8DDDK","A7QAPZ1YVA0K2","3FVBZG9CLJ0K37PD5L6161S4HTM0HN","","null","<img src=""img/flower2.png"" style=""width:200px; border:14px solid green;"">","null","","","","","","","","",""
"","image-keyboard-response","10","21011","0.0-10.0","3HOSI13XH0AZCVJZM3G8J6TDR8DDDK","A7QAPZ1YVA0K2","3FVBZG9CLJ0K37PD5L6161S4HTM0HN","","555","img/flower5.png","75","555","2","1","1","1","1,0.333,0.333,0.333,1,0.333,0.333,0.333,1","1,0.333,0.333,0.333,1,0.333,0.333,0.333,1","1",""
"","html-keyboard-response","11","21313","0.0-11.0","3HOSI13XH0AZCVJZM3G8J6TDR8DDDK","A7QAPZ1YVA0K2","3FVBZG9CLJ0K37PD5L6161S4HTM0HN","","null","<img src=""img/flower5.png"" style=""width:200px; border:14px solid green;"">","null","","","","","","","","",""
"","image-keyboard-response","12","21981","0.0-12.0","3HOSI13XH0AZCVJZM3G8J6TDR8DDDK","A7QAPZ1YVA0K2","3FVBZG9CLJ0K37PD5L6161S4HTM0HN","","664","img/flower2.png","76","667","3","1","2","1","1,0.333,0.333,0.333,1,0.333,0.333,0.333,1","1,0.333,0.333,0.333,1,0.333,0.333,0.333,1","1",""
"","html-keyboard-response","13","22284","0.0-13.0","3HOSI13XH0AZCVJZM3G8J6TDR8DDDK","A7QAPZ1YVA0K2","3FVBZG9CLJ0K37PD5L6161S4HTM0HN","","null","<img src=""img/flower2.png"" style=""width:200px; border:14px solid green;"">","null","","","","","","","","",""
"","image-keyboard-response","14","23120","0.0-14.0","3HOSI13XH0AZCVJZM3G8J6TDR8DDDK","A7QAPZ1YVA0K2","3FVBZG9CLJ0K37PD5L6161S4HTM0HN","","831","img/flower6.png","74","834","1","0","3","1","1,0.333,0.333,0.333,1,0.333,0.333,0.333,1","1,0.333,0.333,0.333,1,0.333,0.333,0.333,1","1",""
"","html-keyboard-response","15","23423","0.0-15.0","3HOSI13XH0AZCVJZM3G8J6TDR8DDDK","A7QAPZ1YVA0K2","3FVBZG9CLJ0K37PD5L6161S4HTM0HN","","null","<img src=""img/flower6.png"" style=""width:200px;border:14px solid red;"">","null","","","","","","","","",""
"","image-keyboard-response","16","24011","0.0-16.0","3HOSI13XH0AZCVJZM3G8J6TDR8DDDK","A7QAPZ1YVA0K2","3FVBZG9CLJ0K37PD5L6161S4HTM0HN","","586","img/flower2.png","75","588","2","1","2","1","1,0.333,0.333,0.333,1,0.333,0.333,0.333,1","1,0.333,0.333,0.333,1,0.333,0.333,0.333,1","1",""
"","html-keyboard-response","17","24315","0.0-17.0","3HOSI13XH0AZCVJZM3G8J6TDR8DDDK","A7QAPZ1YVA0K2","3FVBZG9CLJ0K37PD5L6161S4HTM0HN","","null","<img src=""img/flower2.png"" style=""width:200px; border:14px solid green;"">","null","","","","","","","","",""
"","image-keyboard-response","18","24969","0.0-18.0","3HOSI13XH0AZCVJZM3G8J6TDR8DDDK","A7QAPZ1YVA0K2","3FVBZG9CLJ0K37PD5L6161S4HTM0HN","","652","img/flower5.png","76","653","3","0","1","1","1,0.333,0.333,0.333,1,0.333,0.333,0.333,1","1,0.333,0.333,0.333,1,0.333,0.333,0.333,1","1",""
"","html-keyboard-response","19","25272","0.0-19.0","3HOSI13XH0AZCVJZM3G8J6TDR8DDDK","A7QAPZ1YVA0K2","3FVBZG9CLJ0K37PD5L6161S4HTM0HN","","null","<img src=""img/flower5.png"" style=""width:200px;border:14px solid red;"">","null","","","","","","","","",""
"","image-keyboard-response","20","25821","0.0-20.0","3HOSI13XH0AZCVJZM3G8J6TDR8DDDK","A7QAPZ1YVA0K2","3FVBZG9CLJ0K37PD5L6161S4HTM0HN","","544","img/flower2.png","75","548","2","1","2","1","1,0.333,0.333,0.333,1,0.333,0.333,0.333,1","1,0.333,0.333,0.333,1,0.333,0.333,0.333,1","1",""
"","html-keyboard-response","21","26124","0.0-21.0","3HOSI13XH0AZCVJZM3G8J6TDR8DDDK","A7QAPZ1YVA0K2","3FVBZG9CLJ0K37PD5L6161S4HTM0HN","","null","<img src=""img/flower2.png"" style=""width:200px; border:14px solid green;"">","null","","","","","","","","",""
"","image-keyboard-response","22","26669","0.0-22.0","3HOSI13XH0AZCVJZM3G8J6TDR8DDDK","A7QAPZ1YVA0K2","3FVBZG9CLJ0K37PD5L6161S4HTM0HN","","543","img/flower2.png","74","544","1","0","2","1","1,0.333,0.333,0.333,1,0.333,0.333,0.333,1","1,0.333,0.333,0.333,1,0.333,0.333,0.333,1","1",""
"","html-keyboard-response","23","26973","0.0-23.0","3HOSI13XH0AZCVJZM3G8J6TDR8DDDK","A7QAPZ1YVA0K2","3FVBZG9CLJ0K37PD5L6161S4HTM0HN","","null","<img src=""img/flower2.png"" style=""width:200px;border:14px solid red;"">","null","","","","","","","","",""
"","image-keyboard-response","24","27461","0.0-24.0","3HOSI13XH0AZCVJZM3G8J6TDR8DDDK","A7QAPZ1YVA0K2","3FVBZG9CLJ0K37PD5L6161S4HTM0HN","","486","img/flower2.png","75","487","2","1","2","1","1,0.333,0.333,0.333,1,0.333,0.333,0.333,1","1,0.333,0.333,0.333,1,0.333,0.333,0.333,1","1",""
"","html-keyboard-response","25","27765","0.0-25.0","3HOSI13XH0AZCVJZM3G8J6TDR8DDDK","A7QAPZ1YVA0K2","3FVBZG9CLJ0K37PD5L6161S4HTM0HN","","null","<img src=""img/flower2.png"" style=""width:200px; border:14px solid green;"">","null","","","","","","","","",""
"","image-keyboard-response","26","28356","0.0-26.0","3HOSI13XH0AZCVJZM3G8J6TDR8DDDK","A7QAPZ1YVA0K2","3FVBZG9CLJ0K37PD5L6161S4HTM0HN","","587","img/flower2.png","75","590","2","1","2","1","1,0.333,0.333,0.333,1,0.333,0.333,0.333,1","1,0.333,0.333,0.333,1,0.333,0.333,0.333,1","1",""
"","html-keyboard-response","27","28658","0.0-27.0","3HOSI13XH0AZCVJZM3G8J6TDR8DDDK","A7QAPZ1YVA0K2","3FVBZG9CLJ0K37PD5L6161S4HTM0HN","","null","<img src=""img/flower2.png"" style=""width:200px; border:14px solid green;"">","null","","","","","","","","",""
"","image-keyboard-response","28","29267","0.0-28.0","3HOSI13XH0AZCVJZM3G8J6TDR8DDDK","A7QAPZ1YVA0K2","3FVBZG9CLJ0K37PD5L6161S4HTM0HN","","603","img/flower6.png","75","607","2","1","3","1","1,0.333,0.333,0.333,1,0.333,0.333,0.333,1","1,0.333,0.333,0.333,1,0.333,0.333,0.333,1","1",""
"","html-keyboard-response","29","29568","0.0-29.0","3HOSI13XH0AZCVJZM3G8J6TDR8DDDK","A7QAPZ1YVA0K2","3FVBZG9CLJ0K37PD5L6161S4HTM0HN","","null","<img src=""img/flower6.png"" style=""width:200px; border:14px solid green;"">","null","","","","","","","","",""
"","image-keyboard-response","30","30167","0.0-30.0","3HOSI13XH0AZCVJZM3G8J6TDR8DDDK","A7QAPZ1YVA0K2","3FVBZG9CLJ0K37PD5L6161S4HTM0HN","","596","img/flower6.png","75","597","2","0","3","1","1,0.333,0.333,0.333,1,0.333,0.333,0.333,1","1,0.333,0.333,0.333,1,0.333,0.333,0.333,1","1",""
"","html-keyboard-response","31","30469","0.0-31.0","3HOSI13XH0AZCVJZM3G8J6TDR8DDDK","A7QAPZ1YVA0K2","3FVBZG9CLJ0K37PD5L6161S4HTM0HN","","null","<img src=""img/flower6.png"" style=""width:200px;border:14px solid red;"">","null","","","","","","","","",""
"","image-keyboard-response","32","31079","0.0-32.0","3HOSI13XH0AZCVJZM3G8J6TDR8DDDK","A7QAPZ1YVA0K2","3FVBZG9CLJ0K37PD5L6161S4HTM0HN","","606","img/flower2.png","76","609","3","0","2","1","1,0.333,0.333,0.333,1,0.333,0.333,0.333,1","1,0.333,0.333,0.333,1,0.333,0.333,0.333,1","1",""
"","html-keyboard-response","33","31380","0.0-33.0","3HOSI13XH0AZCVJZM3G8J6TDR8DDDK","A7QAPZ1YVA0K2","3FVBZG9CLJ0K37PD5L6161S4HTM0HN","","null","<img src=""img/flower2.png"" style=""width:200px;border:14px solid red;"">","null","","","","","","","","",""
"","image-keyboard-response","34","31944","0.0-34.0","3HOSI13XH0AZCVJZM3G8J6TDR8DDDK","A7QAPZ1YVA0K2","3FVBZG9CLJ0K37PD5L6161S4HTM0HN","","559","img/flower2.png","74","562","1","0","2","1","1,0.333,0.333,0.333,1,0.333,0.333,0.333,1","1,0.333,0.333,0.333,1,0.333,0.333,0.333,1","1",""
"","html-keyboard-response","35","32247","0.0-35.0","3HOSI13XH0AZCVJZM3G8J6TDR8DDDK","A7QAPZ1YVA0K2","3FVBZG9CLJ0K37PD5L6161S4HTM0HN","","null","<img src=""img/flower2.png"" style=""width:200px;border:14px solid red;"">","null","","","","","","","","",""
"","image-keyboard-response","36","32784","0.0-36.0","3HOSI13XH0AZCVJZM3G8J6TDR8DDDK","A7QAPZ1YVA0K2","3FVBZG9CLJ0K37PD5L6161S4HTM0HN","","535","img/flower2.png","75","536","2","1","2","1","1,0.333,0.333,0.333,1,0.333,0.333,0.333,1","1,0.333,0.333,0.333,1,0.333,0.333,0.333,1","1",""
"","html-keyboard-response","37","33086","0.0-37.0","3HOSI13XH0AZCVJZM3G8J6TDR8DDDK","A7QAPZ1YVA0K2","3FVBZG9CLJ0K37PD5L6161S4HTM0HN","","null","<img src=""img/flower2.png"" style=""width:200px; border:14px solid green;"">","null","","","","","","","","",""
"","image-keyboard-response","38","33759","0.0-38.0","3HOSI13XH0AZCVJZM3G8J6TDR8DDDK","A7QAPZ1YVA0K2","3FVBZG9CLJ0K37PD5L6161S4HTM0HN","","672","img/flower6.png","75","672","2","1","3","1","1,0.333,0.333,0.333,1,0.333,0.333,0.333,1","1,0.333,0.333,0.333,1,0.333,0.333,0.333,1","1",""
"","html-keyboard-response","39","34061","0.0-39.0","3HOSI13XH0AZCVJZM3G8J6TDR8DDDK","A7QAPZ1YVA0K2","3FVBZG9CLJ0K37PD5L6161S4HTM0HN","","null","<img src=""img/flower6.png"" style=""width:200px; border:14px solid green;"">","null","","","","","","","","",""
"","image-keyboard-response","40","34802","0.0-40.0","3HOSI13XH0AZCVJZM3G8J6TDR8DDDK","A7QAPZ1YVA0K2","3FVBZG9CLJ0K37PD5L6161S4HTM0HN","","739","img/flower5.png","75","740","2","0","1","1","1,0.333,0.333,0.333,1,0.333,0.333,0.333,1","1,0.333,0.333,0.333,1,0.333,0.333,0.333,1","1",""
"","html-keyboard-response","41","35106","0.0-41.0","3HOSI13XH0AZCVJZM3G8J6TDR8DDDK","A7QAPZ1YVA0K2","3FVBZG9CLJ0K37PD5L6161S4HTM0HN","","null","<img src=""img/flower5.png"" style=""width:200px;border:14px solid red;"">","null","","","","","","","","",""
"","image-keyboard-response","42","35563","0.0-42.0","3HOSI13XH0AZCVJZM3G8J6TDR8DDDK","A7QAPZ1YVA0K2","3FVBZG9CLJ0K37PD5L6161S4HTM0HN","","456","img/flower5.png","74","457","1","1","1","1","1,0.333,0.333,0.333,1,0.333,0.333,0.333,1","1,0.333,0.333,0.333,1,0.333,0.333,0.333,1","1",""
"","html-keyboard-response","43","35899","0.0-43.0","3HOSI13XH0AZCVJZM3G8J6TDR8DDDK","A7QAPZ1YVA0K2","3FVBZG9CLJ0K37PD5L6161S4HTM0HN","","null","<img src=""img/flower5.png"" style=""width:200px; border:14px solid green;"">","null","","","","","","","","",""
"","image-keyboard-response","44","36537","0.0-44.0","3HOSI13XH0AZCVJZM3G8J6TDR8DDDK","A7QAPZ1YVA0K2","3FVBZG9CLJ0K37PD5L6161S4HTM0HN","","636","img/flower2.png","74","638","1","0","2","1","1,0.333,0.333,0.333,1,0.333,0.333,0.333,1","1,0.333,0.333,0.333,1,0.333,0.333,0.333,1","1",""
"","html-keyboard-response","45","36840","0.0-45.0","3HOSI13XH0AZCVJZM3G8J6TDR8DDDK","A7QAPZ1YVA0K2","3FVBZG9CLJ0K37PD5L6161S4HTM0HN","","null","<img src=""img/flower2.png"" style=""width:200px;border:14px solid red;"">","null","","","","","","","","",""
"","image-keyboard-response","46","37459","0.0-46.0","3HOSI13XH0AZCVJZM3G8J6TDR8DDDK","A7QAPZ1YVA0K2","3FVBZG9CLJ0K37PD5L6161S4HTM0HN","","616","img/flower2.png","76","618","3","0","2","1","1,0.333,0.333,0.333,1,0.333,0.333,0.333,1","1,0.333,0.333,0.333,1,0.333,0.333,0.333,1","1",""
"","html-keyboard-response","47","37761","0.0-47.0","3HOSI13XH0AZCVJZM3G8J6TDR8DDDK","A7QAPZ1YVA0K2","3FVBZG9CLJ0K37PD5L6161S4HTM0HN","","null","<img src=""img/flower2.png"" style=""width:200px;border:14px solid red;"">","null","","","","","","","","",""
"","image-keyboard-response","48","38262","0.0-48.0","3HOSI13XH0AZCVJZM3G8J6TDR8DDDK","A7QAPZ1YVA0K2","3FVBZG9CLJ0K37PD5L6161S4HTM0HN","","499","img/flower2.png","75","501","2","1","2","1","1,0.333,0.333,0.333,1,0.333,0.333,0.333,1","1,0.333,0.333,0.333,1,0.333,0.333,0.333,1","1",""
"","html-keyboard-response","49","38565","0.0-49.0","3HOSI13XH0AZCVJZM3G8J6TDR8DDDK","A7QAPZ1YVA0K2","3FVBZG9CLJ0K37PD5L6161S4HTM0HN","","null","<img src=""img/flower2.png"" style=""width:200px; border:14px solid green;"">","null","","","","","","","","",""
"","image-keyboard-response","50","39024","0.0-50.0","3HOSI13XH0AZCVJZM3G8J6TDR8DDDK","A7QAPZ1YVA0K2","3FVBZG9CLJ0K37PD5L6161S4HTM0HN","","456","img/flower6.png","75","457","2","0","3","1","1,0.333,0.333,0.333,1,0.333,0.333,0.333,1","1,0.333,0.333,0.333,1,0.333,0.333,0.333,1","1",""
"","html-keyboard-response","51","39326","0.0-51.0","3HOSI13XH0AZCVJZM3G8J6TDR8DDDK","A7QAPZ1YVA0K2","3FVBZG9CLJ0K37PD5L6161S4HTM0HN","","null","<img src=""img/flower6.png"" style=""width:200px;border:14px solid red;"">","null","","","","","","","","",""
"","image-keyboard-response","52","39800","0.0-52.0","3HOSI13XH0AZCVJZM3G8J6TDR8DDDK","A7QAPZ1YVA0K2","3FVBZG9CLJ0K37PD5L6161S4HTM0HN","","470","img/flower2.png","74","472","1","0","2","1","1,0.333,0.333,0.333,1,0.333,0.333,0.333,1","1,0.333,0.333,0.333,1,0.333,0.333,0.333,1","1",""
"","html-keyboard-response","53","40102","0.0-53.0","3HOSI13XH0AZCVJZM3G8J6TDR8DDDK","A7QAPZ1YVA0K2","3FVBZG9CLJ0K37PD5L6161S4HTM0HN","","null","<img src=""img/flower2.png"" style=""width:200px;border:14px solid red;"">","null","","","","","","","","",""
"","image-keyboard-response","54","40608","0.0-54.0","3HOSI13XH0AZCVJZM3G8J6TDR8DDDK","A7QAPZ1YVA0K2","3FVBZG9CLJ0K37PD5L6161S4HTM0HN","","504","img/flower6.png","76","505","3","1","3","1","1,0.333,0.333,0.333,1,0.333,0.333,0.333,1","1,0.333,0.333,0.333,1,0.333,0.333,0.333,1","1",""
"","html-keyboard-response","55","40913","0.0-55.0","3HOSI13XH0AZCVJZM3G8J6TDR8DDDK","A7QAPZ1YVA0K2","3FVBZG9CLJ0K37PD5L6161S4HTM0HN","","null","<img src=""img/flower6.png"" style=""width:200px; border:14px solid green;"">","null","","","","","","","","",""
"","image-keyboard-response","56","41557","0.0-56.0","3HOSI13XH0AZCVJZM3G8J6TDR8DDDK","A7QAPZ1YVA0K2","3FVBZG9CLJ0K37PD5L6161S4HTM0HN","","641","img/flower6.png","76","643","3","1","3","1","1,0.333,0.333,0.333,1,0.333,0.333,0.333,1","1,0.333,0.333,0.333,1,0.333,0.333,0.333,1","1",""
"","html-keyboard-response","57","41859","0.0-57.0","3HOSI13XH0AZCVJZM3G8J6TDR8DDDK","A7QAPZ1YVA0K2","3FVBZG9CLJ0K37PD5L6161S4HTM0HN","","null","<img src=""img/flower6.png"" style=""width:200px; border:14px solid green;"">","null","","","","","","","","",""
"","image-keyboard-response","58","42276","0.0-58.0","3HOSI13XH0AZCVJZM3G8J6TDR8DDDK","A7QAPZ1YVA0K2","3FVBZG9CLJ0K37PD5L6161S4HTM0HN","","416","img/flower5.png","76","417","3","0","1","1","1,0.333,0.333,0.333,1,0.333,0.333,0.333,1","1,0.333,0.333,0.333,1,0.333,0.333,0.333,1","1",""
"","html-keyboard-response","59","42581","0.0-59.0","3HOSI13XH0AZCVJZM3G8J6TDR8DDDK","A7QAPZ1YVA0K2","3FVBZG9CLJ0K37PD5L6161S4HTM0HN","","null","<img src=""img/flower5.png"" style=""width:200px;border:14px solid red;"">","null","","","","","","","","",""
"","image-keyboard-response","60","43003","0.0-60.0","3HOSI13XH0AZCVJZM3G8J6TDR8DDDK","A7QAPZ1YVA0K2","3FVBZG9CLJ0K37PD5L6161S4HTM0HN","","420","img/flower6.png","75","422","2","0","3","1","1,0.333,0.333,0.333,1,0.333,0.333,0.333,1","1,0.333,0.333,0.333,1,0.333,0.333,0.333,1","1",""
"","html-keyboard-response","61","43306","0.0-61.0","3HOSI13XH0AZCVJZM3G8J6TDR8DDDK","A7QAPZ1YVA0K2","3FVBZG9CLJ0K37PD5L6161S4HTM0HN","","null","<img src=""img/flower6.png"" style=""width:200px;border:14px solid red;"">","null","","","","","","","","",""
"","image-keyboard-response","62","43722","0.0-62.0","3HOSI13XH0AZCVJZM3G8J6TDR8DDDK","A7QAPZ1YVA0K2","3FVBZG9CLJ0K37PD5L6161S4HTM0HN","","415","img/flower6.png","76","416","3","1","3","1","1,0.333,0.333,0.333,1,0.333,0.333,0.333,1","1,0.333,0.333,0.333,1,0.333,0.333,0.333,1","1",""
"","html-keyboard-response","63","44025","0.0-63.0","3HOSI13XH0AZCVJZM3G8J6TDR8DDDK","A7QAPZ1YVA0K2","3FVBZG9CLJ0K37PD5L6161S4HTM0HN","","null","<img src=""img/flower6.png"" style=""width:200px; border:14px solid green;"">","null","","","","","","","","",""
"","image-keyboard-response","64","44600","0.0-64.0","3HOSI13XH0AZCVJZM3G8J6TDR8DDDK","A7QAPZ1YVA0K2","3FVBZG9CLJ0K37PD5L6161S4HTM0HN","","572","img/flower2.png","76","573","3","0","2","1","1,0.333,0.333,0.333,1,0.333,0.333,0.333,1","1,0.333,0.333,0.333,1,0.333,0.333,0.333,1","1",""
"","html-keyboard-response","65","44903","0.0-65.0","3HOSI13XH0AZCVJZM3G8J6TDR8DDDK","A7QAPZ1YVA0K2","3FVBZG9CLJ0K37PD5L6161S4HTM0HN","","null","<img src=""img/flower2.png"" style=""width:200px;border:14px solid red;"">","null","","","","","","","","",""
"","image-keyboard-response","66","45303","0.0-66.0","3HOSI13XH0AZCVJZM3G8J6TDR8DDDK","A7QAPZ1YVA0K2","3FVBZG9CLJ0K37PD5L6161S4HTM0HN","","398","img/flower5.png","75","399","2","1","1","1","1,0.333,0.333,0.333,1,0.333,0.333,0.333,1","1,0.333,0.333,0.333,1,0.333,0.333,0.333,1","1",""
"","html-keyboard-response","67","45629","0.0-67.0","3HOSI13XH0AZCVJZM3G8J6TDR8DDDK","A7QAPZ1YVA0K2","3FVBZG9CLJ0K37PD5L6161S4HTM0HN","","null","<img src=""img/flower5.png"" style=""width:200px; border:14px solid green;"">","null","","","","","","","","",""
"","image-keyboard-response","68","46353","0.0-68.0","3HOSI13XH0AZCVJZM3G8J6TDR8DDDK","A7QAPZ1YVA0K2","3FVBZG9CLJ0K37PD5L6161S4HTM0HN","","682","img/flower6.png","75","686","2","0","3","1","1,0.333,0.333,0.333,1,0.333,0.333,0.333,1","1,0.333,0.333,0.333,1,0.333,0.333,0.333,1","1",""
"","html-keyboard-response","69","46655","0.0-69.0","3HOSI13XH0AZCVJZM3G8J6TDR8DDDK","A7QAPZ1YVA0K2","3FVBZG9CLJ0K37PD5L6161S4HTM0HN","","null","<img src=""img/flower6.png"" style=""width:200px;border:14px solid red;"">","null","","","","","","","","",""
"","image-keyboard-response","70","46818","0.0-70.0","3HOSI13XH0AZCVJZM3G8J6TDR8DDDK","A7QAPZ1YVA0K2","3FVBZG9CLJ0K37PD5L6161S4HTM0HN","","159","img/flower5.png","76","161","3","0","1","1","1,0.333,0.333,0.333,1,0.333,0.333,0.333,1","1,0.333,0.333,0.333,1,0.333,0.333,0.333,1","1",""
"","html-keyboard-response","71","47121","0.0-71.0","3HOSI13XH0AZCVJZM3G8J6TDR8DDDK","A7QAPZ1YVA0K2","3FVBZG9CLJ0K37PD5L6161S4HTM0HN","","null","<img src=""img/flower5.png"" style=""width:200px;border:14px solid red;"">","null","","","","","","","","",""
"","image-keyboard-response","72","47773","0.0-72.0","3HOSI13XH0AZCVJZM3G8J6TDR8DDDK","A7QAPZ1YVA0K2","3FVBZG9CLJ0K37PD5L6161S4HTM0HN","","649","img/flower2.png","75","649","2","1","2","1","1,0.333,0.333,0.333,1,0.333,0.333,0.333,1","1,0.333,0.333,0.333,1,0.333,0.333,0.333,1","1",""
"","html-keyboard-response","73","48078","0.0-73.0","3HOSI13XH0AZCVJZM3G8J6TDR8DDDK","A7QAPZ1YVA0K2","3FVBZG9CLJ0K37PD5L6161S4HTM0HN","","null","<img src=""img/flower2.png"" style=""width:200px; border:14px solid green;"">","null","","","","","","","","",""
"","image-keyboard-response","74","48662","0.0-74.0","3HOSI13XH0AZCVJZM3G8J6TDR8DDDK","A7QAPZ1YVA0K2","3FVBZG9CLJ0K37PD5L6161S4HTM0HN","","580","img/flower5.png","76","582","3","0","1","1","1,0.333,0.333,0.333,1,0.333,0.333,0.333,1","1,0.333,0.333,0.333,1,0.333,0.333,0.333,1","1",""
"","html-keyboard-response","75","48965","0.0-75.0","3HOSI13XH0AZCVJZM3G8J6TDR8DDDK","A7QAPZ1YVA0K2","3FVBZG9CLJ0K37PD5L6161S4HTM0HN","","null","<img src=""img/flower5.png"" style=""width:200px;border:14px solid red;"">","null","","","","","","","","",""
"","image-keyboard-response","76","49634","0.0-76.0","3HOSI13XH0AZCVJZM3G8J6TDR8DDDK","A7QAPZ1YVA0K2","3FVBZG9CLJ0K37PD5L6161S4HTM0HN","","666","img/flower5.png","75","667","2","1","1","1","1,0.333,0.333,0.333,1,0.333,0.333,0.333,1","1,0.333,0.333,0.333,1,0.333,0.333,0.333,1","1",""
"","html-keyboard-response","77","49935","0.0-77.0","3HOSI13XH0AZCVJZM3G8J6TDR8DDDK","A7QAPZ1YVA0K2","3FVBZG9CLJ0K37PD5L6161S4HTM0HN","","null","<img src=""img/flower5.png"" style=""width:200px; border:14px solid green;"">","null","","","","","","","","",""
"","image-keyboard-response","78","50510","0.0-78.0","3HOSI13XH0AZCVJZM3G8J6TDR8DDDK","A7QAPZ1YVA0K2","3FVBZG9CLJ0K37PD5L6161S4HTM0HN","","572","img/flower5.png","74","574","1","1","1","1","1,0.333,0.333,0.333,1,0.333,0.333,0.333,1","1,0.333,0.333,0.333,1,0.333,0.333,0.333,1","1",""
"","html-keyboard-response","79","50814","0.0-79.0","3HOSI13XH0AZCVJZM3G8J6TDR8DDDK","A7QAPZ1YVA0K2","3FVBZG9CLJ0K37PD5L6161S4HTM0HN","","null","<img src=""img/flower5.png"" style=""width:200px; border:14px solid green;"">","null","","","","","","","","",""
"","image-keyboard-response","80","51741","0.0-80.0","3HOSI13XH0AZCVJZM3G8J6TDR8DDDK","A7QAPZ1YVA0K2","3FVBZG9CLJ0K37PD5L6161S4HTM0HN","","923","img/flower2.png","76","925","3","1","2","1","1,0.333,0.333,0.333,1,0.333,0.333,0.333,1","1,0.333,0.333,0.333,1,0.333,0.333,0.333,1","1",""
"","html-keyboard-response","81","52043","0.0-81.0","3HOSI13XH0AZCVJZM3G8J6TDR8DDDK","A7QAPZ1YVA0K2","3FVBZG9CLJ0K37PD5L6161S4HTM0HN","","null","<img src=""img/flower2.png"" style=""width:200px; border:14px solid green;"">","null","","","","","","","","",""
"","image-keyboard-response","82","53088","0.0-82.0","3HOSI13XH0AZCVJZM3G8J6TDR8DDDK","A7QAPZ1YVA0K2","3FVBZG9CLJ0K37PD5L6161S4HTM0HN","","1042","img/flower6.png","75","1043","2","0","3","1","1,0.333,0.333,0.333,1,0.333,0.333,0.333,1","1,0.333,0.333,0.333,1,0.333,0.333,0.333,1","1",""
"","html-keyboard-response","83","53392","0.0-83.0","3HOSI13XH0AZCVJZM3G8J6TDR8DDDK","A7QAPZ1YVA0K2","3FVBZG9CLJ0K37PD5L6161S4HTM0HN","","null","<img src=""img/flower6.png"" style=""width:200px;border:14px solid red;"">","null","","","","","","","","",""
"","image-keyboard-response","84","53965","0.0-84.0","3HOSI13XH0AZCVJZM3G8J6TDR8DDDK","A7QAPZ1YVA0K2","3FVBZG9CLJ0K37PD5L6161S4HTM0HN","","571","img/flower2.png","76","573","3","0","2","1","1,0.333,0.333,0.333,1,0.333,0.333,0.333,1","1,0.333,0.333,0.333,1,0.333,0.333,0.333,1","1",""
"","html-keyboard-response","85","54269","0.0-85.0","3HOSI13XH0AZCVJZM3G8J6TDR8DDDK","A7QAPZ1YVA0K2","3FVBZG9CLJ0K37PD5L6161S4HTM0HN","","null","<img src=""img/flower2.png"" style=""width:200px;border:14px solid red;"">","null","","","","","","","","",""
"","image-keyboard-response","86","54844","0.0-86.0","3HOSI13XH0AZCVJZM3G8J6TDR8DDDK","A7QAPZ1YVA0K2","3FVBZG9CLJ0K37PD5L6161S4HTM0HN","","572","img/flower6.png","75","573","2","0","3","1","1,0.333,0.333,0.333,1,0.333,0.333,0.333,1","1,0.333,0.333,0.333,1,0.333,0.333,0.333,1","1",""
"","html-keyboard-response","87","55145","0.0-87.0","3HOSI13XH0AZCVJZM3G8J6TDR8DDDK","A7QAPZ1YVA0K2","3FVBZG9CLJ0K37PD5L6161S4HTM0HN","","null","<img src=""img/flower6.png"" style=""width:200px;border:14px solid red;"">","null","","","","","","","","",""
"","image-keyboard-response","88","55689","0.0-88.0","3HOSI13XH0AZCVJZM3G8J6TDR8DDDK","A7QAPZ1YVA0K2","3FVBZG9CLJ0K37PD5L6161S4HTM0HN","","541","img/flower2.png","74","543","1","0","2","1","1,0.333,0.333,0.333,1,0.333,0.333,0.333,1","1,0.333,0.333,0.333,1,0.333,0.333,0.333,1","1",""
"","html-keyboard-response","89","55991","0.0-89.0","3HOSI13XH0AZCVJZM3G8J6TDR8DDDK","A7QAPZ1YVA0K2","3FVBZG9CLJ0K37PD5L6161S4HTM0HN","","null","<img src=""img/flower2.png"" style=""width:200px;border:14px solid red;"">","null","","","","","","","","",""
"","image-keyboard-response","90","56681","0.0-90.0","3HOSI13XH0AZCVJZM3G8J6TDR8DDDK","A7QAPZ1YVA0K2","3FVBZG9CLJ0K37PD5L6161S4HTM0HN","","686","img/flower5.png","76","688","3","0","1","1","1,0.333,0.333,0.333,1,0.333,0.333,0.333,1","1,0.333,0.333,0.333,1,0.333,0.333,0.333,1","1",""
"","html-keyboard-response","91","56985","0.0-91.0","3HOSI13XH0AZCVJZM3G8J6TDR8DDDK","A7QAPZ1YVA0K2","3FVBZG9CLJ0K37PD5L6161S4HTM0HN","","null","<img src=""img/flower5.png"" style=""width:200px;border:14px solid red;"">","null","","","","","","","","",""
"","image-keyboard-response","92","57984","0.0-92.0","3HOSI13XH0AZCVJZM3G8J6TDR8DDDK","A7QAPZ1YVA0K2","3FVBZG9CLJ0K37PD5L6161S4HTM0HN","","997","img/flower6.png","76","998","3","1","3","1","1,0.333,0.333,0.333,1,0.333,0.333,0.333,1","1,0.333,0.333,0.333,1,0.333,0.333,0.333,1","1",""
"","html-keyboard-response","93","58286","0.0-93.0","3HOSI13XH0AZCVJZM3G8J6TDR8DDDK","A7QAPZ1YVA0K2","3FVBZG9CLJ0K37PD5L6161S4HTM0HN","","null","<img src=""img/flower6.png"" style=""width:200px; border:14px solid green;"">","null","","","","","","","","",""
"","image-keyboard-response","94","59225","0.0-94.0","3HOSI13XH0AZCVJZM3G8J6TDR8DDDK","A7QAPZ1YVA0K2","3FVBZG9CLJ0K37PD5L6161S4HTM0HN","","937","img/flower2.png","75","938","2","1","2","1","1,0.333,0.333,0.333,1,0.333,0.333,0.333,1","1,0.333,0.333,0.333,1,0.333,0.333,0.333,1","1",""
"","html-keyboard-response","95","59631","0.0-95.0","3HOSI13XH0AZCVJZM3G8J6TDR8DDDK","A7QAPZ1YVA0K2","3FVBZG9CLJ0K37PD5L6161S4HTM0HN","","null","<img src=""img/flower2.png"" style=""width:200px; border:14px solid green;"">","null","","","","","","","","",""
"","image-keyboard-response","96","60639","0.0-96.0","3HOSI13XH0AZCVJZM3G8J6TDR8DDDK","A7QAPZ1YVA0K2","3FVBZG9CLJ0K37PD5L6161S4HTM0HN","","1006","img/flower6.png","74","1008","1","1","3","1","1,0.333,0.333,0.333,1,0.333,0.333,0.333,1","1,0.333,0.333,0.333,1,0.333,0.333,0.333,1","1",""
"","html-keyboard-response","97","60942","0.0-97.0","3HOSI13XH0AZCVJZM3G8J6TDR8DDDK","A7QAPZ1YVA0K2","3FVBZG9CLJ0K37PD5L6161S4HTM0HN","","null","<img src=""img/flower6.png"" style=""width:200px; border:14px solid green;"">","null","","","","","","","","",""
"","image-keyboard-response","98","61894","0.0-98.0","3HOSI13XH0AZCVJZM3G8J6TDR8DDDK","A7QAPZ1YVA0K2","3FVBZG9CLJ0K37PD5L6161S4HTM0HN","","950","img/flower5.png","76","952","3","1","1","1","1,0.333,0.333,0.333,1,0.333,0.333,0.333,1","1,0.333,0.333,0.333,1,0.333,0.333,0.333,1","1",""
"","html-keyboard-response","99","62197","0.0-99.0","3HOSI13XH0AZCVJZM3G8J6TDR8DDDK","A7QAPZ1YVA0K2","3FVBZG9CLJ0K37PD5L6161S4HTM0HN","","null","<img src=""img/flower5.png"" style=""width:200px; border:14px solid green;"">","null","","","","","","","","",""
"","image-keyboard-response","100","62899","0.0-100.0","3HOSI13XH0AZCVJZM3G8J6TDR8DDDK","A7QAPZ1YVA0K2","3FVBZG9CLJ0K37PD5L6161S4HTM0HN","","699","img/flower5.png","75","702","2","0","1","1","1,0.333,0.333,0.333,1,0.333,0.333,0.333,1","1,0.333,0.333,0.333,1,0.333,0.333,0.333,1","1",""
"","html-keyboard-response","101","63202","0.0-101.0","3HOSI13XH0AZCVJZM3G8J6TDR8DDDK","A7QAPZ1YVA0K2","3FVBZG9CLJ0K37PD5L6161S4HTM0HN","","null","<img src=""img/flower5.png"" style=""width:200px;border:14px solid red;"">","null","","","","","","","","",""
"","image-keyboard-response","102","63821","0.0-102.0","3HOSI13XH0AZCVJZM3G8J6TDR8DDDK","A7QAPZ1YVA0K2","3FVBZG9CLJ0K37PD5L6161S4HTM0HN","","615","img/flower2.png","76","617","3","0","2","1","1,0.333,0.333,0.333,1,0.333,0.333,0.333,1","1,0.333,0.333,0.333,1,0.333,0.333,0.333,1","1",""
"","html-keyboard-response","103","64125","0.0-103.0","3HOSI13XH0AZCVJZM3G8J6TDR8DDDK","A7QAPZ1YVA0K2","3FVBZG9CLJ0K37PD5L6161S4HTM0HN","","null","<img src=""img/flower2.png"" style=""width:200px;border:14px solid red;"">","null","","","","","","","","",""
"","image-keyboard-response","104","64448","0.0-104.0","3HOSI13XH0AZCVJZM3G8J6TDR8DDDK","A7QAPZ1YVA0K2","3FVBZG9CLJ0K37PD5L6161S4HTM0HN","","322","img/flower2.png","75","323","2","1","2","1","1,0.333,0.333,0.333,1,0.333,0.333,0.333,1","1,0.333,0.333,0.333,1,0.333,0.333,0.333,1","1",""
"","html-keyboard-response","105","64752","0.0-105.0","3HOSI13XH0AZCVJZM3G8J6TDR8DDDK","A7QAPZ1YVA0K2","3FVBZG9CLJ0K37PD5L6161S4HTM0HN","","null","<img src=""img/flower2.png"" style=""width:200px; border:14px solid green;"">","null","","","","","","","","",""
"","image-keyboard-response","106","65779","0.0-106.0","3HOSI13XH0AZCVJZM3G8J6TDR8DDDK","A7QAPZ1YVA0K2","3FVBZG9CLJ0K37PD5L6161S4HTM0HN","","1026","img/flower5.png","76","1027","3","1","1","1","1,0.333,0.333,0.333,1,0.333,0.333,0.333,1","1,0.333,0.333,0.333,1,0.333,0.333,0.333,1","1",""
"","html-keyboard-response","107","66083","0.0-107.0","3HOSI13XH0AZCVJZM3G8J6TDR8DDDK","A7QAPZ1YVA0K2","3FVBZG9CLJ0K37PD5L6161S4HTM0HN","","null","<img src=""img/flower5.png"" style=""width:200px; border:14px solid green;"">","null","","","","","","","","",""
"","image-keyboard-response","108","66956","0.0-108.0","3HOSI13XH0AZCVJZM3G8J6TDR8DDDK","A7QAPZ1YVA0K2","3FVBZG9CLJ0K37PD5L6161S4HTM0HN","","868","img/flower2.png","75","869","2","1","2","1","1,0.333,0.333,0.333,1,0.333,0.333,0.333,1","1,0.333,0.333,0.333,1,0.333,0.333,0.333,1","1",""
"","html-keyboard-response","109","67261","0.0-109.0","3HOSI13XH0AZCVJZM3G8J6TDR8DDDK","A7QAPZ1YVA0K2","3FVBZG9CLJ0K37PD5L6161S4HTM0HN","","null","<img src=""img/flower2.png"" style=""width:200px; border:14px solid green;"">","null","","","","","","","","",""
"","image-keyboard-response","110","67965","0.0-110.0","3HOSI13XH0AZCVJZM3G8J6TDR8DDDK","A7QAPZ1YVA0K2","3FVBZG9CLJ0K37PD5L6161S4HTM0HN","","703","img/flower5.png","76","705","3","0","1","1","1,0.333,0.333,0.333,1,0.333,0.333,0.333,1","1,0.333,0.333,0.333,1,0.333,0.333,0.333,1","1",""
"","html-keyboard-response","111","68269","0.0-111.0","3HOSI13XH0AZCVJZM3G8J6TDR8DDDK","A7QAPZ1YVA0K2","3FVBZG9CLJ0K37PD5L6161S4HTM0HN","","null","<img src=""img/flower5.png"" style=""width:200px;border:14px solid red;"">","null","","","","","","","","",""
"","image-keyboard-response","112","69303","0.0-112.0","3HOSI13XH0AZCVJZM3G8J6TDR8DDDK","A7QAPZ1YVA0K2","3FVBZG9CLJ0K37PD5L6161S4HTM0HN","","1031","img/flower6.png","74","1032","1","1","3","1","1,0.333,0.333,0.333,1,0.333,0.333,0.333,1","1,0.333,0.333,0.333,1,0.333,0.333,0.333,1","1",""
"","html-keyboard-response","113","69610","0.0-113.0","3HOSI13XH0AZCVJZM3G8J6TDR8DDDK","A7QAPZ1YVA0K2","3FVBZG9CLJ0K37PD5L6161S4HTM0HN","","null","<img src=""img/flower6.png"" style=""width:200px; border:14px solid green;"">","null","","","","","","","","",""
"","image-keyboard-response","114","70562","0.0-114.0","3HOSI13XH0AZCVJZM3G8J6TDR8DDDK","A7QAPZ1YVA0K2","3FVBZG9CLJ0K37PD5L6161S4HTM0HN","","948","img/flower5.png","76","952","3","1","1","1","1,0.333,0.333,0.333,1,0.333,0.333,0.333,1","1,0.333,0.333,0.333,1,0.333,0.333,0.333,1","1",""
"","html-keyboard-response","115","70866","0.0-115.0","3HOSI13XH0AZCVJZM3G8J6TDR8DDDK","A7QAPZ1YVA0K2","3FVBZG9CLJ0K37PD5L6161S4HTM0HN","","null","<img src=""img/flower5.png"" style=""width:200px; border:14px solid green;"">","null","","","","","","","","",""
"","image-keyboard-response","116","71773","0.0-116.0","3HOSI13XH0AZCVJZM3G8J6TDR8DDDK","A7QAPZ1YVA0K2","3FVBZG9CLJ0K37PD5L6161S4HTM0HN","","904","img/flower5.png","76","905","3","1","1","1","1,0.333,0.333,0.333,1,0.333,0.333,0.333,1","1,0.333,0.333,0.333,1,0.333,0.333,0.333,1","1",""
"","html-keyboard-response","117","72076","0.0-117.0","3HOSI13XH0AZCVJZM3G8J6TDR8DDDK","A7QAPZ1YVA0K2","3FVBZG9CLJ0K37PD5L6161S4HTM0HN","","null","<img src=""img/flower5.png"" style=""width:200px; border:14px solid green;"">","null","","","","","","","","",""
"","image-keyboard-response","118","72902","0.0-118.0","3HOSI13XH0AZCVJZM3G8J6TDR8DDDK","A7QAPZ1YVA0K2","3FVBZG9CLJ0K37PD5L6161S4HTM0HN","","824","img/flower6.png","75","826","2","0","3","1","1,0.333,0.333,0.333,1,0.333,0.333,0.333,1","1,0.333,0.333,0.333,1,0.333,0.333,0.333,1","1",""
"","html-keyboard-response","119","73207","0.0-119.0","3HOSI13XH0AZCVJZM3G8J6TDR8DDDK","A7QAPZ1YVA0K2","3FVBZG9CLJ0K37PD5L6161S4HTM0HN","","null","<img src=""img/flower6.png"" style=""width:200px;border:14px solid red;"">","null","","","","","","","","",""
"","image-keyboard-response","120","74036","0.0-120.0","3HOSI13XH0AZCVJZM3G8J6TDR8DDDK","A7QAPZ1YVA0K2","3FVBZG9CLJ0K37PD5L6161S4HTM0HN","","823","img/flower5.png","76","825","3","0","1","1","1,0.333,0.333,0.333,1,0.333,0.333,0.333,1","1,0.333,0.333,0.333,1,0.333,0.333,0.333,1","1",""
"","html-keyboard-response","121","74338","0.0-121.0","3HOSI13XH0AZCVJZM3G8J6TDR8DDDK","A7QAPZ1YVA0K2","3FVBZG9CLJ0K37PD5L6161S4HTM0HN","","null","<img src=""img/flower5.png"" style=""width:200px;border:14px solid red;"">","null","","","","","","","","",""
"","image-keyboard-response","122","75139","0.0-122.0","3HOSI13XH0AZCVJZM3G8J6TDR8DDDK","A7QAPZ1YVA0K2","3FVBZG9CLJ0K37PD5L6161S4HTM0HN","","798","img/flower6.png","74","800","1","0","3","1","1,0.333,0.333,0.333,1,0.333,0.333,0.333,1","1,0.333,0.333,0.333,1,0.333,0.333,0.333,1","1",""
"","html-keyboard-response","123","75443","0.0-123.0","3HOSI13XH0AZCVJZM3G8J6TDR8DDDK","A7QAPZ1YVA0K2","3FVBZG9CLJ0K37PD5L6161S4HTM0HN","","null","<img src=""img/flower6.png"" style=""width:200px;border:14px solid red;"">","null","","","","","","","","",""
"","image-keyboard-response","124","76279","0.0-124.0","3HOSI13XH0AZCVJZM3G8J6TDR8DDDK","A7QAPZ1YVA0K2","3FVBZG9CLJ0K37PD5L6161S4HTM0HN","","831","img/flower6.png","76","833","3","1","3","1","1,0.333,0.333,0.333,1,0.333,0.333,0.333,1","1,0.333,0.333,0.333,1,0.333,0.333,0.333,1","1",""
"","html-keyboard-response","125","76581","0.0-125.0","3HOSI13XH0AZCVJZM3G8J6TDR8DDDK","A7QAPZ1YVA0K2","3FVBZG9CLJ0K37PD5L6161S4HTM0HN","","null","<img src=""img/flower6.png"" style=""width:200px; border:14px solid green;"">","null","","","","","","","","",""
"","image-keyboard-response","126","77717","0.0-126.0","3HOSI13XH0AZCVJZM3G8J6TDR8DDDK","A7QAPZ1YVA0K2","3FVBZG9CLJ0K37PD5L6161S4HTM0HN","","1134","img/flower5.png","75","1135","2","0","1","1","1,0.333,0.333,0.333,1,0.333,0.333,0.333,1","1,0.333,0.333,0.333,1,0.333,0.333,0.333,1","1",""
"","html-keyboard-response","127","78019","0.0-127.0","3HOSI13XH0AZCVJZM3G8J6TDR8DDDK","A7QAPZ1YVA0K2","3FVBZG9CLJ0K37PD5L6161S4HTM0HN","","null","<img src=""img/flower5.png"" style=""width:200px;border:14px solid red;"">","null","","","","","","","","",""
"","image-keyboard-response","128","78979","0.0-128.0","3HOSI13XH0AZCVJZM3G8J6TDR8DDDK","A7QAPZ1YVA0K2","3FVBZG9CLJ0K37PD5L6161S4HTM0HN","","957","img/flower5.png","74","959","1","1","1","1","1,0.333,0.333,0.333,1,0.333,0.333,0.333,1","1,0.333,0.333,0.333,1,0.333,0.333,0.333,1","1",""
"","html-keyboard-response","129","79282","0.0-129.0","3HOSI13XH0AZCVJZM3G8J6TDR8DDDK","A7QAPZ1YVA0K2","3FVBZG9CLJ0K37PD5L6161S4HTM0HN","","null","<img src=""img/flower5.png"" style=""width:200px; border:14px solid green;"">","null","","","","","","","","",""
"","image-keyboard-response","130","80005","0.0-130.0","3HOSI13XH0AZCVJZM3G8J6TDR8DDDK","A7QAPZ1YVA0K2","3FVBZG9CLJ0K37PD5L6161S4HTM0HN","","721","img/flower5.png","74","722","1","1","1","1","1,0.333,0.333,0.333,1,0.333,0.333,0.333,1","1,0.333,0.333,0.333,1,0.333,0.333,0.333,1","1",""
"","html-keyboard-response","131","80306","0.0-131.0","3HOSI13XH0AZCVJZM3G8J6TDR8DDDK","A7QAPZ1YVA0K2","3FVBZG9CLJ0K37PD5L6161S4HTM0HN","","null","<img src=""img/flower5.png"" style=""width:200px; border:14px solid green;"">","null","","","","","","","","",""
"","image-keyboard-response","132","81144","0.0-132.0","3HOSI13XH0AZCVJZM3G8J6TDR8DDDK","A7QAPZ1YVA0K2","3FVBZG9CLJ0K37PD5L6161S4HTM0HN","","835","img/flower2.png","75","836","2","1","2","1","1,0.333,0.333,0.333,1,0.333,0.333,0.333,1","1,0.333,0.333,0.333,1,0.333,0.333,0.333,1","1",""
"","html-keyboard-response","133","81448","0.0-133.0","3HOSI13XH0AZCVJZM3G8J6TDR8DDDK","A7QAPZ1YVA0K2","3FVBZG9CLJ0K37PD5L6161S4HTM0HN","","null","<img src=""img/flower2.png"" style=""width:200px; border:14px solid green;"">","null","","","","","","","","",""
"","image-keyboard-response","134","82380","0.0-134.0","3HOSI13XH0AZCVJZM3G8J6TDR8DDDK","A7QAPZ1YVA0K2","3FVBZG9CLJ0K37PD5L6161S4HTM0HN","","930","img/flower5.png","74","931","1","1","1","1","1,0.333,0.333,0.333,1,0.333,0.333,0.333,1","1,0.333,0.333,0.333,1,0.333,0.333,0.333,1","1",""
"","html-keyboard-response","135","82683","0.0-135.0","3HOSI13XH0AZCVJZM3G8J6TDR8DDDK","A7QAPZ1YVA0K2","3FVBZG9CLJ0K37PD5L6161S4HTM0HN","","null","<img src=""img/flower5.png"" style=""width:200px; border:14px solid green;"">","null","","","","","","","","",""
"","image-keyboard-response","136","83365","0.0-136.0","3HOSI13XH0AZCVJZM3G8J6TDR8DDDK","A7QAPZ1YVA0K2","3FVBZG9CLJ0K37PD5L6161S4HTM0HN","","680","img/flower5.png","74","681","1","1","1","1","1,0.333,0.333,0.333,1,0.333,0.333,0.333,1","1,0.333,0.333,0.333,1,0.333,0.333,0.333,1","1",""
"","html-keyboard-response","137","83669","0.0-137.0","3HOSI13XH0AZCVJZM3G8J6TDR8DDDK","A7QAPZ1YVA0K2","3FVBZG9CLJ0K37PD5L6161S4HTM0HN","","null","<img src=""img/flower5.png"" style=""width:200px; border:14px solid green;"">","null","","","","","","","","",""
"","image-keyboard-response","138","84562","0.0-138.0","3HOSI13XH0AZCVJZM3G8J6TDR8DDDK","A7QAPZ1YVA0K2","3FVBZG9CLJ0K37PD5L6161S4HTM0HN","","892","img/flower2.png","76","893","3","1","2","1","1,0.333,0.333,0.333,1,0.333,0.333,0.333,1","1,0.333,0.333,0.333,1,0.333,0.333,0.333,1","1",""
"","html-keyboard-response","139","84866","0.0-139.0","3HOSI13XH0AZCVJZM3G8J6TDR8DDDK","A7QAPZ1YVA0K2","3FVBZG9CLJ0K37PD5L6161S4HTM0HN","","null","<img src=""img/flower2.png"" style=""width:200px; border:14px solid green;"">","null","","","","","","","","",""
"","image-keyboard-response","140","86091","0.0-140.0","3HOSI13XH0AZCVJZM3G8J6TDR8DDDK","A7QAPZ1YVA0K2","3FVBZG9CLJ0K37PD5L6161S4HTM0HN","","1223","img/flower5.png","74","1224","1","1","1","1","1,0.333,0.333,0.333,1,0.333,0.333,0.333,1","1,0.333,0.333,0.333,1,0.333,0.333,0.333,1","1",""
"","html-keyboard-response","141","86395","0.0-141.0","3HOSI13XH0AZCVJZM3G8J6TDR8DDDK","A7QAPZ1YVA0K2","3FVBZG9CLJ0K37PD5L6161S4HTM0HN","","null","<img src=""img/flower5.png"" style=""width:200px; border:14px solid green;"">","null","","","","","","","","",""
"","image-keyboard-response","142","87332","0.0-142.0","3HOSI13XH0AZCVJZM3G8J6TDR8DDDK","A7QAPZ1YVA0K2","3FVBZG9CLJ0K37PD5L6161S4HTM0HN","","935","img/flower6.png","75","935","2","0","3","1","1,0.333,0.333,0.333,1,0.333,0.333,0.333,1","1,0.333,0.333,0.333,1,0.333,0.333,0.333,1","1",""
"","html-keyboard-response","143","87654","0.0-143.0","3HOSI13XH0AZCVJZM3G8J6TDR8DDDK","A7QAPZ1YVA0K2","3FVBZG9CLJ0K37PD5L6161S4HTM0HN","","null","<img src=""img/flower6.png"" style=""width:200px;border:14px solid red;"">","null","","","","","","","","",""
"","image-keyboard-response","144","88626","0.0-144.0","3HOSI13XH0AZCVJZM3G8J6TDR8DDDK","A7QAPZ1YVA0K2","3FVBZG9CLJ0K37PD5L6161S4HTM0HN","","971","img/flower5.png","74","972","1","1","1","1","1,0.333,0.333,0.333,1,0.333,0.333,0.333,1","1,0.333,0.333,0.333,1,0.333,0.333,0.333,1","1",""
"","html-keyboard-response","145","88931","0.0-145.0","3HOSI13XH0AZCVJZM3G8J6TDR8DDDK","A7QAPZ1YVA0K2","3FVBZG9CLJ0K37PD5L6161S4HTM0HN","","null","<img src=""img/flower5.png"" style=""width:200px; border:14px solid green;"">","null","","","","","","","","",""
"","image-keyboard-response","146","89949","0.0-146.0","3HOSI13XH0AZCVJZM3G8J6TDR8DDDK","A7QAPZ1YVA0K2","3FVBZG9CLJ0K37PD5L6161S4HTM0HN","","1014","img/flower2.png","76","1017","3","0","2","1","1,0.333,0.333,0.333,1,0.333,0.333,0.333,1","1,0.333,0.333,0.333,1,0.333,0.333,0.333,1","1",""
"","html-keyboard-response","147","90251","0.0-147.0","3HOSI13XH0AZCVJZM3G8J6TDR8DDDK","A7QAPZ1YVA0K2","3FVBZG9CLJ0K37PD5L6161S4HTM0HN","","null","<img src=""img/flower2.png"" style=""width:200px;border:14px solid red;"">","null","","","","","","","","",""
"","image-keyboard-response","148","91395","0.0-148.0","3HOSI13XH0AZCVJZM3G8J6TDR8DDDK","A7QAPZ1YVA0K2","3FVBZG9CLJ0K37PD5L6161S4HTM0HN","","1142","img/flower6.png","75","1143","2","1","3","1","1,0.333,0.333,0.333,1,0.333,0.333,0.333,1","1,0.333,0.333,0.333,1,0.333,0.333,0.333,1","1",""
"","html-keyboard-response","149","91761","0.0-149.0","3HOSI13XH0AZCVJZM3G8J6TDR8DDDK","A7QAPZ1YVA0K2","3FVBZG9CLJ0K37PD5L6161S4HTM0HN","","null","<img src=""img/flower6.png"" style=""width:200px; border:14px solid green;"">","null","","","","","","","","",""
"","image-keyboard-response","150","92826","0.0-150.0","3HOSI13XH0AZCVJZM3G8J6TDR8DDDK","A7QAPZ1YVA0K2","3FVBZG9CLJ0K37PD5L6161S4HTM0HN","","1064","img/flower5.png","74","1064","1","1","1","1","1,0.333,0.333,0.333,1,0.333,0.333,0.333,1","1,0.333,0.333,0.333,1,0.333,0.333,0.333,1","1",""
"","html-keyboard-response","151","93128","0.0-151.0","3HOSI13XH0AZCVJZM3G8J6TDR8DDDK","A7QAPZ1YVA0K2","3FVBZG9CLJ0K37PD5L6161S4HTM0HN","","null","<img src=""img/flower5.png"" style=""width:200px; border:14px solid green;"">","null","","","","","","","","",""
"","image-keyboard-response","152","94116","0.0-152.0","3HOSI13XH0AZCVJZM3G8J6TDR8DDDK","A7QAPZ1YVA0K2","3FVBZG9CLJ0K37PD5L6161S4HTM0HN","","985","img/flower6.png","75","987","2","1","3","1","1,0.333,0.333,0.333,1,0.333,0.333,0.333,1","1,0.333,0.333,0.333,1,0.333,0.333,0.333,1","1",""
"","html-keyboard-response","153","94418","0.0-153.0","3HOSI13XH0AZCVJZM3G8J6TDR8DDDK","A7QAPZ1YVA0K2","3FVBZG9CLJ0K37PD5L6161S4HTM0HN","","null","<img src=""img/flower6.png"" style=""width:200px; border:14px solid green;"">","null","","","","","","","","",""
"","image-keyboard-response","154","95293","0.0-154.0","3HOSI13XH0AZCVJZM3G8J6TDR8DDDK","A7QAPZ1YVA0K2","3FVBZG9CLJ0K37PD5L6161S4HTM0HN","","873","img/flower5.png","74","873","1","1","1","1","1,0.333,0.333,0.333,1,0.333,0.333,0.333,1","1,0.333,0.333,0.333,1,0.333,0.333,0.333,1","1",""
"","html-keyboard-response","155","95597","0.0-155.0","3HOSI13XH0AZCVJZM3G8J6TDR8DDDK","A7QAPZ1YVA0K2","3FVBZG9CLJ0K37PD5L6161S4HTM0HN","","null","<img src=""img/flower5.png"" style=""width:200px; border:14px solid green;"">","null","","","","","","","","",""
"","image-keyboard-response","156","96264","0.0-156.0","3HOSI13XH0AZCVJZM3G8J6TDR8DDDK","A7QAPZ1YVA0K2","3FVBZG9CLJ0K37PD5L6161S4HTM0HN","","666","img/flower6.png","75","668","2","0","3","1","1,0.333,0.333,0.333,1,0.333,0.333,0.333,1","1,0.333,0.333,0.333,1,0.333,0.333,0.333,1","1",""
"","html-keyboard-response","157","96567","0.0-157.0","3HOSI13XH0AZCVJZM3G8J6TDR8DDDK","A7QAPZ1YVA0K2","3FVBZG9CLJ0K37PD5L6161S4HTM0HN","","null","<img src=""img/flower6.png"" style=""width:200px;border:14px solid red;"">","null","","","","","","","","",""
"","image-keyboard-response","158","97570","0.0-158.0","3HOSI13XH0AZCVJZM3G8J6TDR8DDDK","A7QAPZ1YVA0K2","3FVBZG9CLJ0K37PD5L6161S4HTM0HN","","1001","img/flower2.png","76","1002","3","1","2","1","1,0.333,0.333,0.333,1,0.333,0.333,0.333,1","1,0.333,0.333,0.333,1,0.333,0.333,0.333,1","1",""
"","html-keyboard-response","159","97871","0.0-159.0","3HOSI13XH0AZCVJZM3G8J6TDR8DDDK","A7QAPZ1YVA0K2","3FVBZG9CLJ0K37PD5L6161S4HTM0HN","","null","<img src=""img/flower2.png"" style=""width:200px; border:14px solid green;"">","null","","","","","","","","",""
"","image-keyboard-response","160","98830","0.0-160.0","3HOSI13XH0AZCVJZM3G8J6TDR8DDDK","A7QAPZ1YVA0K2","3FVBZG9CLJ0K37PD5L6161S4HTM0HN","","954","img/flower5.png","74","956","1","1","1","1","1,0.333,0.333,0.333,1,0.333,0.333,0.333,1","1,0.333,0.333,0.333,1,0.333,0.333,0.333,1","1",""
"","html-keyboard-response","161","99133","0.0-161.0","3HOSI13XH0AZCVJZM3G8J6TDR8DDDK","A7QAPZ1YVA0K2","3FVBZG9CLJ0K37PD5L6161S4HTM0HN","","null","<img src=""img/flower5.png"" style=""width:200px; border:14px solid green;"">","null","","","","","","","","",""
"","image-keyboard-response","162","100034","0.0-162.0","3HOSI13XH0AZCVJZM3G8J6TDR8DDDK","A7QAPZ1YVA0K2","3FVBZG9CLJ0K37PD5L6161S4HTM0HN","","899","img/flower2.png","76","900","3","1","2","1","1,0.333,0.333,0.333,1,0.333,0.333,0.333,1","1,0.333,0.333,0.333,1,0.333,0.333,0.333,1","1",""
"","html-keyboard-response","163","100336","0.0-163.0","3HOSI13XH0AZCVJZM3G8J6TDR8DDDK","A7QAPZ1YVA0K2","3FVBZG9CLJ0K37PD5L6161S4HTM0HN","","null","<img src=""img/flower2.png"" style=""width:200px; border:14px solid green;"">","null","","","","","","","","",""
"","image-keyboard-response","164","101186","0.0-164.0","3HOSI13XH0AZCVJZM3G8J6TDR8DDDK","A7QAPZ1YVA0K2","3FVBZG9CLJ0K37PD5L6161S4HTM0HN","","848","img/flower6.png","75","849","2","0","3","1","1,0.333,0.333,0.333,1,0.333,0.333,0.333,1","1,0.333,0.333,0.333,1,0.333,0.333,0.333,1","1",""
"","html-keyboard-response","165","101487","0.0-165.0","3HOSI13XH0AZCVJZM3G8J6TDR8DDDK","A7QAPZ1YVA0K2","3FVBZG9CLJ0K37PD5L6161S4HTM0HN","","null","<img src=""img/flower6.png"" style=""width:200px;border:14px solid red;"">","null","","","","","","","","",""
"","image-keyboard-response","166","102729","0.0-166.0","3HOSI13XH0AZCVJZM3G8J6TDR8DDDK","A7QAPZ1YVA0K2","3FVBZG9CLJ0K37PD5L6161S4HTM0HN","","1240","img/flower6.png","76","1241","3","1","3","1","1,0.333,0.333,0.333,1,0.333,0.333,0.333,1","1,0.333,0.333,0.333,1,0.333,0.333,0.333,1","1",""
"","html-keyboard-response","167","103031","0.0-167.0","3HOSI13XH0AZCVJZM3G8J6TDR8DDDK","A7QAPZ1YVA0K2","3FVBZG9CLJ0K37PD5L6161S4HTM0HN","","null","<img src=""img/flower6.png"" style=""width:200px; border:14px solid green;"">","null","","","","","","","","",""
"","image-keyboard-response","168","103853","0.0-168.0","3HOSI13XH0AZCVJZM3G8J6TDR8DDDK","A7QAPZ1YVA0K2","3FVBZG9CLJ0K37PD5L6161S4HTM0HN","","810","img/flower6.png","76","811","3","1","3","1","1,0.333,0.333,0.333,1,0.333,0.333,0.333,1","1,0.333,0.333,0.333,1,0.333,0.333,0.333,1","1",""
"","html-keyboard-response","169","104154","0.0-169.0","3HOSI13XH0AZCVJZM3G8J6TDR8DDDK","A7QAPZ1YVA0K2","3FVBZG9CLJ0K37PD5L6161S4HTM0HN","","null","<img src=""img/flower6.png"" style=""width:200px; border:14px solid green;"">","null","","","","","","","","",""
"","image-keyboard-response","170","104856","0.0-170.0","3HOSI13XH0AZCVJZM3G8J6TDR8DDDK","A7QAPZ1YVA0K2","3FVBZG9CLJ0K37PD5L6161S4HTM0HN","","699","img/flower6.png","76","700","3","1","3","1","1,0.333,0.333,0.333,1,0.333,0.333,0.333,1","1,0.333,0.333,0.333,1,0.333,0.333,0.333,1","1",""
"","html-keyboard-response","171","105158","0.0-171.0","3HOSI13XH0AZCVJZM3G8J6TDR8DDDK","A7QAPZ1YVA0K2","3FVBZG9CLJ0K37PD5L6161S4HTM0HN","","null","<img src=""img/flower6.png"" style=""width:200px; border:14px solid green;"">","null","","","","","","","","",""
"","image-keyboard-response","172","106125","0.0-172.0","3HOSI13XH0AZCVJZM3G8J6TDR8DDDK","A7QAPZ1YVA0K2","3FVBZG9CLJ0K37PD5L6161S4HTM0HN","","964","img/flower5.png","74","966","1","1","1","1","1,0.333,0.333,0.333,1,0.333,0.333,0.333,1","1,0.333,0.333,0.333,1,0.333,0.333,0.333,1","1",""
"","html-keyboard-response","173","106427","0.0-173.0","3HOSI13XH0AZCVJZM3G8J6TDR8DDDK","A7QAPZ1YVA0K2","3FVBZG9CLJ0K37PD5L6161S4HTM0HN","","null","<img src=""img/flower5.png"" style=""width:200px; border:14px solid green;"">","null","","","","","","","","",""
"","image-keyboard-response","174","107237","0.0-174.0","3HOSI13XH0AZCVJZM3G8J6TDR8DDDK","A7QAPZ1YVA0K2","3FVBZG9CLJ0K37PD5L6161S4HTM0HN","","806","img/flower2.png","74","808","1","0","2","1","1,0.333,0.333,0.333,1,0.333,0.333,0.333,1","1,0.333,0.333,0.333,1,0.333,0.333,0.333,1","1",""
"","html-keyboard-response","175","107540","0.0-175.0","3HOSI13XH0AZCVJZM3G8J6TDR8DDDK","A7QAPZ1YVA0K2","3FVBZG9CLJ0K37PD5L6161S4HTM0HN","","null","<img src=""img/flower2.png"" style=""width:200px;border:14px solid red;"">","null","","","","","","","","",""
"","image-keyboard-response","176","108147","0.0-176.0","3HOSI13XH0AZCVJZM3G8J6TDR8DDDK","A7QAPZ1YVA0K2","3FVBZG9CLJ0K37PD5L6161S4HTM0HN","","604","img/flower6.png","75","607","2","0","3","1","1,0.333,0.333,0.333,1,0.333,0.333,0.333,1","1,0.333,0.333,0.333,1,0.333,0.333,0.333,1","1",""
"","html-keyboard-response","177","108451","0.0-177.0","3HOSI13XH0AZCVJZM3G8J6TDR8DDDK","A7QAPZ1YVA0K2","3FVBZG9CLJ0K37PD5L6161S4HTM0HN","","null","<img src=""img/flower6.png"" style=""width:200px;border:14px solid red;"">","null","","","","","","","","",""
"","image-keyboard-response","178","109155","0.0-178.0","3HOSI13XH0AZCVJZM3G8J6TDR8DDDK","A7QAPZ1YVA0K2","3FVBZG9CLJ0K37PD5L6161S4HTM0HN","","702","img/flower2.png","76","704","3","0","2","1","1,0.333,0.333,0.333,1,0.333,0.333,0.333,1","1,0.333,0.333,0.333,1,0.333,0.333,0.333,1","1",""
"","html-keyboard-response","179","109459","0.0-179.0","3HOSI13XH0AZCVJZM3G8J6TDR8DDDK","A7QAPZ1YVA0K2","3FVBZG9CLJ0K37PD5L6161S4HTM0HN","","null","<img src=""img/flower2.png"" style=""width:200px;border:14px solid red;"">","null","","","","","","","","",""
"","image-keyboard-response","180","110209","0.0-180.0","3HOSI13XH0AZCVJZM3G8J6TDR8DDDK","A7QAPZ1YVA0K2","3FVBZG9CLJ0K37PD5L6161S4HTM0HN","","747","img/flower6.png","76","749","3","1","3","1","1,0.333,0.333,0.333,1,0.333,0.333,0.333,1","1,0.333,0.333,0.333,1,0.333,0.333,0.333,1","1",""
"","html-keyboard-response","181","110512","0.0-181.0","3HOSI13XH0AZCVJZM3G8J6TDR8DDDK","A7QAPZ1YVA0K2","3FVBZG9CLJ0K37PD5L6161S4HTM0HN","","null","<img src=""img/flower6.png"" style=""width:200px; border:14px solid green;"">","null","","","","","","","","",""
"","html-keyboard-response","182","113188","0.0-182.0","3HOSI13XH0AZCVJZM3G8J6TDR8DDDK","A7QAPZ1YVA0K2","3FVBZG9CLJ0K37PD5L6161S4HTM0HN","","","","","","","","","","","","",""
"","image-keyboard-response","183","114415","0.0-183.0","3HOSI13XH0AZCVJZM3G8J6TDR8DDDK","A7QAPZ1YVA0K2","3FVBZG9CLJ0K37PD5L6161S4HTM0HN","","1219","img/flower1.png","76","1223","3","1","2","2","1,0,0,1,1,0,1,0,1","0,1,0,0,1,1,1,1,0","3",""
"","html-keyboard-response","184","114717","0.0-184.0","3HOSI13XH0AZCVJZM3G8J6TDR8DDDK","A7QAPZ1YVA0K2","3FVBZG9CLJ0K37PD5L6161S4HTM0HN","","null","<img src=""img/flower1.png"" style=""width:200px; border:14px solid green;"">","null","","","","","","","","",""
"","image-keyboard-response","185","115491","0.0-185.0","3HOSI13XH0AZCVJZM3G8J6TDR8DDDK","A7QAPZ1YVA0K2","3FVBZG9CLJ0K37PD5L6161S4HTM0HN","","772","img/flower1.png","76","773","3","1","2","2","1,0,0,1,1,0,1,0,1","0,1,0,0,1,1,1,1,0","3",""
"","html-keyboard-response","186","115793","0.0-186.0","3HOSI13XH0AZCVJZM3G8J6TDR8DDDK","A7QAPZ1YVA0K2","3FVBZG9CLJ0K37PD5L6161S4HTM0HN","","null","<img src=""img/flower1.png"" style=""width:200px; border:14px solid green;"">","null","","","","","","","","",""
"","image-keyboard-response","187","116485","0.0-187.0","3HOSI13XH0AZCVJZM3G8J6TDR8DDDK","A7QAPZ1YVA0K2","3FVBZG9CLJ0K37PD5L6161S4HTM0HN","","689","img/flower1.png","76","692","3","1","2","2","1,0,0,1,1,0,1,0,1","0,1,0,0,1,1,1,1,0","3",""
"","html-keyboard-response","188","116789","0.0-188.0","3HOSI13XH0AZCVJZM3G8J6TDR8DDDK","A7QAPZ1YVA0K2","3FVBZG9CLJ0K37PD5L6161S4HTM0HN","","null","<img src=""img/flower1.png"" style=""width:200px; border:14px solid green;"">","null","","","","","","","","",""
"","image-keyboard-response","189","117484","0.0-189.0","3HOSI13XH0AZCVJZM3G8J6TDR8DDDK","A7QAPZ1YVA0K2","3FVBZG9CLJ0K37PD5L6161S4HTM0HN","","693","img/flower1.png","76","695","3","1","2","2","1,0,0,1,1,0,1,0,1","0,1,0,0,1,1,1,1,0","3",""
"","html-keyboard-response","190","117790","0.0-190.0","3HOSI13XH0AZCVJZM3G8J6TDR8DDDK","A7QAPZ1YVA0K2","3FVBZG9CLJ0K37PD5L6161S4HTM0HN","","null","<img src=""img/flower1.png"" style=""width:200px; border:14px solid green;"">","null","","","","","","","","",""
"","image-keyboard-response","191","118442","0.0-191.0","3HOSI13XH0AZCVJZM3G8J6TDR8DDDK","A7QAPZ1YVA0K2","3FVBZG9CLJ0K37PD5L6161S4HTM0HN","","650","img/flower1.png","76","651","3","1","2","2","1,0,0,1,1,0,1,0,1","0,1,0,0,1,1,1,1,0","3",""
"","html-keyboard-response","192","118745","0.0-192.0","3HOSI13XH0AZCVJZM3G8J6TDR8DDDK","A7QAPZ1YVA0K2","3FVBZG9CLJ0K37PD5L6161S4HTM0HN","","null","<img src=""img/flower1.png"" style=""width:200px; border:14px solid green;"">","null","","","","","","","","",""
"","image-keyboard-response","193","119599","0.0-193.0","3HOSI13XH0AZCVJZM3G8J6TDR8DDDK","A7QAPZ1YVA0K2","3FVBZG9CLJ0K37PD5L6161S4HTM0HN","","849","img/flower3.png","75","852","2","1","3","2","1,0,0,1,1,0,1,0,1","0,1,0,0,1,1,1,1,0","3",""
"","html-keyboard-response","194","119902","0.0-194.0","3HOSI13XH0AZCVJZM3G8J6TDR8DDDK","A7QAPZ1YVA0K2","3FVBZG9CLJ0K37PD5L6161S4HTM0HN","","null","<img src=""img/flower3.png"" style=""width:200px; border:14px solid green;"">","null","","","","","","","","",""
"","image-keyboard-response","195","120823","0.0-195.0","3HOSI13XH0AZCVJZM3G8J6TDR8DDDK","A7QAPZ1YVA0K2","3FVBZG9CLJ0K37PD5L6161S4HTM0HN","","918","img/flower4.png","75","919","2","1","1","2","1,0,0,1,1,0,1,0,1","0,1,0,0,1,1,1,1,0","3",""
"","html-keyboard-response","196","121126","0.0-196.0","3HOSI13XH0AZCVJZM3G8J6TDR8DDDK","A7QAPZ1YVA0K2","3FVBZG9CLJ0K37PD5L6161S4HTM0HN","","null","<img src=""img/flower4.png"" style=""width:200px; border:14px solid green;"">","null","","","","","","","","",""
"","image-keyboard-response","197","121847","0.0-197.0","3HOSI13XH0AZCVJZM3G8J6TDR8DDDK","A7QAPZ1YVA0K2","3FVBZG9CLJ0K37PD5L6161S4HTM0HN","","718","img/flower4.png","75","719","2","1","1","2","1,0,0,1,1,0,1,0,1","0,1,0,0,1,1,1,1,0","3",""
"","html-keyboard-response","198","122152","0.0-198.0","3HOSI13XH0AZCVJZM3G8J6TDR8DDDK","A7QAPZ1YVA0K2","3FVBZG9CLJ0K37PD5L6161S4HTM0HN","","null","<img src=""img/flower4.png"" style=""width:200px; border:14px solid green;"">","null","","","","","","","","",""
"","image-keyboard-response","199","123165","0.0-199.0","3HOSI13XH0AZCVJZM3G8J6TDR8DDDK","A7QAPZ1YVA0K2","3FVBZG9CLJ0K37PD5L6161S4HTM0HN","","1008","img/flower1.png","75","1010","2","1","2","2","1,0,0,1,1,0,1,0,1","0,1,0,0,1,1,1,1,0","3",""
"","html-keyboard-response","200","123469","0.0-200.0","3HOSI13XH0AZCVJZM3G8J6TDR8DDDK","A7QAPZ1YVA0K2","3FVBZG9CLJ0K37PD5L6161S4HTM0HN","","null","<img src=""img/flower1.png"" style=""width:200px; border:14px solid green;"">","null","","","","","","","","",""
"","image-keyboard-response","201","124296","0.0-201.0","3HOSI13XH0AZCVJZM3G8J6TDR8DDDK","A7QAPZ1YVA0K2","3FVBZG9CLJ0K37PD5L6161S4HTM0HN","","824","img/flower4.png","74","826","1","0","1","2","1,0,0,1,1,0,1,0,1","0,1,0,0,1,1,1,1,0","3",""
"","html-keyboard-response","202","124598","0.0-202.0","3HOSI13XH0AZCVJZM3G8J6TDR8DDDK","A7QAPZ1YVA0K2","3FVBZG9CLJ0K37PD5L6161S4HTM0HN","","null","<img src=""img/flower4.png"" style=""width:200px;border:14px solid red;"">","null","","","","","","","","",""
"","image-keyboard-response","203","125111","0.0-203.0","3HOSI13XH0AZCVJZM3G8J6TDR8DDDK","A7QAPZ1YVA0K2","3FVBZG9CLJ0K37PD5L6161S4HTM0HN","","505","img/flower3.png","75","510","2","1","3","2","1,0,0,1,1,0,1,0,1","0,1,0,0,1,1,1,1,0","3",""
"","html-keyboard-response","204","125414","0.0-204.0","3HOSI13XH0AZCVJZM3G8J6TDR8DDDK","A7QAPZ1YVA0K2","3FVBZG9CLJ0K37PD5L6161S4HTM0HN","","null","<img src=""img/flower3.png"" style=""width:200px; border:14px solid green;"">","null","","","","","","","","",""
"","image-keyboard-response","205","126073","0.0-205.0","3HOSI13XH0AZCVJZM3G8J6TDR8DDDK","A7QAPZ1YVA0K2","3FVBZG9CLJ0K37PD5L6161S4HTM0HN","","646","img/flower4.png","75","648","2","1","1","2","1,0,0,1,1,0,1,0,1","0,1,0,0,1,1,1,1,0","3",""
"","html-keyboard-response","206","126378","0.0-206.0","3HOSI13XH0AZCVJZM3G8J6TDR8DDDK","A7QAPZ1YVA0K2","3FVBZG9CLJ0K37PD5L6161S4HTM0HN","","null","<img src=""img/flower4.png"" style=""width:200px; border:14px solid green;"">","null","","","","","","","","",""
"","image-keyboard-response","207","127082","0.0-207.0","3HOSI13XH0AZCVJZM3G8J6TDR8DDDK","A7QAPZ1YVA0K2","3FVBZG9CLJ0K37PD5L6161S4HTM0HN","","702","img/flower4.png","75","704","2","1","1","2","1,0,0,1,1,0,1,0,1","0,1,0,0,1,1,1,1,0","3",""
"","html-keyboard-response","208","127384","0.0-208.0","3HOSI13XH0AZCVJZM3G8J6TDR8DDDK","A7QAPZ1YVA0K2","3FVBZG9CLJ0K37PD5L6161S4HTM0HN","","null","<img src=""img/flower4.png"" style=""width:200px; border:14px solid green;"">","null","","","","","","","","",""
"","image-keyboard-response","209","128116","0.0-209.0","3HOSI13XH0AZCVJZM3G8J6TDR8DDDK","A7QAPZ1YVA0K2","3FVBZG9CLJ0K37PD5L6161S4HTM0HN","","724","img/flower3.png","75","726","2","1","3","2","1,0,0,1,1,0,1,0,1","0,1,0,0,1,1,1,1,0","3",""
"","html-keyboard-response","210","128418","0.0-210.0","3HOSI13XH0AZCVJZM3G8J6TDR8DDDK","A7QAPZ1YVA0K2","3FVBZG9CLJ0K37PD5L6161S4HTM0HN","","null","<img src=""img/flower3.png"" style=""width:200px; border:14px solid green;"">","null","","","","","","","","",""
"","image-keyboard-response","211","129239","0.0-211.0","3HOSI13XH0AZCVJZM3G8J6TDR8DDDK","A7QAPZ1YVA0K2","3FVBZG9CLJ0K37PD5L6161S4HTM0HN","","815","img/flower3.png","75","817","2","1","3","2","1,0,0,1,1,0,1,0,1","0,1,0,0,1,1,1,1,0","3",""
"","html-keyboard-response","212","129545","0.0-212.0","3HOSI13XH0AZCVJZM3G8J6TDR8DDDK","A7QAPZ1YVA0K2","3FVBZG9CLJ0K37PD5L6161S4HTM0HN","","null","<img src=""img/flower3.png"" style=""width:200px; border:14px solid green;"">","null","","","","","","","","",""
"","image-keyboard-response","213","130153","0.0-213.0","3HOSI13XH0AZCVJZM3G8J6TDR8DDDK","A7QAPZ1YVA0K2","3FVBZG9CLJ0K37PD5L6161S4HTM0HN","","603","img/flower3.png","75","606","2","1","3","2","1,0,0,1,1,0,1,0,1","0,1,0,0,1,1,1,1,0","3",""
"","html-keyboard-response","214","130453","0.0-214.0","3HOSI13XH0AZCVJZM3G8J6TDR8DDDK","A7QAPZ1YVA0K2","3FVBZG9CLJ0K37PD5L6161S4HTM0HN","","null","<img src=""img/flower3.png"" style=""width:200px; border:14px solid green;"">","null","","","","","","","","",""
"","image-keyboard-response","215","131239","0.0-215.0","3HOSI13XH0AZCVJZM3G8J6TDR8DDDK","A7QAPZ1YVA0K2","3FVBZG9CLJ0K37PD5L6161S4HTM0HN","","782","img/flower1.png","75","784","2","1","2","2","1,0,0,1,1,0,1,0,1","0,1,0,0,1,1,1,1,0","3",""
"","html-keyboard-response","216","131592","0.0-216.0","3HOSI13XH0AZCVJZM3G8J6TDR8DDDK","A7QAPZ1YVA0K2","3FVBZG9CLJ0K37PD5L6161S4HTM0HN","","null","<img src=""img/flower1.png"" style=""width:200px; border:14px solid green;"">","null","","","","","","","","",""
"","image-keyboard-response","217","132287","0.0-217.0","3HOSI13XH0AZCVJZM3G8J6TDR8DDDK","A7QAPZ1YVA0K2","3FVBZG9CLJ0K37PD5L6161S4HTM0HN","","691","img/flower1.png","75","693","2","1","2","2","1,0,0,1,1,0,1,0,1","0,1,0,0,1,1,1,1,0","3",""
"","html-keyboard-response","218","132591","0.0-218.0","3HOSI13XH0AZCVJZM3G8J6TDR8DDDK","A7QAPZ1YVA0K2","3FVBZG9CLJ0K37PD5L6161S4HTM0HN","","null","<img src=""img/flower1.png"" style=""width:200px; border:14px solid green;"">","null","","","","","","","","",""
"","image-keyboard-response","219","133184","0.0-219.0","3HOSI13XH0AZCVJZM3G8J6TDR8DDDK","A7QAPZ1YVA0K2","3FVBZG9CLJ0K37PD5L6161S4HTM0HN","","586","img/flower4.png","75","591","2","1","1","2","1,0,0,1,1,0,1,0,1","0,1,0,0,1,1,1,1,0","3",""
"","html-keyboard-response","220","133488","0.0-220.0","3HOSI13XH0AZCVJZM3G8J6TDR8DDDK","A7QAPZ1YVA0K2","3FVBZG9CLJ0K37PD5L6161S4HTM0HN","","null","<img src=""img/flower4.png"" style=""width:200px; border:14px solid green;"">","null","","","","","","","","",""
"","image-keyboard-response","221","134432","0.0-221.0","3HOSI13XH0AZCVJZM3G8J6TDR8DDDK","A7QAPZ1YVA0K2","3FVBZG9CLJ0K37PD5L6161S4HTM0HN","","942","img/flower1.png","76","944","3","1","2","2","1,0,0,1,1,0,1,0,1","0,1,0,0,1,1,1,1,0","3",""
"","html-keyboard-response","222","134735","0.0-222.0","3HOSI13XH0AZCVJZM3G8J6TDR8DDDK","A7QAPZ1YVA0K2","3FVBZG9CLJ0K37PD5L6161S4HTM0HN","","null","<img src=""img/flower1.png"" style=""width:200px; border:14px solid green;"">","null","","","","","","","","",""
"","image-keyboard-response","223","135329","0.0-223.0","3HOSI13XH0AZCVJZM3G8J6TDR8DDDK","A7QAPZ1YVA0K2","3FVBZG9CLJ0K37PD5L6161S4HTM0HN","","590","img/flower3.png","75","593","2","1","3","2","1,0,0,1,1,0,1,0,1","0,1,0,0,1,1,1,1,0","3",""
"","html-keyboard-response","224","135630","0.0-224.0","3HOSI13XH0AZCVJZM3G8J6TDR8DDDK","A7QAPZ1YVA0K2","3FVBZG9CLJ0K37PD5L6161S4HTM0HN","","null","<img src=""img/flower3.png"" style=""width:200px; border:14px solid green;"">","null","","","","","","","","",""
"","image-keyboard-response","225","136402","0.0-225.0","3HOSI13XH0AZCVJZM3G8J6TDR8DDDK","A7QAPZ1YVA0K2","3FVBZG9CLJ0K37PD5L6161S4HTM0HN","","769","img/flower4.png","75","771","2","1","1","2","1,0,0,1,1,0,1,0,1","0,1,0,0,1,1,1,1,0","3",""
"","html-keyboard-response","226","136706","0.0-226.0","3HOSI13XH0AZCVJZM3G8J6TDR8DDDK","A7QAPZ1YVA0K2","3FVBZG9CLJ0K37PD5L6161S4HTM0HN","","null","<img src=""img/flower4.png"" style=""width:200px; border:14px solid green;"">","null","","","","","","","","",""
"","image-keyboard-response","227","137507","0.0-227.0","3HOSI13XH0AZCVJZM3G8J6TDR8DDDK","A7QAPZ1YVA0K2","3FVBZG9CLJ0K37PD5L6161S4HTM0HN","","798","img/flower1.png","75","800","2","1","2","2","1,0,0,1,1,0,1,0,1","0,1,0,0,1,1,1,1,0","3",""
"","html-keyboard-response","228","137879","0.0-228.0","3HOSI13XH0AZCVJZM3G8J6TDR8DDDK","A7QAPZ1YVA0K2","3FVBZG9CLJ0K37PD5L6161S4HTM0HN","","null","<img src=""img/flower1.png"" style=""width:200px; border:14px solid green;"">","null","","","","","","","","",""
"","image-keyboard-response","229","138722","0.0-229.0","3HOSI13XH0AZCVJZM3G8J6TDR8DDDK","A7QAPZ1YVA0K2","3FVBZG9CLJ0K37PD5L6161S4HTM0HN","","837","img/flower4.png","74","839","1","0","1","2","1,0,0,1,1,0,1,0,1","0,1,0,0,1,1,1,1,0","3",""
"","html-keyboard-response","230","139028","0.0-230.0","3HOSI13XH0AZCVJZM3G8J6TDR8DDDK","A7QAPZ1YVA0K2","3FVBZG9CLJ0K37PD5L6161S4HTM0HN","","null","<img src=""img/flower4.png"" style=""width:200px;border:14px solid red;"">","null","","","","","","","","",""
"","image-keyboard-response","231","139743","0.0-231.0","3HOSI13XH0AZCVJZM3G8J6TDR8DDDK","A7QAPZ1YVA0K2","3FVBZG9CLJ0K37PD5L6161S4HTM0HN","","711","img/flower4.png","76","714","3","0","1","2","1,0,0,1,1,0,1,0,1","0,1,0,0,1,1,1,1,0","3",""
"","html-keyboard-response","232","140046","0.0-232.0","3HOSI13XH0AZCVJZM3G8J6TDR8DDDK","A7QAPZ1YVA0K2","3FVBZG9CLJ0K37PD5L6161S4HTM0HN","","null","<img src=""img/flower4.png"" style=""width:200px;border:14px solid red;"">","null","","","","","","","","",""
"","image-keyboard-response","233","140673","0.0-233.0","3HOSI13XH0AZCVJZM3G8J6TDR8DDDK","A7QAPZ1YVA0K2","3FVBZG9CLJ0K37PD5L6161S4HTM0HN","","623","img/flower4.png","75","627","2","1","1","2","1,0,0,1,1,0,1,0,1","0,1,0,0,1,1,1,1,0","3",""
"","html-keyboard-response","234","140976","0.0-234.0","3HOSI13XH0AZCVJZM3G8J6TDR8DDDK","A7QAPZ1YVA0K2","3FVBZG9CLJ0K37PD5L6161S4HTM0HN","","null","<img src=""img/flower4.png"" style=""width:200px; border:14px solid green;"">","null","","","","","","","","",""
"","image-keyboard-response","235","141643","0.0-235.0","3HOSI13XH0AZCVJZM3G8J6TDR8DDDK","A7QAPZ1YVA0K2","3FVBZG9CLJ0K37PD5L6161S4HTM0HN","","664","img/flower3.png","75","666","2","1","3","2","1,0,0,1,1,0,1,0,1","0,1,0,0,1,1,1,1,0","3",""
"","html-keyboard-response","236","141944","0.0-236.0","3HOSI13XH0AZCVJZM3G8J6TDR8DDDK","A7QAPZ1YVA0K2","3FVBZG9CLJ0K37PD5L6161S4HTM0HN","","null","<img src=""img/flower3.png"" style=""width:200px; border:14px solid green;"">","null","","","","","","","","",""
"","image-keyboard-response","237","142656","0.0-237.0","3HOSI13XH0AZCVJZM3G8J6TDR8DDDK","A7QAPZ1YVA0K2","3FVBZG9CLJ0K37PD5L6161S4HTM0HN","","708","img/flower1.png","75","710","2","1","2","2","1,0,0,1,1,0,1,0,1","0,1,0,0,1,1,1,1,0","3",""
"","html-keyboard-response","238","142959","0.0-238.0","3HOSI13XH0AZCVJZM3G8J6TDR8DDDK","A7QAPZ1YVA0K2","3FVBZG9CLJ0K37PD5L6161S4HTM0HN","","null","<img src=""img/flower1.png"" style=""width:200px; border:14px solid green;"">","null","","","","","","","","",""
"","image-keyboard-response","239","143820","0.0-239.0","3HOSI13XH0AZCVJZM3G8J6TDR8DDDK","A7QAPZ1YVA0K2","3FVBZG9CLJ0K37PD5L6161S4HTM0HN","","858","img/flower4.png","76","860","3","0","1","2","1,0,0,1,1,0,1,0,1","0,1,0,0,1,1,1,1,0","3",""
"","html-keyboard-response","240","144123","0.0-240.0","3HOSI13XH0AZCVJZM3G8J6TDR8DDDK","A7QAPZ1YVA0K2","3FVBZG9CLJ0K37PD5L6161S4HTM0HN","","null","<img src=""img/flower4.png"" style=""width:200px;border:14px solid red;"">","null","","","","","","","","",""
"","image-keyboard-response","241","144443","0.0-241.0","3HOSI13XH0AZCVJZM3G8J6TDR8DDDK","A7QAPZ1YVA0K2","3FVBZG9CLJ0K37PD5L6161S4HTM0HN","","318","img/flower3.png","76","319","3","0","3","2","1,0,0,1,1,0,1,0,1","0,1,0,0,1,1,1,1,0","3",""
"","html-keyboard-response","242","144745","0.0-242.0","3HOSI13XH0AZCVJZM3G8J6TDR8DDDK","A7QAPZ1YVA0K2","3FVBZG9CLJ0K37PD5L6161S4HTM0HN","","null","<img src=""img/flower3.png"" style=""width:200px;border:14px solid red;"">","null","","","","","","","","",""
"","image-keyboard-response","243","145180","0.0-243.0","3HOSI13XH0AZCVJZM3G8J6TDR8DDDK","A7QAPZ1YVA0K2","3FVBZG9CLJ0K37PD5L6161S4HTM0HN","","432","img/flower3.png","75","434","2","1","3","2","1,0,0,1,1,0,1,0,1","0,1,0,0,1,1,1,1,0","3",""
"","html-keyboard-response","244","145485","0.0-244.0","3HOSI13XH0AZCVJZM3G8J6TDR8DDDK","A7QAPZ1YVA0K2","3FVBZG9CLJ0K37PD5L6161S4HTM0HN","","null","<img src=""img/flower3.png"" style=""width:200px; border:14px solid green;"">","null","","","","","","","","",""
"","image-keyboard-response","245","146227","0.0-245.0","3HOSI13XH0AZCVJZM3G8J6TDR8DDDK","A7QAPZ1YVA0K2","3FVBZG9CLJ0K37PD5L6161S4HTM0HN","","740","img/flower3.png","75","742","2","1","3","2","1,0,0,1,1,0,1,0,1","0,1,0,0,1,1,1,1,0","3",""
"","html-keyboard-response","246","146529","0.0-246.0","3HOSI13XH0AZCVJZM3G8J6TDR8DDDK","A7QAPZ1YVA0K2","3FVBZG9CLJ0K37PD5L6161S4HTM0HN","","null","<img src=""img/flower3.png"" style=""width:200px; border:14px solid green;"">","null","","","","","","","","",""
"","image-keyboard-response","247","147145","0.0-247.0","3HOSI13XH0AZCVJZM3G8J6TDR8DDDK","A7QAPZ1YVA0K2","3FVBZG9CLJ0K37PD5L6161S4HTM0HN","","614","img/flower4.png","74","616","1","0","1","2","1,0,0,1,1,0,1,0,1","0,1,0,0,1,1,1,1,0","3",""
"","html-keyboard-response","248","147449","0.0-248.0","3HOSI13XH0AZCVJZM3G8J6TDR8DDDK","A7QAPZ1YVA0K2","3FVBZG9CLJ0K37PD5L6161S4HTM0HN","","null","<img src=""img/flower4.png"" style=""width:200px;border:14px solid red;"">","null","","","","","","","","",""
"","image-keyboard-response","249","147966","0.0-249.0","3HOSI13XH0AZCVJZM3G8J6TDR8DDDK","A7QAPZ1YVA0K2","3FVBZG9CLJ0K37PD5L6161S4HTM0HN","","514","img/flower3.png","75","515","2","1","3","2","1,0,0,1,1,0,1,0,1","0,1,0,0,1,1,1,1,0","3",""
"","html-keyboard-response","250","148267","0.0-250.0","3HOSI13XH0AZCVJZM3G8J6TDR8DDDK","A7QAPZ1YVA0K2","3FVBZG9CLJ0K37PD5L6161S4HTM0HN","","null","<img src=""img/flower3.png"" style=""width:200px; border:14px solid green;"">","null","","","","","","","","",""
"","image-keyboard-response","251","148890","0.0-251.0","3HOSI13XH0AZCVJZM3G8J6TDR8DDDK","A7QAPZ1YVA0K2","3FVBZG9CLJ0K37PD5L6161S4HTM0HN","","617","img/flower3.png","75","621","2","1","3","2","1,0,0,1,1,0,1,0,1","0,1,0,0,1,1,1,1,0","3",""
"","html-keyboard-response","252","149193","0.0-252.0","3HOSI13XH0AZCVJZM3G8J6TDR8DDDK","A7QAPZ1YVA0K2","3FVBZG9CLJ0K37PD5L6161S4HTM0HN","","null","<img src=""img/flower3.png"" style=""width:200px; border:14px solid green;"">","null","","","","","","","","",""
"","image-keyboard-response","253","149984","0.0-253.0","3HOSI13XH0AZCVJZM3G8J6TDR8DDDK","A7QAPZ1YVA0K2","3FVBZG9CLJ0K37PD5L6161S4HTM0HN","","789","img/flower4.png","75","791","2","1","1","2","1,0,0,1,1,0,1,0,1","0,1,0,0,1,1,1,1,0","3",""
"","html-keyboard-response","254","150288","0.0-254.0","3HOSI13XH0AZCVJZM3G8J6TDR8DDDK","A7QAPZ1YVA0K2","3FVBZG9CLJ0K37PD5L6161S4HTM0HN","","null","<img src=""img/flower4.png"" style=""width:200px; border:14px solid green;"">","null","","","","","","","","",""
"","image-keyboard-response","255","150695","0.0-255.0","3HOSI13XH0AZCVJZM3G8J6TDR8DDDK","A7QAPZ1YVA0K2","3FVBZG9CLJ0K37PD5L6161S4HTM0HN","","406","img/flower3.png","76","408","3","0","3","2","1,0,0,1,1,0,1,0,1","0,1,0,0,1,1,1,1,0","3",""
"","html-keyboard-response","256","150999","0.0-256.0","3HOSI13XH0AZCVJZM3G8J6TDR8DDDK","A7QAPZ1YVA0K2","3FVBZG9CLJ0K37PD5L6161S4HTM0HN","","null","<img src=""img/flower3.png"" style=""width:200px;border:14px solid red;"">","null","","","","","","","","",""
"","image-keyboard-response","257","151656","0.0-257.0","3HOSI13XH0AZCVJZM3G8J6TDR8DDDK","A7QAPZ1YVA0K2","3FVBZG9CLJ0K37PD5L6161S4HTM0HN","","653","img/flower4.png","74","656","1","0","1","2","1,0,0,1,1,0,1,0,1","0,1,0,0,1,1,1,1,0","3",""
"","html-keyboard-response","258","151958","0.0-258.0","3HOSI13XH0AZCVJZM3G8J6TDR8DDDK","A7QAPZ1YVA0K2","3FVBZG9CLJ0K37PD5L6161S4HTM0HN","","null","<img src=""img/flower4.png"" style=""width:200px;border:14px solid red;"">","null","","","","","","","","",""
"","image-keyboard-response","259","152471","0.0-259.0","3HOSI13XH0AZCVJZM3G8J6TDR8DDDK","A7QAPZ1YVA0K2","3FVBZG9CLJ0K37PD5L6161S4HTM0HN","","509","img/flower1.png","75","512","2","1","2","2","1,0,0,1,1,0,1,0,1","0,1,0,0,1,1,1,1,0","3",""
"","html-keyboard-response","260","152775","0.0-260.0","3HOSI13XH0AZCVJZM3G8J6TDR8DDDK","A7QAPZ1YVA0K2","3FVBZG9CLJ0K37PD5L6161S4HTM0HN","","null","<img src=""img/flower1.png"" style=""width:200px; border:14px solid green;"">","null","","","","","","","","",""
"","image-keyboard-response","261","153436","0.0-261.0","3HOSI13XH0AZCVJZM3G8J6TDR8DDDK","A7QAPZ1YVA0K2","3FVBZG9CLJ0K37PD5L6161S4HTM0HN","","659","img/flower4.png","75","660","2","1","1","2","1,0,0,1,1,0,1,0,1","0,1,0,0,1,1,1,1,0","3",""
"","html-keyboard-response","262","153770","0.0-262.0","3HOSI13XH0AZCVJZM3G8J6TDR8DDDK","A7QAPZ1YVA0K2","3FVBZG9CLJ0K37PD5L6161S4HTM0HN","","null","<img src=""img/flower4.png"" style=""width:200px; border:14px solid green;"">","null","","","","","","","","",""
"","image-keyboard-response","263","154421","0.0-263.0","3HOSI13XH0AZCVJZM3G8J6TDR8DDDK","A7QAPZ1YVA0K2","3FVBZG9CLJ0K37PD5L6161S4HTM0HN","","650","img/flower3.png","75","652","2","1","3","2","1,0,0,1,1,0,1,0,1","0,1,0,0,1,1,1,1,0","3",""
"","html-keyboard-response","264","154724","0.0-264.0","3HOSI13XH0AZCVJZM3G8J6TDR8DDDK","A7QAPZ1YVA0K2","3FVBZG9CLJ0K37PD5L6161S4HTM0HN","","null","<img src=""img/flower3.png"" style=""width:200px; border:14px solid green;"">","null","","","","","","","","",""
"","image-keyboard-response","265","155248","0.0-265.0","3HOSI13XH0AZCVJZM3G8J6TDR8DDDK","A7QAPZ1YVA0K2","3FVBZG9CLJ0K37PD5L6161S4HTM0HN","","522","img/flower1.png","76","523","3","1","2","2","1,0,0,1,1,0,1,0,1","0,1,0,0,1,1,1,1,0","3",""
"","html-keyboard-response","266","155554","0.0-266.0","3HOSI13XH0AZCVJZM3G8J6TDR8DDDK","A7QAPZ1YVA0K2","3FVBZG9CLJ0K37PD5L6161S4HTM0HN","","null","<img src=""img/flower1.png"" style=""width:200px; border:14px solid green;"">","null","","","","","","","","",""
"","image-keyboard-response","267","156179","0.0-267.0","3HOSI13XH0AZCVJZM3G8J6TDR8DDDK","A7QAPZ1YVA0K2","3FVBZG9CLJ0K37PD5L6161S4HTM0HN","","623","img/flower4.png","75","625","2","1","1","2","1,0,0,1,1,0,1,0,1","0,1,0,0,1,1,1,1,0","3",""
"","html-keyboard-response","268","156483","0.0-268.0","3HOSI13XH0AZCVJZM3G8J6TDR8DDDK","A7QAPZ1YVA0K2","3FVBZG9CLJ0K37PD5L6161S4HTM0HN","","null","<img src=""img/flower4.png"" style=""width:200px; border:14px solid green;"">","null","","","","","","","","",""
"","image-keyboard-response","269","157125","0.0-269.0","3HOSI13XH0AZCVJZM3G8J6TDR8DDDK","A7QAPZ1YVA0K2","3FVBZG9CLJ0K37PD5L6161S4HTM0HN","","638","img/flower1.png","75","641","2","1","2","2","1,0,0,1,1,0,1,0,1","0,1,0,0,1,1,1,1,0","3",""
"","html-keyboard-response","270","157428","0.0-270.0","3HOSI13XH0AZCVJZM3G8J6TDR8DDDK","A7QAPZ1YVA0K2","3FVBZG9CLJ0K37PD5L6161S4HTM0HN","","null","<img src=""img/flower1.png"" style=""width:200px; border:14px solid green;"">","null","","","","","","","","",""
"","image-keyboard-response","271","158054","0.0-271.0","3HOSI13XH0AZCVJZM3G8J6TDR8DDDK","A7QAPZ1YVA0K2","3FVBZG9CLJ0K37PD5L6161S4HTM0HN","","621","img/flower3.png","74","624","1","1","3","2","1,0,0,1,1,0,1,0,1","0,1,0,0,1,1,1,1,0","3",""
"","html-keyboard-response","272","158358","0.0-272.0","3HOSI13XH0AZCVJZM3G8J6TDR8DDDK","A7QAPZ1YVA0K2","3FVBZG9CLJ0K37PD5L6161S4HTM0HN","","null","<img src=""img/flower3.png"" style=""width:200px; border:14px solid green;"">","null","","","","","","","","",""
"","image-keyboard-response","273","159044","0.0-273.0","3HOSI13XH0AZCVJZM3G8J6TDR8DDDK","A7QAPZ1YVA0K2","3FVBZG9CLJ0K37PD5L6161S4HTM0HN","","684","img/flower1.png","74","685","1","0","2","2","1,0,0,1,1,0,1,0,1","0,1,0,0,1,1,1,1,0","3",""
"","html-keyboard-response","274","159346","0.0-274.0","3HOSI13XH0AZCVJZM3G8J6TDR8DDDK","A7QAPZ1YVA0K2","3FVBZG9CLJ0K37PD5L6161S4HTM0HN","","null","<img src=""img/flower1.png"" style=""width:200px;border:14px solid red;"">","null","","","","","","","","",""
"","image-keyboard-response","275","159969","0.0-275.0","3HOSI13XH0AZCVJZM3G8J6TDR8DDDK","A7QAPZ1YVA0K2","3FVBZG9CLJ0K37PD5L6161S4HTM0HN","","621","img/flower1.png","75","623","2","1","2","2","1,0,0,1,1,0,1,0,1","0,1,0,0,1,1,1,1,0","3",""
"","html-keyboard-response","276","160272","0.0-276.0","3HOSI13XH0AZCVJZM3G8J6TDR8DDDK","A7QAPZ1YVA0K2","3FVBZG9CLJ0K37PD5L6161S4HTM0HN","","null","<img src=""img/flower1.png"" style=""width:200px; border:14px solid green;"">","null","","","","","","","","",""
"","image-keyboard-response","277","160931","0.0-277.0","3HOSI13XH0AZCVJZM3G8J6TDR8DDDK","A7QAPZ1YVA0K2","3FVBZG9CLJ0K37PD5L6161S4HTM0HN","","656","img/flower3.png","75","658","2","1","3","2","1,0,0,1,1,0,1,0,1","0,1,0,0,1,1,1,1,0","3",""
"","html-keyboard-response","278","161241","0.0-278.0","3HOSI13XH0AZCVJZM3G8J6TDR8DDDK","A7QAPZ1YVA0K2","3FVBZG9CLJ0K37PD5L6161S4HTM0HN","","null","<img src=""img/flower3.png"" style=""width:200px; border:14px solid green;"">","null","","","","","","","","",""
"","image-keyboard-response","279","161957","0.0-279.0","3HOSI13XH0AZCVJZM3G8J6TDR8DDDK","A7QAPZ1YVA0K2","3FVBZG9CLJ0K37PD5L6161S4HTM0HN","","711","img/flower1.png","76","716","3","1","2","2","1,0,0,1,1,0,1,0,1","0,1,0,0,1,1,1,1,0","3",""
"","html-keyboard-response","280","162261","0.0-280.0","3HOSI13XH0AZCVJZM3G8J6TDR8DDDK","A7QAPZ1YVA0K2","3FVBZG9CLJ0K37PD5L6161S4HTM0HN","","null","<img src=""img/flower1.png"" style=""width:200px; border:14px solid green;"">","null","","","","","","","","",""
"","image-keyboard-response","281","162861","0.0-281.0","3HOSI13XH0AZCVJZM3G8J6TDR8DDDK","A7QAPZ1YVA0K2","3FVBZG9CLJ0K37PD5L6161S4HTM0HN","","596","img/flower3.png","75","600","2","1","3","2","1,0,0,1,1,0,1,0,1","0,1,0,0,1,1,1,1,0","3",""
"","html-keyboard-response","282","163164","0.0-282.0","3HOSI13XH0AZCVJZM3G8J6TDR8DDDK","A7QAPZ1YVA0K2","3FVBZG9CLJ0K37PD5L6161S4HTM0HN","","null","<img src=""img/flower3.png"" style=""width:200px; border:14px solid green;"">","null","","","","","","","","",""
"","image-keyboard-response","283","163703","0.0-283.0","3HOSI13XH0AZCVJZM3G8J6TDR8DDDK","A7QAPZ1YVA0K2","3FVBZG9CLJ0K37PD5L6161S4HTM0HN","","537","img/flower1.png","76","539","3","1","2","2","1,0,0,1,1,0,1,0,1","0,1,0,0,1,1,1,1,0","3",""
"","html-keyboard-response","284","164005","0.0-284.0","3HOSI13XH0AZCVJZM3G8J6TDR8DDDK","A7QAPZ1YVA0K2","3FVBZG9CLJ0K37PD5L6161S4HTM0HN","","null","<img src=""img/flower1.png"" style=""width:200px; border:14px solid green;"">","null","","","","","","","","",""
"","image-keyboard-response","285","164661","0.0-285.0","3HOSI13XH0AZCVJZM3G8J6TDR8DDDK","A7QAPZ1YVA0K2","3FVBZG9CLJ0K37PD5L6161S4HTM0HN","","651","img/flower3.png","76","654","3","0","3","2","1,0,0,1,1,0,1,0,1","0,1,0,0,1,1,1,1,0","3",""
"","html-keyboard-response","286","164964","0.0-286.0","3HOSI13XH0AZCVJZM3G8J6TDR8DDDK","A7QAPZ1YVA0K2","3FVBZG9CLJ0K37PD5L6161S4HTM0HN","","null","<img src=""img/flower3.png"" style=""width:200px;border:14px solid red;"">","null","","","","","","","","",""
"","image-keyboard-response","287","165439","0.0-287.0","3HOSI13XH0AZCVJZM3G8J6TDR8DDDK","A7QAPZ1YVA0K2","3FVBZG9CLJ0K37PD5L6161S4HTM0HN","","473","img/flower1.png","76","475","3","1","2","2","1,0,0,1,1,0,1,0,1","0,1,0,0,1,1,1,1,0","3",""
"","html-keyboard-response","288","165765","0.0-288.0","3HOSI13XH0AZCVJZM3G8J6TDR8DDDK","A7QAPZ1YVA0K2","3FVBZG9CLJ0K37PD5L6161S4HTM0HN","","null","<img src=""img/flower1.png"" style=""width:200px; border:14px solid green;"">","null","","","","","","","","",""
"","image-keyboard-response","289","166446","0.0-289.0","3HOSI13XH0AZCVJZM3G8J6TDR8DDDK","A7QAPZ1YVA0K2","3FVBZG9CLJ0K37PD5L6161S4HTM0HN","","680","img/flower4.png","76","681","3","0","1","2","1,0,0,1,1,0,1,0,1","0,1,0,0,1,1,1,1,0","3",""
"","html-keyboard-response","290","166748","0.0-290.0","3HOSI13XH0AZCVJZM3G8J6TDR8DDDK","A7QAPZ1YVA0K2","3FVBZG9CLJ0K37PD5L6161S4HTM0HN","","null","<img src=""img/flower4.png"" style=""width:200px;border:14px solid red;"">","null","","","","","","","","",""
"","image-keyboard-response","291","167250","0.0-291.0","3HOSI13XH0AZCVJZM3G8J6TDR8DDDK","A7QAPZ1YVA0K2","3FVBZG9CLJ0K37PD5L6161S4HTM0HN","","500","img/flower3.png","75","502","2","1","3","2","1,0,0,1,1,0,1,0,1","0,1,0,0,1,1,1,1,0","3",""
"","html-keyboard-response","292","167554","0.0-292.0","3HOSI13XH0AZCVJZM3G8J6TDR8DDDK","A7QAPZ1YVA0K2","3FVBZG9CLJ0K37PD5L6161S4HTM0HN","","null","<img src=""img/flower3.png"" style=""width:200px; border:14px solid green;"">","null","","","","","","","","",""
"","image-keyboard-response","293","168135","0.0-293.0","3HOSI13XH0AZCVJZM3G8J6TDR8DDDK","A7QAPZ1YVA0K2","3FVBZG9CLJ0K37PD5L6161S4HTM0HN","","577","img/flower1.png","75","580","2","1","2","2","1,0,0,1,1,0,1,0,1","0,1,0,0,1,1,1,1,0","3",""
"","html-keyboard-response","294","168439","0.0-294.0","3HOSI13XH0AZCVJZM3G8J6TDR8DDDK","A7QAPZ1YVA0K2","3FVBZG9CLJ0K37PD5L6161S4HTM0HN","","null","<img src=""img/flower1.png"" style=""width:200px; border:14px solid green;"">","null","","","","","","","","",""
"","image-keyboard-response","295","169253","0.0-295.0","3HOSI13XH0AZCVJZM3G8J6TDR8DDDK","A7QAPZ1YVA0K2","3FVBZG9CLJ0K37PD5L6161S4HTM0HN","","811","img/flower1.png","74","812","1","0","2","2","1,0,0,1,1,0,1,0,1","0,1,0,0,1,1,1,1,0","3",""
"","html-keyboard-response","296","169625","0.0-296.0","3HOSI13XH0AZCVJZM3G8J6TDR8DDDK","A7QAPZ1YVA0K2","3FVBZG9CLJ0K37PD5L6161S4HTM0HN","","null","<img src=""img/flower1.png"" style=""width:200px;border:14px solid red;"">","null","","","","","","","","",""
"","image-keyboard-response","297","170228","0.0-297.0","3HOSI13XH0AZCVJZM3G8J6TDR8DDDK","A7QAPZ1YVA0K2","3FVBZG9CLJ0K37PD5L6161S4HTM0HN","","594","img/flower4.png","75","601","2","1","1","2","1,0,0,1,1,0,1,0,1","0,1,0,0,1,1,1,1,0","3",""
"","html-keyboard-response","298","170530","0.0-298.0","3HOSI13XH0AZCVJZM3G8J6TDR8DDDK","A7QAPZ1YVA0K2","3FVBZG9CLJ0K37PD5L6161S4HTM0HN","","null","<img src=""img/flower4.png"" style=""width:200px; border:14px solid green;"">","null","","","","","","","","",""
"","image-keyboard-response","299","171223","0.0-299.0","3HOSI13XH0AZCVJZM3G8J6TDR8DDDK","A7QAPZ1YVA0K2","3FVBZG9CLJ0K37PD5L6161S4HTM0HN","","690","img/flower4.png","75","692","2","1","1","2","1,0,0,1,1,0,1,0,1","0,1,0,0,1,1,1,1,0","3",""
"","html-keyboard-response","300","171526","0.0-300.0","3HOSI13XH0AZCVJZM3G8J6TDR8DDDK","A7QAPZ1YVA0K2","3FVBZG9CLJ0K37PD5L6161S4HTM0HN","","null","<img src=""img/flower4.png"" style=""width:200px; border:14px solid green;"">","null","","","","","","","","",""
"","image-keyboard-response","301","172199","0.0-301.0","3HOSI13XH0AZCVJZM3G8J6TDR8DDDK","A7QAPZ1YVA0K2","3FVBZG9CLJ0K37PD5L6161S4HTM0HN","","669","img/flower4.png","75","671","2","1","1","2","1,0,0,1,1,0,1,0,1","0,1,0,0,1,1,1,1,0","3",""
"","html-keyboard-response","302","172502","0.0-302.0","3HOSI13XH0AZCVJZM3G8J6TDR8DDDK","A7QAPZ1YVA0K2","3FVBZG9CLJ0K37PD5L6161S4HTM0HN","","null","<img src=""img/flower4.png"" style=""width:200px; border:14px solid green;"">","null","","","","","","","","",""
"","image-keyboard-response","303","173095","0.0-303.0","3HOSI13XH0AZCVJZM3G8J6TDR8DDDK","A7QAPZ1YVA0K2","3FVBZG9CLJ0K37PD5L6161S4HTM0HN","","589","img/flower4.png","75","591","2","1","1","2","1,0,0,1,1,0,1,0,1","0,1,0,0,1,1,1,1,0","3",""
"","html-keyboard-response","304","173398","0.0-304.0","3HOSI13XH0AZCVJZM3G8J6TDR8DDDK","A7QAPZ1YVA0K2","3FVBZG9CLJ0K37PD5L6161S4HTM0HN","","null","<img src=""img/flower4.png"" style=""width:200px; border:14px solid green;"">","null","","","","","","","","",""
"","image-keyboard-response","305","174498","0.0-305.0","3HOSI13XH0AZCVJZM3G8J6TDR8DDDK","A7QAPZ1YVA0K2","3FVBZG9CLJ0K37PD5L6161S4HTM0HN","","1097","img/flower3.png","76","1099","3","0","3","2","1,0,0,1,1,0,1,0,1","0,1,0,0,1,1,1,1,0","3",""
"","html-keyboard-response","306","174799","0.0-306.0","3HOSI13XH0AZCVJZM3G8J6TDR8DDDK","A7QAPZ1YVA0K2","3FVBZG9CLJ0K37PD5L6161S4HTM0HN","","null","<img src=""img/flower3.png"" style=""width:200px;border:14px solid red;"">","null","","","","","","","","",""
"","image-keyboard-response","307","175361","0.0-307.0","3HOSI13XH0AZCVJZM3G8J6TDR8DDDK","A7QAPZ1YVA0K2","3FVBZG9CLJ0K37PD5L6161S4HTM0HN","","560","img/flower3.png","74","562","1","1","3","2","1,0,0,1,1,0,1,0,1","0,1,0,0,1,1,1,1,0","3",""
"","html-keyboard-response","308","175663","0.0-308.0","3HOSI13XH0AZCVJZM3G8J6TDR8DDDK","A7QAPZ1YVA0K2","3FVBZG9CLJ0K37PD5L6161S4HTM0HN","","null","<img src=""img/flower3.png"" style=""width:200px; border:14px solid green;"">","null","","","","","","","","",""
"","image-keyboard-response","309","176439","0.0-309.0","3HOSI13XH0AZCVJZM3G8J6TDR8DDDK","A7QAPZ1YVA0K2","3FVBZG9CLJ0K37PD5L6161S4HTM0HN","","774","img/flower3.png","74","775","1","1","3","2","1,0,0,1,1,0,1,0,1","0,1,0,0,1,1,1,1,0","3",""
"","html-keyboard-response","310","176741","0.0-310.0","3HOSI13XH0AZCVJZM3G8J6TDR8DDDK","A7QAPZ1YVA0K2","3FVBZG9CLJ0K37PD5L6161S4HTM0HN","","null","<img src=""img/flower3.png"" style=""width:200px; border:14px solid green;"">","null","","","","","","","","",""
"","image-keyboard-response","311","177509","0.0-311.0","3HOSI13XH0AZCVJZM3G8J6TDR8DDDK","A7QAPZ1YVA0K2","3FVBZG9CLJ0K37PD5L6161S4HTM0HN","","763","img/flower4.png","75","765","2","1","1","2","1,0,0,1,1,0,1,0,1","0,1,0,0,1,1,1,1,0","3",""
"","html-keyboard-response","312","177814","0.0-312.0","3HOSI13XH0AZCVJZM3G8J6TDR8DDDK","A7QAPZ1YVA0K2","3FVBZG9CLJ0K37PD5L6161S4HTM0HN","","null","<img src=""img/flower4.png"" style=""width:200px; border:14px solid green;"">","null","","","","","","","","",""
"","image-keyboard-response","313","178464","0.0-313.0","3HOSI13XH0AZCVJZM3G8J6TDR8DDDK","A7QAPZ1YVA0K2","3FVBZG9CLJ0K37PD5L6161S4HTM0HN","","648","img/flower4.png","75","649","2","1","1","2","1,0,0,1,1,0,1,0,1","0,1,0,0,1,1,1,1,0","3",""
"","html-keyboard-response","314","178766","0.0-314.0","3HOSI13XH0AZCVJZM3G8J6TDR8DDDK","A7QAPZ1YVA0K2","3FVBZG9CLJ0K37PD5L6161S4HTM0HN","","null","<img src=""img/flower4.png"" style=""width:200px; border:14px solid green;"">","null","","","","","","","","",""
"","image-keyboard-response","315","179658","0.0-315.0","3HOSI13XH0AZCVJZM3G8J6TDR8DDDK","A7QAPZ1YVA0K2","3FVBZG9CLJ0K37PD5L6161S4HTM0HN","","888","img/flower3.png","74","891","1","1","3","2","1,0,0,1,1,0,1,0,1","0,1,0,0,1,1,1,1,0","3",""
"","html-keyboard-response","316","179961","0.0-316.0","3HOSI13XH0AZCVJZM3G8J6TDR8DDDK","A7QAPZ1YVA0K2","3FVBZG9CLJ0K37PD5L6161S4HTM0HN","","null","<img src=""img/flower3.png"" style=""width:200px; border:14px solid green;"">","null","","","","","","","","",""
"","image-keyboard-response","317","180571","0.0-317.0","3HOSI13XH0AZCVJZM3G8J6TDR8DDDK","A7QAPZ1YVA0K2","3FVBZG9CLJ0K37PD5L6161S4HTM0HN","","608","img/flower3.png","74","609","1","1","3","2","1,0,0,1,1,0,1,0,1","0,1,0,0,1,1,1,1,0","3",""
"","html-keyboard-response","318","180875","0.0-318.0","3HOSI13XH0AZCVJZM3G8J6TDR8DDDK","A7QAPZ1YVA0K2","3FVBZG9CLJ0K37PD5L6161S4HTM0HN","","null","<img src=""img/flower3.png"" style=""width:200px; border:14px solid green;"">","null","","","","","","","","",""
"","image-keyboard-response","319","181786","0.0-319.0","3HOSI13XH0AZCVJZM3G8J6TDR8DDDK","A7QAPZ1YVA0K2","3FVBZG9CLJ0K37PD5L6161S4HTM0HN","","906","img/flower1.png","76","910","3","1","2","2","1,0,0,1,1,0,1,0,1","0,1,0,0,1,1,1,1,0","3",""
"","html-keyboard-response","320","182095","0.0-320.0","3HOSI13XH0AZCVJZM3G8J6TDR8DDDK","A7QAPZ1YVA0K2","3FVBZG9CLJ0K37PD5L6161S4HTM0HN","","null","<img src=""img/flower1.png"" style=""width:200px; border:14px solid green;"">","null","","","","","","","","",""
"","image-keyboard-response","321","182940","0.0-321.0","3HOSI13XH0AZCVJZM3G8J6TDR8DDDK","A7QAPZ1YVA0K2","3FVBZG9CLJ0K37PD5L6161S4HTM0HN","","840","img/flower4.png","75","843","2","1","1","2","1,0,0,1,1,0,1,0,1","0,1,0,0,1,1,1,1,0","3",""
"","html-keyboard-response","322","183244","0.0-322.0","3HOSI13XH0AZCVJZM3G8J6TDR8DDDK","A7QAPZ1YVA0K2","3FVBZG9CLJ0K37PD5L6161S4HTM0HN","","null","<img src=""img/flower4.png"" style=""width:200px; border:14px solid green;"">","null","","","","","","","","",""
"","image-keyboard-response","323","184121","0.0-323.0","3HOSI13XH0AZCVJZM3G8J6TDR8DDDK","A7QAPZ1YVA0K2","3FVBZG9CLJ0K37PD5L6161S4HTM0HN","","874","img/flower3.png","74","877","1","1","3","2","1,0,0,1,1,0,1,0,1","0,1,0,0,1,1,1,1,0","3",""
"","html-keyboard-response","324","184425","0.0-324.0","3HOSI13XH0AZCVJZM3G8J6TDR8DDDK","A7QAPZ1YVA0K2","3FVBZG9CLJ0K37PD5L6161S4HTM0HN","","null","<img src=""img/flower3.png"" style=""width:200px; border:14px solid green;"">","null","","","","","","","","",""
"","image-keyboard-response","325","185357","0.0-325.0","3HOSI13XH0AZCVJZM3G8J6TDR8DDDK","A7QAPZ1YVA0K2","3FVBZG9CLJ0K37PD5L6161S4HTM0HN","","930","img/flower1.png","76","931","3","1","2","2","1,0,0,1,1,0,1,0,1","0,1,0,0,1,1,1,1,0","3",""
"","html-keyboard-response","326","185661","0.0-326.0","3HOSI13XH0AZCVJZM3G8J6TDR8DDDK","A7QAPZ1YVA0K2","3FVBZG9CLJ0K37PD5L6161S4HTM0HN","","null","<img src=""img/flower1.png"" style=""width:200px; border:14px solid green;"">","null","","","","","","","","",""
"","image-keyboard-response","327","186581","0.0-327.0","3HOSI13XH0AZCVJZM3G8J6TDR8DDDK","A7QAPZ1YVA0K2","3FVBZG9CLJ0K37PD5L6161S4HTM0HN","","917","img/flower3.png","74","920","1","1","3","2","1,0,0,1,1,0,1,0,1","0,1,0,0,1,1,1,1,0","3",""
"","html-keyboard-response","328","186887","0.0-328.0","3HOSI13XH0AZCVJZM3G8J6TDR8DDDK","A7QAPZ1YVA0K2","3FVBZG9CLJ0K37PD5L6161S4HTM0HN","","null","<img src=""img/flower3.png"" style=""width:200px; border:14px solid green;"">","null","","","","","","","","",""
"","image-keyboard-response","329","187784","0.0-329.0","3HOSI13XH0AZCVJZM3G8J6TDR8DDDK","A7QAPZ1YVA0K2","3FVBZG9CLJ0K37PD5L6161S4HTM0HN","","894","img/flower3.png","74","895","1","1","3","2","1,0,0,1,1,0,1,0,1","0,1,0,0,1,1,1,1,0","3",""
"","html-keyboard-response","330","188086","0.0-330.0","3HOSI13XH0AZCVJZM3G8J6TDR8DDDK","A7QAPZ1YVA0K2","3FVBZG9CLJ0K37PD5L6161S4HTM0HN","","null","<img src=""img/flower3.png"" style=""width:200px; border:14px solid green;"">","null","","","","","","","","",""
"","image-keyboard-response","331","188947","0.0-331.0","3HOSI13XH0AZCVJZM3G8J6TDR8DDDK","A7QAPZ1YVA0K2","3FVBZG9CLJ0K37PD5L6161S4HTM0HN","","858","img/flower1.png","75","860","2","1","2","2","1,0,0,1,1,0,1,0,1","0,1,0,0,1,1,1,1,0","3",""
"","html-keyboard-response","332","189251","0.0-332.0","3HOSI13XH0AZCVJZM3G8J6TDR8DDDK","A7QAPZ1YVA0K2","3FVBZG9CLJ0K37PD5L6161S4HTM0HN","","null","<img src=""img/flower1.png"" style=""width:200px; border:14px solid green;"">","null","","","","","","","","",""
"","image-keyboard-response","333","189969","0.0-333.0","3HOSI13XH0AZCVJZM3G8J6TDR8DDDK","A7QAPZ1YVA0K2","3FVBZG9CLJ0K37PD5L6161S4HTM0HN","","715","img/flower1.png","75","717","2","1","2","2","1,0,0,1,1,0,1,0,1","0,1,0,0,1,1,1,1,0","3",""
"","html-keyboard-response","334","190272","0.0-334.0","3HOSI13XH0AZCVJZM3G8J6TDR8DDDK","A7QAPZ1YVA0K2","3FVBZG9CLJ0K37PD5L6161S4HTM0HN","","null","<img src=""img/flower1.png"" style=""width:200px; border:14px solid green;"">","null","","","","","","","","",""
"","image-keyboard-response","335","190975","0.0-335.0","3HOSI13XH0AZCVJZM3G8J6TDR8DDDK","A7QAPZ1YVA0K2","3FVBZG9CLJ0K37PD5L6161S4HTM0HN","","698","img/flower1.png","75","702","2","1","2","2","1,0,0,1,1,0,1,0,1","0,1,0,0,1,1,1,1,0","3",""
"","html-keyboard-response","336","191279","0.0-336.0","3HOSI13XH0AZCVJZM3G8J6TDR8DDDK","A7QAPZ1YVA0K2","3FVBZG9CLJ0K37PD5L6161S4HTM0HN","","null","<img src=""img/flower1.png"" style=""width:200px; border:14px solid green;"">","null","","","","","","","","",""
"","image-keyboard-response","337","192106","0.0-337.0","3HOSI13XH0AZCVJZM3G8J6TDR8DDDK","A7QAPZ1YVA0K2","3FVBZG9CLJ0K37PD5L6161S4HTM0HN","","824","img/flower4.png","76","826","3","0","1","2","1,0,0,1,1,0,1,0,1","0,1,0,0,1,1,1,1,0","3",""
"","html-keyboard-response","338","192408","0.0-338.0","3HOSI13XH0AZCVJZM3G8J6TDR8DDDK","A7QAPZ1YVA0K2","3FVBZG9CLJ0K37PD5L6161S4HTM0HN","","null","<img src=""img/flower4.png"" style=""width:200px;border:14px solid red;"">","null","","","","","","","","",""
"","image-keyboard-response","339","193138","0.0-339.0","3HOSI13XH0AZCVJZM3G8J6TDR8DDDK","A7QAPZ1YVA0K2","3FVBZG9CLJ0K37PD5L6161S4HTM0HN","","727","img/flower1.png","75","730","2","1","2","2","1,0,0,1,1,0,1,0,1","0,1,0,0,1,1,1,1,0","3",""
"","html-keyboard-response","340","193445","0.0-340.0","3HOSI13XH0AZCVJZM3G8J6TDR8DDDK","A7QAPZ1YVA0K2","3FVBZG9CLJ0K37PD5L6161S4HTM0HN","","null","<img src=""img/flower1.png"" style=""width:200px; border:14px solid green;"">","null","","","","","","","","",""
"","image-keyboard-response","341","194301","0.0-341.0","3HOSI13XH0AZCVJZM3G8J6TDR8DDDK","A7QAPZ1YVA0K2","3FVBZG9CLJ0K37PD5L6161S4HTM0HN","","853","img/flower4.png","74","855","1","0","1","2","1,0,0,1,1,0,1,0,1","0,1,0,0,1,1,1,1,0","3",""
"","html-keyboard-response","342","194606","0.0-342.0","3HOSI13XH0AZCVJZM3G8J6TDR8DDDK","A7QAPZ1YVA0K2","3FVBZG9CLJ0K37PD5L6161S4HTM0HN","","null","<img src=""img/flower4.png"" style=""width:200px;border:14px solid red;"">","null","","","","","","","","",""
"","image-keyboard-response","343","195267","0.0-343.0","3HOSI13XH0AZCVJZM3G8J6TDR8DDDK","A7QAPZ1YVA0K2","3FVBZG9CLJ0K37PD5L6161S4HTM0HN","","658","img/flower4.png","75","659","2","1","1","2","1,0,0,1,1,0,1,0,1","0,1,0,0,1,1,1,1,0","3",""
"","html-keyboard-response","344","195569","0.0-344.0","3HOSI13XH0AZCVJZM3G8J6TDR8DDDK","A7QAPZ1YVA0K2","3FVBZG9CLJ0K37PD5L6161S4HTM0HN","","null","<img src=""img/flower4.png"" style=""width:200px; border:14px solid green;"">","null","","","","","","","","",""
"","image-keyboard-response","345","196492","0.0-345.0","3HOSI13XH0AZCVJZM3G8J6TDR8DDDK","A7QAPZ1YVA0K2","3FVBZG9CLJ0K37PD5L6161S4HTM0HN","","921","img/flower1.png","76","921","3","1","2","2","1,0,0,1,1,0,1,0,1","0,1,0,0,1,1,1,1,0","3",""
"","html-keyboard-response","346","196794","0.0-346.0","3HOSI13XH0AZCVJZM3G8J6TDR8DDDK","A7QAPZ1YVA0K2","3FVBZG9CLJ0K37PD5L6161S4HTM0HN","","null","<img src=""img/flower1.png"" style=""width:200px; border:14px solid green;"">","null","","","","","","","","",""
"","image-keyboard-response","347","197738","0.0-347.0","3HOSI13XH0AZCVJZM3G8J6TDR8DDDK","A7QAPZ1YVA0K2","3FVBZG9CLJ0K37PD5L6161S4HTM0HN","","943","img/flower3.png","75","944","2","1","3","2","1,0,0,1,1,0,1,0,1","0,1,0,0,1,1,1,1,0","3",""
"","html-keyboard-response","348","198041","0.0-348.0","3HOSI13XH0AZCVJZM3G8J6TDR8DDDK","A7QAPZ1YVA0K2","3FVBZG9CLJ0K37PD5L6161S4HTM0HN","","null","<img src=""img/flower3.png"" style=""width:200px; border:14px solid green;"">","null","","","","","","","","",""
"","image-keyboard-response","349","198945","0.0-349.0","3HOSI13XH0AZCVJZM3G8J6TDR8DDDK","A7QAPZ1YVA0K2","3FVBZG9CLJ0K37PD5L6161S4HTM0HN","","900","img/flower4.png","75","904","2","1","1","2","1,0,0,1,1,0,1,0,1","0,1,0,0,1,1,1,1,0","3",""
"","html-keyboard-response","350","199249","0.0-350.0","3HOSI13XH0AZCVJZM3G8J6TDR8DDDK","A7QAPZ1YVA0K2","3FVBZG9CLJ0K37PD5L6161S4HTM0HN","","null","<img src=""img/flower4.png"" style=""width:200px; border:14px solid green;"">","null","","","","","","","","",""
"","image-keyboard-response","351","200197","0.0-351.0","3HOSI13XH0AZCVJZM3G8J6TDR8DDDK","A7QAPZ1YVA0K2","3FVBZG9CLJ0K37PD5L6161S4HTM0HN","","945","img/flower1.png","74","948","1","0","2","2","1,0,0,1,1,0,1,0,1","0,1,0,0,1,1,1,1,0","3",""
"","html-keyboard-response","352","200502","0.0-352.0","3HOSI13XH0AZCVJZM3G8J6TDR8DDDK","A7QAPZ1YVA0K2","3FVBZG9CLJ0K37PD5L6161S4HTM0HN","","null","<img src=""img/flower1.png"" style=""width:200px;border:14px solid red;"">","null","","","","","","","","",""
"","image-keyboard-response","353","201176","0.0-353.0","3HOSI13XH0AZCVJZM3G8J6TDR8DDDK","A7QAPZ1YVA0K2","3FVBZG9CLJ0K37PD5L6161S4HTM0HN","","667","img/flower4.png","75","670","2","1","1","2","1,0,0,1,1,0,1,0,1","0,1,0,0,1,1,1,1,0","3",""
"","html-keyboard-response","354","201480","0.0-354.0","3HOSI13XH0AZCVJZM3G8J6TDR8DDDK","A7QAPZ1YVA0K2","3FVBZG9CLJ0K37PD5L6161S4HTM0HN","","null","<img src=""img/flower4.png"" style=""width:200px; border:14px solid green;"">","null","","","","","","","","",""
"","image-keyboard-response","355","202336","0.0-355.0","3HOSI13XH0AZCVJZM3G8J6TDR8DDDK","A7QAPZ1YVA0K2","3FVBZG9CLJ0K37PD5L6161S4HTM0HN","","853","img/flower3.png","75","855","2","1","3","2","1,0,0,1,1,0,1,0,1","0,1,0,0,1,1,1,1,0","3",""
"","html-keyboard-response","356","202640","0.0-356.0","3HOSI13XH0AZCVJZM3G8J6TDR8DDDK","A7QAPZ1YVA0K2","3FVBZG9CLJ0K37PD5L6161S4HTM0HN","","null","<img src=""img/flower3.png"" style=""width:200px; border:14px solid green;"">","null","","","","","","","","",""
"","image-keyboard-response","357","203306","0.0-357.0","3HOSI13XH0AZCVJZM3G8J6TDR8DDDK","A7QAPZ1YVA0K2","3FVBZG9CLJ0K37PD5L6161S4HTM0HN","","663","img/flower4.png","76","665","3","0","1","2","1,0,0,1,1,0,1,0,1","0,1,0,0,1,1,1,1,0","3",""
"","html-keyboard-response","358","203612","0.0-358.0","3HOSI13XH0AZCVJZM3G8J6TDR8DDDK","A7QAPZ1YVA0K2","3FVBZG9CLJ0K37PD5L6161S4HTM0HN","","null","<img src=""img/flower4.png"" style=""width:200px;border:14px solid red;"">","null","","","","","","","","",""
"","image-keyboard-response","359","204331","0.0-359.0","3HOSI13XH0AZCVJZM3G8J6TDR8DDDK","A7QAPZ1YVA0K2","3FVBZG9CLJ0K37PD5L6161S4HTM0HN","","707","img/flower1.png","74","714","1","0","2","2","1,0,0,1,1,0,1,0,1","0,1,0,0,1,1,1,1,0","3",""
"","html-keyboard-response","360","204633","0.0-360.0","3HOSI13XH0AZCVJZM3G8J6TDR8DDDK","A7QAPZ1YVA0K2","3FVBZG9CLJ0K37PD5L6161S4HTM0HN","","null","<img src=""img/flower1.png"" style=""width:200px;border:14px solid red;"">","null","","","","","","","","",""
"","image-keyboard-response","361","205262","0.0-361.0","3HOSI13XH0AZCVJZM3G8J6TDR8DDDK","A7QAPZ1YVA0K2","3FVBZG9CLJ0K37PD5L6161S4HTM0HN","","627","img/flower3.png","75","629","2","1","3","2","1,0,0,1,1,0,1,0,1","0,1,0,0,1,1,1,1,0","3",""
"","html-keyboard-response","362","205563","0.0-362.0","3HOSI13XH0AZCVJZM3G8J6TDR8DDDK","A7QAPZ1YVA0K2","3FVBZG9CLJ0K37PD5L6161S4HTM0HN","","null","<img src=""img/flower3.png"" style=""width:200px; border:14px solid green;"">","null","","","","","","","","",""
"","instructions","363","208260","0.0-363.0","3HOSI13XH0AZCVJZM3G8J6TDR8DDDK","A7QAPZ1YVA0K2","3FVBZG9CLJ0K37PD5L6161S4HTM0HN","[{""page_index"":0,""viewing_time"":2693}]","2694","","","","","","","","","","",""
"","survey-text","364","212770","0.0-364.0","3HOSI13XH0AZCVJZM3G8J6TDR8DDDK","A7QAPZ1YVA0K2","3FVBZG9CLJ0K37PD5L6161S4HTM0HN","","4481","","","","","","","","","","","{""Q0"":""A7QAPZ1YVA0K2""}"
