"rt","url","trial_type","trial_index","time_elapsed","internal_node_id","assignmentID","mturkID","hitID","success","view_history","stimulus","key_press","reactionTime","a","r","s","reward_cond","responses"
"12718","consent.html","external-html","0","12852","0.0-0.0","3FPRZHYEPZTNOKHOKZAQCJD8X2M3V2","A7TI4X4LRGQA0","3UAU495MIIEABANG75FBFHDC9WUUOI","","","","","","","","","",""
"","","fullscreen","1","16996","0.0-1.0","3FPRZHYEPZTNOKHOKZAQCJD8X2M3V2","A7TI4X4LRGQA0","3UAU495MIIEABANG75FBFHDC9WUUOI","true","","","","","","","","",""
"71238","","instructions","2","88237","0.0-2.0","3FPRZHYEPZTNOKHOKZAQCJD8X2M3V2","A7TI4X4LRGQA0","3UAU495MIIEABANG75FBFHDC9WUUOI","","[{""page_index"":0,""viewing_time"":7265},{""page_index"":1,""viewing_time"":7827},{""page_index"":2,""viewing_time"":7891},{""page_index"":3,""viewing_time"":10240},{""page_index"":4,""viewing_time"":8945},{""page_index"":5,""viewing_time"":20473},{""page_index"":6,""viewing_time"":8597}]","","","","","","","",""
"15569","","instructions","3","103807","0.0-3.0","3FPRZHYEPZTNOKHOKZAQCJD8X2M3V2","A7TI4X4LRGQA0","3UAU495MIIEABANG75FBFHDC9WUUOI","","[{""page_index"":0,""viewing_time"":15569}]","","","","","","","",""
"726","","image-keyboard-response","4","104534","0.0-4.0","3FPRZHYEPZTNOKHOKZAQCJD8X2M3V2","A7TI4X4LRGQA0","3UAU495MIIEABANG75FBFHDC9WUUOI","","","img/flower5.png","75","726","2","1","2","",""
"null","","html-keyboard-response","5","104850","0.0-5.0","3FPRZHYEPZTNOKHOKZAQCJD8X2M3V2","A7TI4X4LRGQA0","3UAU495MIIEABANG75FBFHDC9WUUOI","","","<img src=""img/flower5.png"" style=""width:200px; border:14px solid green;"">","null","","","","","",""
"2701","","image-keyboard-response","6","107551","0.0-6.0","3FPRZHYEPZTNOKHOKZAQCJD8X2M3V2","A7TI4X4LRGQA0","3UAU495MIIEABANG75FBFHDC9WUUOI","","","img/flower5.png","75","2702","2","1","2","",""
"null","","html-keyboard-response","7","107854","0.0-7.0","3FPRZHYEPZTNOKHOKZAQCJD8X2M3V2","A7TI4X4LRGQA0","3UAU495MIIEABANG75FBFHDC9WUUOI","","","<img src=""img/flower5.png"" style=""width:200px; border:14px solid green;"">","null","","","","","",""
"1376","","image-keyboard-response","8","109231","0.0-8.0","3FPRZHYEPZTNOKHOKZAQCJD8X2M3V2","A7TI4X4LRGQA0","3UAU495MIIEABANG75FBFHDC9WUUOI","","","img/flower5.png","75","1376","2","0","2","",""
"null","","html-keyboard-response","9","109534","0.0-9.0","3FPRZHYEPZTNOKHOKZAQCJD8X2M3V2","A7TI4X4LRGQA0","3UAU495MIIEABANG75FBFHDC9WUUOI","","","<img src=""img/flower5.png"" style=""width:200px;border:14px solid red;"">","null","","","","","",""
"1195","","image-keyboard-response","10","110730","0.0-10.0","3FPRZHYEPZTNOKHOKZAQCJD8X2M3V2","A7TI4X4LRGQA0","3UAU495MIIEABANG75FBFHDC9WUUOI","","","img/flower5.png","75","1196","2","1","2","",""
"null","","html-keyboard-response","11","111032","0.0-11.0","3FPRZHYEPZTNOKHOKZAQCJD8X2M3V2","A7TI4X4LRGQA0","3UAU495MIIEABANG75FBFHDC9WUUOI","","","<img src=""img/flower5.png"" style=""width:200px; border:14px solid green;"">","null","","","","","",""
"894","","image-keyboard-response","12","111927","0.0-12.0","3FPRZHYEPZTNOKHOKZAQCJD8X2M3V2","A7TI4X4LRGQA0","3UAU495MIIEABANG75FBFHDC9WUUOI","","","img/flower4.png","74","895","1","1","1","",""
"null","","html-keyboard-response","13","112232","0.0-13.0","3FPRZHYEPZTNOKHOKZAQCJD8X2M3V2","A7TI4X4LRGQA0","3UAU495MIIEABANG75FBFHDC9WUUOI","","","<img src=""img/flower4.png"" style=""width:200px; border:14px solid green;"">","null","","","","","",""
"655","","image-keyboard-response","14","112887","0.0-14.0","3FPRZHYEPZTNOKHOKZAQCJD8X2M3V2","A7TI4X4LRGQA0","3UAU495MIIEABANG75FBFHDC9WUUOI","","","img/flower4.png","74","655","1","1","1","",""
"null","","html-keyboard-response","15","113191","0.0-15.0","3FPRZHYEPZTNOKHOKZAQCJD8X2M3V2","A7TI4X4LRGQA0","3UAU495MIIEABANG75FBFHDC9WUUOI","","","<img src=""img/flower4.png"" style=""width:200px; border:14px solid green;"">","null","","","","","",""
"388","","image-keyboard-response","16","113580","0.0-16.0","3FPRZHYEPZTNOKHOKZAQCJD8X2M3V2","A7TI4X4LRGQA0","3UAU495MIIEABANG75FBFHDC9WUUOI","","","img/flower4.png","74","388","1","1","1","",""
"null","","html-keyboard-response","17","113883","0.0-17.0","3FPRZHYEPZTNOKHOKZAQCJD8X2M3V2","A7TI4X4LRGQA0","3UAU495MIIEABANG75FBFHDC9WUUOI","","","<img src=""img/flower4.png"" style=""width:200px; border:14px solid green;"">","null","","","","","",""
"451","","image-keyboard-response","18","114334","0.0-18.0","3FPRZHYEPZTNOKHOKZAQCJD8X2M3V2","A7TI4X4LRGQA0","3UAU495MIIEABANG75FBFHDC9WUUOI","","","img/flower4.png","74","452","1","1","1","",""
"null","","html-keyboard-response","19","114648","0.0-19.0","3FPRZHYEPZTNOKHOKZAQCJD8X2M3V2","A7TI4X4LRGQA0","3UAU495MIIEABANG75FBFHDC9WUUOI","","","<img src=""img/flower4.png"" style=""width:200px; border:14px solid green;"">","null","","","","","",""
"620","","image-keyboard-response","20","115267","0.0-20.0","3FPRZHYEPZTNOKHOKZAQCJD8X2M3V2","A7TI4X4LRGQA0","3UAU495MIIEABANG75FBFHDC9WUUOI","","","img/flower5.png","75","620","2","1","2","",""
"null","","html-keyboard-response","21","115572","0.0-21.0","3FPRZHYEPZTNOKHOKZAQCJD8X2M3V2","A7TI4X4LRGQA0","3UAU495MIIEABANG75FBFHDC9WUUOI","","","<img src=""img/flower5.png"" style=""width:200px; border:14px solid green;"">","null","","","","","",""
"436","","image-keyboard-response","22","116007","0.0-22.0","3FPRZHYEPZTNOKHOKZAQCJD8X2M3V2","A7TI4X4LRGQA0","3UAU495MIIEABANG75FBFHDC9WUUOI","","","img/flower5.png","75","436","2","1","2","",""
"null","","html-keyboard-response","23","116313","0.0-23.0","3FPRZHYEPZTNOKHOKZAQCJD8X2M3V2","A7TI4X4LRGQA0","3UAU495MIIEABANG75FBFHDC9WUUOI","","","<img src=""img/flower5.png"" style=""width:200px; border:14px solid green;"">","null","","","","","",""
"467","","image-keyboard-response","24","116781","0.0-24.0","3FPRZHYEPZTNOKHOKZAQCJD8X2M3V2","A7TI4X4LRGQA0","3UAU495MIIEABANG75FBFHDC9WUUOI","","","img/flower5.png","75","469","2","1","2","",""
"null","","html-keyboard-response","25","117087","0.0-25.0","3FPRZHYEPZTNOKHOKZAQCJD8X2M3V2","A7TI4X4LRGQA0","3UAU495MIIEABANG75FBFHDC9WUUOI","","","<img src=""img/flower5.png"" style=""width:200px; border:14px solid green;"">","null","","","","","",""
"530","","image-keyboard-response","26","117617","0.0-26.0","3FPRZHYEPZTNOKHOKZAQCJD8X2M3V2","A7TI4X4LRGQA0","3UAU495MIIEABANG75FBFHDC9WUUOI","","","img/flower6.png","76","530","3","1","3","",""
"null","","html-keyboard-response","27","117928","0.0-27.0","3FPRZHYEPZTNOKHOKZAQCJD8X2M3V2","A7TI4X4LRGQA0","3UAU495MIIEABANG75FBFHDC9WUUOI","","","<img src=""img/flower6.png"" style=""width:200px; border:14px solid green;"">","null","","","","","",""
"407","","image-keyboard-response","28","118334","0.0-28.0","3FPRZHYEPZTNOKHOKZAQCJD8X2M3V2","A7TI4X4LRGQA0","3UAU495MIIEABANG75FBFHDC9WUUOI","","","img/flower6.png","76","407","3","1","3","",""
"null","","html-keyboard-response","29","118635","0.0-29.0","3FPRZHYEPZTNOKHOKZAQCJD8X2M3V2","A7TI4X4LRGQA0","3UAU495MIIEABANG75FBFHDC9WUUOI","","","<img src=""img/flower6.png"" style=""width:200px; border:14px solid green;"">","null","","","","","",""
"367","","image-keyboard-response","30","119004","0.0-30.0","3FPRZHYEPZTNOKHOKZAQCJD8X2M3V2","A7TI4X4LRGQA0","3UAU495MIIEABANG75FBFHDC9WUUOI","","","img/flower6.png","76","368","3","1","3","",""
"null","","html-keyboard-response","31","119308","0.0-31.0","3FPRZHYEPZTNOKHOKZAQCJD8X2M3V2","A7TI4X4LRGQA0","3UAU495MIIEABANG75FBFHDC9WUUOI","","","<img src=""img/flower6.png"" style=""width:200px; border:14px solid green;"">","null","","","","","",""
"590","","image-keyboard-response","32","119897","0.0-32.0","3FPRZHYEPZTNOKHOKZAQCJD8X2M3V2","A7TI4X4LRGQA0","3UAU495MIIEABANG75FBFHDC9WUUOI","","","img/flower4.png","74","590","1","1","1","",""
"null","","html-keyboard-response","33","120203","0.0-33.0","3FPRZHYEPZTNOKHOKZAQCJD8X2M3V2","A7TI4X4LRGQA0","3UAU495MIIEABANG75FBFHDC9WUUOI","","","<img src=""img/flower4.png"" style=""width:200px; border:14px solid green;"">","null","","","","","",""
"423","","image-keyboard-response","34","120627","0.0-34.0","3FPRZHYEPZTNOKHOKZAQCJD8X2M3V2","A7TI4X4LRGQA0","3UAU495MIIEABANG75FBFHDC9WUUOI","","","img/flower4.png","74","423","1","1","1","",""
"null","","html-keyboard-response","35","120941","0.0-35.0","3FPRZHYEPZTNOKHOKZAQCJD8X2M3V2","A7TI4X4LRGQA0","3UAU495MIIEABANG75FBFHDC9WUUOI","","","<img src=""img/flower4.png"" style=""width:200px; border:14px solid green;"">","null","","","","","",""
"1087","","image-keyboard-response","36","122028","0.0-36.0","3FPRZHYEPZTNOKHOKZAQCJD8X2M3V2","A7TI4X4LRGQA0","3UAU495MIIEABANG75FBFHDC9WUUOI","","","img/flower6.png","76","1089","3","1","3","",""
"null","","html-keyboard-response","37","122334","0.0-37.0","3FPRZHYEPZTNOKHOKZAQCJD8X2M3V2","A7TI4X4LRGQA0","3UAU495MIIEABANG75FBFHDC9WUUOI","","","<img src=""img/flower6.png"" style=""width:200px; border:14px solid green;"">","null","","","","","",""
"651","","image-keyboard-response","38","122985","0.0-38.0","3FPRZHYEPZTNOKHOKZAQCJD8X2M3V2","A7TI4X4LRGQA0","3UAU495MIIEABANG75FBFHDC9WUUOI","","","img/flower5.png","75","651","2","1","2","",""
"null","","html-keyboard-response","39","123322","0.0-39.0","3FPRZHYEPZTNOKHOKZAQCJD8X2M3V2","A7TI4X4LRGQA0","3UAU495MIIEABANG75FBFHDC9WUUOI","","","<img src=""img/flower5.png"" style=""width:200px; border:14px solid green;"">","null","","","","","",""
"551","","image-keyboard-response","40","123875","0.0-40.0","3FPRZHYEPZTNOKHOKZAQCJD8X2M3V2","A7TI4X4LRGQA0","3UAU495MIIEABANG75FBFHDC9WUUOI","","","img/flower4.png","74","551","1","1","1","",""
"null","","html-keyboard-response","41","124175","0.0-41.0","3FPRZHYEPZTNOKHOKZAQCJD8X2M3V2","A7TI4X4LRGQA0","3UAU495MIIEABANG75FBFHDC9WUUOI","","","<img src=""img/flower4.png"" style=""width:200px; border:14px solid green;"">","null","","","","","",""
"427","","image-keyboard-response","42","124603","0.0-42.0","3FPRZHYEPZTNOKHOKZAQCJD8X2M3V2","A7TI4X4LRGQA0","3UAU495MIIEABANG75FBFHDC9WUUOI","","","img/flower5.png","75","428","2","0","2","",""
"null","","html-keyboard-response","43","124909","0.0-43.0","3FPRZHYEPZTNOKHOKZAQCJD8X2M3V2","A7TI4X4LRGQA0","3UAU495MIIEABANG75FBFHDC9WUUOI","","","<img src=""img/flower5.png"" style=""width:200px;border:14px solid red;"">","null","","","","","",""
"1262","","image-keyboard-response","44","126171","0.0-44.0","3FPRZHYEPZTNOKHOKZAQCJD8X2M3V2","A7TI4X4LRGQA0","3UAU495MIIEABANG75FBFHDC9WUUOI","","","img/flower4.png","74","1262","1","1","1","",""
"null","","html-keyboard-response","45","126477","0.0-45.0","3FPRZHYEPZTNOKHOKZAQCJD8X2M3V2","A7TI4X4LRGQA0","3UAU495MIIEABANG75FBFHDC9WUUOI","","","<img src=""img/flower4.png"" style=""width:200px; border:14px solid green;"">","null","","","","","",""
"622","","image-keyboard-response","46","127100","0.0-46.0","3FPRZHYEPZTNOKHOKZAQCJD8X2M3V2","A7TI4X4LRGQA0","3UAU495MIIEABANG75FBFHDC9WUUOI","","","img/flower6.png","76","622","3","0","3","",""
"null","","html-keyboard-response","47","127410","0.0-47.0","3FPRZHYEPZTNOKHOKZAQCJD8X2M3V2","A7TI4X4LRGQA0","3UAU495MIIEABANG75FBFHDC9WUUOI","","","<img src=""img/flower6.png"" style=""width:200px;border:14px solid red;"">","null","","","","","",""
"606","","image-keyboard-response","48","128016","0.0-48.0","3FPRZHYEPZTNOKHOKZAQCJD8X2M3V2","A7TI4X4LRGQA0","3UAU495MIIEABANG75FBFHDC9WUUOI","","","img/flower6.png","76","608","3","1","3","",""
"null","","html-keyboard-response","49","128318","0.0-49.0","3FPRZHYEPZTNOKHOKZAQCJD8X2M3V2","A7TI4X4LRGQA0","3UAU495MIIEABANG75FBFHDC9WUUOI","","","<img src=""img/flower6.png"" style=""width:200px; border:14px solid green;"">","null","","","","","",""
"335","","image-keyboard-response","50","128654","0.0-50.0","3FPRZHYEPZTNOKHOKZAQCJD8X2M3V2","A7TI4X4LRGQA0","3UAU495MIIEABANG75FBFHDC9WUUOI","","","img/flower6.png","76","335","3","1","3","",""
"null","","html-keyboard-response","51","128958","0.0-51.0","3FPRZHYEPZTNOKHOKZAQCJD8X2M3V2","A7TI4X4LRGQA0","3UAU495MIIEABANG75FBFHDC9WUUOI","","","<img src=""img/flower6.png"" style=""width:200px; border:14px solid green;"">","null","","","","","",""
"340","","image-keyboard-response","52","129298","0.0-52.0","3FPRZHYEPZTNOKHOKZAQCJD8X2M3V2","A7TI4X4LRGQA0","3UAU495MIIEABANG75FBFHDC9WUUOI","","","img/flower6.png","76","340","3","1","3","",""
"null","","html-keyboard-response","53","129602","0.0-53.0","3FPRZHYEPZTNOKHOKZAQCJD8X2M3V2","A7TI4X4LRGQA0","3UAU495MIIEABANG75FBFHDC9WUUOI","","","<img src=""img/flower6.png"" style=""width:200px; border:14px solid green;"">","null","","","","","",""
"851","","image-keyboard-response","54","130453","0.0-54.0","3FPRZHYEPZTNOKHOKZAQCJD8X2M3V2","A7TI4X4LRGQA0","3UAU495MIIEABANG75FBFHDC9WUUOI","","","img/flower4.png","74","851","1","1","1","",""
"null","","html-keyboard-response","55","130753","0.0-55.0","3FPRZHYEPZTNOKHOKZAQCJD8X2M3V2","A7TI4X4LRGQA0","3UAU495MIIEABANG75FBFHDC9WUUOI","","","<img src=""img/flower4.png"" style=""width:200px; border:14px solid green;"">","null","","","","","",""
"486","","image-keyboard-response","56","131239","0.0-56.0","3FPRZHYEPZTNOKHOKZAQCJD8X2M3V2","A7TI4X4LRGQA0","3UAU495MIIEABANG75FBFHDC9WUUOI","","","img/flower4.png","74","486","1","1","1","",""
"null","","html-keyboard-response","57","131546","0.0-57.0","3FPRZHYEPZTNOKHOKZAQCJD8X2M3V2","A7TI4X4LRGQA0","3UAU495MIIEABANG75FBFHDC9WUUOI","","","<img src=""img/flower4.png"" style=""width:200px; border:14px solid green;"">","null","","","","","",""
"566","","image-keyboard-response","58","132113","0.0-58.0","3FPRZHYEPZTNOKHOKZAQCJD8X2M3V2","A7TI4X4LRGQA0","3UAU495MIIEABANG75FBFHDC9WUUOI","","","img/flower5.png","75","566","2","1","2","",""
"null","","html-keyboard-response","59","132416","0.0-59.0","3FPRZHYEPZTNOKHOKZAQCJD8X2M3V2","A7TI4X4LRGQA0","3UAU495MIIEABANG75FBFHDC9WUUOI","","","<img src=""img/flower5.png"" style=""width:200px; border:14px solid green;"">","null","","","","","",""
"660","","image-keyboard-response","60","133077","0.0-60.0","3FPRZHYEPZTNOKHOKZAQCJD8X2M3V2","A7TI4X4LRGQA0","3UAU495MIIEABANG75FBFHDC9WUUOI","","","img/flower6.png","76","660","3","1","3","",""
"null","","html-keyboard-response","61","133385","0.0-61.0","3FPRZHYEPZTNOKHOKZAQCJD8X2M3V2","A7TI4X4LRGQA0","3UAU495MIIEABANG75FBFHDC9WUUOI","","","<img src=""img/flower6.png"" style=""width:200px; border:14px solid green;"">","null","","","","","",""
"403","","image-keyboard-response","62","133787","0.0-62.0","3FPRZHYEPZTNOKHOKZAQCJD8X2M3V2","A7TI4X4LRGQA0","3UAU495MIIEABANG75FBFHDC9WUUOI","","","img/flower6.png","76","403","3","1","3","",""
"null","","html-keyboard-response","63","134088","0.0-63.0","3FPRZHYEPZTNOKHOKZAQCJD8X2M3V2","A7TI4X4LRGQA0","3UAU495MIIEABANG75FBFHDC9WUUOI","","","<img src=""img/flower6.png"" style=""width:200px; border:14px solid green;"">","null","","","","","",""
"29000","","instructions","64","163088","0.0-64.0","3FPRZHYEPZTNOKHOKZAQCJD8X2M3V2","A7TI4X4LRGQA0","3UAU495MIIEABANG75FBFHDC9WUUOI","","[{""page_index"":0,""viewing_time"":4686},{""page_index"":1,""viewing_time"":24314}]","","","","","","","",""
"802","","image-keyboard-response","65","163891","0.0-65.0","3FPRZHYEPZTNOKHOKZAQCJD8X2M3V2","A7TI4X4LRGQA0","3UAU495MIIEABANG75FBFHDC9WUUOI","","","img/flower4.png","74","802","1","1","1","",""
"null","","html-keyboard-response","66","164204","0.0-66.0","3FPRZHYEPZTNOKHOKZAQCJD8X2M3V2","A7TI4X4LRGQA0","3UAU495MIIEABANG75FBFHDC9WUUOI","","","<img src=""img/flower4.png"" style=""width:200px; border:14px solid green;"">","null","","","","","",""
"685","","image-keyboard-response","67","164889","0.0-67.0","3FPRZHYEPZTNOKHOKZAQCJD8X2M3V2","A7TI4X4LRGQA0","3UAU495MIIEABANG75FBFHDC9WUUOI","","","img/flower6.png","76","685","3","1","3","",""
"null","","html-keyboard-response","68","165198","0.0-68.0","3FPRZHYEPZTNOKHOKZAQCJD8X2M3V2","A7TI4X4LRGQA0","3UAU495MIIEABANG75FBFHDC9WUUOI","","","<img src=""img/flower6.png"" style=""width:200px; border:14px solid green;"">","null","","","","","",""
"1494","","image-keyboard-response","69","166693","0.0-69.0","3FPRZHYEPZTNOKHOKZAQCJD8X2M3V2","A7TI4X4LRGQA0","3UAU495MIIEABANG75FBFHDC9WUUOI","","","img/flower4.png","74","1494","1","1","1","",""
"null","","html-keyboard-response","70","166995","0.0-70.0","3FPRZHYEPZTNOKHOKZAQCJD8X2M3V2","A7TI4X4LRGQA0","3UAU495MIIEABANG75FBFHDC9WUUOI","","","<img src=""img/flower4.png"" style=""width:200px; border:14px solid green;"">","null","","","","","",""
"557","","image-keyboard-response","71","167552","0.0-71.0","3FPRZHYEPZTNOKHOKZAQCJD8X2M3V2","A7TI4X4LRGQA0","3UAU495MIIEABANG75FBFHDC9WUUOI","","","img/flower5.png","75","557","2","1","2","",""
"null","","html-keyboard-response","72","167861","0.0-72.0","3FPRZHYEPZTNOKHOKZAQCJD8X2M3V2","A7TI4X4LRGQA0","3UAU495MIIEABANG75FBFHDC9WUUOI","","","<img src=""img/flower5.png"" style=""width:200px; border:14px solid green;"">","null","","","","","",""
"526","","image-keyboard-response","73","168387","0.0-73.0","3FPRZHYEPZTNOKHOKZAQCJD8X2M3V2","A7TI4X4LRGQA0","3UAU495MIIEABANG75FBFHDC9WUUOI","","","img/flower6.png","76","527","3","0","3","",""
"null","","html-keyboard-response","74","168702","0.0-74.0","3FPRZHYEPZTNOKHOKZAQCJD8X2M3V2","A7TI4X4LRGQA0","3UAU495MIIEABANG75FBFHDC9WUUOI","","","<img src=""img/flower6.png"" style=""width:200px;border:14px solid red;"">","null","","","","","",""
"641","","image-keyboard-response","75","169343","0.0-75.0","3FPRZHYEPZTNOKHOKZAQCJD8X2M3V2","A7TI4X4LRGQA0","3UAU495MIIEABANG75FBFHDC9WUUOI","","","img/flower5.png","75","641","2","1","2","",""
"null","","html-keyboard-response","76","169648","0.0-76.0","3FPRZHYEPZTNOKHOKZAQCJD8X2M3V2","A7TI4X4LRGQA0","3UAU495MIIEABANG75FBFHDC9WUUOI","","","<img src=""img/flower5.png"" style=""width:200px; border:14px solid green;"">","null","","","","","",""
"610","","image-keyboard-response","77","170259","0.0-77.0","3FPRZHYEPZTNOKHOKZAQCJD8X2M3V2","A7TI4X4LRGQA0","3UAU495MIIEABANG75FBFHDC9WUUOI","","","img/flower6.png","76","610","3","1","3","",""
"null","","html-keyboard-response","78","170565","0.0-78.0","3FPRZHYEPZTNOKHOKZAQCJD8X2M3V2","A7TI4X4LRGQA0","3UAU495MIIEABANG75FBFHDC9WUUOI","","","<img src=""img/flower6.png"" style=""width:200px; border:14px solid green;"">","null","","","","","",""
"1150","","image-keyboard-response","79","171715","0.0-79.0","3FPRZHYEPZTNOKHOKZAQCJD8X2M3V2","A7TI4X4LRGQA0","3UAU495MIIEABANG75FBFHDC9WUUOI","","","img/flower5.png","75","1150","2","0","2","",""
"null","","html-keyboard-response","80","172025","0.0-80.0","3FPRZHYEPZTNOKHOKZAQCJD8X2M3V2","A7TI4X4LRGQA0","3UAU495MIIEABANG75FBFHDC9WUUOI","","","<img src=""img/flower5.png"" style=""width:200px;border:14px solid red;"">","null","","","","","",""
"558","","image-keyboard-response","81","172585","0.0-81.0","3FPRZHYEPZTNOKHOKZAQCJD8X2M3V2","A7TI4X4LRGQA0","3UAU495MIIEABANG75FBFHDC9WUUOI","","","img/flower4.png","74","559","1","1","1","",""
"null","","html-keyboard-response","82","172890","0.0-82.0","3FPRZHYEPZTNOKHOKZAQCJD8X2M3V2","A7TI4X4LRGQA0","3UAU495MIIEABANG75FBFHDC9WUUOI","","","<img src=""img/flower4.png"" style=""width:200px; border:14px solid green;"">","null","","","","","",""
"641","","image-keyboard-response","83","173532","0.0-83.0","3FPRZHYEPZTNOKHOKZAQCJD8X2M3V2","A7TI4X4LRGQA0","3UAU495MIIEABANG75FBFHDC9WUUOI","","","img/flower6.png","76","641","3","1","3","",""
"null","","html-keyboard-response","84","173835","0.0-84.0","3FPRZHYEPZTNOKHOKZAQCJD8X2M3V2","A7TI4X4LRGQA0","3UAU495MIIEABANG75FBFHDC9WUUOI","","","<img src=""img/flower6.png"" style=""width:200px; border:14px solid green;"">","null","","","","","",""
"754","","image-keyboard-response","85","174591","0.0-85.0","3FPRZHYEPZTNOKHOKZAQCJD8X2M3V2","A7TI4X4LRGQA0","3UAU495MIIEABANG75FBFHDC9WUUOI","","","img/flower6.png","76","755","3","1","3","",""
"null","","html-keyboard-response","86","174891","0.0-86.0","3FPRZHYEPZTNOKHOKZAQCJD8X2M3V2","A7TI4X4LRGQA0","3UAU495MIIEABANG75FBFHDC9WUUOI","","","<img src=""img/flower6.png"" style=""width:200px; border:14px solid green;"">","null","","","","","",""
"626","","image-keyboard-response","87","175517","0.0-87.0","3FPRZHYEPZTNOKHOKZAQCJD8X2M3V2","A7TI4X4LRGQA0","3UAU495MIIEABANG75FBFHDC9WUUOI","","","img/flower4.png","74","626","1","1","1","",""
"null","","html-keyboard-response","88","175838","0.0-88.0","3FPRZHYEPZTNOKHOKZAQCJD8X2M3V2","A7TI4X4LRGQA0","3UAU495MIIEABANG75FBFHDC9WUUOI","","","<img src=""img/flower4.png"" style=""width:200px; border:14px solid green;"">","null","","","","","",""
"660","","image-keyboard-response","89","176499","0.0-89.0","3FPRZHYEPZTNOKHOKZAQCJD8X2M3V2","A7TI4X4LRGQA0","3UAU495MIIEABANG75FBFHDC9WUUOI","","","img/flower4.png","74","660","1","1","1","",""
"null","","html-keyboard-response","90","176811","0.0-90.0","3FPRZHYEPZTNOKHOKZAQCJD8X2M3V2","A7TI4X4LRGQA0","3UAU495MIIEABANG75FBFHDC9WUUOI","","","<img src=""img/flower4.png"" style=""width:200px; border:14px solid green;"">","null","","","","","",""
"592","","image-keyboard-response","91","177405","0.0-91.0","3FPRZHYEPZTNOKHOKZAQCJD8X2M3V2","A7TI4X4LRGQA0","3UAU495MIIEABANG75FBFHDC9WUUOI","","","img/flower4.png","74","593","1","1","1","",""
"null","","html-keyboard-response","92","177709","0.0-92.0","3FPRZHYEPZTNOKHOKZAQCJD8X2M3V2","A7TI4X4LRGQA0","3UAU495MIIEABANG75FBFHDC9WUUOI","","","<img src=""img/flower4.png"" style=""width:200px; border:14px solid green;"">","null","","","","","",""
"632","","image-keyboard-response","93","178341","0.0-93.0","3FPRZHYEPZTNOKHOKZAQCJD8X2M3V2","A7TI4X4LRGQA0","3UAU495MIIEABANG75FBFHDC9WUUOI","","","img/flower5.png","75","633","2","1","2","",""
"null","","html-keyboard-response","94","178642","0.0-94.0","3FPRZHYEPZTNOKHOKZAQCJD8X2M3V2","A7TI4X4LRGQA0","3UAU495MIIEABANG75FBFHDC9WUUOI","","","<img src=""img/flower5.png"" style=""width:200px; border:14px solid green;"">","null","","","","","",""
"558","","image-keyboard-response","95","179201","0.0-95.0","3FPRZHYEPZTNOKHOKZAQCJD8X2M3V2","A7TI4X4LRGQA0","3UAU495MIIEABANG75FBFHDC9WUUOI","","","img/flower6.png","76","559","3","1","3","",""
"null","","html-keyboard-response","96","179508","0.0-96.0","3FPRZHYEPZTNOKHOKZAQCJD8X2M3V2","A7TI4X4LRGQA0","3UAU495MIIEABANG75FBFHDC9WUUOI","","","<img src=""img/flower6.png"" style=""width:200px; border:14px solid green;"">","null","","","","","",""
"706","","image-keyboard-response","97","180214","0.0-97.0","3FPRZHYEPZTNOKHOKZAQCJD8X2M3V2","A7TI4X4LRGQA0","3UAU495MIIEABANG75FBFHDC9WUUOI","","","img/flower4.png","74","706","1","0","1","",""
"null","","html-keyboard-response","98","180520","0.0-98.0","3FPRZHYEPZTNOKHOKZAQCJD8X2M3V2","A7TI4X4LRGQA0","3UAU495MIIEABANG75FBFHDC9WUUOI","","","<img src=""img/flower4.png"" style=""width:200px;border:14px solid red;"">","null","","","","","",""
"523","","image-keyboard-response","99","181044","0.0-99.0","3FPRZHYEPZTNOKHOKZAQCJD8X2M3V2","A7TI4X4LRGQA0","3UAU495MIIEABANG75FBFHDC9WUUOI","","","img/flower4.png","74","524","1","1","1","",""
"null","","html-keyboard-response","100","181355","0.0-100.0","3FPRZHYEPZTNOKHOKZAQCJD8X2M3V2","A7TI4X4LRGQA0","3UAU495MIIEABANG75FBFHDC9WUUOI","","","<img src=""img/flower4.png"" style=""width:200px; border:14px solid green;"">","null","","","","","",""
"633","","image-keyboard-response","101","181988","0.0-101.0","3FPRZHYEPZTNOKHOKZAQCJD8X2M3V2","A7TI4X4LRGQA0","3UAU495MIIEABANG75FBFHDC9WUUOI","","","img/flower5.png","75","634","2","0","2","",""
"null","","html-keyboard-response","102","182292","0.0-102.0","3FPRZHYEPZTNOKHOKZAQCJD8X2M3V2","A7TI4X4LRGQA0","3UAU495MIIEABANG75FBFHDC9WUUOI","","","<img src=""img/flower5.png"" style=""width:200px;border:14px solid red;"">","null","","","","","",""
"617","","image-keyboard-response","103","182909","0.0-103.0","3FPRZHYEPZTNOKHOKZAQCJD8X2M3V2","A7TI4X4LRGQA0","3UAU495MIIEABANG75FBFHDC9WUUOI","","","img/flower6.png","76","618","3","1","3","",""
"null","","html-keyboard-response","104","183220","0.0-104.0","3FPRZHYEPZTNOKHOKZAQCJD8X2M3V2","A7TI4X4LRGQA0","3UAU495MIIEABANG75FBFHDC9WUUOI","","","<img src=""img/flower6.png"" style=""width:200px; border:14px solid green;"">","null","","","","","",""
"546","","image-keyboard-response","105","183766","0.0-105.0","3FPRZHYEPZTNOKHOKZAQCJD8X2M3V2","A7TI4X4LRGQA0","3UAU495MIIEABANG75FBFHDC9WUUOI","","","img/flower6.png","76","546","3","1","3","",""
"null","","html-keyboard-response","106","184077","0.0-106.0","3FPRZHYEPZTNOKHOKZAQCJD8X2M3V2","A7TI4X4LRGQA0","3UAU495MIIEABANG75FBFHDC9WUUOI","","","<img src=""img/flower6.png"" style=""width:200px; border:14px solid green;"">","null","","","","","",""
"799","","image-keyboard-response","107","184876","0.0-107.0","3FPRZHYEPZTNOKHOKZAQCJD8X2M3V2","A7TI4X4LRGQA0","3UAU495MIIEABANG75FBFHDC9WUUOI","","","img/flower5.png","75","799","2","1","2","",""
"null","","html-keyboard-response","108","185186","0.0-108.0","3FPRZHYEPZTNOKHOKZAQCJD8X2M3V2","A7TI4X4LRGQA0","3UAU495MIIEABANG75FBFHDC9WUUOI","","","<img src=""img/flower5.png"" style=""width:200px; border:14px solid green;"">","null","","","","","",""
"541","","image-keyboard-response","109","185728","0.0-109.0","3FPRZHYEPZTNOKHOKZAQCJD8X2M3V2","A7TI4X4LRGQA0","3UAU495MIIEABANG75FBFHDC9WUUOI","","","img/flower5.png","75","542","2","1","2","",""
"null","","html-keyboard-response","110","186041","0.0-110.0","3FPRZHYEPZTNOKHOKZAQCJD8X2M3V2","A7TI4X4LRGQA0","3UAU495MIIEABANG75FBFHDC9WUUOI","","","<img src=""img/flower5.png"" style=""width:200px; border:14px solid green;"">","null","","","","","",""
"501","","image-keyboard-response","111","186544","0.0-111.0","3FPRZHYEPZTNOKHOKZAQCJD8X2M3V2","A7TI4X4LRGQA0","3UAU495MIIEABANG75FBFHDC9WUUOI","","","img/flower5.png","75","502","2","1","2","",""
"null","","html-keyboard-response","112","186854","0.0-112.0","3FPRZHYEPZTNOKHOKZAQCJD8X2M3V2","A7TI4X4LRGQA0","3UAU495MIIEABANG75FBFHDC9WUUOI","","","<img src=""img/flower5.png"" style=""width:200px; border:14px solid green;"">","null","","","","","",""
"489","","image-keyboard-response","113","187343","0.0-113.0","3FPRZHYEPZTNOKHOKZAQCJD8X2M3V2","A7TI4X4LRGQA0","3UAU495MIIEABANG75FBFHDC9WUUOI","","","img/flower6.png","76","489","3","1","3","",""
"null","","html-keyboard-response","114","187656","0.0-114.0","3FPRZHYEPZTNOKHOKZAQCJD8X2M3V2","A7TI4X4LRGQA0","3UAU495MIIEABANG75FBFHDC9WUUOI","","","<img src=""img/flower6.png"" style=""width:200px; border:14px solid green;"">","null","","","","","",""
"583","","image-keyboard-response","115","188240","0.0-115.0","3FPRZHYEPZTNOKHOKZAQCJD8X2M3V2","A7TI4X4LRGQA0","3UAU495MIIEABANG75FBFHDC9WUUOI","","","img/flower6.png","76","583","3","1","3","",""
"null","","html-keyboard-response","116","188552","0.0-116.0","3FPRZHYEPZTNOKHOKZAQCJD8X2M3V2","A7TI4X4LRGQA0","3UAU495MIIEABANG75FBFHDC9WUUOI","","","<img src=""img/flower6.png"" style=""width:200px; border:14px solid green;"">","null","","","","","",""
"993","","image-keyboard-response","117","189546","0.0-117.0","3FPRZHYEPZTNOKHOKZAQCJD8X2M3V2","A7TI4X4LRGQA0","3UAU495MIIEABANG75FBFHDC9WUUOI","","","img/flower5.png","75","994","2","0","2","",""
"null","","html-keyboard-response","118","189855","0.0-118.0","3FPRZHYEPZTNOKHOKZAQCJD8X2M3V2","A7TI4X4LRGQA0","3UAU495MIIEABANG75FBFHDC9WUUOI","","","<img src=""img/flower5.png"" style=""width:200px;border:14px solid red;"">","null","","","","","",""
"806","","image-keyboard-response","119","190663","0.0-119.0","3FPRZHYEPZTNOKHOKZAQCJD8X2M3V2","A7TI4X4LRGQA0","3UAU495MIIEABANG75FBFHDC9WUUOI","","","img/flower5.png","75","807","2","1","2","",""
"null","","html-keyboard-response","120","190967","0.0-120.0","3FPRZHYEPZTNOKHOKZAQCJD8X2M3V2","A7TI4X4LRGQA0","3UAU495MIIEABANG75FBFHDC9WUUOI","","","<img src=""img/flower5.png"" style=""width:200px; border:14px solid green;"">","null","","","","","",""
"550","","image-keyboard-response","121","191519","0.0-121.0","3FPRZHYEPZTNOKHOKZAQCJD8X2M3V2","A7TI4X4LRGQA0","3UAU495MIIEABANG75FBFHDC9WUUOI","","","img/flower4.png","74","550","1","1","1","",""
"null","","html-keyboard-response","122","191826","0.0-122.0","3FPRZHYEPZTNOKHOKZAQCJD8X2M3V2","A7TI4X4LRGQA0","3UAU495MIIEABANG75FBFHDC9WUUOI","","","<img src=""img/flower4.png"" style=""width:200px; border:14px solid green;"">","null","","","","","",""
"329","","image-keyboard-response","123","192157","0.0-123.0","3FPRZHYEPZTNOKHOKZAQCJD8X2M3V2","A7TI4X4LRGQA0","3UAU495MIIEABANG75FBFHDC9WUUOI","","","img/flower4.png","74","330","1","1","1","",""
"null","","html-keyboard-response","124","192466","0.0-124.0","3FPRZHYEPZTNOKHOKZAQCJD8X2M3V2","A7TI4X4LRGQA0","3UAU495MIIEABANG75FBFHDC9WUUOI","","","<img src=""img/flower4.png"" style=""width:200px; border:14px solid green;"">","null","","","","","",""
"2256","","instructions","125","194721","0.0-125.0","3FPRZHYEPZTNOKHOKZAQCJD8X2M3V2","A7TI4X4LRGQA0","3UAU495MIIEABANG75FBFHDC9WUUOI","","[{""page_index"":0,""viewing_time"":2256}]","","","","","","","",""
"783","","image-keyboard-response","126","195505","0.0-126.0","3FPRZHYEPZTNOKHOKZAQCJD8X2M3V2","A7TI4X4LRGQA0","3UAU495MIIEABANG75FBFHDC9WUUOI","","","img/flower6.png","76","783","3","1","3","1,0.5,0.5,0.5,1,0.5,0.5,0.5,1",""
"null","","html-keyboard-response","127","195811","0.0-127.0","3FPRZHYEPZTNOKHOKZAQCJD8X2M3V2","A7TI4X4LRGQA0","3UAU495MIIEABANG75FBFHDC9WUUOI","","","<img src=""img/flower6.png"" style=""width:200px; border:14px solid green;"">","null","","","","","",""
"794","","image-keyboard-response","128","196606","0.0-128.0","3FPRZHYEPZTNOKHOKZAQCJD8X2M3V2","A7TI4X4LRGQA0","3UAU495MIIEABANG75FBFHDC9WUUOI","","","img/flower4.png","74","795","1","0","2","1,0.5,0.5,0.5,1,0.5,0.5,0.5,1",""
"null","","html-keyboard-response","129","196920","0.0-129.0","3FPRZHYEPZTNOKHOKZAQCJD8X2M3V2","A7TI4X4LRGQA0","3UAU495MIIEABANG75FBFHDC9WUUOI","","","<img src=""img/flower4.png"" style=""width:200px;border:14px solid red;"">","null","","","","","",""
"956","","image-keyboard-response","130","197877","0.0-130.0","3FPRZHYEPZTNOKHOKZAQCJD8X2M3V2","A7TI4X4LRGQA0","3UAU495MIIEABANG75FBFHDC9WUUOI","","","img/flower2.png","75","957","2","0","1","1,0.5,0.5,0.5,1,0.5,0.5,0.5,1",""
"null","","html-keyboard-response","131","198190","0.0-131.0","3FPRZHYEPZTNOKHOKZAQCJD8X2M3V2","A7TI4X4LRGQA0","3UAU495MIIEABANG75FBFHDC9WUUOI","","","<img src=""img/flower2.png"" style=""width:200px;border:14px solid red;"">","null","","","","","",""
"672","","image-keyboard-response","132","198862","0.0-132.0","3FPRZHYEPZTNOKHOKZAQCJD8X2M3V2","A7TI4X4LRGQA0","3UAU495MIIEABANG75FBFHDC9WUUOI","","","img/flower6.png","76","673","3","1","3","1,0.5,0.5,0.5,1,0.5,0.5,0.5,1",""
"null","","html-keyboard-response","133","199169","0.0-133.0","3FPRZHYEPZTNOKHOKZAQCJD8X2M3V2","A7TI4X4LRGQA0","3UAU495MIIEABANG75FBFHDC9WUUOI","","","<img src=""img/flower6.png"" style=""width:200px; border:14px solid green;"">","null","","","","","",""
"989","","image-keyboard-response","134","200157","0.0-134.0","3FPRZHYEPZTNOKHOKZAQCJD8X2M3V2","A7TI4X4LRGQA0","3UAU495MIIEABANG75FBFHDC9WUUOI","","","img/flower4.png","74","989","1","0","2","1,0.5,0.5,0.5,1,0.5,0.5,0.5,1",""
"null","","html-keyboard-response","135","200462","0.0-135.0","3FPRZHYEPZTNOKHOKZAQCJD8X2M3V2","A7TI4X4LRGQA0","3UAU495MIIEABANG75FBFHDC9WUUOI","","","<img src=""img/flower4.png"" style=""width:200px;border:14px solid red;"">","null","","","","","",""
"6973","","image-keyboard-response","136","207435","0.0-136.0","3FPRZHYEPZTNOKHOKZAQCJD8X2M3V2","A7TI4X4LRGQA0","3UAU495MIIEABANG75FBFHDC9WUUOI","","","img/flower6.png","76","6973","3","1","3","1,0.5,0.5,0.5,1,0.5,0.5,0.5,1",""
"null","","html-keyboard-response","137","207750","0.0-137.0","3FPRZHYEPZTNOKHOKZAQCJD8X2M3V2","A7TI4X4LRGQA0","3UAU495MIIEABANG75FBFHDC9WUUOI","","","<img src=""img/flower6.png"" style=""width:200px; border:14px solid green;"">","null","","","","","",""
"769","","image-keyboard-response","138","208519","0.0-138.0","3FPRZHYEPZTNOKHOKZAQCJD8X2M3V2","A7TI4X4LRGQA0","3UAU495MIIEABANG75FBFHDC9WUUOI","","","img/flower2.png","75","769","2","0","1","1,0.5,0.5,0.5,1,0.5,0.5,0.5,1",""
"null","","html-keyboard-response","139","208832","0.0-139.0","3FPRZHYEPZTNOKHOKZAQCJD8X2M3V2","A7TI4X4LRGQA0","3UAU495MIIEABANG75FBFHDC9WUUOI","","","<img src=""img/flower2.png"" style=""width:200px;border:14px solid red;"">","null","","","","","",""
"662","","image-keyboard-response","140","209494","0.0-140.0","3FPRZHYEPZTNOKHOKZAQCJD8X2M3V2","A7TI4X4LRGQA0","3UAU495MIIEABANG75FBFHDC9WUUOI","","","img/flower6.png","76","662","3","1","3","1,0.5,0.5,0.5,1,0.5,0.5,0.5,1",""
"null","","html-keyboard-response","141","209795","0.0-141.0","3FPRZHYEPZTNOKHOKZAQCJD8X2M3V2","A7TI4X4LRGQA0","3UAU495MIIEABANG75FBFHDC9WUUOI","","","<img src=""img/flower6.png"" style=""width:200px; border:14px solid green;"">","null","","","","","",""
"505","","image-keyboard-response","142","210301","0.0-142.0","3FPRZHYEPZTNOKHOKZAQCJD8X2M3V2","A7TI4X4LRGQA0","3UAU495MIIEABANG75FBFHDC9WUUOI","","","img/flower4.png","74","505","1","0","2","1,0.5,0.5,0.5,1,0.5,0.5,0.5,1",""
"null","","html-keyboard-response","143","210608","0.0-143.0","3FPRZHYEPZTNOKHOKZAQCJD8X2M3V2","A7TI4X4LRGQA0","3UAU495MIIEABANG75FBFHDC9WUUOI","","","<img src=""img/flower4.png"" style=""width:200px;border:14px solid red;"">","null","","","","","",""
"1032","","image-keyboard-response","144","211640","0.0-144.0","3FPRZHYEPZTNOKHOKZAQCJD8X2M3V2","A7TI4X4LRGQA0","3UAU495MIIEABANG75FBFHDC9WUUOI","","","img/flower6.png","75","1032","2","0","3","1,0.5,0.5,0.5,1,0.5,0.5,0.5,1",""
"null","","html-keyboard-response","145","211952","0.0-145.0","3FPRZHYEPZTNOKHOKZAQCJD8X2M3V2","A7TI4X4LRGQA0","3UAU495MIIEABANG75FBFHDC9WUUOI","","","<img src=""img/flower6.png"" style=""width:200px;border:14px solid red;"">","null","","","","","",""
"977","","image-keyboard-response","146","212930","0.0-146.0","3FPRZHYEPZTNOKHOKZAQCJD8X2M3V2","A7TI4X4LRGQA0","3UAU495MIIEABANG75FBFHDC9WUUOI","","","img/flower4.png","75","977","2","1","2","1,0.5,0.5,0.5,1,0.5,0.5,0.5,1",""
"null","","html-keyboard-response","147","213255","0.0-147.0","3FPRZHYEPZTNOKHOKZAQCJD8X2M3V2","A7TI4X4LRGQA0","3UAU495MIIEABANG75FBFHDC9WUUOI","","","<img src=""img/flower4.png"" style=""width:200px; border:14px solid green;"">","null","","","","","",""
"501","","image-keyboard-response","148","213757","0.0-148.0","3FPRZHYEPZTNOKHOKZAQCJD8X2M3V2","A7TI4X4LRGQA0","3UAU495MIIEABANG75FBFHDC9WUUOI","","","img/flower4.png","75","502","2","1","2","1,0.5,0.5,0.5,1,0.5,0.5,0.5,1",""
"null","","html-keyboard-response","149","214065","0.0-149.0","3FPRZHYEPZTNOKHOKZAQCJD8X2M3V2","A7TI4X4LRGQA0","3UAU495MIIEABANG75FBFHDC9WUUOI","","","<img src=""img/flower4.png"" style=""width:200px; border:14px solid green;"">","null","","","","","",""
"346","","image-keyboard-response","150","214412","0.0-150.0","3FPRZHYEPZTNOKHOKZAQCJD8X2M3V2","A7TI4X4LRGQA0","3UAU495MIIEABANG75FBFHDC9WUUOI","","","img/flower4.png","75","347","2","1","2","1,0.5,0.5,0.5,1,0.5,0.5,0.5,1",""
"null","","html-keyboard-response","151","214719","0.0-151.0","3FPRZHYEPZTNOKHOKZAQCJD8X2M3V2","A7TI4X4LRGQA0","3UAU495MIIEABANG75FBFHDC9WUUOI","","","<img src=""img/flower4.png"" style=""width:200px; border:14px solid green;"">","null","","","","","",""
"389","","image-keyboard-response","152","215109","0.0-152.0","3FPRZHYEPZTNOKHOKZAQCJD8X2M3V2","A7TI4X4LRGQA0","3UAU495MIIEABANG75FBFHDC9WUUOI","","","img/flower4.png","75","389","2","1","2","1,0.5,0.5,0.5,1,0.5,0.5,0.5,1",""
"null","","html-keyboard-response","153","215424","0.0-153.0","3FPRZHYEPZTNOKHOKZAQCJD8X2M3V2","A7TI4X4LRGQA0","3UAU495MIIEABANG75FBFHDC9WUUOI","","","<img src=""img/flower4.png"" style=""width:200px; border:14px solid green;"">","null","","","","","",""
"1005","","image-keyboard-response","154","216430","0.0-154.0","3FPRZHYEPZTNOKHOKZAQCJD8X2M3V2","A7TI4X4LRGQA0","3UAU495MIIEABANG75FBFHDC9WUUOI","","","img/flower2.png","74","1006","1","1","1","1,0.5,0.5,0.5,1,0.5,0.5,0.5,1",""
"null","","html-keyboard-response","155","216732","0.0-155.0","3FPRZHYEPZTNOKHOKZAQCJD8X2M3V2","A7TI4X4LRGQA0","3UAU495MIIEABANG75FBFHDC9WUUOI","","","<img src=""img/flower2.png"" style=""width:200px; border:14px solid green;"">","null","","","","","",""
"759","","image-keyboard-response","156","217492","0.0-156.0","3FPRZHYEPZTNOKHOKZAQCJD8X2M3V2","A7TI4X4LRGQA0","3UAU495MIIEABANG75FBFHDC9WUUOI","","","img/flower6.png","76","760","3","1","3","1,0.5,0.5,0.5,1,0.5,0.5,0.5,1",""
"null","","html-keyboard-response","157","217792","0.0-157.0","3FPRZHYEPZTNOKHOKZAQCJD8X2M3V2","A7TI4X4LRGQA0","3UAU495MIIEABANG75FBFHDC9WUUOI","","","<img src=""img/flower6.png"" style=""width:200px; border:14px solid green;"">","null","","","","","",""
"548","","image-keyboard-response","158","218341","0.0-158.0","3FPRZHYEPZTNOKHOKZAQCJD8X2M3V2","A7TI4X4LRGQA0","3UAU495MIIEABANG75FBFHDC9WUUOI","","","img/flower2.png","74","548","1","1","1","1,0.5,0.5,0.5,1,0.5,0.5,0.5,1",""
"null","","html-keyboard-response","159","218642","0.0-159.0","3FPRZHYEPZTNOKHOKZAQCJD8X2M3V2","A7TI4X4LRGQA0","3UAU495MIIEABANG75FBFHDC9WUUOI","","","<img src=""img/flower2.png"" style=""width:200px; border:14px solid green;"">","null","","","","","",""
"515","","image-keyboard-response","160","219157","0.0-160.0","3FPRZHYEPZTNOKHOKZAQCJD8X2M3V2","A7TI4X4LRGQA0","3UAU495MIIEABANG75FBFHDC9WUUOI","","","img/flower4.png","75","516","2","1","2","1,0.5,0.5,0.5,1,0.5,0.5,0.5,1",""
"null","","html-keyboard-response","161","219470","0.0-161.0","3FPRZHYEPZTNOKHOKZAQCJD8X2M3V2","A7TI4X4LRGQA0","3UAU495MIIEABANG75FBFHDC9WUUOI","","","<img src=""img/flower4.png"" style=""width:200px; border:14px solid green;"">","null","","","","","",""
"515","","image-keyboard-response","162","219986","0.0-162.0","3FPRZHYEPZTNOKHOKZAQCJD8X2M3V2","A7TI4X4LRGQA0","3UAU495MIIEABANG75FBFHDC9WUUOI","","","img/flower2.png","74","515","1","1","1","1,0.5,0.5,0.5,1,0.5,0.5,0.5,1",""
"null","","html-keyboard-response","163","220291","0.0-163.0","3FPRZHYEPZTNOKHOKZAQCJD8X2M3V2","A7TI4X4LRGQA0","3UAU495MIIEABANG75FBFHDC9WUUOI","","","<img src=""img/flower2.png"" style=""width:200px; border:14px solid green;"">","null","","","","","",""
"412","","image-keyboard-response","164","220704","0.0-164.0","3FPRZHYEPZTNOKHOKZAQCJD8X2M3V2","A7TI4X4LRGQA0","3UAU495MIIEABANG75FBFHDC9WUUOI","","","img/flower2.png","74","412","1","1","1","1,0.5,0.5,0.5,1,0.5,0.5,0.5,1",""
"null","","html-keyboard-response","165","221010","0.0-165.0","3FPRZHYEPZTNOKHOKZAQCJD8X2M3V2","A7TI4X4LRGQA0","3UAU495MIIEABANG75FBFHDC9WUUOI","","","<img src=""img/flower2.png"" style=""width:200px; border:14px solid green;"">","null","","","","","",""
"366","","image-keyboard-response","166","221377","0.0-166.0","3FPRZHYEPZTNOKHOKZAQCJD8X2M3V2","A7TI4X4LRGQA0","3UAU495MIIEABANG75FBFHDC9WUUOI","","","img/flower2.png","74","366","1","1","1","1,0.5,0.5,0.5,1,0.5,0.5,0.5,1",""
"null","","html-keyboard-response","167","221720","0.0-167.0","3FPRZHYEPZTNOKHOKZAQCJD8X2M3V2","A7TI4X4LRGQA0","3UAU495MIIEABANG75FBFHDC9WUUOI","","","<img src=""img/flower2.png"" style=""width:200px; border:14px solid green;"">","null","","","","","",""
"694","","image-keyboard-response","168","222413","0.0-168.0","3FPRZHYEPZTNOKHOKZAQCJD8X2M3V2","A7TI4X4LRGQA0","3UAU495MIIEABANG75FBFHDC9WUUOI","","","img/flower6.png","76","694","3","1","3","1,0.5,0.5,0.5,1,0.5,0.5,0.5,1",""
"null","","html-keyboard-response","169","222722","0.0-169.0","3FPRZHYEPZTNOKHOKZAQCJD8X2M3V2","A7TI4X4LRGQA0","3UAU495MIIEABANG75FBFHDC9WUUOI","","","<img src=""img/flower6.png"" style=""width:200px; border:14px solid green;"">","null","","","","","",""
"651","","image-keyboard-response","170","223373","0.0-170.0","3FPRZHYEPZTNOKHOKZAQCJD8X2M3V2","A7TI4X4LRGQA0","3UAU495MIIEABANG75FBFHDC9WUUOI","","","img/flower4.png","74","651","1","0","2","1,0.5,0.5,0.5,1,0.5,0.5,0.5,1",""
"null","","html-keyboard-response","171","223686","0.0-171.0","3FPRZHYEPZTNOKHOKZAQCJD8X2M3V2","A7TI4X4LRGQA0","3UAU495MIIEABANG75FBFHDC9WUUOI","","","<img src=""img/flower4.png"" style=""width:200px;border:14px solid red;"">","null","","","","","",""
"889","","image-keyboard-response","172","224575","0.0-172.0","3FPRZHYEPZTNOKHOKZAQCJD8X2M3V2","A7TI4X4LRGQA0","3UAU495MIIEABANG75FBFHDC9WUUOI","","","img/flower2.png","74","889","1","1","1","1,0.5,0.5,0.5,1,0.5,0.5,0.5,1",""
"null","","html-keyboard-response","173","224883","0.0-173.0","3FPRZHYEPZTNOKHOKZAQCJD8X2M3V2","A7TI4X4LRGQA0","3UAU495MIIEABANG75FBFHDC9WUUOI","","","<img src=""img/flower2.png"" style=""width:200px; border:14px solid green;"">","null","","","","","",""
"370","","image-keyboard-response","174","225254","0.0-174.0","3FPRZHYEPZTNOKHOKZAQCJD8X2M3V2","A7TI4X4LRGQA0","3UAU495MIIEABANG75FBFHDC9WUUOI","","","img/flower4.png","75","370","2","1","2","1,0.5,0.5,0.5,1,0.5,0.5,0.5,1",""
"null","","html-keyboard-response","175","225561","0.0-175.0","3FPRZHYEPZTNOKHOKZAQCJD8X2M3V2","A7TI4X4LRGQA0","3UAU495MIIEABANG75FBFHDC9WUUOI","","","<img src=""img/flower4.png"" style=""width:200px; border:14px solid green;"">","null","","","","","",""
"527","","image-keyboard-response","176","226088","0.0-176.0","3FPRZHYEPZTNOKHOKZAQCJD8X2M3V2","A7TI4X4LRGQA0","3UAU495MIIEABANG75FBFHDC9WUUOI","","","img/flower2.png","74","528","1","1","1","1,0.5,0.5,0.5,1,0.5,0.5,0.5,1",""
"null","","html-keyboard-response","177","226398","0.0-177.0","3FPRZHYEPZTNOKHOKZAQCJD8X2M3V2","A7TI4X4LRGQA0","3UAU495MIIEABANG75FBFHDC9WUUOI","","","<img src=""img/flower2.png"" style=""width:200px; border:14px solid green;"">","null","","","","","",""
"568","","image-keyboard-response","178","226967","0.0-178.0","3FPRZHYEPZTNOKHOKZAQCJD8X2M3V2","A7TI4X4LRGQA0","3UAU495MIIEABANG75FBFHDC9WUUOI","","","img/flower6.png","76","568","3","1","3","1,0.5,0.5,0.5,1,0.5,0.5,0.5,1",""
"null","","html-keyboard-response","179","227280","0.0-179.0","3FPRZHYEPZTNOKHOKZAQCJD8X2M3V2","A7TI4X4LRGQA0","3UAU495MIIEABANG75FBFHDC9WUUOI","","","<img src=""img/flower6.png"" style=""width:200px; border:14px solid green;"">","null","","","","","",""
"476","","image-keyboard-response","180","227756","0.0-180.0","3FPRZHYEPZTNOKHOKZAQCJD8X2M3V2","A7TI4X4LRGQA0","3UAU495MIIEABANG75FBFHDC9WUUOI","","","img/flower4.png","75","477","2","1","2","1,0.5,0.5,0.5,1,0.5,0.5,0.5,1",""
"null","","html-keyboard-response","181","228061","0.0-181.0","3FPRZHYEPZTNOKHOKZAQCJD8X2M3V2","A7TI4X4LRGQA0","3UAU495MIIEABANG75FBFHDC9WUUOI","","","<img src=""img/flower4.png"" style=""width:200px; border:14px solid green;"">","null","","","","","",""
"703","","image-keyboard-response","182","228766","0.0-182.0","3FPRZHYEPZTNOKHOKZAQCJD8X2M3V2","A7TI4X4LRGQA0","3UAU495MIIEABANG75FBFHDC9WUUOI","","","img/flower6.png","76","703","3","1","3","1,0.5,0.5,0.5,1,0.5,0.5,0.5,1",""
"null","","html-keyboard-response","183","229067","0.0-183.0","3FPRZHYEPZTNOKHOKZAQCJD8X2M3V2","A7TI4X4LRGQA0","3UAU495MIIEABANG75FBFHDC9WUUOI","","","<img src=""img/flower6.png"" style=""width:200px; border:14px solid green;"">","null","","","","","",""
"741","","image-keyboard-response","184","229809","0.0-184.0","3FPRZHYEPZTNOKHOKZAQCJD8X2M3V2","A7TI4X4LRGQA0","3UAU495MIIEABANG75FBFHDC9WUUOI","","","img/flower2.png","74","741","1","1","1","1,0.5,0.5,0.5,1,0.5,0.5,0.5,1",""
"null","","html-keyboard-response","185","230110","0.0-185.0","3FPRZHYEPZTNOKHOKZAQCJD8X2M3V2","A7TI4X4LRGQA0","3UAU495MIIEABANG75FBFHDC9WUUOI","","","<img src=""img/flower2.png"" style=""width:200px; border:14px solid green;"">","null","","","","","",""
"367","","image-keyboard-response","186","230478","0.0-186.0","3FPRZHYEPZTNOKHOKZAQCJD8X2M3V2","A7TI4X4LRGQA0","3UAU495MIIEABANG75FBFHDC9WUUOI","","","img/flower2.png","74","368","1","1","1","1,0.5,0.5,0.5,1,0.5,0.5,0.5,1",""
"null","","html-keyboard-response","187","230783","0.0-187.0","3FPRZHYEPZTNOKHOKZAQCJD8X2M3V2","A7TI4X4LRGQA0","3UAU495MIIEABANG75FBFHDC9WUUOI","","","<img src=""img/flower2.png"" style=""width:200px; border:14px solid green;"">","null","","","","","",""
"719","","image-keyboard-response","188","231502","0.0-188.0","3FPRZHYEPZTNOKHOKZAQCJD8X2M3V2","A7TI4X4LRGQA0","3UAU495MIIEABANG75FBFHDC9WUUOI","","","img/flower6.png","76","719","3","1","3","1,0.5,0.5,0.5,1,0.5,0.5,0.5,1",""
"null","","html-keyboard-response","189","231810","0.0-189.0","3FPRZHYEPZTNOKHOKZAQCJD8X2M3V2","A7TI4X4LRGQA0","3UAU495MIIEABANG75FBFHDC9WUUOI","","","<img src=""img/flower6.png"" style=""width:200px; border:14px solid green;"">","null","","","","","",""
"772","","image-keyboard-response","190","232584","0.0-190.0","3FPRZHYEPZTNOKHOKZAQCJD8X2M3V2","A7TI4X4LRGQA0","3UAU495MIIEABANG75FBFHDC9WUUOI","","","img/flower2.png","74","772","1","1","1","1,0.5,0.5,0.5,1,0.5,0.5,0.5,1",""
"null","","html-keyboard-response","191","232885","0.0-191.0","3FPRZHYEPZTNOKHOKZAQCJD8X2M3V2","A7TI4X4LRGQA0","3UAU495MIIEABANG75FBFHDC9WUUOI","","","<img src=""img/flower2.png"" style=""width:200px; border:14px solid green;"">","null","","","","","",""
"337","","image-keyboard-response","192","233223","0.0-192.0","3FPRZHYEPZTNOKHOKZAQCJD8X2M3V2","A7TI4X4LRGQA0","3UAU495MIIEABANG75FBFHDC9WUUOI","","","img/flower2.png","74","337","1","1","1","1,0.5,0.5,0.5,1,0.5,0.5,0.5,1",""
"null","","html-keyboard-response","193","233530","0.0-193.0","3FPRZHYEPZTNOKHOKZAQCJD8X2M3V2","A7TI4X4LRGQA0","3UAU495MIIEABANG75FBFHDC9WUUOI","","","<img src=""img/flower2.png"" style=""width:200px; border:14px solid green;"">","null","","","","","",""
"661","","image-keyboard-response","194","234191","0.0-194.0","3FPRZHYEPZTNOKHOKZAQCJD8X2M3V2","A7TI4X4LRGQA0","3UAU495MIIEABANG75FBFHDC9WUUOI","","","img/flower6.png","76","661","3","1","3","1,0.5,0.5,0.5,1,0.5,0.5,0.5,1",""
"null","","html-keyboard-response","195","234507","0.0-195.0","3FPRZHYEPZTNOKHOKZAQCJD8X2M3V2","A7TI4X4LRGQA0","3UAU495MIIEABANG75FBFHDC9WUUOI","","","<img src=""img/flower6.png"" style=""width:200px; border:14px solid green;"">","null","","","","","",""
"538","","image-keyboard-response","196","235045","0.0-196.0","3FPRZHYEPZTNOKHOKZAQCJD8X2M3V2","A7TI4X4LRGQA0","3UAU495MIIEABANG75FBFHDC9WUUOI","","","img/flower2.png","74","538","1","1","1","1,0.5,0.5,0.5,1,0.5,0.5,0.5,1",""
"null","","html-keyboard-response","197","235347","0.0-197.0","3FPRZHYEPZTNOKHOKZAQCJD8X2M3V2","A7TI4X4LRGQA0","3UAU495MIIEABANG75FBFHDC9WUUOI","","","<img src=""img/flower2.png"" style=""width:200px; border:14px solid green;"">","null","","","","","",""
"391","","image-keyboard-response","198","235738","0.0-198.0","3FPRZHYEPZTNOKHOKZAQCJD8X2M3V2","A7TI4X4LRGQA0","3UAU495MIIEABANG75FBFHDC9WUUOI","","","img/flower2.png","74","391","1","1","1","1,0.5,0.5,0.5,1,0.5,0.5,0.5,1",""
"null","","html-keyboard-response","199","236044","0.0-199.0","3FPRZHYEPZTNOKHOKZAQCJD8X2M3V2","A7TI4X4LRGQA0","3UAU495MIIEABANG75FBFHDC9WUUOI","","","<img src=""img/flower2.png"" style=""width:200px; border:14px solid green;"">","null","","","","","",""
"480","","image-keyboard-response","200","236524","0.0-200.0","3FPRZHYEPZTNOKHOKZAQCJD8X2M3V2","A7TI4X4LRGQA0","3UAU495MIIEABANG75FBFHDC9WUUOI","","","img/flower2.png","74","480","1","1","1","1,0.5,0.5,0.5,1,0.5,0.5,0.5,1",""
"null","","html-keyboard-response","201","236837","0.0-201.0","3FPRZHYEPZTNOKHOKZAQCJD8X2M3V2","A7TI4X4LRGQA0","3UAU495MIIEABANG75FBFHDC9WUUOI","","","<img src=""img/flower2.png"" style=""width:200px; border:14px solid green;"">","null","","","","","",""
"645","","image-keyboard-response","202","237482","0.0-202.0","3FPRZHYEPZTNOKHOKZAQCJD8X2M3V2","A7TI4X4LRGQA0","3UAU495MIIEABANG75FBFHDC9WUUOI","","","img/flower6.png","76","645","3","1","3","1,0.5,0.5,0.5,1,0.5,0.5,0.5,1",""
"null","","html-keyboard-response","203","237786","0.0-203.0","3FPRZHYEPZTNOKHOKZAQCJD8X2M3V2","A7TI4X4LRGQA0","3UAU495MIIEABANG75FBFHDC9WUUOI","","","<img src=""img/flower6.png"" style=""width:200px; border:14px solid green;"">","null","","","","","",""
"1529","","image-keyboard-response","204","239315","0.0-204.0","3FPRZHYEPZTNOKHOKZAQCJD8X2M3V2","A7TI4X4LRGQA0","3UAU495MIIEABANG75FBFHDC9WUUOI","","","img/flower4.png","75","1529","2","1","2","1,0.5,0.5,0.5,1,0.5,0.5,0.5,1",""
"null","","html-keyboard-response","205","239629","0.0-205.0","3FPRZHYEPZTNOKHOKZAQCJD8X2M3V2","A7TI4X4LRGQA0","3UAU495MIIEABANG75FBFHDC9WUUOI","","","<img src=""img/flower4.png"" style=""width:200px; border:14px solid green;"">","null","","","","","",""
"565","","image-keyboard-response","206","240195","0.0-206.0","3FPRZHYEPZTNOKHOKZAQCJD8X2M3V2","A7TI4X4LRGQA0","3UAU495MIIEABANG75FBFHDC9WUUOI","","","img/flower4.png","75","565","2","1","2","1,0.5,0.5,0.5,1,0.5,0.5,0.5,1",""
"null","","html-keyboard-response","207","240497","0.0-207.0","3FPRZHYEPZTNOKHOKZAQCJD8X2M3V2","A7TI4X4LRGQA0","3UAU495MIIEABANG75FBFHDC9WUUOI","","","<img src=""img/flower4.png"" style=""width:200px; border:14px solid green;"">","null","","","","","",""
"598","","image-keyboard-response","208","241096","0.0-208.0","3FPRZHYEPZTNOKHOKZAQCJD8X2M3V2","A7TI4X4LRGQA0","3UAU495MIIEABANG75FBFHDC9WUUOI","","","img/flower6.png","76","599","3","1","3","1,0.5,0.5,0.5,1,0.5,0.5,0.5,1",""
"null","","html-keyboard-response","209","241404","0.0-209.0","3FPRZHYEPZTNOKHOKZAQCJD8X2M3V2","A7TI4X4LRGQA0","3UAU495MIIEABANG75FBFHDC9WUUOI","","","<img src=""img/flower6.png"" style=""width:200px; border:14px solid green;"">","null","","","","","",""
"358","","image-keyboard-response","210","241764","0.0-210.0","3FPRZHYEPZTNOKHOKZAQCJD8X2M3V2","A7TI4X4LRGQA0","3UAU495MIIEABANG75FBFHDC9WUUOI","","","img/flower6.png","76","359","3","1","3","1,0.5,0.5,0.5,1,0.5,0.5,0.5,1",""
"null","","html-keyboard-response","211","242078","0.0-211.0","3FPRZHYEPZTNOKHOKZAQCJD8X2M3V2","A7TI4X4LRGQA0","3UAU495MIIEABANG75FBFHDC9WUUOI","","","<img src=""img/flower6.png"" style=""width:200px; border:14px solid green;"">","null","","","","","",""
"532","","image-keyboard-response","212","242610","0.0-212.0","3FPRZHYEPZTNOKHOKZAQCJD8X2M3V2","A7TI4X4LRGQA0","3UAU495MIIEABANG75FBFHDC9WUUOI","","","img/flower2.png","74","532","1","1","1","1,0.5,0.5,0.5,1,0.5,0.5,0.5,1",""
"null","","html-keyboard-response","213","242914","0.0-213.0","3FPRZHYEPZTNOKHOKZAQCJD8X2M3V2","A7TI4X4LRGQA0","3UAU495MIIEABANG75FBFHDC9WUUOI","","","<img src=""img/flower2.png"" style=""width:200px; border:14px solid green;"">","null","","","","","",""
"639","","image-keyboard-response","214","243554","0.0-214.0","3FPRZHYEPZTNOKHOKZAQCJD8X2M3V2","A7TI4X4LRGQA0","3UAU495MIIEABANG75FBFHDC9WUUOI","","","img/flower6.png","76","639","3","1","3","1,0.5,0.5,0.5,1,0.5,0.5,0.5,1",""
"null","","html-keyboard-response","215","243857","0.0-215.0","3FPRZHYEPZTNOKHOKZAQCJD8X2M3V2","A7TI4X4LRGQA0","3UAU495MIIEABANG75FBFHDC9WUUOI","","","<img src=""img/flower6.png"" style=""width:200px; border:14px solid green;"">","null","","","","","",""
"625","","image-keyboard-response","216","244484","0.0-216.0","3FPRZHYEPZTNOKHOKZAQCJD8X2M3V2","A7TI4X4LRGQA0","3UAU495MIIEABANG75FBFHDC9WUUOI","","","img/flower2.png","74","626","1","1","1","1,0.5,0.5,0.5,1,0.5,0.5,0.5,1",""
"null","","html-keyboard-response","217","244788","0.0-217.0","3FPRZHYEPZTNOKHOKZAQCJD8X2M3V2","A7TI4X4LRGQA0","3UAU495MIIEABANG75FBFHDC9WUUOI","","","<img src=""img/flower2.png"" style=""width:200px; border:14px solid green;"">","null","","","","","",""
"437","","image-keyboard-response","218","245227","0.0-218.0","3FPRZHYEPZTNOKHOKZAQCJD8X2M3V2","A7TI4X4LRGQA0","3UAU495MIIEABANG75FBFHDC9WUUOI","","","img/flower2.png","74","438","1","1","1","1,0.5,0.5,0.5,1,0.5,0.5,0.5,1",""
"null","","html-keyboard-response","219","245530","0.0-219.0","3FPRZHYEPZTNOKHOKZAQCJD8X2M3V2","A7TI4X4LRGQA0","3UAU495MIIEABANG75FBFHDC9WUUOI","","","<img src=""img/flower2.png"" style=""width:200px; border:14px solid green;"">","null","","","","","",""
"380","","image-keyboard-response","220","245910","0.0-220.0","3FPRZHYEPZTNOKHOKZAQCJD8X2M3V2","A7TI4X4LRGQA0","3UAU495MIIEABANG75FBFHDC9WUUOI","","","img/flower2.png","74","380","1","1","1","1,0.5,0.5,0.5,1,0.5,0.5,0.5,1",""
"null","","html-keyboard-response","221","246213","0.0-221.0","3FPRZHYEPZTNOKHOKZAQCJD8X2M3V2","A7TI4X4LRGQA0","3UAU495MIIEABANG75FBFHDC9WUUOI","","","<img src=""img/flower2.png"" style=""width:200px; border:14px solid green;"">","null","","","","","",""
"642","","image-keyboard-response","222","246856","0.0-222.0","3FPRZHYEPZTNOKHOKZAQCJD8X2M3V2","A7TI4X4LRGQA0","3UAU495MIIEABANG75FBFHDC9WUUOI","","","img/flower4.png","75","643","2","1","2","1,0.5,0.5,0.5,1,0.5,0.5,0.5,1",""
"null","","html-keyboard-response","223","247166","0.0-223.0","3FPRZHYEPZTNOKHOKZAQCJD8X2M3V2","A7TI4X4LRGQA0","3UAU495MIIEABANG75FBFHDC9WUUOI","","","<img src=""img/flower4.png"" style=""width:200px; border:14px solid green;"">","null","","","","","",""
"545","","image-keyboard-response","224","247712","0.0-224.0","3FPRZHYEPZTNOKHOKZAQCJD8X2M3V2","A7TI4X4LRGQA0","3UAU495MIIEABANG75FBFHDC9WUUOI","","","img/flower6.png","76","546","3","1","3","1,0.5,0.5,0.5,1,0.5,0.5,0.5,1",""
"null","","html-keyboard-response","225","248017","0.0-225.0","3FPRZHYEPZTNOKHOKZAQCJD8X2M3V2","A7TI4X4LRGQA0","3UAU495MIIEABANG75FBFHDC9WUUOI","","","<img src=""img/flower6.png"" style=""width:200px; border:14px solid green;"">","null","","","","","",""
"876","","image-keyboard-response","226","248894","0.0-226.0","3FPRZHYEPZTNOKHOKZAQCJD8X2M3V2","A7TI4X4LRGQA0","3UAU495MIIEABANG75FBFHDC9WUUOI","","","img/flower4.png","75","876","2","1","2","1,0.5,0.5,0.5,1,0.5,0.5,0.5,1",""
"null","","html-keyboard-response","227","249200","0.0-227.0","3FPRZHYEPZTNOKHOKZAQCJD8X2M3V2","A7TI4X4LRGQA0","3UAU495MIIEABANG75FBFHDC9WUUOI","","","<img src=""img/flower4.png"" style=""width:200px; border:14px solid green;"">","null","","","","","",""
"618","","image-keyboard-response","228","249819","0.0-228.0","3FPRZHYEPZTNOKHOKZAQCJD8X2M3V2","A7TI4X4LRGQA0","3UAU495MIIEABANG75FBFHDC9WUUOI","","","img/flower6.png","76","618","3","1","3","1,0.5,0.5,0.5,1,0.5,0.5,0.5,1",""
"null","","html-keyboard-response","229","250132","0.0-229.0","3FPRZHYEPZTNOKHOKZAQCJD8X2M3V2","A7TI4X4LRGQA0","3UAU495MIIEABANG75FBFHDC9WUUOI","","","<img src=""img/flower6.png"" style=""width:200px; border:14px solid green;"">","null","","","","","",""
"845","","image-keyboard-response","230","250978","0.0-230.0","3FPRZHYEPZTNOKHOKZAQCJD8X2M3V2","A7TI4X4LRGQA0","3UAU495MIIEABANG75FBFHDC9WUUOI","","","img/flower4.png","74","846","1","1","2","1,0.5,0.5,0.5,1,0.5,0.5,0.5,1",""
"null","","html-keyboard-response","231","251281","0.0-231.0","3FPRZHYEPZTNOKHOKZAQCJD8X2M3V2","A7TI4X4LRGQA0","3UAU495MIIEABANG75FBFHDC9WUUOI","","","<img src=""img/flower4.png"" style=""width:200px; border:14px solid green;"">","null","","","","","",""
"1702","","image-keyboard-response","232","252983","0.0-232.0","3FPRZHYEPZTNOKHOKZAQCJD8X2M3V2","A7TI4X4LRGQA0","3UAU495MIIEABANG75FBFHDC9WUUOI","","","img/flower2.png","74","1702","1","1","1","1,0.5,0.5,0.5,1,0.5,0.5,0.5,1",""
"null","","html-keyboard-response","233","253291","0.0-233.0","3FPRZHYEPZTNOKHOKZAQCJD8X2M3V2","A7TI4X4LRGQA0","3UAU495MIIEABANG75FBFHDC9WUUOI","","","<img src=""img/flower2.png"" style=""width:200px; border:14px solid green;"">","null","","","","","",""
"332","","image-keyboard-response","234","253624","0.0-234.0","3FPRZHYEPZTNOKHOKZAQCJD8X2M3V2","A7TI4X4LRGQA0","3UAU495MIIEABANG75FBFHDC9WUUOI","","","img/flower2.png","74","332","1","1","1","1,0.5,0.5,0.5,1,0.5,0.5,0.5,1",""
"null","","html-keyboard-response","235","253934","0.0-235.0","3FPRZHYEPZTNOKHOKZAQCJD8X2M3V2","A7TI4X4LRGQA0","3UAU495MIIEABANG75FBFHDC9WUUOI","","","<img src=""img/flower2.png"" style=""width:200px; border:14px solid green;"">","null","","","","","",""
"567","","image-keyboard-response","236","254501","0.0-236.0","3FPRZHYEPZTNOKHOKZAQCJD8X2M3V2","A7TI4X4LRGQA0","3UAU495MIIEABANG75FBFHDC9WUUOI","","","img/flower6.png","76","567","3","1","3","1,0.5,0.5,0.5,1,0.5,0.5,0.5,1",""
"null","","html-keyboard-response","237","254813","0.0-237.0","3FPRZHYEPZTNOKHOKZAQCJD8X2M3V2","A7TI4X4LRGQA0","3UAU495MIIEABANG75FBFHDC9WUUOI","","","<img src=""img/flower6.png"" style=""width:200px; border:14px solid green;"">","null","","","","","",""
"511","","image-keyboard-response","238","255324","0.0-238.0","3FPRZHYEPZTNOKHOKZAQCJD8X2M3V2","A7TI4X4LRGQA0","3UAU495MIIEABANG75FBFHDC9WUUOI","","","img/flower4.png","75","512","2","1","2","1,0.5,0.5,0.5,1,0.5,0.5,0.5,1",""
"null","","html-keyboard-response","239","255637","0.0-239.0","3FPRZHYEPZTNOKHOKZAQCJD8X2M3V2","A7TI4X4LRGQA0","3UAU495MIIEABANG75FBFHDC9WUUOI","","","<img src=""img/flower4.png"" style=""width:200px; border:14px solid green;"">","null","","","","","",""
"456","","image-keyboard-response","240","256093","0.0-240.0","3FPRZHYEPZTNOKHOKZAQCJD8X2M3V2","A7TI4X4LRGQA0","3UAU495MIIEABANG75FBFHDC9WUUOI","","","img/flower2.png","74","457","1","1","1","1,0.5,0.5,0.5,1,0.5,0.5,0.5,1",""
"null","","html-keyboard-response","241","256400","0.0-241.0","3FPRZHYEPZTNOKHOKZAQCJD8X2M3V2","A7TI4X4LRGQA0","3UAU495MIIEABANG75FBFHDC9WUUOI","","","<img src=""img/flower2.png"" style=""width:200px; border:14px solid green;"">","null","","","","","",""
"678","","image-keyboard-response","242","257078","0.0-242.0","3FPRZHYEPZTNOKHOKZAQCJD8X2M3V2","A7TI4X4LRGQA0","3UAU495MIIEABANG75FBFHDC9WUUOI","","","img/flower6.png","76","678","3","1","3","1,0.5,0.5,0.5,1,0.5,0.5,0.5,1",""
"null","","html-keyboard-response","243","257393","0.0-243.0","3FPRZHYEPZTNOKHOKZAQCJD8X2M3V2","A7TI4X4LRGQA0","3UAU495MIIEABANG75FBFHDC9WUUOI","","","<img src=""img/flower6.png"" style=""width:200px; border:14px solid green;"">","null","","","","","",""
"391","","image-keyboard-response","244","257786","0.0-244.0","3FPRZHYEPZTNOKHOKZAQCJD8X2M3V2","A7TI4X4LRGQA0","3UAU495MIIEABANG75FBFHDC9WUUOI","","","img/flower6.png","76","391","3","1","3","1,0.5,0.5,0.5,1,0.5,0.5,0.5,1",""
"null","","html-keyboard-response","245","258088","0.0-245.0","3FPRZHYEPZTNOKHOKZAQCJD8X2M3V2","A7TI4X4LRGQA0","3UAU495MIIEABANG75FBFHDC9WUUOI","","","<img src=""img/flower6.png"" style=""width:200px; border:14px solid green;"">","null","","","","","",""
"803","","image-keyboard-response","246","258892","0.0-246.0","3FPRZHYEPZTNOKHOKZAQCJD8X2M3V2","A7TI4X4LRGQA0","3UAU495MIIEABANG75FBFHDC9WUUOI","","","img/flower2.png","74","804","1","1","1","1,0.5,0.5,0.5,1,0.5,0.5,0.5,1",""
"null","","html-keyboard-response","247","259202","0.0-247.0","3FPRZHYEPZTNOKHOKZAQCJD8X2M3V2","A7TI4X4LRGQA0","3UAU495MIIEABANG75FBFHDC9WUUOI","","","<img src=""img/flower2.png"" style=""width:200px; border:14px solid green;"">","null","","","","","",""
"696","","image-keyboard-response","248","259899","0.0-248.0","3FPRZHYEPZTNOKHOKZAQCJD8X2M3V2","A7TI4X4LRGQA0","3UAU495MIIEABANG75FBFHDC9WUUOI","","","img/flower6.png","76","696","3","1","3","1,0.5,0.5,0.5,1,0.5,0.5,0.5,1",""
"null","","html-keyboard-response","249","260214","0.0-249.0","3FPRZHYEPZTNOKHOKZAQCJD8X2M3V2","A7TI4X4LRGQA0","3UAU495MIIEABANG75FBFHDC9WUUOI","","","<img src=""img/flower6.png"" style=""width:200px; border:14px solid green;"">","null","","","","","",""
"585","","image-keyboard-response","250","260798","0.0-250.0","3FPRZHYEPZTNOKHOKZAQCJD8X2M3V2","A7TI4X4LRGQA0","3UAU495MIIEABANG75FBFHDC9WUUOI","","","img/flower4.png","75","585","2","1","2","1,0.5,0.5,0.5,1,0.5,0.5,0.5,1",""
"null","","html-keyboard-response","251","261108","0.0-251.0","3FPRZHYEPZTNOKHOKZAQCJD8X2M3V2","A7TI4X4LRGQA0","3UAU495MIIEABANG75FBFHDC9WUUOI","","","<img src=""img/flower4.png"" style=""width:200px; border:14px solid green;"">","null","","","","","",""
"545","","image-keyboard-response","252","261654","0.0-252.0","3FPRZHYEPZTNOKHOKZAQCJD8X2M3V2","A7TI4X4LRGQA0","3UAU495MIIEABANG75FBFHDC9WUUOI","","","img/flower2.png","74","545","1","1","1","1,0.5,0.5,0.5,1,0.5,0.5,0.5,1",""
"null","","html-keyboard-response","253","261963","0.0-253.0","3FPRZHYEPZTNOKHOKZAQCJD8X2M3V2","A7TI4X4LRGQA0","3UAU495MIIEABANG75FBFHDC9WUUOI","","","<img src=""img/flower2.png"" style=""width:200px; border:14px solid green;"">","null","","","","","",""
"310","","image-keyboard-response","254","262274","0.0-254.0","3FPRZHYEPZTNOKHOKZAQCJD8X2M3V2","A7TI4X4LRGQA0","3UAU495MIIEABANG75FBFHDC9WUUOI","","","img/flower2.png","74","312","1","1","1","1,0.5,0.5,0.5,1,0.5,0.5,0.5,1",""
"null","","html-keyboard-response","255","262585","0.0-255.0","3FPRZHYEPZTNOKHOKZAQCJD8X2M3V2","A7TI4X4LRGQA0","3UAU495MIIEABANG75FBFHDC9WUUOI","","","<img src=""img/flower2.png"" style=""width:200px; border:14px solid green;"">","null","","","","","",""
"672","","image-keyboard-response","256","263258","0.0-256.0","3FPRZHYEPZTNOKHOKZAQCJD8X2M3V2","A7TI4X4LRGQA0","3UAU495MIIEABANG75FBFHDC9WUUOI","","","img/flower6.png","76","673","3","1","3","1,0.5,0.5,0.5,1,0.5,0.5,0.5,1",""
"null","","html-keyboard-response","257","263567","0.0-257.0","3FPRZHYEPZTNOKHOKZAQCJD8X2M3V2","A7TI4X4LRGQA0","3UAU495MIIEABANG75FBFHDC9WUUOI","","","<img src=""img/flower6.png"" style=""width:200px; border:14px solid green;"">","null","","","","","",""
"352","","image-keyboard-response","258","263920","0.0-258.0","3FPRZHYEPZTNOKHOKZAQCJD8X2M3V2","A7TI4X4LRGQA0","3UAU495MIIEABANG75FBFHDC9WUUOI","","","img/flower6.png","76","353","3","1","3","1,0.5,0.5,0.5,1,0.5,0.5,0.5,1",""
"null","","html-keyboard-response","259","264221","0.0-259.0","3FPRZHYEPZTNOKHOKZAQCJD8X2M3V2","A7TI4X4LRGQA0","3UAU495MIIEABANG75FBFHDC9WUUOI","","","<img src=""img/flower6.png"" style=""width:200px; border:14px solid green;"">","null","","","","","",""
"844","","image-keyboard-response","260","265066","0.0-260.0","3FPRZHYEPZTNOKHOKZAQCJD8X2M3V2","A7TI4X4LRGQA0","3UAU495MIIEABANG75FBFHDC9WUUOI","","","img/flower2.png","74","844","1","1","1","1,0.5,0.5,0.5,1,0.5,0.5,0.5,1",""
"null","","html-keyboard-response","261","265370","0.0-261.0","3FPRZHYEPZTNOKHOKZAQCJD8X2M3V2","A7TI4X4LRGQA0","3UAU495MIIEABANG75FBFHDC9WUUOI","","","<img src=""img/flower2.png"" style=""width:200px; border:14px solid green;"">","null","","","","","",""
"696","","image-keyboard-response","262","266065","0.0-262.0","3FPRZHYEPZTNOKHOKZAQCJD8X2M3V2","A7TI4X4LRGQA0","3UAU495MIIEABANG75FBFHDC9WUUOI","","","img/flower4.png","75","696","2","1","2","1,0.5,0.5,0.5,1,0.5,0.5,0.5,1",""
"null","","html-keyboard-response","263","266370","0.0-263.0","3FPRZHYEPZTNOKHOKZAQCJD8X2M3V2","A7TI4X4LRGQA0","3UAU495MIIEABANG75FBFHDC9WUUOI","","","<img src=""img/flower4.png"" style=""width:200px; border:14px solid green;"">","null","","","","","",""
"576","","image-keyboard-response","264","266946","0.0-264.0","3FPRZHYEPZTNOKHOKZAQCJD8X2M3V2","A7TI4X4LRGQA0","3UAU495MIIEABANG75FBFHDC9WUUOI","","","img/flower2.png","74","577","1","1","1","1,0.5,0.5,0.5,1,0.5,0.5,0.5,1",""
"null","","html-keyboard-response","265","267258","0.0-265.0","3FPRZHYEPZTNOKHOKZAQCJD8X2M3V2","A7TI4X4LRGQA0","3UAU495MIIEABANG75FBFHDC9WUUOI","","","<img src=""img/flower2.png"" style=""width:200px; border:14px solid green;"">","null","","","","","",""
"552","","image-keyboard-response","266","267810","0.0-266.0","3FPRZHYEPZTNOKHOKZAQCJD8X2M3V2","A7TI4X4LRGQA0","3UAU495MIIEABANG75FBFHDC9WUUOI","","","img/flower6.png","76","552","3","1","3","1,0.5,0.5,0.5,1,0.5,0.5,0.5,1",""
"null","","html-keyboard-response","267","268116","0.0-267.0","3FPRZHYEPZTNOKHOKZAQCJD8X2M3V2","A7TI4X4LRGQA0","3UAU495MIIEABANG75FBFHDC9WUUOI","","","<img src=""img/flower6.png"" style=""width:200px; border:14px solid green;"">","null","","","","","",""
"611","","image-keyboard-response","268","268727","0.0-268.0","3FPRZHYEPZTNOKHOKZAQCJD8X2M3V2","A7TI4X4LRGQA0","3UAU495MIIEABANG75FBFHDC9WUUOI","","","img/flower2.png","74","612","1","1","1","1,0.5,0.5,0.5,1,0.5,0.5,0.5,1",""
"null","","html-keyboard-response","269","269030","0.0-269.0","3FPRZHYEPZTNOKHOKZAQCJD8X2M3V2","A7TI4X4LRGQA0","3UAU495MIIEABANG75FBFHDC9WUUOI","","","<img src=""img/flower2.png"" style=""width:200px; border:14px solid green;"">","null","","","","","",""
"454","","image-keyboard-response","270","269482","0.0-270.0","3FPRZHYEPZTNOKHOKZAQCJD8X2M3V2","A7TI4X4LRGQA0","3UAU495MIIEABANG75FBFHDC9WUUOI","","","img/flower4.png","75","454","2","1","2","1,0.5,0.5,0.5,1,0.5,0.5,0.5,1",""
"null","","html-keyboard-response","271","269798","0.0-271.0","3FPRZHYEPZTNOKHOKZAQCJD8X2M3V2","A7TI4X4LRGQA0","3UAU495MIIEABANG75FBFHDC9WUUOI","","","<img src=""img/flower4.png"" style=""width:200px; border:14px solid green;"">","null","","","","","",""
"553","","image-keyboard-response","272","270350","0.0-272.0","3FPRZHYEPZTNOKHOKZAQCJD8X2M3V2","A7TI4X4LRGQA0","3UAU495MIIEABANG75FBFHDC9WUUOI","","","img/flower6.png","76","553","3","1","3","1,0.5,0.5,0.5,1,0.5,0.5,0.5,1",""
"null","","html-keyboard-response","273","270657","0.0-273.0","3FPRZHYEPZTNOKHOKZAQCJD8X2M3V2","A7TI4X4LRGQA0","3UAU495MIIEABANG75FBFHDC9WUUOI","","","<img src=""img/flower6.png"" style=""width:200px; border:14px solid green;"">","null","","","","","",""
"490","","image-keyboard-response","274","271149","0.0-274.0","3FPRZHYEPZTNOKHOKZAQCJD8X2M3V2","A7TI4X4LRGQA0","3UAU495MIIEABANG75FBFHDC9WUUOI","","","img/flower4.png","75","490","2","1","2","1,0.5,0.5,0.5,1,0.5,0.5,0.5,1",""
"null","","html-keyboard-response","275","271463","0.0-275.0","3FPRZHYEPZTNOKHOKZAQCJD8X2M3V2","A7TI4X4LRGQA0","3UAU495MIIEABANG75FBFHDC9WUUOI","","","<img src=""img/flower4.png"" style=""width:200px; border:14px solid green;"">","null","","","","","",""
"590","","image-keyboard-response","276","272054","0.0-276.0","3FPRZHYEPZTNOKHOKZAQCJD8X2M3V2","A7TI4X4LRGQA0","3UAU495MIIEABANG75FBFHDC9WUUOI","","","img/flower6.png","76","590","3","1","3","1,0.5,0.5,0.5,1,0.5,0.5,0.5,1",""
"null","","html-keyboard-response","277","272369","0.0-277.0","3FPRZHYEPZTNOKHOKZAQCJD8X2M3V2","A7TI4X4LRGQA0","3UAU495MIIEABANG75FBFHDC9WUUOI","","","<img src=""img/flower6.png"" style=""width:200px; border:14px solid green;"">","null","","","","","",""
"435","","image-keyboard-response","278","272804","0.0-278.0","3FPRZHYEPZTNOKHOKZAQCJD8X2M3V2","A7TI4X4LRGQA0","3UAU495MIIEABANG75FBFHDC9WUUOI","","","img/flower4.png","75","435","2","1","2","1,0.5,0.5,0.5,1,0.5,0.5,0.5,1",""
"null","","html-keyboard-response","279","273109","0.0-279.0","3FPRZHYEPZTNOKHOKZAQCJD8X2M3V2","A7TI4X4LRGQA0","3UAU495MIIEABANG75FBFHDC9WUUOI","","","<img src=""img/flower4.png"" style=""width:200px; border:14px solid green;"">","null","","","","","",""
"425","","image-keyboard-response","280","273535","0.0-280.0","3FPRZHYEPZTNOKHOKZAQCJD8X2M3V2","A7TI4X4LRGQA0","3UAU495MIIEABANG75FBFHDC9WUUOI","","","img/flower4.png","75","426","2","1","2","1,0.5,0.5,0.5,1,0.5,0.5,0.5,1",""
"null","","html-keyboard-response","281","273841","0.0-281.0","3FPRZHYEPZTNOKHOKZAQCJD8X2M3V2","A7TI4X4LRGQA0","3UAU495MIIEABANG75FBFHDC9WUUOI","","","<img src=""img/flower4.png"" style=""width:200px; border:14px solid green;"">","null","","","","","",""
"528","","image-keyboard-response","282","274371","0.0-282.0","3FPRZHYEPZTNOKHOKZAQCJD8X2M3V2","A7TI4X4LRGQA0","3UAU495MIIEABANG75FBFHDC9WUUOI","","","img/flower6.png","76","529","3","1","3","1,0.5,0.5,0.5,1,0.5,0.5,0.5,1",""
"null","","html-keyboard-response","283","274680","0.0-283.0","3FPRZHYEPZTNOKHOKZAQCJD8X2M3V2","A7TI4X4LRGQA0","3UAU495MIIEABANG75FBFHDC9WUUOI","","","<img src=""img/flower6.png"" style=""width:200px; border:14px solid green;"">","null","","","","","",""
"691","","image-keyboard-response","284","275372","0.0-284.0","3FPRZHYEPZTNOKHOKZAQCJD8X2M3V2","A7TI4X4LRGQA0","3UAU495MIIEABANG75FBFHDC9WUUOI","","","img/flower4.png","75","691","2","1","2","1,0.5,0.5,0.5,1,0.5,0.5,0.5,1",""
"null","","html-keyboard-response","285","275678","0.0-285.0","3FPRZHYEPZTNOKHOKZAQCJD8X2M3V2","A7TI4X4LRGQA0","3UAU495MIIEABANG75FBFHDC9WUUOI","","","<img src=""img/flower4.png"" style=""width:200px; border:14px solid green;"">","null","","","","","",""
"545","","image-keyboard-response","286","276223","0.0-286.0","3FPRZHYEPZTNOKHOKZAQCJD8X2M3V2","A7TI4X4LRGQA0","3UAU495MIIEABANG75FBFHDC9WUUOI","","","img/flower6.png","76","546","3","1","3","1,0.5,0.5,0.5,1,0.5,0.5,0.5,1",""
"null","","html-keyboard-response","287","276526","0.0-287.0","3FPRZHYEPZTNOKHOKZAQCJD8X2M3V2","A7TI4X4LRGQA0","3UAU495MIIEABANG75FBFHDC9WUUOI","","","<img src=""img/flower6.png"" style=""width:200px; border:14px solid green;"">","null","","","","","",""
"471","","image-keyboard-response","288","276998","0.0-288.0","3FPRZHYEPZTNOKHOKZAQCJD8X2M3V2","A7TI4X4LRGQA0","3UAU495MIIEABANG75FBFHDC9WUUOI","","","img/flower4.png","75","471","2","1","2","1,0.5,0.5,0.5,1,0.5,0.5,0.5,1",""
"null","","html-keyboard-response","289","277312","0.0-289.0","3FPRZHYEPZTNOKHOKZAQCJD8X2M3V2","A7TI4X4LRGQA0","3UAU495MIIEABANG75FBFHDC9WUUOI","","","<img src=""img/flower4.png"" style=""width:200px; border:14px solid green;"">","null","","","","","",""
"326","","image-keyboard-response","290","277639","0.0-290.0","3FPRZHYEPZTNOKHOKZAQCJD8X2M3V2","A7TI4X4LRGQA0","3UAU495MIIEABANG75FBFHDC9WUUOI","","","img/flower4.png","75","326","2","1","2","1,0.5,0.5,0.5,1,0.5,0.5,0.5,1",""
"null","","html-keyboard-response","291","277944","0.0-291.0","3FPRZHYEPZTNOKHOKZAQCJD8X2M3V2","A7TI4X4LRGQA0","3UAU495MIIEABANG75FBFHDC9WUUOI","","","<img src=""img/flower4.png"" style=""width:200px; border:14px solid green;"">","null","","","","","",""
"373","","image-keyboard-response","292","278319","0.0-292.0","3FPRZHYEPZTNOKHOKZAQCJD8X2M3V2","A7TI4X4LRGQA0","3UAU495MIIEABANG75FBFHDC9WUUOI","","","img/flower4.png","75","374","2","1","2","1,0.5,0.5,0.5,1,0.5,0.5,0.5,1",""
"null","","html-keyboard-response","293","278627","0.0-293.0","3FPRZHYEPZTNOKHOKZAQCJD8X2M3V2","A7TI4X4LRGQA0","3UAU495MIIEABANG75FBFHDC9WUUOI","","","<img src=""img/flower4.png"" style=""width:200px; border:14px solid green;"">","null","","","","","",""
"371","","image-keyboard-response","294","278998","0.0-294.0","3FPRZHYEPZTNOKHOKZAQCJD8X2M3V2","A7TI4X4LRGQA0","3UAU495MIIEABANG75FBFHDC9WUUOI","","","img/flower4.png","75","371","2","1","2","1,0.5,0.5,0.5,1,0.5,0.5,0.5,1",""
"null","","html-keyboard-response","295","279304","0.0-295.0","3FPRZHYEPZTNOKHOKZAQCJD8X2M3V2","A7TI4X4LRGQA0","3UAU495MIIEABANG75FBFHDC9WUUOI","","","<img src=""img/flower4.png"" style=""width:200px; border:14px solid green;"">","null","","","","","",""
"498","","image-keyboard-response","296","279802","0.0-296.0","3FPRZHYEPZTNOKHOKZAQCJD8X2M3V2","A7TI4X4LRGQA0","3UAU495MIIEABANG75FBFHDC9WUUOI","","","img/flower2.png","74","498","1","1","1","1,0.5,0.5,0.5,1,0.5,0.5,0.5,1",""
"null","","html-keyboard-response","297","280115","0.0-297.0","3FPRZHYEPZTNOKHOKZAQCJD8X2M3V2","A7TI4X4LRGQA0","3UAU495MIIEABANG75FBFHDC9WUUOI","","","<img src=""img/flower2.png"" style=""width:200px; border:14px solid green;"">","null","","","","","",""
"538","","image-keyboard-response","298","280654","0.0-298.0","3FPRZHYEPZTNOKHOKZAQCJD8X2M3V2","A7TI4X4LRGQA0","3UAU495MIIEABANG75FBFHDC9WUUOI","","","img/flower4.png","75","538","2","1","2","1,0.5,0.5,0.5,1,0.5,0.5,0.5,1",""
"null","","html-keyboard-response","299","280955","0.0-299.0","3FPRZHYEPZTNOKHOKZAQCJD8X2M3V2","A7TI4X4LRGQA0","3UAU495MIIEABANG75FBFHDC9WUUOI","","","<img src=""img/flower4.png"" style=""width:200px; border:14px solid green;"">","null","","","","","",""
"416","","image-keyboard-response","300","281372","0.0-300.0","3FPRZHYEPZTNOKHOKZAQCJD8X2M3V2","A7TI4X4LRGQA0","3UAU495MIIEABANG75FBFHDC9WUUOI","","","img/flower4.png","75","416","2","1","2","1,0.5,0.5,0.5,1,0.5,0.5,0.5,1",""
"null","","html-keyboard-response","301","281679","0.0-301.0","3FPRZHYEPZTNOKHOKZAQCJD8X2M3V2","A7TI4X4LRGQA0","3UAU495MIIEABANG75FBFHDC9WUUOI","","","<img src=""img/flower4.png"" style=""width:200px; border:14px solid green;"">","null","","","","","",""
"623","","image-keyboard-response","302","282302","0.0-302.0","3FPRZHYEPZTNOKHOKZAQCJD8X2M3V2","A7TI4X4LRGQA0","3UAU495MIIEABANG75FBFHDC9WUUOI","","","img/flower6.png","76","623","3","1","3","1,0.5,0.5,0.5,1,0.5,0.5,0.5,1",""
"null","","html-keyboard-response","303","282612","0.0-303.0","3FPRZHYEPZTNOKHOKZAQCJD8X2M3V2","A7TI4X4LRGQA0","3UAU495MIIEABANG75FBFHDC9WUUOI","","","<img src=""img/flower6.png"" style=""width:200px; border:14px solid green;"">","null","","","","","",""
"510","","image-keyboard-response","304","283123","0.0-304.0","3FPRZHYEPZTNOKHOKZAQCJD8X2M3V2","A7TI4X4LRGQA0","3UAU495MIIEABANG75FBFHDC9WUUOI","","","img/flower6.png","76","511","3","1","3","1,0.5,0.5,0.5,1,0.5,0.5,0.5,1",""
"null","","html-keyboard-response","305","283433","0.0-305.0","3FPRZHYEPZTNOKHOKZAQCJD8X2M3V2","A7TI4X4LRGQA0","3UAU495MIIEABANG75FBFHDC9WUUOI","","","<img src=""img/flower6.png"" style=""width:200px; border:14px solid green;"">","null","","","","","",""
"","","html-keyboard-response","306","297276","0.0-306.0","3FPRZHYEPZTNOKHOKZAQCJD8X2M3V2","A7TI4X4LRGQA0","3UAU495MIIEABANG75FBFHDC9WUUOI","","","","","","","","","",""
"2005","","image-keyboard-response","307","299281","0.0-307.0","3FPRZHYEPZTNOKHOKZAQCJD8X2M3V2","A7TI4X4LRGQA0","3UAU495MIIEABANG75FBFHDC9WUUOI","","","img/flower3.png","75","2007","2","1","2","1,1,0,0,1,1,1,0,1",""
"null","","html-keyboard-response","308","299583","0.0-308.0","3FPRZHYEPZTNOKHOKZAQCJD8X2M3V2","A7TI4X4LRGQA0","3UAU495MIIEABANG75FBFHDC9WUUOI","","","<img src=""img/flower3.png"" style=""width:200px; border:14px solid green;"">","null","","","","","",""
"813","","image-keyboard-response","309","300398","0.0-309.0","3FPRZHYEPZTNOKHOKZAQCJD8X2M3V2","A7TI4X4LRGQA0","3UAU495MIIEABANG75FBFHDC9WUUOI","","","img/flower5.png","74","813","1","1","1","1,1,0,0,1,1,1,0,1",""
"null","","html-keyboard-response","310","300701","0.0-310.0","3FPRZHYEPZTNOKHOKZAQCJD8X2M3V2","A7TI4X4LRGQA0","3UAU495MIIEABANG75FBFHDC9WUUOI","","","<img src=""img/flower5.png"" style=""width:200px; border:14px solid green;"">","null","","","","","",""
"641","","image-keyboard-response","311","301342","0.0-311.0","3FPRZHYEPZTNOKHOKZAQCJD8X2M3V2","A7TI4X4LRGQA0","3UAU495MIIEABANG75FBFHDC9WUUOI","","","img/flower1.png","75","641","2","0","3","1,1,0,0,1,1,1,0,1",""
"null","","html-keyboard-response","312","301652","0.0-312.0","3FPRZHYEPZTNOKHOKZAQCJD8X2M3V2","A7TI4X4LRGQA0","3UAU495MIIEABANG75FBFHDC9WUUOI","","","<img src=""img/flower1.png"" style=""width:200px;border:14px solid red;"">","null","","","","","",""
"474","","image-keyboard-response","313","302125","0.0-313.0","3FPRZHYEPZTNOKHOKZAQCJD8X2M3V2","A7TI4X4LRGQA0","3UAU495MIIEABANG75FBFHDC9WUUOI","","","img/flower1.png","76","474","3","1","3","1,1,0,0,1,1,1,0,1",""
"null","","html-keyboard-response","314","302430","0.0-314.0","3FPRZHYEPZTNOKHOKZAQCJD8X2M3V2","A7TI4X4LRGQA0","3UAU495MIIEABANG75FBFHDC9WUUOI","","","<img src=""img/flower1.png"" style=""width:200px; border:14px solid green;"">","null","","","","","",""
"965","","image-keyboard-response","315","303396","0.0-315.0","3FPRZHYEPZTNOKHOKZAQCJD8X2M3V2","A7TI4X4LRGQA0","3UAU495MIIEABANG75FBFHDC9WUUOI","","","img/flower3.png","74","965","1","0","2","1,1,0,0,1,1,1,0,1",""
"null","","html-keyboard-response","316","303706","0.0-316.0","3FPRZHYEPZTNOKHOKZAQCJD8X2M3V2","A7TI4X4LRGQA0","3UAU495MIIEABANG75FBFHDC9WUUOI","","","<img src=""img/flower3.png"" style=""width:200px;border:14px solid red;"">","null","","","","","",""
"1053","","image-keyboard-response","317","304760","0.0-317.0","3FPRZHYEPZTNOKHOKZAQCJD8X2M3V2","A7TI4X4LRGQA0","3UAU495MIIEABANG75FBFHDC9WUUOI","","","img/flower1.png","76","1054","3","1","3","1,1,0,0,1,1,1,0,1",""
"null","","html-keyboard-response","318","305076","0.0-318.0","3FPRZHYEPZTNOKHOKZAQCJD8X2M3V2","A7TI4X4LRGQA0","3UAU495MIIEABANG75FBFHDC9WUUOI","","","<img src=""img/flower1.png"" style=""width:200px; border:14px solid green;"">","null","","","","","",""
"489","","image-keyboard-response","319","305567","0.0-319.0","3FPRZHYEPZTNOKHOKZAQCJD8X2M3V2","A7TI4X4LRGQA0","3UAU495MIIEABANG75FBFHDC9WUUOI","","","img/flower5.png","75","491","2","1","1","1,1,0,0,1,1,1,0,1",""
"null","","html-keyboard-response","320","305872","0.0-320.0","3FPRZHYEPZTNOKHOKZAQCJD8X2M3V2","A7TI4X4LRGQA0","3UAU495MIIEABANG75FBFHDC9WUUOI","","","<img src=""img/flower5.png"" style=""width:200px; border:14px solid green;"">","null","","","","","",""
"508","","image-keyboard-response","321","306381","0.0-321.0","3FPRZHYEPZTNOKHOKZAQCJD8X2M3V2","A7TI4X4LRGQA0","3UAU495MIIEABANG75FBFHDC9WUUOI","","","img/flower5.png","75","508","2","1","1","1,1,0,0,1,1,1,0,1",""
"null","","html-keyboard-response","322","306685","0.0-322.0","3FPRZHYEPZTNOKHOKZAQCJD8X2M3V2","A7TI4X4LRGQA0","3UAU495MIIEABANG75FBFHDC9WUUOI","","","<img src=""img/flower5.png"" style=""width:200px; border:14px solid green;"">","null","","","","","",""
"764","","image-keyboard-response","323","307451","0.0-323.0","3FPRZHYEPZTNOKHOKZAQCJD8X2M3V2","A7TI4X4LRGQA0","3UAU495MIIEABANG75FBFHDC9WUUOI","","","img/flower1.png","75","764","2","0","3","1,1,0,0,1,1,1,0,1",""
"null","","html-keyboard-response","324","307759","0.0-324.0","3FPRZHYEPZTNOKHOKZAQCJD8X2M3V2","A7TI4X4LRGQA0","3UAU495MIIEABANG75FBFHDC9WUUOI","","","<img src=""img/flower1.png"" style=""width:200px;border:14px solid red;"">","null","","","","","",""
"1178","","image-keyboard-response","325","308937","0.0-325.0","3FPRZHYEPZTNOKHOKZAQCJD8X2M3V2","A7TI4X4LRGQA0","3UAU495MIIEABANG75FBFHDC9WUUOI","","","img/flower3.png","76","1178","3","1","2","1,1,0,0,1,1,1,0,1",""
"null","","html-keyboard-response","326","309242","0.0-326.0","3FPRZHYEPZTNOKHOKZAQCJD8X2M3V2","A7TI4X4LRGQA0","3UAU495MIIEABANG75FBFHDC9WUUOI","","","<img src=""img/flower3.png"" style=""width:200px; border:14px solid green;"">","null","","","","","",""
"775","","image-keyboard-response","327","310018","0.0-327.0","3FPRZHYEPZTNOKHOKZAQCJD8X2M3V2","A7TI4X4LRGQA0","3UAU495MIIEABANG75FBFHDC9WUUOI","","","img/flower5.png","74","776","1","1","1","1,1,0,0,1,1,1,0,1",""
"null","","html-keyboard-response","328","310322","0.0-328.0","3FPRZHYEPZTNOKHOKZAQCJD8X2M3V2","A7TI4X4LRGQA0","3UAU495MIIEABANG75FBFHDC9WUUOI","","","<img src=""img/flower5.png"" style=""width:200px; border:14px solid green;"">","null","","","","","",""
"753","","image-keyboard-response","329","311076","0.0-329.0","3FPRZHYEPZTNOKHOKZAQCJD8X2M3V2","A7TI4X4LRGQA0","3UAU495MIIEABANG75FBFHDC9WUUOI","","","img/flower3.png","76","753","3","1","2","1,1,0,0,1,1,1,0,1",""
"null","","html-keyboard-response","330","311380","0.0-330.0","3FPRZHYEPZTNOKHOKZAQCJD8X2M3V2","A7TI4X4LRGQA0","3UAU495MIIEABANG75FBFHDC9WUUOI","","","<img src=""img/flower3.png"" style=""width:200px; border:14px solid green;"">","null","","","","","",""
"443","","image-keyboard-response","331","311825","0.0-331.0","3FPRZHYEPZTNOKHOKZAQCJD8X2M3V2","A7TI4X4LRGQA0","3UAU495MIIEABANG75FBFHDC9WUUOI","","","img/flower3.png","76","444","3","1","2","1,1,0,0,1,1,1,0,1",""
"null","","html-keyboard-response","332","312127","0.0-332.0","3FPRZHYEPZTNOKHOKZAQCJD8X2M3V2","A7TI4X4LRGQA0","3UAU495MIIEABANG75FBFHDC9WUUOI","","","<img src=""img/flower3.png"" style=""width:200px; border:14px solid green;"">","null","","","","","",""
"877","","image-keyboard-response","333","313005","0.0-333.0","3FPRZHYEPZTNOKHOKZAQCJD8X2M3V2","A7TI4X4LRGQA0","3UAU495MIIEABANG75FBFHDC9WUUOI","","","img/flower5.png","75","878","2","1","1","1,1,0,0,1,1,1,0,1",""
"null","","html-keyboard-response","334","313312","0.0-334.0","3FPRZHYEPZTNOKHOKZAQCJD8X2M3V2","A7TI4X4LRGQA0","3UAU495MIIEABANG75FBFHDC9WUUOI","","","<img src=""img/flower5.png"" style=""width:200px; border:14px solid green;"">","null","","","","","",""
"845","","image-keyboard-response","335","314158","0.0-335.0","3FPRZHYEPZTNOKHOKZAQCJD8X2M3V2","A7TI4X4LRGQA0","3UAU495MIIEABANG75FBFHDC9WUUOI","","","img/flower1.png","74","845","1","1","3","1,1,0,0,1,1,1,0,1",""
"null","","html-keyboard-response","336","314464","0.0-336.0","3FPRZHYEPZTNOKHOKZAQCJD8X2M3V2","A7TI4X4LRGQA0","3UAU495MIIEABANG75FBFHDC9WUUOI","","","<img src=""img/flower1.png"" style=""width:200px; border:14px solid green;"">","null","","","","","",""
"497","","image-keyboard-response","337","314962","0.0-337.0","3FPRZHYEPZTNOKHOKZAQCJD8X2M3V2","A7TI4X4LRGQA0","3UAU495MIIEABANG75FBFHDC9WUUOI","","","img/flower1.png","74","498","1","1","3","1,1,0,0,1,1,1,0,1",""
"null","","html-keyboard-response","338","315266","0.0-338.0","3FPRZHYEPZTNOKHOKZAQCJD8X2M3V2","A7TI4X4LRGQA0","3UAU495MIIEABANG75FBFHDC9WUUOI","","","<img src=""img/flower1.png"" style=""width:200px; border:14px solid green;"">","null","","","","","",""
"1155","","image-keyboard-response","339","316421","0.0-339.0","3FPRZHYEPZTNOKHOKZAQCJD8X2M3V2","A7TI4X4LRGQA0","3UAU495MIIEABANG75FBFHDC9WUUOI","","","img/flower3.png","76","1155","3","1","2","1,1,0,0,1,1,1,0,1",""
"null","","html-keyboard-response","340","316728","0.0-340.0","3FPRZHYEPZTNOKHOKZAQCJD8X2M3V2","A7TI4X4LRGQA0","3UAU495MIIEABANG75FBFHDC9WUUOI","","","<img src=""img/flower3.png"" style=""width:200px; border:14px solid green;"">","null","","","","","",""
"791","","image-keyboard-response","341","317518","0.0-341.0","3FPRZHYEPZTNOKHOKZAQCJD8X2M3V2","A7TI4X4LRGQA0","3UAU495MIIEABANG75FBFHDC9WUUOI","","","img/flower1.png","75","791","2","0","3","1,1,0,0,1,1,1,0,1",""
"null","","html-keyboard-response","342","317831","0.0-342.0","3FPRZHYEPZTNOKHOKZAQCJD8X2M3V2","A7TI4X4LRGQA0","3UAU495MIIEABANG75FBFHDC9WUUOI","","","<img src=""img/flower1.png"" style=""width:200px;border:14px solid red;"">","null","","","","","",""
"603","","image-keyboard-response","343","318433","0.0-343.0","3FPRZHYEPZTNOKHOKZAQCJD8X2M3V2","A7TI4X4LRGQA0","3UAU495MIIEABANG75FBFHDC9WUUOI","","","img/flower3.png","76","603","3","1","2","1,1,0,0,1,1,1,0,1",""
"null","","html-keyboard-response","344","318747","0.0-344.0","3FPRZHYEPZTNOKHOKZAQCJD8X2M3V2","A7TI4X4LRGQA0","3UAU495MIIEABANG75FBFHDC9WUUOI","","","<img src=""img/flower3.png"" style=""width:200px; border:14px solid green;"">","null","","","","","",""
"710","","image-keyboard-response","345","319458","0.0-345.0","3FPRZHYEPZTNOKHOKZAQCJD8X2M3V2","A7TI4X4LRGQA0","3UAU495MIIEABANG75FBFHDC9WUUOI","","","img/flower5.png","74","710","1","1","1","1,1,0,0,1,1,1,0,1",""
"null","","html-keyboard-response","346","319768","0.0-346.0","3FPRZHYEPZTNOKHOKZAQCJD8X2M3V2","A7TI4X4LRGQA0","3UAU495MIIEABANG75FBFHDC9WUUOI","","","<img src=""img/flower5.png"" style=""width:200px; border:14px solid green;"">","null","","","","","",""
"896","","image-keyboard-response","347","320664","0.0-347.0","3FPRZHYEPZTNOKHOKZAQCJD8X2M3V2","A7TI4X4LRGQA0","3UAU495MIIEABANG75FBFHDC9WUUOI","","","img/flower1.png","75","896","2","0","3","1,1,0,0,1,1,1,0,1",""
"null","","html-keyboard-response","348","320973","0.0-348.0","3FPRZHYEPZTNOKHOKZAQCJD8X2M3V2","A7TI4X4LRGQA0","3UAU495MIIEABANG75FBFHDC9WUUOI","","","<img src=""img/flower1.png"" style=""width:200px;border:14px solid red;"">","null","","","","","",""
"389","","image-keyboard-response","349","321362","0.0-349.0","3FPRZHYEPZTNOKHOKZAQCJD8X2M3V2","A7TI4X4LRGQA0","3UAU495MIIEABANG75FBFHDC9WUUOI","","","img/flower1.png","76","389","3","1","3","1,1,0,0,1,1,1,0,1",""
"null","","html-keyboard-response","350","321663","0.0-350.0","3FPRZHYEPZTNOKHOKZAQCJD8X2M3V2","A7TI4X4LRGQA0","3UAU495MIIEABANG75FBFHDC9WUUOI","","","<img src=""img/flower1.png"" style=""width:200px; border:14px solid green;"">","null","","","","","",""
"781","","image-keyboard-response","351","322445","0.0-351.0","3FPRZHYEPZTNOKHOKZAQCJD8X2M3V2","A7TI4X4LRGQA0","3UAU495MIIEABANG75FBFHDC9WUUOI","","","img/flower1.png","76","782","3","1","3","1,1,0,0,1,1,1,0,1",""
"null","","html-keyboard-response","352","322746","0.0-352.0","3FPRZHYEPZTNOKHOKZAQCJD8X2M3V2","A7TI4X4LRGQA0","3UAU495MIIEABANG75FBFHDC9WUUOI","","","<img src=""img/flower1.png"" style=""width:200px; border:14px solid green;"">","null","","","","","",""
"775","","image-keyboard-response","353","323522","0.0-353.0","3FPRZHYEPZTNOKHOKZAQCJD8X2M3V2","A7TI4X4LRGQA0","3UAU495MIIEABANG75FBFHDC9WUUOI","","","img/flower5.png","74","776","1","1","1","1,1,0,0,1,1,1,0,1",""
"null","","html-keyboard-response","354","323826","0.0-354.0","3FPRZHYEPZTNOKHOKZAQCJD8X2M3V2","A7TI4X4LRGQA0","3UAU495MIIEABANG75FBFHDC9WUUOI","","","<img src=""img/flower5.png"" style=""width:200px; border:14px solid green;"">","null","","","","","",""
"574","","image-keyboard-response","355","324401","0.0-355.0","3FPRZHYEPZTNOKHOKZAQCJD8X2M3V2","A7TI4X4LRGQA0","3UAU495MIIEABANG75FBFHDC9WUUOI","","","img/flower1.png","76","575","3","1","3","1,1,0,0,1,1,1,0,1",""
"null","","html-keyboard-response","356","324714","0.0-356.0","3FPRZHYEPZTNOKHOKZAQCJD8X2M3V2","A7TI4X4LRGQA0","3UAU495MIIEABANG75FBFHDC9WUUOI","","","<img src=""img/flower1.png"" style=""width:200px; border:14px solid green;"">","null","","","","","",""
"341","","image-keyboard-response","357","325055","0.0-357.0","3FPRZHYEPZTNOKHOKZAQCJD8X2M3V2","A7TI4X4LRGQA0","3UAU495MIIEABANG75FBFHDC9WUUOI","","","img/flower1.png","76","341","3","1","3","1,1,0,0,1,1,1,0,1",""
"null","","html-keyboard-response","358","325359","0.0-358.0","3FPRZHYEPZTNOKHOKZAQCJD8X2M3V2","A7TI4X4LRGQA0","3UAU495MIIEABANG75FBFHDC9WUUOI","","","<img src=""img/flower1.png"" style=""width:200px; border:14px solid green;"">","null","","","","","",""
"938","","image-keyboard-response","359","326297","0.0-359.0","3FPRZHYEPZTNOKHOKZAQCJD8X2M3V2","A7TI4X4LRGQA0","3UAU495MIIEABANG75FBFHDC9WUUOI","","","img/flower3.png","76","938","3","1","2","1,1,0,0,1,1,1,0,1",""
"null","","html-keyboard-response","360","326607","0.0-360.0","3FPRZHYEPZTNOKHOKZAQCJD8X2M3V2","A7TI4X4LRGQA0","3UAU495MIIEABANG75FBFHDC9WUUOI","","","<img src=""img/flower3.png"" style=""width:200px; border:14px solid green;"">","null","","","","","",""
"341","","image-keyboard-response","361","326950","0.0-361.0","3FPRZHYEPZTNOKHOKZAQCJD8X2M3V2","A7TI4X4LRGQA0","3UAU495MIIEABANG75FBFHDC9WUUOI","","","img/flower3.png","76","341","3","1","2","1,1,0,0,1,1,1,0,1",""
"null","","html-keyboard-response","362","327251","0.0-362.0","3FPRZHYEPZTNOKHOKZAQCJD8X2M3V2","A7TI4X4LRGQA0","3UAU495MIIEABANG75FBFHDC9WUUOI","","","<img src=""img/flower3.png"" style=""width:200px; border:14px solid green;"">","null","","","","","",""
"705","","image-keyboard-response","363","327957","0.0-363.0","3FPRZHYEPZTNOKHOKZAQCJD8X2M3V2","A7TI4X4LRGQA0","3UAU495MIIEABANG75FBFHDC9WUUOI","","","img/flower5.png","75","705","2","1","1","1,1,0,0,1,1,1,0,1",""
"null","","html-keyboard-response","364","328267","0.0-364.0","3FPRZHYEPZTNOKHOKZAQCJD8X2M3V2","A7TI4X4LRGQA0","3UAU495MIIEABANG75FBFHDC9WUUOI","","","<img src=""img/flower5.png"" style=""width:200px; border:14px solid green;"">","null","","","","","",""
"398","","image-keyboard-response","365","328666","0.0-365.0","3FPRZHYEPZTNOKHOKZAQCJD8X2M3V2","A7TI4X4LRGQA0","3UAU495MIIEABANG75FBFHDC9WUUOI","","","img/flower5.png","75","399","2","1","1","1,1,0,0,1,1,1,0,1",""
"null","","html-keyboard-response","366","328974","0.0-366.0","3FPRZHYEPZTNOKHOKZAQCJD8X2M3V2","A7TI4X4LRGQA0","3UAU495MIIEABANG75FBFHDC9WUUOI","","","<img src=""img/flower5.png"" style=""width:200px; border:14px solid green;"">","null","","","","","",""
"783","","image-keyboard-response","367","329757","0.0-367.0","3FPRZHYEPZTNOKHOKZAQCJD8X2M3V2","A7TI4X4LRGQA0","3UAU495MIIEABANG75FBFHDC9WUUOI","","","img/flower1.png","76","783","3","1","3","1,1,0,0,1,1,1,0,1",""
"null","","html-keyboard-response","368","330071","0.0-368.0","3FPRZHYEPZTNOKHOKZAQCJD8X2M3V2","A7TI4X4LRGQA0","3UAU495MIIEABANG75FBFHDC9WUUOI","","","<img src=""img/flower1.png"" style=""width:200px; border:14px solid green;"">","null","","","","","",""
"563","","image-keyboard-response","369","330635","0.0-369.0","3FPRZHYEPZTNOKHOKZAQCJD8X2M3V2","A7TI4X4LRGQA0","3UAU495MIIEABANG75FBFHDC9WUUOI","","","img/flower5.png","75","565","2","1","1","1,1,0,0,1,1,1,0,1",""
"null","","html-keyboard-response","370","330951","0.0-370.0","3FPRZHYEPZTNOKHOKZAQCJD8X2M3V2","A7TI4X4LRGQA0","3UAU495MIIEABANG75FBFHDC9WUUOI","","","<img src=""img/flower5.png"" style=""width:200px; border:14px solid green;"">","null","","","","","",""
"326","","image-keyboard-response","371","331279","0.0-371.0","3FPRZHYEPZTNOKHOKZAQCJD8X2M3V2","A7TI4X4LRGQA0","3UAU495MIIEABANG75FBFHDC9WUUOI","","","img/flower5.png","75","327","2","1","1","1,1,0,0,1,1,1,0,1",""
"null","","html-keyboard-response","372","331588","0.0-372.0","3FPRZHYEPZTNOKHOKZAQCJD8X2M3V2","A7TI4X4LRGQA0","3UAU495MIIEABANG75FBFHDC9WUUOI","","","<img src=""img/flower5.png"" style=""width:200px; border:14px solid green;"">","null","","","","","",""
"288","","image-keyboard-response","373","331877","0.0-373.0","3FPRZHYEPZTNOKHOKZAQCJD8X2M3V2","A7TI4X4LRGQA0","3UAU495MIIEABANG75FBFHDC9WUUOI","","","img/flower5.png","75","288","2","1","1","1,1,0,0,1,1,1,0,1",""
"null","","html-keyboard-response","374","332188","0.0-374.0","3FPRZHYEPZTNOKHOKZAQCJD8X2M3V2","A7TI4X4LRGQA0","3UAU495MIIEABANG75FBFHDC9WUUOI","","","<img src=""img/flower5.png"" style=""width:200px; border:14px solid green;"">","null","","","","","",""
"706","","image-keyboard-response","375","332894","0.0-375.0","3FPRZHYEPZTNOKHOKZAQCJD8X2M3V2","A7TI4X4LRGQA0","3UAU495MIIEABANG75FBFHDC9WUUOI","","","img/flower3.png","76","706","3","1","2","1,1,0,0,1,1,1,0,1",""
"null","","html-keyboard-response","376","333203","0.0-376.0","3FPRZHYEPZTNOKHOKZAQCJD8X2M3V2","A7TI4X4LRGQA0","3UAU495MIIEABANG75FBFHDC9WUUOI","","","<img src=""img/flower3.png"" style=""width:200px; border:14px solid green;"">","null","","","","","",""
"557","","image-keyboard-response","377","333760","0.0-377.0","3FPRZHYEPZTNOKHOKZAQCJD8X2M3V2","A7TI4X4LRGQA0","3UAU495MIIEABANG75FBFHDC9WUUOI","","","img/flower5.png","75","557","2","1","1","1,1,0,0,1,1,1,0,1",""
"null","","html-keyboard-response","378","334076","0.0-378.0","3FPRZHYEPZTNOKHOKZAQCJD8X2M3V2","A7TI4X4LRGQA0","3UAU495MIIEABANG75FBFHDC9WUUOI","","","<img src=""img/flower5.png"" style=""width:200px; border:14px solid green;"">","null","","","","","",""
"612","","image-keyboard-response","379","334687","0.0-379.0","3FPRZHYEPZTNOKHOKZAQCJD8X2M3V2","A7TI4X4LRGQA0","3UAU495MIIEABANG75FBFHDC9WUUOI","","","img/flower3.png","76","612","3","1","2","1,1,0,0,1,1,1,0,1",""
"null","","html-keyboard-response","380","334994","0.0-380.0","3FPRZHYEPZTNOKHOKZAQCJD8X2M3V2","A7TI4X4LRGQA0","3UAU495MIIEABANG75FBFHDC9WUUOI","","","<img src=""img/flower3.png"" style=""width:200px; border:14px solid green;"">","null","","","","","",""
"475","","image-keyboard-response","381","335470","0.0-381.0","3FPRZHYEPZTNOKHOKZAQCJD8X2M3V2","A7TI4X4LRGQA0","3UAU495MIIEABANG75FBFHDC9WUUOI","","","img/flower5.png","75","477","2","1","1","1,1,0,0,1,1,1,0,1",""
"null","","html-keyboard-response","382","335782","0.0-382.0","3FPRZHYEPZTNOKHOKZAQCJD8X2M3V2","A7TI4X4LRGQA0","3UAU495MIIEABANG75FBFHDC9WUUOI","","","<img src=""img/flower5.png"" style=""width:200px; border:14px solid green;"">","null","","","","","",""
"526","","image-keyboard-response","383","336309","0.0-383.0","3FPRZHYEPZTNOKHOKZAQCJD8X2M3V2","A7TI4X4LRGQA0","3UAU495MIIEABANG75FBFHDC9WUUOI","","","img/flower3.png","76","527","3","1","2","1,1,0,0,1,1,1,0,1",""
"null","","html-keyboard-response","384","336614","0.0-384.0","3FPRZHYEPZTNOKHOKZAQCJD8X2M3V2","A7TI4X4LRGQA0","3UAU495MIIEABANG75FBFHDC9WUUOI","","","<img src=""img/flower3.png"" style=""width:200px; border:14px solid green;"">","null","","","","","",""
"676","","image-keyboard-response","385","337291","0.0-385.0","3FPRZHYEPZTNOKHOKZAQCJD8X2M3V2","A7TI4X4LRGQA0","3UAU495MIIEABANG75FBFHDC9WUUOI","","","img/flower1.png","74","676","1","1","3","1,1,0,0,1,1,1,0,1",""
"null","","html-keyboard-response","386","337602","0.0-386.0","3FPRZHYEPZTNOKHOKZAQCJD8X2M3V2","A7TI4X4LRGQA0","3UAU495MIIEABANG75FBFHDC9WUUOI","","","<img src=""img/flower1.png"" style=""width:200px; border:14px solid green;"">","null","","","","","",""
"952","","image-keyboard-response","387","338555","0.0-387.0","3FPRZHYEPZTNOKHOKZAQCJD8X2M3V2","A7TI4X4LRGQA0","3UAU495MIIEABANG75FBFHDC9WUUOI","","","img/flower3.png","76","953","3","1","2","1,1,0,0,1,1,1,0,1",""
"null","","html-keyboard-response","388","338858","0.0-388.0","3FPRZHYEPZTNOKHOKZAQCJD8X2M3V2","A7TI4X4LRGQA0","3UAU495MIIEABANG75FBFHDC9WUUOI","","","<img src=""img/flower3.png"" style=""width:200px; border:14px solid green;"">","null","","","","","",""
"671","","image-keyboard-response","389","339530","0.0-389.0","3FPRZHYEPZTNOKHOKZAQCJD8X2M3V2","A7TI4X4LRGQA0","3UAU495MIIEABANG75FBFHDC9WUUOI","","","img/flower1.png","74","672","1","1","3","1,1,0,0,1,1,1,0,1",""
"null","","html-keyboard-response","390","339830","0.0-390.0","3FPRZHYEPZTNOKHOKZAQCJD8X2M3V2","A7TI4X4LRGQA0","3UAU495MIIEABANG75FBFHDC9WUUOI","","","<img src=""img/flower1.png"" style=""width:200px; border:14px solid green;"">","null","","","","","",""
"531","","image-keyboard-response","391","340363","0.0-391.0","3FPRZHYEPZTNOKHOKZAQCJD8X2M3V2","A7TI4X4LRGQA0","3UAU495MIIEABANG75FBFHDC9WUUOI","","","img/flower3.png","76","532","3","1","2","1,1,0,0,1,1,1,0,1",""
"null","","html-keyboard-response","392","340666","0.0-392.0","3FPRZHYEPZTNOKHOKZAQCJD8X2M3V2","A7TI4X4LRGQA0","3UAU495MIIEABANG75FBFHDC9WUUOI","","","<img src=""img/flower3.png"" style=""width:200px; border:14px solid green;"">","null","","","","","",""
"621","","image-keyboard-response","393","341288","0.0-393.0","3FPRZHYEPZTNOKHOKZAQCJD8X2M3V2","A7TI4X4LRGQA0","3UAU495MIIEABANG75FBFHDC9WUUOI","","","img/flower5.png","75","622","2","1","1","1,1,0,0,1,1,1,0,1",""
"null","","html-keyboard-response","394","341595","0.0-394.0","3FPRZHYEPZTNOKHOKZAQCJD8X2M3V2","A7TI4X4LRGQA0","3UAU495MIIEABANG75FBFHDC9WUUOI","","","<img src=""img/flower5.png"" style=""width:200px; border:14px solid green;"">","null","","","","","",""
"533","","image-keyboard-response","395","342129","0.0-395.0","3FPRZHYEPZTNOKHOKZAQCJD8X2M3V2","A7TI4X4LRGQA0","3UAU495MIIEABANG75FBFHDC9WUUOI","","","img/flower3.png","76","533","3","1","2","1,1,0,0,1,1,1,0,1",""
"null","","html-keyboard-response","396","342432","0.0-396.0","3FPRZHYEPZTNOKHOKZAQCJD8X2M3V2","A7TI4X4LRGQA0","3UAU495MIIEABANG75FBFHDC9WUUOI","","","<img src=""img/flower3.png"" style=""width:200px; border:14px solid green;"">","null","","","","","",""
"567","","image-keyboard-response","397","342999","0.0-397.0","3FPRZHYEPZTNOKHOKZAQCJD8X2M3V2","A7TI4X4LRGQA0","3UAU495MIIEABANG75FBFHDC9WUUOI","","","img/flower1.png","74","567","1","1","3","1,1,0,0,1,1,1,0,1",""
"null","","html-keyboard-response","398","343313","0.0-398.0","3FPRZHYEPZTNOKHOKZAQCJD8X2M3V2","A7TI4X4LRGQA0","3UAU495MIIEABANG75FBFHDC9WUUOI","","","<img src=""img/flower1.png"" style=""width:200px; border:14px solid green;"">","null","","","","","",""
"552","","image-keyboard-response","399","343866","0.0-399.0","3FPRZHYEPZTNOKHOKZAQCJD8X2M3V2","A7TI4X4LRGQA0","3UAU495MIIEABANG75FBFHDC9WUUOI","","","img/flower5.png","75","553","2","1","1","1,1,0,0,1,1,1,0,1",""
"null","","html-keyboard-response","400","344167","0.0-400.0","3FPRZHYEPZTNOKHOKZAQCJD8X2M3V2","A7TI4X4LRGQA0","3UAU495MIIEABANG75FBFHDC9WUUOI","","","<img src=""img/flower5.png"" style=""width:200px; border:14px solid green;"">","null","","","","","",""
"602","","image-keyboard-response","401","344769","0.0-401.0","3FPRZHYEPZTNOKHOKZAQCJD8X2M3V2","A7TI4X4LRGQA0","3UAU495MIIEABANG75FBFHDC9WUUOI","","","img/flower1.png","74","602","1","1","3","1,1,0,0,1,1,1,0,1",""
"null","","html-keyboard-response","402","345073","0.0-402.0","3FPRZHYEPZTNOKHOKZAQCJD8X2M3V2","A7TI4X4LRGQA0","3UAU495MIIEABANG75FBFHDC9WUUOI","","","<img src=""img/flower1.png"" style=""width:200px; border:14px solid green;"">","null","","","","","",""
"658","","image-keyboard-response","403","345730","0.0-403.0","3FPRZHYEPZTNOKHOKZAQCJD8X2M3V2","A7TI4X4LRGQA0","3UAU495MIIEABANG75FBFHDC9WUUOI","","","img/flower3.png","76","658","3","1","2","1,1,0,0,1,1,1,0,1",""
"null","","html-keyboard-response","404","346038","0.0-404.0","3FPRZHYEPZTNOKHOKZAQCJD8X2M3V2","A7TI4X4LRGQA0","3UAU495MIIEABANG75FBFHDC9WUUOI","","","<img src=""img/flower3.png"" style=""width:200px; border:14px solid green;"">","null","","","","","",""
"407","","image-keyboard-response","405","346446","0.0-405.0","3FPRZHYEPZTNOKHOKZAQCJD8X2M3V2","A7TI4X4LRGQA0","3UAU495MIIEABANG75FBFHDC9WUUOI","","","img/flower3.png","76","409","3","1","2","1,1,0,0,1,1,1,0,1",""
"null","","html-keyboard-response","406","346757","0.0-406.0","3FPRZHYEPZTNOKHOKZAQCJD8X2M3V2","A7TI4X4LRGQA0","3UAU495MIIEABANG75FBFHDC9WUUOI","","","<img src=""img/flower3.png"" style=""width:200px; border:14px solid green;"">","null","","","","","",""
"582","","image-keyboard-response","407","347338","0.0-407.0","3FPRZHYEPZTNOKHOKZAQCJD8X2M3V2","A7TI4X4LRGQA0","3UAU495MIIEABANG75FBFHDC9WUUOI","","","img/flower5.png","75","583","2","1","1","1,1,0,0,1,1,1,0,1",""
"null","","html-keyboard-response","408","347647","0.0-408.0","3FPRZHYEPZTNOKHOKZAQCJD8X2M3V2","A7TI4X4LRGQA0","3UAU495MIIEABANG75FBFHDC9WUUOI","","","<img src=""img/flower5.png"" style=""width:200px; border:14px solid green;"">","null","","","","","",""
"478","","image-keyboard-response","409","348127","0.0-409.0","3FPRZHYEPZTNOKHOKZAQCJD8X2M3V2","A7TI4X4LRGQA0","3UAU495MIIEABANG75FBFHDC9WUUOI","","","img/flower1.png","74","479","1","1","3","1,1,0,0,1,1,1,0,1",""
"null","","html-keyboard-response","410","348430","0.0-410.0","3FPRZHYEPZTNOKHOKZAQCJD8X2M3V2","A7TI4X4LRGQA0","3UAU495MIIEABANG75FBFHDC9WUUOI","","","<img src=""img/flower1.png"" style=""width:200px; border:14px solid green;"">","null","","","","","",""
"359","","image-keyboard-response","411","348788","0.0-411.0","3FPRZHYEPZTNOKHOKZAQCJD8X2M3V2","A7TI4X4LRGQA0","3UAU495MIIEABANG75FBFHDC9WUUOI","","","img/flower1.png","74","359","1","1","3","1,1,0,0,1,1,1,0,1",""
"null","","html-keyboard-response","412","349100","0.0-412.0","3FPRZHYEPZTNOKHOKZAQCJD8X2M3V2","A7TI4X4LRGQA0","3UAU495MIIEABANG75FBFHDC9WUUOI","","","<img src=""img/flower1.png"" style=""width:200px; border:14px solid green;"">","null","","","","","",""
"610","","image-keyboard-response","413","349711","0.0-413.0","3FPRZHYEPZTNOKHOKZAQCJD8X2M3V2","A7TI4X4LRGQA0","3UAU495MIIEABANG75FBFHDC9WUUOI","","","img/flower5.png","75","610","2","1","1","1,1,0,0,1,1,1,0,1",""
"null","","html-keyboard-response","414","350011","0.0-414.0","3FPRZHYEPZTNOKHOKZAQCJD8X2M3V2","A7TI4X4LRGQA0","3UAU495MIIEABANG75FBFHDC9WUUOI","","","<img src=""img/flower5.png"" style=""width:200px; border:14px solid green;"">","null","","","","","",""
"331","","image-keyboard-response","415","350343","0.0-415.0","3FPRZHYEPZTNOKHOKZAQCJD8X2M3V2","A7TI4X4LRGQA0","3UAU495MIIEABANG75FBFHDC9WUUOI","","","img/flower5.png","75","331","2","1","1","1,1,0,0,1,1,1,0,1",""
"null","","html-keyboard-response","416","350654","0.0-416.0","3FPRZHYEPZTNOKHOKZAQCJD8X2M3V2","A7TI4X4LRGQA0","3UAU495MIIEABANG75FBFHDC9WUUOI","","","<img src=""img/flower5.png"" style=""width:200px; border:14px solid green;"">","null","","","","","",""
"336","","image-keyboard-response","417","350989","0.0-417.0","3FPRZHYEPZTNOKHOKZAQCJD8X2M3V2","A7TI4X4LRGQA0","3UAU495MIIEABANG75FBFHDC9WUUOI","","","img/flower5.png","75","336","2","1","1","1,1,0,0,1,1,1,0,1",""
"null","","html-keyboard-response","418","351301","0.0-418.0","3FPRZHYEPZTNOKHOKZAQCJD8X2M3V2","A7TI4X4LRGQA0","3UAU495MIIEABANG75FBFHDC9WUUOI","","","<img src=""img/flower5.png"" style=""width:200px; border:14px solid green;"">","null","","","","","",""
"558","","image-keyboard-response","419","351860","0.0-419.0","3FPRZHYEPZTNOKHOKZAQCJD8X2M3V2","A7TI4X4LRGQA0","3UAU495MIIEABANG75FBFHDC9WUUOI","","","img/flower1.png","74","558","1","1","3","1,1,0,0,1,1,1,0,1",""
"null","","html-keyboard-response","420","352169","0.0-420.0","3FPRZHYEPZTNOKHOKZAQCJD8X2M3V2","A7TI4X4LRGQA0","3UAU495MIIEABANG75FBFHDC9WUUOI","","","<img src=""img/flower1.png"" style=""width:200px; border:14px solid green;"">","null","","","","","",""
"557","","image-keyboard-response","421","352726","0.0-421.0","3FPRZHYEPZTNOKHOKZAQCJD8X2M3V2","A7TI4X4LRGQA0","3UAU495MIIEABANG75FBFHDC9WUUOI","","","img/flower3.png","76","558","3","1","2","1,1,0,0,1,1,1,0,1",""
"null","","html-keyboard-response","422","353030","0.0-422.0","3FPRZHYEPZTNOKHOKZAQCJD8X2M3V2","A7TI4X4LRGQA0","3UAU495MIIEABANG75FBFHDC9WUUOI","","","<img src=""img/flower3.png"" style=""width:200px; border:14px solid green;"">","null","","","","","",""
"320","","image-keyboard-response","423","353350","0.0-423.0","3FPRZHYEPZTNOKHOKZAQCJD8X2M3V2","A7TI4X4LRGQA0","3UAU495MIIEABANG75FBFHDC9WUUOI","","","img/flower3.png","76","320","3","1","2","1,1,0,0,1,1,1,0,1",""
"null","","html-keyboard-response","424","353662","0.0-424.0","3FPRZHYEPZTNOKHOKZAQCJD8X2M3V2","A7TI4X4LRGQA0","3UAU495MIIEABANG75FBFHDC9WUUOI","","","<img src=""img/flower3.png"" style=""width:200px; border:14px solid green;"">","null","","","","","",""
"538","","image-keyboard-response","425","354201","0.0-425.0","3FPRZHYEPZTNOKHOKZAQCJD8X2M3V2","A7TI4X4LRGQA0","3UAU495MIIEABANG75FBFHDC9WUUOI","","","img/flower1.png","74","539","1","1","3","1,1,0,0,1,1,1,0,1",""
