"success","trial_type","trial_index","time_elapsed","internal_node_id","assignmentID","mturkID","hitID","view_history","rt","stimulus","key_press","reactionTime","a","r","s","cond","reward_cond","reward_cond_actual","reward_matrix_idx","responses"
"true","fullscreen","0","3587","0.0-0.0","3U088ZLJVLF4MHIWRMX3WNYF4W30WA","A7VA2Y4H6U31O","3EHVO81VN57KAWAV14A1K6BEMLH1HG","","","","","","","","","","","","",""
"","instructions","1","33833","0.0-1.0","3U088ZLJVLF4MHIWRMX3WNYF4W30WA","A7VA2Y4H6U31O","3EHVO81VN57KAWAV14A1K6BEMLH1HG","[{""page_index"":0,""viewing_time"":2415.2999999523163},{""page_index"":1,""viewing_time"":2046},{""page_index"":2,""viewing_time"":773.1000000238419},{""page_index"":3,""viewing_time"":2504.399999976158},{""page_index"":4,""viewing_time"":1713.4000000953674},{""page_index"":5,""viewing_time"":2893},{""page_index"":6,""viewing_time"":4043.7999999523163},{""page_index"":7,""viewing_time"":2616.2000000476837},{""page_index"":6,""viewing_time"":1700.0999999046326},{""page_index"":5,""viewing_time"":1681.4000000953674},{""page_index"":4,""viewing_time"":2986.5999999046326},{""page_index"":5,""viewing_time"":1768.9000000953674},{""page_index"":6,""viewing_time"":1436.5999999046326},{""page_index"":7,""viewing_time"":1666.1000000238419}]","30245.200000047684","","","","","","","","","","",""
"","image-keyboard-response","2","35215","0.0-2.0","3U088ZLJVLF4MHIWRMX3WNYF4W30WA","A7VA2Y4H6U31O","3EHVO81VN57KAWAV14A1K6BEMLH1HG","","1380.1000000238419","img/flower1.png","74","1381","1","0","1","2","1,0,0,1,1,0,1,0,1","0,1,0,0,1,1,1,1,0","3",""
"","html-keyboard-response","3","35516","0.0-3.0","3U088ZLJVLF4MHIWRMX3WNYF4W30WA","A7VA2Y4H6U31O","3EHVO81VN57KAWAV14A1K6BEMLH1HG","","null","<img src=""img/flower1.png"" style=""width:200px;border:14px solid red;"">","null","","","","","","","","",""
"","image-keyboard-response","4","36817","0.0-4.0","3U088ZLJVLF4MHIWRMX3WNYF4W30WA","A7VA2Y4H6U31O","3EHVO81VN57KAWAV14A1K6BEMLH1HG","","1299.5","img/flower1.png","75","1300","2","1","1","2","1,0,0,1,1,0,1,0,1","0,1,0,0,1,1,1,1,0","3",""
"","html-keyboard-response","5","37118","0.0-5.0","3U088ZLJVLF4MHIWRMX3WNYF4W30WA","A7VA2Y4H6U31O","3EHVO81VN57KAWAV14A1K6BEMLH1HG","","null","<img src=""img/flower1.png"" style=""width:200px; border:14px solid green;"">","null","","","","","","","","",""
"","image-keyboard-response","6","37441","0.0-6.0","3U088ZLJVLF4MHIWRMX3WNYF4W30WA","A7VA2Y4H6U31O","3EHVO81VN57KAWAV14A1K6BEMLH1HG","","321","img/flower1.png","75","322.59999990463257","2","1","1","2","1,0,0,1,1,0,1,0,1","0,1,0,0,1,1,1,1,0","3",""
"","html-keyboard-response","7","37743","0.0-7.0","3U088ZLJVLF4MHIWRMX3WNYF4W30WA","A7VA2Y4H6U31O","3EHVO81VN57KAWAV14A1K6BEMLH1HG","","null","<img src=""img/flower1.png"" style=""width:200px; border:14px solid green;"">","null","","","","","","","","",""
"","image-keyboard-response","8","39571","0.0-8.0","3U088ZLJVLF4MHIWRMX3WNYF4W30WA","A7VA2Y4H6U31O","3EHVO81VN57KAWAV14A1K6BEMLH1HG","","1826.5999999046326","img/flower6.png","74","1827.8999999761581","1","0","2","2","1,0,0,1,1,0,1,0,1","0,1,0,0,1,1,1,1,0","3",""
"","html-keyboard-response","9","39884","0.0-9.0","3U088ZLJVLF4MHIWRMX3WNYF4W30WA","A7VA2Y4H6U31O","3EHVO81VN57KAWAV14A1K6BEMLH1HG","","null","<img src=""img/flower6.png"" style=""width:200px;border:14px solid red;"">","null","","","","","","","","",""
"","image-keyboard-response","10","40610","0.0-10.0","3U088ZLJVLF4MHIWRMX3WNYF4W30WA","A7VA2Y4H6U31O","3EHVO81VN57KAWAV14A1K6BEMLH1HG","","724.5","img/flower1.png","75","726.1000000238419","2","1","1","2","1,0,0,1,1,0,1,0,1","0,1,0,0,1,1,1,1,0","3",""
"","html-keyboard-response","11","40912","0.0-11.0","3U088ZLJVLF4MHIWRMX3WNYF4W30WA","A7VA2Y4H6U31O","3EHVO81VN57KAWAV14A1K6BEMLH1HG","","null","<img src=""img/flower1.png"" style=""width:200px; border:14px solid green;"">","null","","","","","","","","",""
"","image-keyboard-response","12","42127","0.0-12.0","3U088ZLJVLF4MHIWRMX3WNYF4W30WA","A7VA2Y4H6U31O","3EHVO81VN57KAWAV14A1K6BEMLH1HG","","1213.1000000238419","img/flower2.png","75","1214.8000000715256","2","1","3","2","1,0,0,1,1,0,1,0,1","0,1,0,0,1,1,1,1,0","3",""
"","html-keyboard-response","13","42429","0.0-13.0","3U088ZLJVLF4MHIWRMX3WNYF4W30WA","A7VA2Y4H6U31O","3EHVO81VN57KAWAV14A1K6BEMLH1HG","","null","<img src=""img/flower2.png"" style=""width:200px; border:14px solid green;"">","null","","","","","","","","",""
"","image-keyboard-response","14","42817","0.0-14.0","3U088ZLJVLF4MHIWRMX3WNYF4W30WA","A7VA2Y4H6U31O","3EHVO81VN57KAWAV14A1K6BEMLH1HG","","387.2999999523163","img/flower2.png","75","388.2999999523163","2","1","3","2","1,0,0,1,1,0,1,0,1","0,1,0,0,1,1,1,1,0","3",""
"","html-keyboard-response","15","43119","0.0-15.0","3U088ZLJVLF4MHIWRMX3WNYF4W30WA","A7VA2Y4H6U31O","3EHVO81VN57KAWAV14A1K6BEMLH1HG","","null","<img src=""img/flower2.png"" style=""width:200px; border:14px solid green;"">","null","","","","","","","","",""
"","image-keyboard-response","16","43326","0.0-16.0","3U088ZLJVLF4MHIWRMX3WNYF4W30WA","A7VA2Y4H6U31O","3EHVO81VN57KAWAV14A1K6BEMLH1HG","","205.59999990463257","img/flower2.png","75","206.79999995231628","2","1","3","2","1,0,0,1,1,0,1,0,1","0,1,0,0,1,1,1,1,0","3",""
"","html-keyboard-response","17","43628","0.0-17.0","3U088ZLJVLF4MHIWRMX3WNYF4W30WA","A7VA2Y4H6U31O","3EHVO81VN57KAWAV14A1K6BEMLH1HG","","null","<img src=""img/flower2.png"" style=""width:200px; border:14px solid green;"">","null","","","","","","","","",""
"","image-keyboard-response","18","43722","0.0-18.0","3U088ZLJVLF4MHIWRMX3WNYF4W30WA","A7VA2Y4H6U31O","3EHVO81VN57KAWAV14A1K6BEMLH1HG","","92.20000004768372","img/flower6.png","75","93.39999997615814","2","1","2","2","1,0,0,1,1,0,1,0,1","0,1,0,0,1,1,1,1,0","3",""
"","html-keyboard-response","19","44023","0.0-19.0","3U088ZLJVLF4MHIWRMX3WNYF4W30WA","A7VA2Y4H6U31O","3EHVO81VN57KAWAV14A1K6BEMLH1HG","","null","<img src=""img/flower6.png"" style=""width:200px; border:14px solid green;"">","null","","","","","","","","",""
"","image-keyboard-response","20","44146","0.0-20.0","3U088ZLJVLF4MHIWRMX3WNYF4W30WA","A7VA2Y4H6U31O","3EHVO81VN57KAWAV14A1K6BEMLH1HG","","122.29999995231628","img/flower2.png","75","123.10000002384186","2","1","3","2","1,0,0,1,1,0,1,0,1","0,1,0,0,1,1,1,1,0","3",""
"","html-keyboard-response","21","44449","0.0-21.0","3U088ZLJVLF4MHIWRMX3WNYF4W30WA","A7VA2Y4H6U31O","3EHVO81VN57KAWAV14A1K6BEMLH1HG","","null","<img src=""img/flower2.png"" style=""width:200px; border:14px solid green;"">","null","","","","","","","","",""
"","image-keyboard-response","22","44611","0.0-22.0","3U088ZLJVLF4MHIWRMX3WNYF4W30WA","A7VA2Y4H6U31O","3EHVO81VN57KAWAV14A1K6BEMLH1HG","","160.60000002384186","img/flower1.png","75","161.70000004768372","2","1","1","2","1,0,0,1,1,0,1,0,1","0,1,0,0,1,1,1,1,0","3",""
"","html-keyboard-response","23","44912","0.0-23.0","3U088ZLJVLF4MHIWRMX3WNYF4W30WA","A7VA2Y4H6U31O","3EHVO81VN57KAWAV14A1K6BEMLH1HG","","null","<img src=""img/flower1.png"" style=""width:200px; border:14px solid green;"">","null","","","","","","","","",""
"","image-keyboard-response","24","45056","0.0-24.0","3U088ZLJVLF4MHIWRMX3WNYF4W30WA","A7VA2Y4H6U31O","3EHVO81VN57KAWAV14A1K6BEMLH1HG","","141.89999997615814","img/flower2.png","75","143.09999990463257","2","1","3","2","1,0,0,1,1,0,1,0,1","0,1,0,0,1,1,1,1,0","3",""
"","html-keyboard-response","25","45357","0.0-25.0","3U088ZLJVLF4MHIWRMX3WNYF4W30WA","A7VA2Y4H6U31O","3EHVO81VN57KAWAV14A1K6BEMLH1HG","","null","<img src=""img/flower2.png"" style=""width:200px; border:14px solid green;"">","null","","","","","","","","",""
"","image-keyboard-response","26","45435","0.0-26.0","3U088ZLJVLF4MHIWRMX3WNYF4W30WA","A7VA2Y4H6U31O","3EHVO81VN57KAWAV14A1K6BEMLH1HG","","77.89999997615814","img/flower1.png","75","78.69999992847443","2","1","1","2","1,0,0,1,1,0,1,0,1","0,1,0,0,1,1,1,1,0","3",""
"","html-keyboard-response","27","45737","0.0-27.0","3U088ZLJVLF4MHIWRMX3WNYF4W30WA","A7VA2Y4H6U31O","3EHVO81VN57KAWAV14A1K6BEMLH1HG","","null","<img src=""img/flower1.png"" style=""width:200px; border:14px solid green;"">","null","","","","","","","","",""
"","image-keyboard-response","28","45753","0.0-28.0","3U088ZLJVLF4MHIWRMX3WNYF4W30WA","A7VA2Y4H6U31O","3EHVO81VN57KAWAV14A1K6BEMLH1HG","","14.899999976158142","img/flower2.png","75","15.599999904632568","2","1","3","2","1,0,0,1,1,0,1,0,1","0,1,0,0,1,1,1,1,0","3",""
"","html-keyboard-response","29","46055","0.0-29.0","3U088ZLJVLF4MHIWRMX3WNYF4W30WA","A7VA2Y4H6U31O","3EHVO81VN57KAWAV14A1K6BEMLH1HG","","null","<img src=""img/flower2.png"" style=""width:200px; border:14px solid green;"">","null","","","","","","","","",""
"","image-keyboard-response","30","46190","0.0-30.0","3U088ZLJVLF4MHIWRMX3WNYF4W30WA","A7VA2Y4H6U31O","3EHVO81VN57KAWAV14A1K6BEMLH1HG","","133.69999992847443","img/flower6.png","75","134.80000007152557","2","1","2","2","1,0,0,1,1,0,1,0,1","0,1,0,0,1,1,1,1,0","3",""
"","html-keyboard-response","31","46491","0.0-31.0","3U088ZLJVLF4MHIWRMX3WNYF4W30WA","A7VA2Y4H6U31O","3EHVO81VN57KAWAV14A1K6BEMLH1HG","","null","<img src=""img/flower6.png"" style=""width:200px; border:14px solid green;"">","null","","","","","","","","",""
"","image-keyboard-response","32","46623","0.0-32.0","3U088ZLJVLF4MHIWRMX3WNYF4W30WA","A7VA2Y4H6U31O","3EHVO81VN57KAWAV14A1K6BEMLH1HG","","130.5","img/flower6.png","75","131.29999995231628","2","1","2","2","1,0,0,1,1,0,1,0,1","0,1,0,0,1,1,1,1,0","3",""
"","html-keyboard-response","33","46925","0.0-33.0","3U088ZLJVLF4MHIWRMX3WNYF4W30WA","A7VA2Y4H6U31O","3EHVO81VN57KAWAV14A1K6BEMLH1HG","","null","<img src=""img/flower6.png"" style=""width:200px; border:14px solid green;"">","null","","","","","","","","",""
"","image-keyboard-response","34","47024","0.0-34.0","3U088ZLJVLF4MHIWRMX3WNYF4W30WA","A7VA2Y4H6U31O","3EHVO81VN57KAWAV14A1K6BEMLH1HG","","97.60000002384186","img/flower2.png","75","98.70000004768372","2","1","3","2","1,0,0,1,1,0,1,0,1","0,1,0,0,1,1,1,1,0","3",""
"","html-keyboard-response","35","47325","0.0-35.0","3U088ZLJVLF4MHIWRMX3WNYF4W30WA","A7VA2Y4H6U31O","3EHVO81VN57KAWAV14A1K6BEMLH1HG","","null","<img src=""img/flower2.png"" style=""width:200px; border:14px solid green;"">","null","","","","","","","","",""
"","image-keyboard-response","36","47335","0.0-36.0","3U088ZLJVLF4MHIWRMX3WNYF4W30WA","A7VA2Y4H6U31O","3EHVO81VN57KAWAV14A1K6BEMLH1HG","","8.399999976158142","img/flower1.png","75","9.399999976158142","2","1","1","2","1,0,0,1,1,0,1,0,1","0,1,0,0,1,1,1,1,0","3",""
"","html-keyboard-response","37","47636","0.0-37.0","3U088ZLJVLF4MHIWRMX3WNYF4W30WA","A7VA2Y4H6U31O","3EHVO81VN57KAWAV14A1K6BEMLH1HG","","null","<img src=""img/flower1.png"" style=""width:200px; border:14px solid green;"">","null","","","","","","","","",""
"","image-keyboard-response","38","47941","0.0-38.0","3U088ZLJVLF4MHIWRMX3WNYF4W30WA","A7VA2Y4H6U31O","3EHVO81VN57KAWAV14A1K6BEMLH1HG","","302.89999997615814","img/flower2.png","75","304.2000000476837","2","1","3","2","1,0,0,1,1,0,1,0,1","0,1,0,0,1,1,1,1,0","3",""
"","html-keyboard-response","39","48242","0.0-39.0","3U088ZLJVLF4MHIWRMX3WNYF4W30WA","A7VA2Y4H6U31O","3EHVO81VN57KAWAV14A1K6BEMLH1HG","","null","<img src=""img/flower2.png"" style=""width:200px; border:14px solid green;"">","null","","","","","","","","",""
"","image-keyboard-response","40","48291","0.0-40.0","3U088ZLJVLF4MHIWRMX3WNYF4W30WA","A7VA2Y4H6U31O","3EHVO81VN57KAWAV14A1K6BEMLH1HG","","47.90000009536743","img/flower2.png","75","48.39999997615814","2","1","3","2","1,0,0,1,1,0,1,0,1","0,1,0,0,1,1,1,1,0","3",""
"","html-keyboard-response","41","48592","0.0-41.0","3U088ZLJVLF4MHIWRMX3WNYF4W30WA","A7VA2Y4H6U31O","3EHVO81VN57KAWAV14A1K6BEMLH1HG","","null","<img src=""img/flower2.png"" style=""width:200px; border:14px solid green;"">","null","","","","","","","","",""
"","image-keyboard-response","42","48918","0.0-42.0","3U088ZLJVLF4MHIWRMX3WNYF4W30WA","A7VA2Y4H6U31O","3EHVO81VN57KAWAV14A1K6BEMLH1HG","","325.2000000476837","img/flower6.png","75","326","2","1","2","2","1,0,0,1,1,0,1,0,1","0,1,0,0,1,1,1,1,0","3",""
"","html-keyboard-response","43","49221","0.0-43.0","3U088ZLJVLF4MHIWRMX3WNYF4W30WA","A7VA2Y4H6U31O","3EHVO81VN57KAWAV14A1K6BEMLH1HG","","null","<img src=""img/flower6.png"" style=""width:200px; border:14px solid green;"">","null","","","","","","","","",""
"","image-keyboard-response","44","49638","0.0-44.0","3U088ZLJVLF4MHIWRMX3WNYF4W30WA","A7VA2Y4H6U31O","3EHVO81VN57KAWAV14A1K6BEMLH1HG","","416.8000000715256","img/flower6.png","75","417.2999999523163","2","1","2","2","1,0,0,1,1,0,1,0,1","0,1,0,0,1,1,1,1,0","3",""
"","html-keyboard-response","45","49940","0.0-45.0","3U088ZLJVLF4MHIWRMX3WNYF4W30WA","A7VA2Y4H6U31O","3EHVO81VN57KAWAV14A1K6BEMLH1HG","","null","<img src=""img/flower6.png"" style=""width:200px; border:14px solid green;"">","null","","","","","","","","",""
"","image-keyboard-response","46","50185","0.0-46.0","3U088ZLJVLF4MHIWRMX3WNYF4W30WA","A7VA2Y4H6U31O","3EHVO81VN57KAWAV14A1K6BEMLH1HG","","244","img/flower1.png","75","245.10000002384186","2","1","1","2","1,0,0,1,1,0,1,0,1","0,1,0,0,1,1,1,1,0","3",""
"","html-keyboard-response","47","50487","0.0-47.0","3U088ZLJVLF4MHIWRMX3WNYF4W30WA","A7VA2Y4H6U31O","3EHVO81VN57KAWAV14A1K6BEMLH1HG","","null","<img src=""img/flower1.png"" style=""width:200px; border:14px solid green;"">","null","","","","","","","","",""
"","image-keyboard-response","48","50721","0.0-48.0","3U088ZLJVLF4MHIWRMX3WNYF4W30WA","A7VA2Y4H6U31O","3EHVO81VN57KAWAV14A1K6BEMLH1HG","","232.89999997615814","img/flower1.png","75","234.10000002384186","2","1","1","2","1,0,0,1,1,0,1,0,1","0,1,0,0,1,1,1,1,0","3",""
"","html-keyboard-response","49","51022","0.0-49.0","3U088ZLJVLF4MHIWRMX3WNYF4W30WA","A7VA2Y4H6U31O","3EHVO81VN57KAWAV14A1K6BEMLH1HG","","null","<img src=""img/flower1.png"" style=""width:200px; border:14px solid green;"">","null","","","","","","","","",""
"","image-keyboard-response","50","51217","0.0-50.0","3U088ZLJVLF4MHIWRMX3WNYF4W30WA","A7VA2Y4H6U31O","3EHVO81VN57KAWAV14A1K6BEMLH1HG","","194.70000004768372","img/flower6.png","75","195.10000002384186","2","1","2","2","1,0,0,1,1,0,1,0,1","0,1,0,0,1,1,1,1,0","3",""
"","html-keyboard-response","51","51519","0.0-51.0","3U088ZLJVLF4MHIWRMX3WNYF4W30WA","A7VA2Y4H6U31O","3EHVO81VN57KAWAV14A1K6BEMLH1HG","","null","<img src=""img/flower6.png"" style=""width:200px; border:14px solid green;"">","null","","","","","","","","",""
"","image-keyboard-response","52","51696","0.0-52.0","3U088ZLJVLF4MHIWRMX3WNYF4W30WA","A7VA2Y4H6U31O","3EHVO81VN57KAWAV14A1K6BEMLH1HG","","175.5","img/flower6.png","75","176.80000007152557","2","1","2","2","1,0,0,1,1,0,1,0,1","0,1,0,0,1,1,1,1,0","3",""
"","html-keyboard-response","53","51997","0.0-53.0","3U088ZLJVLF4MHIWRMX3WNYF4W30WA","A7VA2Y4H6U31O","3EHVO81VN57KAWAV14A1K6BEMLH1HG","","null","<img src=""img/flower6.png"" style=""width:200px; border:14px solid green;"">","null","","","","","","","","",""
"","image-keyboard-response","54","52076","0.0-54.0","3U088ZLJVLF4MHIWRMX3WNYF4W30WA","A7VA2Y4H6U31O","3EHVO81VN57KAWAV14A1K6BEMLH1HG","","77.39999997615814","img/flower2.png","75","78.60000002384186","2","1","3","2","1,0,0,1,1,0,1,0,1","0,1,0,0,1,1,1,1,0","3",""
"","html-keyboard-response","55","52378","0.0-55.0","3U088ZLJVLF4MHIWRMX3WNYF4W30WA","A7VA2Y4H6U31O","3EHVO81VN57KAWAV14A1K6BEMLH1HG","","null","<img src=""img/flower2.png"" style=""width:200px; border:14px solid green;"">","null","","","","","","","","",""
"","image-keyboard-response","56","52421","0.0-56.0","3U088ZLJVLF4MHIWRMX3WNYF4W30WA","A7VA2Y4H6U31O","3EHVO81VN57KAWAV14A1K6BEMLH1HG","","41.60000002384186","img/flower1.png","75","42.60000002384186","2","1","1","2","1,0,0,1,1,0,1,0,1","0,1,0,0,1,1,1,1,0","3",""
"","html-keyboard-response","57","52722","0.0-57.0","3U088ZLJVLF4MHIWRMX3WNYF4W30WA","A7VA2Y4H6U31O","3EHVO81VN57KAWAV14A1K6BEMLH1HG","","null","<img src=""img/flower1.png"" style=""width:200px; border:14px solid green;"">","null","","","","","","","","",""
"","image-keyboard-response","58","53048","0.0-58.0","3U088ZLJVLF4MHIWRMX3WNYF4W30WA","A7VA2Y4H6U31O","3EHVO81VN57KAWAV14A1K6BEMLH1HG","","325.3000000715256","img/flower2.png","75","326.10000002384186","2","1","3","2","1,0,0,1,1,0,1,0,1","0,1,0,0,1,1,1,1,0","3",""
"","html-keyboard-response","59","53349","0.0-59.0","3U088ZLJVLF4MHIWRMX3WNYF4W30WA","A7VA2Y4H6U31O","3EHVO81VN57KAWAV14A1K6BEMLH1HG","","null","<img src=""img/flower2.png"" style=""width:200px; border:14px solid green;"">","null","","","","","","","","",""
"","image-keyboard-response","60","53477","0.0-60.0","3U088ZLJVLF4MHIWRMX3WNYF4W30WA","A7VA2Y4H6U31O","3EHVO81VN57KAWAV14A1K6BEMLH1HG","","126.70000004768372","img/flower6.png","75","127.79999995231628","2","1","2","2","1,0,0,1,1,0,1,0,1","0,1,0,0,1,1,1,1,0","3",""
"","html-keyboard-response","61","53779","0.0-61.0","3U088ZLJVLF4MHIWRMX3WNYF4W30WA","A7VA2Y4H6U31O","3EHVO81VN57KAWAV14A1K6BEMLH1HG","","null","<img src=""img/flower6.png"" style=""width:200px; border:14px solid green;"">","null","","","","","","","","",""
"","image-keyboard-response","62","53879","0.0-62.0","3U088ZLJVLF4MHIWRMX3WNYF4W30WA","A7VA2Y4H6U31O","3EHVO81VN57KAWAV14A1K6BEMLH1HG","","99.10000002384186","img/flower1.png","75","100","2","1","1","2","1,0,0,1,1,0,1,0,1","0,1,0,0,1,1,1,1,0","3",""
"","html-keyboard-response","63","54181","0.0-63.0","3U088ZLJVLF4MHIWRMX3WNYF4W30WA","A7VA2Y4H6U31O","3EHVO81VN57KAWAV14A1K6BEMLH1HG","","null","<img src=""img/flower1.png"" style=""width:200px; border:14px solid green;"">","null","","","","","","","","",""
"","image-keyboard-response","64","54199","0.0-64.0","3U088ZLJVLF4MHIWRMX3WNYF4W30WA","A7VA2Y4H6U31O","3EHVO81VN57KAWAV14A1K6BEMLH1HG","","16.59999990463257","img/flower6.png","75","17.200000047683716","2","1","2","2","1,0,0,1,1,0,1,0,1","0,1,0,0,1,1,1,1,0","3",""
"","html-keyboard-response","65","54500","0.0-65.0","3U088ZLJVLF4MHIWRMX3WNYF4W30WA","A7VA2Y4H6U31O","3EHVO81VN57KAWAV14A1K6BEMLH1HG","","null","<img src=""img/flower6.png"" style=""width:200px; border:14px solid green;"">","null","","","","","","","","",""
"","image-keyboard-response","66","54562","0.0-66.0","3U088ZLJVLF4MHIWRMX3WNYF4W30WA","A7VA2Y4H6U31O","3EHVO81VN57KAWAV14A1K6BEMLH1HG","","60.799999952316284","img/flower6.png","75","61.300000071525574","2","1","2","2","1,0,0,1,1,0,1,0,1","0,1,0,0,1,1,1,1,0","3",""
"","html-keyboard-response","67","54863","0.0-67.0","3U088ZLJVLF4MHIWRMX3WNYF4W30WA","A7VA2Y4H6U31O","3EHVO81VN57KAWAV14A1K6BEMLH1HG","","null","<img src=""img/flower6.png"" style=""width:200px; border:14px solid green;"">","null","","","","","","","","",""
"","image-keyboard-response","68","54953","0.0-68.0","3U088ZLJVLF4MHIWRMX3WNYF4W30WA","A7VA2Y4H6U31O","3EHVO81VN57KAWAV14A1K6BEMLH1HG","","88.60000002384186","img/flower2.png","75","89.89999997615814","2","1","3","2","1,0,0,1,1,0,1,0,1","0,1,0,0,1,1,1,1,0","3",""
"","html-keyboard-response","69","55255","0.0-69.0","3U088ZLJVLF4MHIWRMX3WNYF4W30WA","A7VA2Y4H6U31O","3EHVO81VN57KAWAV14A1K6BEMLH1HG","","null","<img src=""img/flower2.png"" style=""width:200px; border:14px solid green;"">","null","","","","","","","","",""
"","image-keyboard-response","70","55341","0.0-70.0","3U088ZLJVLF4MHIWRMX3WNYF4W30WA","A7VA2Y4H6U31O","3EHVO81VN57KAWAV14A1K6BEMLH1HG","","86.29999995231628","img/flower1.png","75","86.79999995231628","2","1","1","2","1,0,0,1,1,0,1,0,1","0,1,0,0,1,1,1,1,0","3",""
"","html-keyboard-response","71","55644","0.0-71.0","3U088ZLJVLF4MHIWRMX3WNYF4W30WA","A7VA2Y4H6U31O","3EHVO81VN57KAWAV14A1K6BEMLH1HG","","null","<img src=""img/flower1.png"" style=""width:200px; border:14px solid green;"">","null","","","","","","","","",""
"","image-keyboard-response","72","55675","0.0-72.0","3U088ZLJVLF4MHIWRMX3WNYF4W30WA","A7VA2Y4H6U31O","3EHVO81VN57KAWAV14A1K6BEMLH1HG","","30.399999976158142","img/flower2.png","75","31.100000023841858","2","1","3","2","1,0,0,1,1,0,1,0,1","0,1,0,0,1,1,1,1,0","3",""
"","html-keyboard-response","73","55976","0.0-73.0","3U088ZLJVLF4MHIWRMX3WNYF4W30WA","A7VA2Y4H6U31O","3EHVO81VN57KAWAV14A1K6BEMLH1HG","","null","<img src=""img/flower2.png"" style=""width:200px; border:14px solid green;"">","null","","","","","","","","",""
"","image-keyboard-response","74","55983","0.0-74.0","3U088ZLJVLF4MHIWRMX3WNYF4W30WA","A7VA2Y4H6U31O","3EHVO81VN57KAWAV14A1K6BEMLH1HG","","4.899999976158142","img/flower6.png","75","6.199999928474426","2","1","2","2","1,0,0,1,1,0,1,0,1","0,1,0,0,1,1,1,1,0","3",""
"","html-keyboard-response","75","56284","0.0-75.0","3U088ZLJVLF4MHIWRMX3WNYF4W30WA","A7VA2Y4H6U31O","3EHVO81VN57KAWAV14A1K6BEMLH1HG","","null","<img src=""img/flower6.png"" style=""width:200px; border:14px solid green;"">","null","","","","","","","","",""
"","image-keyboard-response","76","56342","0.0-76.0","3U088ZLJVLF4MHIWRMX3WNYF4W30WA","A7VA2Y4H6U31O","3EHVO81VN57KAWAV14A1K6BEMLH1HG","","57.199999928474426","img/flower6.png","75","57.89999997615814","2","1","2","2","1,0,0,1,1,0,1,0,1","0,1,0,0,1,1,1,1,0","3",""
"","html-keyboard-response","77","56645","0.0-77.0","3U088ZLJVLF4MHIWRMX3WNYF4W30WA","A7VA2Y4H6U31O","3EHVO81VN57KAWAV14A1K6BEMLH1HG","","null","<img src=""img/flower6.png"" style=""width:200px; border:14px solid green;"">","null","","","","","","","","",""
"","image-keyboard-response","78","56712","0.0-78.0","3U088ZLJVLF4MHIWRMX3WNYF4W30WA","A7VA2Y4H6U31O","3EHVO81VN57KAWAV14A1K6BEMLH1HG","","66.39999997615814","img/flower2.png","75","67.5","2","1","3","2","1,0,0,1,1,0,1,0,1","0,1,0,0,1,1,1,1,0","3",""
"","html-keyboard-response","79","57014","0.0-79.0","3U088ZLJVLF4MHIWRMX3WNYF4W30WA","A7VA2Y4H6U31O","3EHVO81VN57KAWAV14A1K6BEMLH1HG","","null","<img src=""img/flower2.png"" style=""width:200px; border:14px solid green;"">","null","","","","","","","","",""
"","image-keyboard-response","80","57058","0.0-80.0","3U088ZLJVLF4MHIWRMX3WNYF4W30WA","A7VA2Y4H6U31O","3EHVO81VN57KAWAV14A1K6BEMLH1HG","","42.300000071525574","img/flower1.png","75","43.299999952316284","2","1","1","2","1,0,0,1,1,0,1,0,1","0,1,0,0,1,1,1,1,0","3",""
"","html-keyboard-response","81","57360","0.0-81.0","3U088ZLJVLF4MHIWRMX3WNYF4W30WA","A7VA2Y4H6U31O","3EHVO81VN57KAWAV14A1K6BEMLH1HG","","null","<img src=""img/flower1.png"" style=""width:200px; border:14px solid green;"">","null","","","","","","","","",""
"","image-keyboard-response","82","57669","0.0-82.0","3U088ZLJVLF4MHIWRMX3WNYF4W30WA","A7VA2Y4H6U31O","3EHVO81VN57KAWAV14A1K6BEMLH1HG","","307.89999997615814","img/flower1.png","75","309","2","1","1","2","1,0,0,1,1,0,1,0,1","0,1,0,0,1,1,1,1,0","3",""
"","html-keyboard-response","83","57970","0.0-83.0","3U088ZLJVLF4MHIWRMX3WNYF4W30WA","A7VA2Y4H6U31O","3EHVO81VN57KAWAV14A1K6BEMLH1HG","","null","<img src=""img/flower1.png"" style=""width:200px; border:14px solid green;"">","null","","","","","","","","",""
"","image-keyboard-response","84","57989","0.0-84.0","3U088ZLJVLF4MHIWRMX3WNYF4W30WA","A7VA2Y4H6U31O","3EHVO81VN57KAWAV14A1K6BEMLH1HG","","18","img/flower6.png","75","19.199999928474426","2","1","2","2","1,0,0,1,1,0,1,0,1","0,1,0,0,1,1,1,1,0","3",""
"","html-keyboard-response","85","58290","0.0-85.0","3U088ZLJVLF4MHIWRMX3WNYF4W30WA","A7VA2Y4H6U31O","3EHVO81VN57KAWAV14A1K6BEMLH1HG","","null","<img src=""img/flower6.png"" style=""width:200px; border:14px solid green;"">","null","","","","","","","","",""
"","image-keyboard-response","86","58322","0.0-86.0","3U088ZLJVLF4MHIWRMX3WNYF4W30WA","A7VA2Y4H6U31O","3EHVO81VN57KAWAV14A1K6BEMLH1HG","","29.699999928474426","img/flower2.png","75","31.199999928474426","2","1","3","2","1,0,0,1,1,0,1,0,1","0,1,0,0,1,1,1,1,0","3",""
"","html-keyboard-response","87","58624","0.0-87.0","3U088ZLJVLF4MHIWRMX3WNYF4W30WA","A7VA2Y4H6U31O","3EHVO81VN57KAWAV14A1K6BEMLH1HG","","null","<img src=""img/flower2.png"" style=""width:200px; border:14px solid green;"">","null","","","","","","","","",""
"","image-keyboard-response","88","58909","0.0-88.0","3U088ZLJVLF4MHIWRMX3WNYF4W30WA","A7VA2Y4H6U31O","3EHVO81VN57KAWAV14A1K6BEMLH1HG","","283","img/flower6.png","75","284.09999990463257","2","1","2","2","1,0,0,1,1,0,1,0,1","0,1,0,0,1,1,1,1,0","3",""
"","html-keyboard-response","89","59210","0.0-89.0","3U088ZLJVLF4MHIWRMX3WNYF4W30WA","A7VA2Y4H6U31O","3EHVO81VN57KAWAV14A1K6BEMLH1HG","","null","<img src=""img/flower6.png"" style=""width:200px; border:14px solid green;"">","null","","","","","","","","",""
"","image-keyboard-response","90","59485","0.0-90.0","3U088ZLJVLF4MHIWRMX3WNYF4W30WA","A7VA2Y4H6U31O","3EHVO81VN57KAWAV14A1K6BEMLH1HG","","273.39999997615814","img/flower6.png","75","274.40000009536743","2","1","2","2","1,0,0,1,1,0,1,0,1","0,1,0,0,1,1,1,1,0","3",""
"","html-keyboard-response","91","59786","0.0-91.0","3U088ZLJVLF4MHIWRMX3WNYF4W30WA","A7VA2Y4H6U31O","3EHVO81VN57KAWAV14A1K6BEMLH1HG","","null","<img src=""img/flower6.png"" style=""width:200px; border:14px solid green;"">","null","","","","","","","","",""
"","image-keyboard-response","92","59806","0.0-92.0","3U088ZLJVLF4MHIWRMX3WNYF4W30WA","A7VA2Y4H6U31O","3EHVO81VN57KAWAV14A1K6BEMLH1HG","","18.299999952316284","img/flower6.png","75","19.5","2","1","2","2","1,0,0,1,1,0,1,0,1","0,1,0,0,1,1,1,1,0","3",""
"","html-keyboard-response","93","60107","0.0-93.0","3U088ZLJVLF4MHIWRMX3WNYF4W30WA","A7VA2Y4H6U31O","3EHVO81VN57KAWAV14A1K6BEMLH1HG","","null","<img src=""img/flower6.png"" style=""width:200px; border:14px solid green;"">","null","","","","","","","","",""
"","image-keyboard-response","94","60132","0.0-94.0","3U088ZLJVLF4MHIWRMX3WNYF4W30WA","A7VA2Y4H6U31O","3EHVO81VN57KAWAV14A1K6BEMLH1HG","","23.399999976158142","img/flower2.png","75","24.5","2","1","3","2","1,0,0,1,1,0,1,0,1","0,1,0,0,1,1,1,1,0","3",""
"","html-keyboard-response","95","60433","0.0-95.0","3U088ZLJVLF4MHIWRMX3WNYF4W30WA","A7VA2Y4H6U31O","3EHVO81VN57KAWAV14A1K6BEMLH1HG","","null","<img src=""img/flower2.png"" style=""width:200px; border:14px solid green;"">","null","","","","","","","","",""
"","image-keyboard-response","96","60691","0.0-96.0","3U088ZLJVLF4MHIWRMX3WNYF4W30WA","A7VA2Y4H6U31O","3EHVO81VN57KAWAV14A1K6BEMLH1HG","","256.5","img/flower2.png","75","257","2","1","3","2","1,0,0,1,1,0,1,0,1","0,1,0,0,1,1,1,1,0","3",""
"","html-keyboard-response","97","60993","0.0-97.0","3U088ZLJVLF4MHIWRMX3WNYF4W30WA","A7VA2Y4H6U31O","3EHVO81VN57KAWAV14A1K6BEMLH1HG","","null","<img src=""img/flower2.png"" style=""width:200px; border:14px solid green;"">","null","","","","","","","","",""
"","image-keyboard-response","98","61261","0.0-98.0","3U088ZLJVLF4MHIWRMX3WNYF4W30WA","A7VA2Y4H6U31O","3EHVO81VN57KAWAV14A1K6BEMLH1HG","","267.2000000476837","img/flower2.png","75","268.39999997615814","2","1","3","2","1,0,0,1,1,0,1,0,1","0,1,0,0,1,1,1,1,0","3",""
"","html-keyboard-response","99","61562","0.0-99.0","3U088ZLJVLF4MHIWRMX3WNYF4W30WA","A7VA2Y4H6U31O","3EHVO81VN57KAWAV14A1K6BEMLH1HG","","null","<img src=""img/flower2.png"" style=""width:200px; border:14px solid green;"">","null","","","","","","","","",""
"","image-keyboard-response","100","61598","0.0-100.0","3U088ZLJVLF4MHIWRMX3WNYF4W30WA","A7VA2Y4H6U31O","3EHVO81VN57KAWAV14A1K6BEMLH1HG","","34.700000047683716","img/flower6.png","75","35.60000002384186","2","1","2","2","1,0,0,1,1,0,1,0,1","0,1,0,0,1,1,1,1,0","3",""
"","html-keyboard-response","101","61901","0.0-101.0","3U088ZLJVLF4MHIWRMX3WNYF4W30WA","A7VA2Y4H6U31O","3EHVO81VN57KAWAV14A1K6BEMLH1HG","","null","<img src=""img/flower6.png"" style=""width:200px; border:14px solid green;"">","null","","","","","","","","",""
"","image-keyboard-response","102","61901","0.0-102.0","3U088ZLJVLF4MHIWRMX3WNYF4W30WA","A7VA2Y4H6U31O","3EHVO81VN57KAWAV14A1K6BEMLH1HG","","0.10000002384185791","img/flower1.png","75","0.40000009536743164","2","1","1","2","1,0,0,1,1,0,1,0,1","0,1,0,0,1,1,1,1,0","3",""
"","html-keyboard-response","103","62202","0.0-103.0","3U088ZLJVLF4MHIWRMX3WNYF4W30WA","A7VA2Y4H6U31O","3EHVO81VN57KAWAV14A1K6BEMLH1HG","","null","<img src=""img/flower1.png"" style=""width:200px; border:14px solid green;"">","null","","","","","","","","",""
"","image-keyboard-response","104","62479","0.0-104.0","3U088ZLJVLF4MHIWRMX3WNYF4W30WA","A7VA2Y4H6U31O","3EHVO81VN57KAWAV14A1K6BEMLH1HG","","275.6999999284744","img/flower2.png","75","276.3000000715256","2","1","3","2","1,0,0,1,1,0,1,0,1","0,1,0,0,1,1,1,1,0","3",""
"","html-keyboard-response","105","62780","0.0-105.0","3U088ZLJVLF4MHIWRMX3WNYF4W30WA","A7VA2Y4H6U31O","3EHVO81VN57KAWAV14A1K6BEMLH1HG","","null","<img src=""img/flower2.png"" style=""width:200px; border:14px solid green;"">","null","","","","","","","","",""
"","image-keyboard-response","106","63222","0.0-106.0","3U088ZLJVLF4MHIWRMX3WNYF4W30WA","A7VA2Y4H6U31O","3EHVO81VN57KAWAV14A1K6BEMLH1HG","","441.39999997615814","img/flower2.png","75","441.89999997615814","2","1","3","2","1,0,0,1,1,0,1,0,1","0,1,0,0,1,1,1,1,0","3",""
"","html-keyboard-response","107","63537","0.0-107.0","3U088ZLJVLF4MHIWRMX3WNYF4W30WA","A7VA2Y4H6U31O","3EHVO81VN57KAWAV14A1K6BEMLH1HG","","null","<img src=""img/flower2.png"" style=""width:200px; border:14px solid green;"">","null","","","","","","","","",""
"","image-keyboard-response","108","63565","0.0-108.0","3U088ZLJVLF4MHIWRMX3WNYF4W30WA","A7VA2Y4H6U31O","3EHVO81VN57KAWAV14A1K6BEMLH1HG","","26.899999976158142","img/flower2.png","75","28","2","1","3","2","1,0,0,1,1,0,1,0,1","0,1,0,0,1,1,1,1,0","3",""
"","html-keyboard-response","109","63867","0.0-109.0","3U088ZLJVLF4MHIWRMX3WNYF4W30WA","A7VA2Y4H6U31O","3EHVO81VN57KAWAV14A1K6BEMLH1HG","","null","<img src=""img/flower2.png"" style=""width:200px; border:14px solid green;"">","null","","","","","","","","",""
"","image-keyboard-response","110","63875","0.0-110.0","3U088ZLJVLF4MHIWRMX3WNYF4W30WA","A7VA2Y4H6U31O","3EHVO81VN57KAWAV14A1K6BEMLH1HG","","6.799999952316284","img/flower1.png","75","7.899999976158142","2","1","1","2","1,0,0,1,1,0,1,0,1","0,1,0,0,1,1,1,1,0","3",""
"","html-keyboard-response","111","64176","0.0-111.0","3U088ZLJVLF4MHIWRMX3WNYF4W30WA","A7VA2Y4H6U31O","3EHVO81VN57KAWAV14A1K6BEMLH1HG","","null","<img src=""img/flower1.png"" style=""width:200px; border:14px solid green;"">","null","","","","","","","","",""
"","image-keyboard-response","112","64466","0.0-112.0","3U088ZLJVLF4MHIWRMX3WNYF4W30WA","A7VA2Y4H6U31O","3EHVO81VN57KAWAV14A1K6BEMLH1HG","","288.7000000476837","img/flower6.png","75","289.2000000476837","2","1","2","2","1,0,0,1,1,0,1,0,1","0,1,0,0,1,1,1,1,0","3",""
"","html-keyboard-response","113","64768","0.0-113.0","3U088ZLJVLF4MHIWRMX3WNYF4W30WA","A7VA2Y4H6U31O","3EHVO81VN57KAWAV14A1K6BEMLH1HG","","null","<img src=""img/flower6.png"" style=""width:200px; border:14px solid green;"">","null","","","","","","","","",""
"","image-keyboard-response","114","64851","0.0-114.0","3U088ZLJVLF4MHIWRMX3WNYF4W30WA","A7VA2Y4H6U31O","3EHVO81VN57KAWAV14A1K6BEMLH1HG","","81.89999997615814","img/flower1.png","75","83","2","1","1","2","1,0,0,1,1,0,1,0,1","0,1,0,0,1,1,1,1,0","3",""
"","html-keyboard-response","115","65153","0.0-115.0","3U088ZLJVLF4MHIWRMX3WNYF4W30WA","A7VA2Y4H6U31O","3EHVO81VN57KAWAV14A1K6BEMLH1HG","","null","<img src=""img/flower1.png"" style=""width:200px; border:14px solid green;"">","null","","","","","","","","",""
"","image-keyboard-response","116","65232","0.0-116.0","3U088ZLJVLF4MHIWRMX3WNYF4W30WA","A7VA2Y4H6U31O","3EHVO81VN57KAWAV14A1K6BEMLH1HG","","78.10000002384186","img/flower2.png","75","79.10000002384186","2","1","3","2","1,0,0,1,1,0,1,0,1","0,1,0,0,1,1,1,1,0","3",""
"","html-keyboard-response","117","65534","0.0-117.0","3U088ZLJVLF4MHIWRMX3WNYF4W30WA","A7VA2Y4H6U31O","3EHVO81VN57KAWAV14A1K6BEMLH1HG","","null","<img src=""img/flower2.png"" style=""width:200px; border:14px solid green;"">","null","","","","","","","","",""
"","image-keyboard-response","118","65594","0.0-118.0","3U088ZLJVLF4MHIWRMX3WNYF4W30WA","A7VA2Y4H6U31O","3EHVO81VN57KAWAV14A1K6BEMLH1HG","","58.5","img/flower6.png","75","59.59999990463257","2","1","2","2","1,0,0,1,1,0,1,0,1","0,1,0,0,1,1,1,1,0","3",""
"","html-keyboard-response","119","65906","0.0-119.0","3U088ZLJVLF4MHIWRMX3WNYF4W30WA","A7VA2Y4H6U31O","3EHVO81VN57KAWAV14A1K6BEMLH1HG","","null","<img src=""img/flower6.png"" style=""width:200px; border:14px solid green;"">","null","","","","","","","","",""
"","image-keyboard-response","120","65910","0.0-120.0","3U088ZLJVLF4MHIWRMX3WNYF4W30WA","A7VA2Y4H6U31O","3EHVO81VN57KAWAV14A1K6BEMLH1HG","","2.399999976158142","img/flower1.png","75","3.5999999046325684","2","1","1","2","1,0,0,1,1,0,1,0,1","0,1,0,0,1,1,1,1,0","3",""
"","html-keyboard-response","121","66217","0.0-121.0","3U088ZLJVLF4MHIWRMX3WNYF4W30WA","A7VA2Y4H6U31O","3EHVO81VN57KAWAV14A1K6BEMLH1HG","","null","<img src=""img/flower1.png"" style=""width:200px; border:14px solid green;"">","null","","","","","","","","",""
"","image-keyboard-response","122","66288","0.0-122.0","3U088ZLJVLF4MHIWRMX3WNYF4W30WA","A7VA2Y4H6U31O","3EHVO81VN57KAWAV14A1K6BEMLH1HG","","70.10000002384186","img/flower6.png","75","70.80000007152557","2","1","2","2","1,0,0,1,1,0,1,0,1","0,1,0,0,1,1,1,1,0","3",""
"","html-keyboard-response","123","66590","0.0-123.0","3U088ZLJVLF4MHIWRMX3WNYF4W30WA","A7VA2Y4H6U31O","3EHVO81VN57KAWAV14A1K6BEMLH1HG","","null","<img src=""img/flower6.png"" style=""width:200px; border:14px solid green;"">","null","","","","","","","","",""
"","image-keyboard-response","124","66620","0.0-124.0","3U088ZLJVLF4MHIWRMX3WNYF4W30WA","A7VA2Y4H6U31O","3EHVO81VN57KAWAV14A1K6BEMLH1HG","","29","img/flower6.png","75","30.300000071525574","2","1","2","2","1,0,0,1,1,0,1,0,1","0,1,0,0,1,1,1,1,0","3",""
"","html-keyboard-response","125","66921","0.0-125.0","3U088ZLJVLF4MHIWRMX3WNYF4W30WA","A7VA2Y4H6U31O","3EHVO81VN57KAWAV14A1K6BEMLH1HG","","null","<img src=""img/flower6.png"" style=""width:200px; border:14px solid green;"">","null","","","","","","","","",""
"","image-keyboard-response","126","66997","0.0-126.0","3U088ZLJVLF4MHIWRMX3WNYF4W30WA","A7VA2Y4H6U31O","3EHVO81VN57KAWAV14A1K6BEMLH1HG","","74.20000004768372","img/flower1.png","75","75.60000002384186","2","1","1","2","1,0,0,1,1,0,1,0,1","0,1,0,0,1,1,1,1,0","3",""
"","html-keyboard-response","127","67298","0.0-127.0","3U088ZLJVLF4MHIWRMX3WNYF4W30WA","A7VA2Y4H6U31O","3EHVO81VN57KAWAV14A1K6BEMLH1HG","","null","<img src=""img/flower1.png"" style=""width:200px; border:14px solid green;"">","null","","","","","","","","",""
"","image-keyboard-response","128","67304","0.0-128.0","3U088ZLJVLF4MHIWRMX3WNYF4W30WA","A7VA2Y4H6U31O","3EHVO81VN57KAWAV14A1K6BEMLH1HG","","4.5","img/flower1.png","75","5.800000071525574","2","1","1","2","1,0,0,1,1,0,1,0,1","0,1,0,0,1,1,1,1,0","3",""
"","html-keyboard-response","129","67606","0.0-129.0","3U088ZLJVLF4MHIWRMX3WNYF4W30WA","A7VA2Y4H6U31O","3EHVO81VN57KAWAV14A1K6BEMLH1HG","","null","<img src=""img/flower1.png"" style=""width:200px; border:14px solid green;"">","null","","","","","","","","",""
"","image-keyboard-response","130","67620","0.0-130.0","3U088ZLJVLF4MHIWRMX3WNYF4W30WA","A7VA2Y4H6U31O","3EHVO81VN57KAWAV14A1K6BEMLH1HG","","13.399999976158142","img/flower1.png","75","14.399999976158142","2","1","1","2","1,0,0,1,1,0,1,0,1","0,1,0,0,1,1,1,1,0","3",""
"","html-keyboard-response","131","67921","0.0-131.0","3U088ZLJVLF4MHIWRMX3WNYF4W30WA","A7VA2Y4H6U31O","3EHVO81VN57KAWAV14A1K6BEMLH1HG","","null","<img src=""img/flower1.png"" style=""width:200px; border:14px solid green;"">","null","","","","","","","","",""
"","image-keyboard-response","132","68259","0.0-132.0","3U088ZLJVLF4MHIWRMX3WNYF4W30WA","A7VA2Y4H6U31O","3EHVO81VN57KAWAV14A1K6BEMLH1HG","","337.60000002384186","img/flower6.png","75","338.09999990463257","2","1","2","2","1,0,0,1,1,0,1,0,1","0,1,0,0,1,1,1,1,0","3",""
"","html-keyboard-response","133","68561","0.0-133.0","3U088ZLJVLF4MHIWRMX3WNYF4W30WA","A7VA2Y4H6U31O","3EHVO81VN57KAWAV14A1K6BEMLH1HG","","null","<img src=""img/flower6.png"" style=""width:200px; border:14px solid green;"">","null","","","","","","","","",""
"","image-keyboard-response","134","68783","0.0-134.0","3U088ZLJVLF4MHIWRMX3WNYF4W30WA","A7VA2Y4H6U31O","3EHVO81VN57KAWAV14A1K6BEMLH1HG","","220.60000002384186","img/flower2.png","75","221.90000009536743","2","1","3","2","1,0,0,1,1,0,1,0,1","0,1,0,0,1,1,1,1,0","3",""
"","html-keyboard-response","135","69084","0.0-135.0","3U088ZLJVLF4MHIWRMX3WNYF4W30WA","A7VA2Y4H6U31O","3EHVO81VN57KAWAV14A1K6BEMLH1HG","","null","<img src=""img/flower2.png"" style=""width:200px; border:14px solid green;"">","null","","","","","","","","",""
"","image-keyboard-response","136","69167","0.0-136.0","3U088ZLJVLF4MHIWRMX3WNYF4W30WA","A7VA2Y4H6U31O","3EHVO81VN57KAWAV14A1K6BEMLH1HG","","81","img/flower2.png","75","82.10000002384186","2","1","3","2","1,0,0,1,1,0,1,0,1","0,1,0,0,1,1,1,1,0","3",""
"","html-keyboard-response","137","69468","0.0-137.0","3U088ZLJVLF4MHIWRMX3WNYF4W30WA","A7VA2Y4H6U31O","3EHVO81VN57KAWAV14A1K6BEMLH1HG","","null","<img src=""img/flower2.png"" style=""width:200px; border:14px solid green;"">","null","","","","","","","","",""
"","image-keyboard-response","138","69530","0.0-138.0","3U088ZLJVLF4MHIWRMX3WNYF4W30WA","A7VA2Y4H6U31O","3EHVO81VN57KAWAV14A1K6BEMLH1HG","","60.60000002384186","img/flower6.png","75","61.10000002384186","2","1","2","2","1,0,0,1,1,0,1,0,1","0,1,0,0,1,1,1,1,0","3",""
"","html-keyboard-response","139","69831","0.0-139.0","3U088ZLJVLF4MHIWRMX3WNYF4W30WA","A7VA2Y4H6U31O","3EHVO81VN57KAWAV14A1K6BEMLH1HG","","null","<img src=""img/flower6.png"" style=""width:200px; border:14px solid green;"">","null","","","","","","","","",""
"","image-keyboard-response","140","70137","0.0-140.0","3U088ZLJVLF4MHIWRMX3WNYF4W30WA","A7VA2Y4H6U31O","3EHVO81VN57KAWAV14A1K6BEMLH1HG","","304.8000000715256","img/flower1.png","75","305.39999997615814","2","1","1","2","1,0,0,1,1,0,1,0,1","0,1,0,0,1,1,1,1,0","3",""
"","html-keyboard-response","141","70438","0.0-141.0","3U088ZLJVLF4MHIWRMX3WNYF4W30WA","A7VA2Y4H6U31O","3EHVO81VN57KAWAV14A1K6BEMLH1HG","","null","<img src=""img/flower1.png"" style=""width:200px; border:14px solid green;"">","null","","","","","","","","",""
"","image-keyboard-response","142","70546","0.0-142.0","3U088ZLJVLF4MHIWRMX3WNYF4W30WA","A7VA2Y4H6U31O","3EHVO81VN57KAWAV14A1K6BEMLH1HG","","105.80000007152557","img/flower2.png","75","107.10000002384186","2","1","3","2","1,0,0,1,1,0,1,0,1","0,1,0,0,1,1,1,1,0","3",""
"","html-keyboard-response","143","70848","0.0-143.0","3U088ZLJVLF4MHIWRMX3WNYF4W30WA","A7VA2Y4H6U31O","3EHVO81VN57KAWAV14A1K6BEMLH1HG","","null","<img src=""img/flower2.png"" style=""width:200px; border:14px solid green;"">","null","","","","","","","","",""
"","image-keyboard-response","144","70883","0.0-144.0","3U088ZLJVLF4MHIWRMX3WNYF4W30WA","A7VA2Y4H6U31O","3EHVO81VN57KAWAV14A1K6BEMLH1HG","","33.799999952316284","img/flower6.png","75","34.89999997615814","2","1","2","2","1,0,0,1,1,0,1,0,1","0,1,0,0,1,1,1,1,0","3",""
"","html-keyboard-response","145","71184","0.0-145.0","3U088ZLJVLF4MHIWRMX3WNYF4W30WA","A7VA2Y4H6U31O","3EHVO81VN57KAWAV14A1K6BEMLH1HG","","null","<img src=""img/flower6.png"" style=""width:200px; border:14px solid green;"">","null","","","","","","","","",""
"","image-keyboard-response","146","71297","0.0-146.0","3U088ZLJVLF4MHIWRMX3WNYF4W30WA","A7VA2Y4H6U31O","3EHVO81VN57KAWAV14A1K6BEMLH1HG","","112.10000002384186","img/flower1.png","75","112.39999997615814","2","1","1","2","1,0,0,1,1,0,1,0,1","0,1,0,0,1,1,1,1,0","3",""
"","html-keyboard-response","147","71599","0.0-147.0","3U088ZLJVLF4MHIWRMX3WNYF4W30WA","A7VA2Y4H6U31O","3EHVO81VN57KAWAV14A1K6BEMLH1HG","","null","<img src=""img/flower1.png"" style=""width:200px; border:14px solid green;"">","null","","","","","","","","",""
"","image-keyboard-response","148","71712","0.0-148.0","3U088ZLJVLF4MHIWRMX3WNYF4W30WA","A7VA2Y4H6U31O","3EHVO81VN57KAWAV14A1K6BEMLH1HG","","111.89999997615814","img/flower6.png","75","113","2","1","2","2","1,0,0,1,1,0,1,0,1","0,1,0,0,1,1,1,1,0","3",""
"","html-keyboard-response","149","72015","0.0-149.0","3U088ZLJVLF4MHIWRMX3WNYF4W30WA","A7VA2Y4H6U31O","3EHVO81VN57KAWAV14A1K6BEMLH1HG","","null","<img src=""img/flower6.png"" style=""width:200px; border:14px solid green;"">","null","","","","","","","","",""
"","image-keyboard-response","150","72049","0.0-150.0","3U088ZLJVLF4MHIWRMX3WNYF4W30WA","A7VA2Y4H6U31O","3EHVO81VN57KAWAV14A1K6BEMLH1HG","","32.90000009536743","img/flower6.png","75","34.10000002384186","2","1","2","2","1,0,0,1,1,0,1,0,1","0,1,0,0,1,1,1,1,0","3",""
"","html-keyboard-response","151","72351","0.0-151.0","3U088ZLJVLF4MHIWRMX3WNYF4W30WA","A7VA2Y4H6U31O","3EHVO81VN57KAWAV14A1K6BEMLH1HG","","null","<img src=""img/flower6.png"" style=""width:200px; border:14px solid green;"">","null","","","","","","","","",""
"","image-keyboard-response","152","72411","0.0-152.0","3U088ZLJVLF4MHIWRMX3WNYF4W30WA","A7VA2Y4H6U31O","3EHVO81VN57KAWAV14A1K6BEMLH1HG","","58.700000047683716","img/flower1.png","75","59.700000047683716","2","1","1","2","1,0,0,1,1,0,1,0,1","0,1,0,0,1,1,1,1,0","3",""
"","html-keyboard-response","153","72713","0.0-153.0","3U088ZLJVLF4MHIWRMX3WNYF4W30WA","A7VA2Y4H6U31O","3EHVO81VN57KAWAV14A1K6BEMLH1HG","","null","<img src=""img/flower1.png"" style=""width:200px; border:14px solid green;"">","null","","","","","","","","",""
"","image-keyboard-response","154","72754","0.0-154.0","3U088ZLJVLF4MHIWRMX3WNYF4W30WA","A7VA2Y4H6U31O","3EHVO81VN57KAWAV14A1K6BEMLH1HG","","39.700000047683716","img/flower1.png","75","40.199999928474426","2","1","1","2","1,0,0,1,1,0,1,0,1","0,1,0,0,1,1,1,1,0","3",""
"","html-keyboard-response","155","73055","0.0-155.0","3U088ZLJVLF4MHIWRMX3WNYF4W30WA","A7VA2Y4H6U31O","3EHVO81VN57KAWAV14A1K6BEMLH1HG","","null","<img src=""img/flower1.png"" style=""width:200px; border:14px solid green;"">","null","","","","","","","","",""
"","image-keyboard-response","156","73064","0.0-156.0","3U088ZLJVLF4MHIWRMX3WNYF4W30WA","A7VA2Y4H6U31O","3EHVO81VN57KAWAV14A1K6BEMLH1HG","","7.600000023841858","img/flower1.png","75","8.200000047683716","2","1","1","2","1,0,0,1,1,0,1,0,1","0,1,0,0,1,1,1,1,0","3",""
"","html-keyboard-response","157","73364","0.0-157.0","3U088ZLJVLF4MHIWRMX3WNYF4W30WA","A7VA2Y4H6U31O","3EHVO81VN57KAWAV14A1K6BEMLH1HG","","null","<img src=""img/flower1.png"" style=""width:200px; border:14px solid green;"">","null","","","","","","","","",""
"","image-keyboard-response","158","73415","0.0-158.0","3U088ZLJVLF4MHIWRMX3WNYF4W30WA","A7VA2Y4H6U31O","3EHVO81VN57KAWAV14A1K6BEMLH1HG","","49.699999928474426","img/flower2.png","75","50.5","2","1","3","2","1,0,0,1,1,0,1,0,1","0,1,0,0,1,1,1,1,0","3",""
"","html-keyboard-response","159","73717","0.0-159.0","3U088ZLJVLF4MHIWRMX3WNYF4W30WA","A7VA2Y4H6U31O","3EHVO81VN57KAWAV14A1K6BEMLH1HG","","null","<img src=""img/flower2.png"" style=""width:200px; border:14px solid green;"">","null","","","","","","","","",""
"","image-keyboard-response","160","73763","0.0-160.0","3U088ZLJVLF4MHIWRMX3WNYF4W30WA","A7VA2Y4H6U31O","3EHVO81VN57KAWAV14A1K6BEMLH1HG","","44.10000002384186","img/flower2.png","75","45.39999997615814","2","1","3","2","1,0,0,1,1,0,1,0,1","0,1,0,0,1,1,1,1,0","3",""
"","html-keyboard-response","161","74065","0.0-161.0","3U088ZLJVLF4MHIWRMX3WNYF4W30WA","A7VA2Y4H6U31O","3EHVO81VN57KAWAV14A1K6BEMLH1HG","","null","<img src=""img/flower2.png"" style=""width:200px; border:14px solid green;"">","null","","","","","","","","",""
"","image-keyboard-response","162","74074","0.0-162.0","3U088ZLJVLF4MHIWRMX3WNYF4W30WA","A7VA2Y4H6U31O","3EHVO81VN57KAWAV14A1K6BEMLH1HG","","7.299999952316284","img/flower6.png","75","8.399999976158142","2","1","2","2","1,0,0,1,1,0,1,0,1","0,1,0,0,1,1,1,1,0","3",""
"","html-keyboard-response","163","74375","0.0-163.0","3U088ZLJVLF4MHIWRMX3WNYF4W30WA","A7VA2Y4H6U31O","3EHVO81VN57KAWAV14A1K6BEMLH1HG","","null","<img src=""img/flower6.png"" style=""width:200px; border:14px solid green;"">","null","","","","","","","","",""
"","image-keyboard-response","164","74714","0.0-164.0","3U088ZLJVLF4MHIWRMX3WNYF4W30WA","A7VA2Y4H6U31O","3EHVO81VN57KAWAV14A1K6BEMLH1HG","","337.39999997615814","img/flower2.png","75","338.40000009536743","2","1","3","2","1,0,0,1,1,0,1,0,1","0,1,0,0,1,1,1,1,0","3",""
"","html-keyboard-response","165","75015","0.0-165.0","3U088ZLJVLF4MHIWRMX3WNYF4W30WA","A7VA2Y4H6U31O","3EHVO81VN57KAWAV14A1K6BEMLH1HG","","null","<img src=""img/flower2.png"" style=""width:200px; border:14px solid green;"">","null","","","","","","","","",""
"","image-keyboard-response","166","75070","0.0-166.0","3U088ZLJVLF4MHIWRMX3WNYF4W30WA","A7VA2Y4H6U31O","3EHVO81VN57KAWAV14A1K6BEMLH1HG","","53.39999997615814","img/flower6.png","75","54.60000002384186","2","1","2","2","1,0,0,1,1,0,1,0,1","0,1,0,0,1,1,1,1,0","3",""
"","html-keyboard-response","167","75371","0.0-167.0","3U088ZLJVLF4MHIWRMX3WNYF4W30WA","A7VA2Y4H6U31O","3EHVO81VN57KAWAV14A1K6BEMLH1HG","","null","<img src=""img/flower6.png"" style=""width:200px; border:14px solid green;"">","null","","","","","","","","",""
"","image-keyboard-response","168","75382","0.0-168.0","3U088ZLJVLF4MHIWRMX3WNYF4W30WA","A7VA2Y4H6U31O","3EHVO81VN57KAWAV14A1K6BEMLH1HG","","9.5","img/flower1.png","75","10.699999928474426","2","1","1","2","1,0,0,1,1,0,1,0,1","0,1,0,0,1,1,1,1,0","3",""
"","html-keyboard-response","169","75684","0.0-169.0","3U088ZLJVLF4MHIWRMX3WNYF4W30WA","A7VA2Y4H6U31O","3EHVO81VN57KAWAV14A1K6BEMLH1HG","","null","<img src=""img/flower1.png"" style=""width:200px; border:14px solid green;"">","null","","","","","","","","",""
"","image-keyboard-response","170","75709","0.0-170.0","3U088ZLJVLF4MHIWRMX3WNYF4W30WA","A7VA2Y4H6U31O","3EHVO81VN57KAWAV14A1K6BEMLH1HG","","24","img/flower2.png","75","25","2","1","3","2","1,0,0,1,1,0,1,0,1","0,1,0,0,1,1,1,1,0","3",""
"","html-keyboard-response","171","76012","0.0-171.0","3U088ZLJVLF4MHIWRMX3WNYF4W30WA","A7VA2Y4H6U31O","3EHVO81VN57KAWAV14A1K6BEMLH1HG","","null","<img src=""img/flower2.png"" style=""width:200px; border:14px solid green;"">","null","","","","","","","","",""
"","image-keyboard-response","172","76307","0.0-172.0","3U088ZLJVLF4MHIWRMX3WNYF4W30WA","A7VA2Y4H6U31O","3EHVO81VN57KAWAV14A1K6BEMLH1HG","","294.10000002384186","img/flower1.png","75","295.10000002384186","2","1","1","2","1,0,0,1,1,0,1,0,1","0,1,0,0,1,1,1,1,0","3",""
"","html-keyboard-response","173","76608","0.0-173.0","3U088ZLJVLF4MHIWRMX3WNYF4W30WA","A7VA2Y4H6U31O","3EHVO81VN57KAWAV14A1K6BEMLH1HG","","null","<img src=""img/flower1.png"" style=""width:200px; border:14px solid green;"">","null","","","","","","","","",""
"","image-keyboard-response","174","76631","0.0-174.0","3U088ZLJVLF4MHIWRMX3WNYF4W30WA","A7VA2Y4H6U31O","3EHVO81VN57KAWAV14A1K6BEMLH1HG","","20.699999928474426","img/flower1.png","75","21.799999952316284","2","1","1","2","1,0,0,1,1,0,1,0,1","0,1,0,0,1,1,1,1,0","3",""
"","html-keyboard-response","175","76932","0.0-175.0","3U088ZLJVLF4MHIWRMX3WNYF4W30WA","A7VA2Y4H6U31O","3EHVO81VN57KAWAV14A1K6BEMLH1HG","","null","<img src=""img/flower1.png"" style=""width:200px; border:14px solid green;"">","null","","","","","","","","",""
"","image-keyboard-response","176","77028","0.0-176.0","3U088ZLJVLF4MHIWRMX3WNYF4W30WA","A7VA2Y4H6U31O","3EHVO81VN57KAWAV14A1K6BEMLH1HG","","94.40000009536743","img/flower1.png","75","95.5","2","1","1","2","1,0,0,1,1,0,1,0,1","0,1,0,0,1,1,1,1,0","3",""
"","html-keyboard-response","177","77329","0.0-177.0","3U088ZLJVLF4MHIWRMX3WNYF4W30WA","A7VA2Y4H6U31O","3EHVO81VN57KAWAV14A1K6BEMLH1HG","","null","<img src=""img/flower1.png"" style=""width:200px; border:14px solid green;"">","null","","","","","","","","",""
"","image-keyboard-response","178","77414","0.0-178.0","3U088ZLJVLF4MHIWRMX3WNYF4W30WA","A7VA2Y4H6U31O","3EHVO81VN57KAWAV14A1K6BEMLH1HG","","84.29999995231628","img/flower6.png","75","84.80000007152557","2","1","2","2","1,0,0,1,1,0,1,0,1","0,1,0,0,1,1,1,1,0","3",""
"","html-keyboard-response","179","77716","0.0-179.0","3U088ZLJVLF4MHIWRMX3WNYF4W30WA","A7VA2Y4H6U31O","3EHVO81VN57KAWAV14A1K6BEMLH1HG","","null","<img src=""img/flower6.png"" style=""width:200px; border:14px solid green;"">","null","","","","","","","","",""
"","image-keyboard-response","180","78059","0.0-180.0","3U088ZLJVLF4MHIWRMX3WNYF4W30WA","A7VA2Y4H6U31O","3EHVO81VN57KAWAV14A1K6BEMLH1HG","","341.40000009536743","img/flower2.png","75","342.3000000715256","2","1","3","2","1,0,0,1,1,0,1,0,1","0,1,0,0,1,1,1,1,0","3",""
"","html-keyboard-response","181","78360","0.0-181.0","3U088ZLJVLF4MHIWRMX3WNYF4W30WA","A7VA2Y4H6U31O","3EHVO81VN57KAWAV14A1K6BEMLH1HG","","null","<img src=""img/flower2.png"" style=""width:200px; border:14px solid green;"">","null","","","","","","","","",""
"","image-keyboard-response","182","78428","0.0-182.0","3U088ZLJVLF4MHIWRMX3WNYF4W30WA","A7VA2Y4H6U31O","3EHVO81VN57KAWAV14A1K6BEMLH1HG","","66.89999997615814","img/flower4.png","75","67.30000007152557","2","0","1","1","1,0.333,0.333,0.333,1,0.333,0.333,0.333,1","1,0.333,0.333,0.333,1,0.333,0.333,0.333,1","1",""
"","html-keyboard-response","183","78729","0.0-183.0","3U088ZLJVLF4MHIWRMX3WNYF4W30WA","A7VA2Y4H6U31O","3EHVO81VN57KAWAV14A1K6BEMLH1HG","","null","<img src=""img/flower4.png"" style=""width:200px;border:14px solid red;"">","null","","","","","","","","",""
"","image-keyboard-response","184","78761","0.0-184.0","3U088ZLJVLF4MHIWRMX3WNYF4W30WA","A7VA2Y4H6U31O","3EHVO81VN57KAWAV14A1K6BEMLH1HG","","29.700000047683716","img/flower4.png","75","30.800000071525574","2","1","1","1","1,0.333,0.333,0.333,1,0.333,0.333,0.333,1","1,0.333,0.333,0.333,1,0.333,0.333,0.333,1","1",""
"","html-keyboard-response","185","79062","0.0-185.0","3U088ZLJVLF4MHIWRMX3WNYF4W30WA","A7VA2Y4H6U31O","3EHVO81VN57KAWAV14A1K6BEMLH1HG","","null","<img src=""img/flower4.png"" style=""width:200px; border:14px solid green;"">","null","","","","","","","","",""
"","image-keyboard-response","186","79102","0.0-186.0","3U088ZLJVLF4MHIWRMX3WNYF4W30WA","A7VA2Y4H6U31O","3EHVO81VN57KAWAV14A1K6BEMLH1HG","","38.800000071525574","img/flower4.png","75","40.299999952316284","2","0","1","1","1,0.333,0.333,0.333,1,0.333,0.333,0.333,1","1,0.333,0.333,0.333,1,0.333,0.333,0.333,1","1",""
"","html-keyboard-response","187","79405","0.0-187.0","3U088ZLJVLF4MHIWRMX3WNYF4W30WA","A7VA2Y4H6U31O","3EHVO81VN57KAWAV14A1K6BEMLH1HG","","null","<img src=""img/flower4.png"" style=""width:200px;border:14px solid red;"">","null","","","","","","","","",""
"","image-keyboard-response","188","79418","0.0-188.0","3U088ZLJVLF4MHIWRMX3WNYF4W30WA","A7VA2Y4H6U31O","3EHVO81VN57KAWAV14A1K6BEMLH1HG","","11.399999976158142","img/flower3.png","75","12.5","2","1","2","1","1,0.333,0.333,0.333,1,0.333,0.333,0.333,1","1,0.333,0.333,0.333,1,0.333,0.333,0.333,1","1",""
"","html-keyboard-response","189","79720","0.0-189.0","3U088ZLJVLF4MHIWRMX3WNYF4W30WA","A7VA2Y4H6U31O","3EHVO81VN57KAWAV14A1K6BEMLH1HG","","null","<img src=""img/flower3.png"" style=""width:200px; border:14px solid green;"">","null","","","","","","","","",""
"","image-keyboard-response","190","80191","0.0-190.0","3U088ZLJVLF4MHIWRMX3WNYF4W30WA","A7VA2Y4H6U31O","3EHVO81VN57KAWAV14A1K6BEMLH1HG","","470.10000002384186","img/flower3.png","75","470.5","2","1","2","1","1,0.333,0.333,0.333,1,0.333,0.333,0.333,1","1,0.333,0.333,0.333,1,0.333,0.333,0.333,1","1",""
"","html-keyboard-response","191","80492","0.0-191.0","3U088ZLJVLF4MHIWRMX3WNYF4W30WA","A7VA2Y4H6U31O","3EHVO81VN57KAWAV14A1K6BEMLH1HG","","null","<img src=""img/flower3.png"" style=""width:200px; border:14px solid green;"">","null","","","","","","","","",""
"","image-keyboard-response","192","80601","0.0-192.0","3U088ZLJVLF4MHIWRMX3WNYF4W30WA","A7VA2Y4H6U31O","3EHVO81VN57KAWAV14A1K6BEMLH1HG","","107.60000002384186","img/flower3.png","75","108.69999992847443","2","1","2","1","1,0.333,0.333,0.333,1,0.333,0.333,0.333,1","1,0.333,0.333,0.333,1,0.333,0.333,0.333,1","1",""
"","html-keyboard-response","193","80907","0.0-193.0","3U088ZLJVLF4MHIWRMX3WNYF4W30WA","A7VA2Y4H6U31O","3EHVO81VN57KAWAV14A1K6BEMLH1HG","","null","<img src=""img/flower3.png"" style=""width:200px; border:14px solid green;"">","null","","","","","","","","",""
"","image-keyboard-response","194","81049","0.0-194.0","3U088ZLJVLF4MHIWRMX3WNYF4W30WA","A7VA2Y4H6U31O","3EHVO81VN57KAWAV14A1K6BEMLH1HG","","141.39999997615814","img/flower3.png","75","142.20000004768372","2","1","2","1","1,0.333,0.333,0.333,1,0.333,0.333,0.333,1","1,0.333,0.333,0.333,1,0.333,0.333,0.333,1","1",""
"","html-keyboard-response","195","81350","0.0-195.0","3U088ZLJVLF4MHIWRMX3WNYF4W30WA","A7VA2Y4H6U31O","3EHVO81VN57KAWAV14A1K6BEMLH1HG","","null","<img src=""img/flower3.png"" style=""width:200px; border:14px solid green;"">","null","","","","","","","","",""
"","image-keyboard-response","196","81385","0.0-196.0","3U088ZLJVLF4MHIWRMX3WNYF4W30WA","A7VA2Y4H6U31O","3EHVO81VN57KAWAV14A1K6BEMLH1HG","","33.89999997615814","img/flower3.png","75","35.200000047683716","2","1","2","1","1,0.333,0.333,0.333,1,0.333,0.333,0.333,1","1,0.333,0.333,0.333,1,0.333,0.333,0.333,1","1",""
"","html-keyboard-response","197","81687","0.0-197.0","3U088ZLJVLF4MHIWRMX3WNYF4W30WA","A7VA2Y4H6U31O","3EHVO81VN57KAWAV14A1K6BEMLH1HG","","null","<img src=""img/flower3.png"" style=""width:200px; border:14px solid green;"">","null","","","","","","","","",""
"","image-keyboard-response","198","81712","0.0-198.0","3U088ZLJVLF4MHIWRMX3WNYF4W30WA","A7VA2Y4H6U31O","3EHVO81VN57KAWAV14A1K6BEMLH1HG","","22.800000071525574","img/flower5.png","75","23.90000009536743","2","0","3","1","1,0.333,0.333,0.333,1,0.333,0.333,0.333,1","1,0.333,0.333,0.333,1,0.333,0.333,0.333,1","1",""
"","html-keyboard-response","199","82014","0.0-199.0","3U088ZLJVLF4MHIWRMX3WNYF4W30WA","A7VA2Y4H6U31O","3EHVO81VN57KAWAV14A1K6BEMLH1HG","","null","<img src=""img/flower5.png"" style=""width:200px;border:14px solid red;"">","null","","","","","","","","",""
"","image-keyboard-response","200","82393","0.0-200.0","3U088ZLJVLF4MHIWRMX3WNYF4W30WA","A7VA2Y4H6U31O","3EHVO81VN57KAWAV14A1K6BEMLH1HG","","378.10000002384186","img/flower4.png","75","379.2000000476837","2","0","1","1","1,0.333,0.333,0.333,1,0.333,0.333,0.333,1","1,0.333,0.333,0.333,1,0.333,0.333,0.333,1","1",""
"","html-keyboard-response","201","82695","0.0-201.0","3U088ZLJVLF4MHIWRMX3WNYF4W30WA","A7VA2Y4H6U31O","3EHVO81VN57KAWAV14A1K6BEMLH1HG","","null","<img src=""img/flower4.png"" style=""width:200px;border:14px solid red;"">","null","","","","","","","","",""
"","image-keyboard-response","202","82987","0.0-202.0","3U088ZLJVLF4MHIWRMX3WNYF4W30WA","A7VA2Y4H6U31O","3EHVO81VN57KAWAV14A1K6BEMLH1HG","","290.2000000476837","img/flower5.png","75","291.59999990463257","2","0","3","1","1,0.333,0.333,0.333,1,0.333,0.333,0.333,1","1,0.333,0.333,0.333,1,0.333,0.333,0.333,1","1",""
"","html-keyboard-response","203","83288","0.0-203.0","3U088ZLJVLF4MHIWRMX3WNYF4W30WA","A7VA2Y4H6U31O","3EHVO81VN57KAWAV14A1K6BEMLH1HG","","null","<img src=""img/flower5.png"" style=""width:200px;border:14px solid red;"">","null","","","","","","","","",""
"","image-keyboard-response","204","83806","0.0-204.0","3U088ZLJVLF4MHIWRMX3WNYF4W30WA","A7VA2Y4H6U31O","3EHVO81VN57KAWAV14A1K6BEMLH1HG","","517.5999999046326","img/flower5.png","76","518.1000000238419","3","1","3","1","1,0.333,0.333,0.333,1,0.333,0.333,0.333,1","1,0.333,0.333,0.333,1,0.333,0.333,0.333,1","1",""
"","html-keyboard-response","205","84108","0.0-205.0","3U088ZLJVLF4MHIWRMX3WNYF4W30WA","A7VA2Y4H6U31O","3EHVO81VN57KAWAV14A1K6BEMLH1HG","","null","<img src=""img/flower5.png"" style=""width:200px; border:14px solid green;"">","null","","","","","","","","",""
"","image-keyboard-response","206","84372","0.0-206.0","3U088ZLJVLF4MHIWRMX3WNYF4W30WA","A7VA2Y4H6U31O","3EHVO81VN57KAWAV14A1K6BEMLH1HG","","262.7999999523163","img/flower5.png","76","263.60000002384186","3","1","3","1","1,0.333,0.333,0.333,1,0.333,0.333,0.333,1","1,0.333,0.333,0.333,1,0.333,0.333,0.333,1","1",""
"","html-keyboard-response","207","84673","0.0-207.0","3U088ZLJVLF4MHIWRMX3WNYF4W30WA","A7VA2Y4H6U31O","3EHVO81VN57KAWAV14A1K6BEMLH1HG","","null","<img src=""img/flower5.png"" style=""width:200px; border:14px solid green;"">","null","","","","","","","","",""
"","image-keyboard-response","208","84791","0.0-208.0","3U088ZLJVLF4MHIWRMX3WNYF4W30WA","A7VA2Y4H6U31O","3EHVO81VN57KAWAV14A1K6BEMLH1HG","","117.10000002384186","img/flower3.png","76","117.70000004768372","3","0","2","1","1,0.333,0.333,0.333,1,0.333,0.333,0.333,1","1,0.333,0.333,0.333,1,0.333,0.333,0.333,1","1",""
"","html-keyboard-response","209","85092","0.0-209.0","3U088ZLJVLF4MHIWRMX3WNYF4W30WA","A7VA2Y4H6U31O","3EHVO81VN57KAWAV14A1K6BEMLH1HG","","null","<img src=""img/flower3.png"" style=""width:200px;border:14px solid red;"">","null","","","","","","","","",""
"","image-keyboard-response","210","85806","0.0-210.0","3U088ZLJVLF4MHIWRMX3WNYF4W30WA","A7VA2Y4H6U31O","3EHVO81VN57KAWAV14A1K6BEMLH1HG","","712.3000000715256","img/flower5.png","75","713.3000000715256","2","0","3","1","1,0.333,0.333,0.333,1,0.333,0.333,0.333,1","1,0.333,0.333,0.333,1,0.333,0.333,0.333,1","1",""
"","html-keyboard-response","211","86108","0.0-211.0","3U088ZLJVLF4MHIWRMX3WNYF4W30WA","A7VA2Y4H6U31O","3EHVO81VN57KAWAV14A1K6BEMLH1HG","","null","<img src=""img/flower5.png"" style=""width:200px;border:14px solid red;"">","null","","","","","","","","",""
"","image-keyboard-response","212","86449","0.0-212.0","3U088ZLJVLF4MHIWRMX3WNYF4W30WA","A7VA2Y4H6U31O","3EHVO81VN57KAWAV14A1K6BEMLH1HG","","339.5","img/flower4.png","75","340.60000002384186","2","0","1","1","1,0.333,0.333,0.333,1,0.333,0.333,0.333,1","1,0.333,0.333,0.333,1,0.333,0.333,0.333,1","1",""
"","html-keyboard-response","213","86751","0.0-213.0","3U088ZLJVLF4MHIWRMX3WNYF4W30WA","A7VA2Y4H6U31O","3EHVO81VN57KAWAV14A1K6BEMLH1HG","","null","<img src=""img/flower4.png"" style=""width:200px;border:14px solid red;"">","null","","","","","","","","",""
"","image-keyboard-response","214","87452","0.0-214.0","3U088ZLJVLF4MHIWRMX3WNYF4W30WA","A7VA2Y4H6U31O","3EHVO81VN57KAWAV14A1K6BEMLH1HG","","700.5999999046326","img/flower5.png","76","701.1000000238419","3","1","3","1","1,0.333,0.333,0.333,1,0.333,0.333,0.333,1","1,0.333,0.333,0.333,1,0.333,0.333,0.333,1","1",""
"","html-keyboard-response","215","87754","0.0-215.0","3U088ZLJVLF4MHIWRMX3WNYF4W30WA","A7VA2Y4H6U31O","3EHVO81VN57KAWAV14A1K6BEMLH1HG","","null","<img src=""img/flower5.png"" style=""width:200px; border:14px solid green;"">","null","","","","","","","","",""
"","image-keyboard-response","216","88187","0.0-216.0","3U088ZLJVLF4MHIWRMX3WNYF4W30WA","A7VA2Y4H6U31O","3EHVO81VN57KAWAV14A1K6BEMLH1HG","","432.2000000476837","img/flower5.png","76","433.2999999523163","3","1","3","1","1,0.333,0.333,0.333,1,0.333,0.333,0.333,1","1,0.333,0.333,0.333,1,0.333,0.333,0.333,1","1",""
"","html-keyboard-response","217","88488","0.0-217.0","3U088ZLJVLF4MHIWRMX3WNYF4W30WA","A7VA2Y4H6U31O","3EHVO81VN57KAWAV14A1K6BEMLH1HG","","null","<img src=""img/flower5.png"" style=""width:200px; border:14px solid green;"">","null","","","","","","","","",""
"","image-keyboard-response","218","88611","0.0-218.0","3U088ZLJVLF4MHIWRMX3WNYF4W30WA","A7VA2Y4H6U31O","3EHVO81VN57KAWAV14A1K6BEMLH1HG","","121.5","img/flower3.png","76","122","3","1","2","1","1,0.333,0.333,0.333,1,0.333,0.333,0.333,1","1,0.333,0.333,0.333,1,0.333,0.333,0.333,1","1",""
"","html-keyboard-response","219","88912","0.0-219.0","3U088ZLJVLF4MHIWRMX3WNYF4W30WA","A7VA2Y4H6U31O","3EHVO81VN57KAWAV14A1K6BEMLH1HG","","null","<img src=""img/flower3.png"" style=""width:200px; border:14px solid green;"">","null","","","","","","","","",""
"","image-keyboard-response","220","89130","0.0-220.0","3U088ZLJVLF4MHIWRMX3WNYF4W30WA","A7VA2Y4H6U31O","3EHVO81VN57KAWAV14A1K6BEMLH1HG","","217","img/flower4.png","76","217.5","3","0","1","1","1,0.333,0.333,0.333,1,0.333,0.333,0.333,1","1,0.333,0.333,0.333,1,0.333,0.333,0.333,1","1",""
"","html-keyboard-response","221","89431","0.0-221.0","3U088ZLJVLF4MHIWRMX3WNYF4W30WA","A7VA2Y4H6U31O","3EHVO81VN57KAWAV14A1K6BEMLH1HG","","null","<img src=""img/flower4.png"" style=""width:200px;border:14px solid red;"">","null","","","","","","","","",""
"","image-keyboard-response","222","90285","0.0-222.0","3U088ZLJVLF4MHIWRMX3WNYF4W30WA","A7VA2Y4H6U31O","3EHVO81VN57KAWAV14A1K6BEMLH1HG","","851.9000000953674","img/flower3.png","75","853.3000000715256","2","1","2","1","1,0.333,0.333,0.333,1,0.333,0.333,0.333,1","1,0.333,0.333,0.333,1,0.333,0.333,0.333,1","1",""
"","html-keyboard-response","223","90588","0.0-223.0","3U088ZLJVLF4MHIWRMX3WNYF4W30WA","A7VA2Y4H6U31O","3EHVO81VN57KAWAV14A1K6BEMLH1HG","","null","<img src=""img/flower3.png"" style=""width:200px; border:14px solid green;"">","null","","","","","","","","",""
"","image-keyboard-response","224","91207","0.0-224.0","3U088ZLJVLF4MHIWRMX3WNYF4W30WA","A7VA2Y4H6U31O","3EHVO81VN57KAWAV14A1K6BEMLH1HG","","617.8000000715256","img/flower5.png","75","618.8999999761581","2","1","3","1","1,0.333,0.333,0.333,1,0.333,0.333,0.333,1","1,0.333,0.333,0.333,1,0.333,0.333,0.333,1","1",""
"","html-keyboard-response","225","91508","0.0-225.0","3U088ZLJVLF4MHIWRMX3WNYF4W30WA","A7VA2Y4H6U31O","3EHVO81VN57KAWAV14A1K6BEMLH1HG","","null","<img src=""img/flower5.png"" style=""width:200px; border:14px solid green;"">","null","","","","","","","","",""
"","image-keyboard-response","226","91845","0.0-226.0","3U088ZLJVLF4MHIWRMX3WNYF4W30WA","A7VA2Y4H6U31O","3EHVO81VN57KAWAV14A1K6BEMLH1HG","","336.6999999284744","img/flower5.png","75","337.3000000715256","2","0","3","1","1,0.333,0.333,0.333,1,0.333,0.333,0.333,1","1,0.333,0.333,0.333,1,0.333,0.333,0.333,1","1",""
"","html-keyboard-response","227","92146","0.0-227.0","3U088ZLJVLF4MHIWRMX3WNYF4W30WA","A7VA2Y4H6U31O","3EHVO81VN57KAWAV14A1K6BEMLH1HG","","null","<img src=""img/flower5.png"" style=""width:200px;border:14px solid red;"">","null","","","","","","","","",""
"","image-keyboard-response","228","92743","0.0-228.0","3U088ZLJVLF4MHIWRMX3WNYF4W30WA","A7VA2Y4H6U31O","3EHVO81VN57KAWAV14A1K6BEMLH1HG","","595.8000000715256","img/flower4.png","76","596.7999999523163","3","0","1","1","1,0.333,0.333,0.333,1,0.333,0.333,0.333,1","1,0.333,0.333,0.333,1,0.333,0.333,0.333,1","1",""
"","html-keyboard-response","229","93045","0.0-229.0","3U088ZLJVLF4MHIWRMX3WNYF4W30WA","A7VA2Y4H6U31O","3EHVO81VN57KAWAV14A1K6BEMLH1HG","","null","<img src=""img/flower4.png"" style=""width:200px;border:14px solid red;"">","null","","","","","","","","",""
"","image-keyboard-response","230","94147","0.0-230.0","3U088ZLJVLF4MHIWRMX3WNYF4W30WA","A7VA2Y4H6U31O","3EHVO81VN57KAWAV14A1K6BEMLH1HG","","1101.3999999761581","img/flower3.png","75","1102.1000000238419","2","1","2","1","1,0.333,0.333,0.333,1,0.333,0.333,0.333,1","1,0.333,0.333,0.333,1,0.333,0.333,0.333,1","1",""
"","html-keyboard-response","231","94449","0.0-231.0","3U088ZLJVLF4MHIWRMX3WNYF4W30WA","A7VA2Y4H6U31O","3EHVO81VN57KAWAV14A1K6BEMLH1HG","","null","<img src=""img/flower3.png"" style=""width:200px; border:14px solid green;"">","null","","","","","","","","",""
"","image-keyboard-response","232","95271","0.0-232.0","3U088ZLJVLF4MHIWRMX3WNYF4W30WA","A7VA2Y4H6U31O","3EHVO81VN57KAWAV14A1K6BEMLH1HG","","820.1999999284744","img/flower5.png","75","821.5","2","1","3","1","1,0.333,0.333,0.333,1,0.333,0.333,0.333,1","1,0.333,0.333,0.333,1,0.333,0.333,0.333,1","1",""
"","html-keyboard-response","233","95573","0.0-233.0","3U088ZLJVLF4MHIWRMX3WNYF4W30WA","A7VA2Y4H6U31O","3EHVO81VN57KAWAV14A1K6BEMLH1HG","","null","<img src=""img/flower5.png"" style=""width:200px; border:14px solid green;"">","null","","","","","","","","",""
"","image-keyboard-response","234","96307","0.0-234.0","3U088ZLJVLF4MHIWRMX3WNYF4W30WA","A7VA2Y4H6U31O","3EHVO81VN57KAWAV14A1K6BEMLH1HG","","732.1999999284744","img/flower3.png","75","733.5","2","1","2","1","1,0.333,0.333,0.333,1,0.333,0.333,0.333,1","1,0.333,0.333,0.333,1,0.333,0.333,0.333,1","1",""
"","html-keyboard-response","235","96609","0.0-235.0","3U088ZLJVLF4MHIWRMX3WNYF4W30WA","A7VA2Y4H6U31O","3EHVO81VN57KAWAV14A1K6BEMLH1HG","","null","<img src=""img/flower3.png"" style=""width:200px; border:14px solid green;"">","null","","","","","","","","",""
"","image-keyboard-response","236","97137","0.0-236.0","3U088ZLJVLF4MHIWRMX3WNYF4W30WA","A7VA2Y4H6U31O","3EHVO81VN57KAWAV14A1K6BEMLH1HG","","526.8000000715256","img/flower5.png","75","527.3999999761581","2","0","3","1","1,0.333,0.333,0.333,1,0.333,0.333,0.333,1","1,0.333,0.333,0.333,1,0.333,0.333,0.333,1","1",""
"","html-keyboard-response","237","97438","0.0-237.0","3U088ZLJVLF4MHIWRMX3WNYF4W30WA","A7VA2Y4H6U31O","3EHVO81VN57KAWAV14A1K6BEMLH1HG","","null","<img src=""img/flower5.png"" style=""width:200px;border:14px solid red;"">","null","","","","","","","","",""
"","image-keyboard-response","238","98088","0.0-238.0","3U088ZLJVLF4MHIWRMX3WNYF4W30WA","A7VA2Y4H6U31O","3EHVO81VN57KAWAV14A1K6BEMLH1HG","","649","img/flower3.png","75","649.5","2","1","2","1","1,0.333,0.333,0.333,1,0.333,0.333,0.333,1","1,0.333,0.333,0.333,1,0.333,0.333,0.333,1","1",""
"","html-keyboard-response","239","98389","0.0-239.0","3U088ZLJVLF4MHIWRMX3WNYF4W30WA","A7VA2Y4H6U31O","3EHVO81VN57KAWAV14A1K6BEMLH1HG","","null","<img src=""img/flower3.png"" style=""width:200px; border:14px solid green;"">","null","","","","","","","","",""
"","image-keyboard-response","240","98826","0.0-240.0","3U088ZLJVLF4MHIWRMX3WNYF4W30WA","A7VA2Y4H6U31O","3EHVO81VN57KAWAV14A1K6BEMLH1HG","","435.1999999284744","img/flower3.png","75","436.2999999523163","2","1","2","1","1,0.333,0.333,0.333,1,0.333,0.333,0.333,1","1,0.333,0.333,0.333,1,0.333,0.333,0.333,1","1",""
"","html-keyboard-response","241","99127","0.0-241.0","3U088ZLJVLF4MHIWRMX3WNYF4W30WA","A7VA2Y4H6U31O","3EHVO81VN57KAWAV14A1K6BEMLH1HG","","null","<img src=""img/flower3.png"" style=""width:200px; border:14px solid green;"">","null","","","","","","","","",""
"","image-keyboard-response","242","100153","0.0-242.0","3U088ZLJVLF4MHIWRMX3WNYF4W30WA","A7VA2Y4H6U31O","3EHVO81VN57KAWAV14A1K6BEMLH1HG","","1025","img/flower5.png","76","1025.6000000238419","3","1","3","1","1,0.333,0.333,0.333,1,0.333,0.333,0.333,1","1,0.333,0.333,0.333,1,0.333,0.333,0.333,1","1",""
"","html-keyboard-response","243","100454","0.0-243.0","3U088ZLJVLF4MHIWRMX3WNYF4W30WA","A7VA2Y4H6U31O","3EHVO81VN57KAWAV14A1K6BEMLH1HG","","null","<img src=""img/flower5.png"" style=""width:200px; border:14px solid green;"">","null","","","","","","","","",""
"","image-keyboard-response","244","101081","0.0-244.0","3U088ZLJVLF4MHIWRMX3WNYF4W30WA","A7VA2Y4H6U31O","3EHVO81VN57KAWAV14A1K6BEMLH1HG","","625.5","img/flower3.png","75","627","2","1","2","1","1,0.333,0.333,0.333,1,0.333,0.333,0.333,1","1,0.333,0.333,0.333,1,0.333,0.333,0.333,1","1",""
"","html-keyboard-response","245","101384","0.0-245.0","3U088ZLJVLF4MHIWRMX3WNYF4W30WA","A7VA2Y4H6U31O","3EHVO81VN57KAWAV14A1K6BEMLH1HG","","null","<img src=""img/flower3.png"" style=""width:200px; border:14px solid green;"">","null","","","","","","","","",""
"","image-keyboard-response","246","102067","0.0-246.0","3U088ZLJVLF4MHIWRMX3WNYF4W30WA","A7VA2Y4H6U31O","3EHVO81VN57KAWAV14A1K6BEMLH1HG","","682.0999999046326","img/flower4.png","76","683.2000000476837","3","1","1","1","1,0.333,0.333,0.333,1,0.333,0.333,0.333,1","1,0.333,0.333,0.333,1,0.333,0.333,0.333,1","1",""
"","html-keyboard-response","247","102369","0.0-247.0","3U088ZLJVLF4MHIWRMX3WNYF4W30WA","A7VA2Y4H6U31O","3EHVO81VN57KAWAV14A1K6BEMLH1HG","","null","<img src=""img/flower4.png"" style=""width:200px; border:14px solid green;"">","null","","","","","","","","",""
"","image-keyboard-response","248","102681","0.0-248.0","3U088ZLJVLF4MHIWRMX3WNYF4W30WA","A7VA2Y4H6U31O","3EHVO81VN57KAWAV14A1K6BEMLH1HG","","311.5","img/flower4.png","75","312.3000000715256","2","0","1","1","1,0.333,0.333,0.333,1,0.333,0.333,0.333,1","1,0.333,0.333,0.333,1,0.333,0.333,0.333,1","1",""
"","html-keyboard-response","249","102984","0.0-249.0","3U088ZLJVLF4MHIWRMX3WNYF4W30WA","A7VA2Y4H6U31O","3EHVO81VN57KAWAV14A1K6BEMLH1HG","","null","<img src=""img/flower4.png"" style=""width:200px;border:14px solid red;"">","null","","","","","","","","",""
"","image-keyboard-response","250","103702","0.0-250.0","3U088ZLJVLF4MHIWRMX3WNYF4W30WA","A7VA2Y4H6U31O","3EHVO81VN57KAWAV14A1K6BEMLH1HG","","717.1000000238419","img/flower5.png","75","717.5999999046326","2","1","3","1","1,0.333,0.333,0.333,1,0.333,0.333,0.333,1","1,0.333,0.333,0.333,1,0.333,0.333,0.333,1","1",""
"","html-keyboard-response","251","104004","0.0-251.0","3U088ZLJVLF4MHIWRMX3WNYF4W30WA","A7VA2Y4H6U31O","3EHVO81VN57KAWAV14A1K6BEMLH1HG","","null","<img src=""img/flower5.png"" style=""width:200px; border:14px solid green;"">","null","","","","","","","","",""
"","image-keyboard-response","252","104324","0.0-252.0","3U088ZLJVLF4MHIWRMX3WNYF4W30WA","A7VA2Y4H6U31O","3EHVO81VN57KAWAV14A1K6BEMLH1HG","","319.2999999523163","img/flower5.png","75","320.2000000476837","2","0","3","1","1,0.333,0.333,0.333,1,0.333,0.333,0.333,1","1,0.333,0.333,0.333,1,0.333,0.333,0.333,1","1",""
"","html-keyboard-response","253","104625","0.0-253.0","3U088ZLJVLF4MHIWRMX3WNYF4W30WA","A7VA2Y4H6U31O","3EHVO81VN57KAWAV14A1K6BEMLH1HG","","null","<img src=""img/flower5.png"" style=""width:200px;border:14px solid red;"">","null","","","","","","","","",""
"","image-keyboard-response","254","105385","0.0-254.0","3U088ZLJVLF4MHIWRMX3WNYF4W30WA","A7VA2Y4H6U31O","3EHVO81VN57KAWAV14A1K6BEMLH1HG","","758.2999999523163","img/flower3.png","75","759.1000000238419","2","1","2","1","1,0.333,0.333,0.333,1,0.333,0.333,0.333,1","1,0.333,0.333,0.333,1,0.333,0.333,0.333,1","1",""
"","html-keyboard-response","255","105686","0.0-255.0","3U088ZLJVLF4MHIWRMX3WNYF4W30WA","A7VA2Y4H6U31O","3EHVO81VN57KAWAV14A1K6BEMLH1HG","","null","<img src=""img/flower3.png"" style=""width:200px; border:14px solid green;"">","null","","","","","","","","",""
"","image-keyboard-response","256","106248","0.0-256.0","3U088ZLJVLF4MHIWRMX3WNYF4W30WA","A7VA2Y4H6U31O","3EHVO81VN57KAWAV14A1K6BEMLH1HG","","560.6999999284744","img/flower4.png","76","562.1999999284744","3","1","1","1","1,0.333,0.333,0.333,1,0.333,0.333,0.333,1","1,0.333,0.333,0.333,1,0.333,0.333,0.333,1","1",""
"","html-keyboard-response","257","106551","0.0-257.0","3U088ZLJVLF4MHIWRMX3WNYF4W30WA","A7VA2Y4H6U31O","3EHVO81VN57KAWAV14A1K6BEMLH1HG","","null","<img src=""img/flower4.png"" style=""width:200px; border:14px solid green;"">","null","","","","","","","","",""
"","image-keyboard-response","258","107090","0.0-258.0","3U088ZLJVLF4MHIWRMX3WNYF4W30WA","A7VA2Y4H6U31O","3EHVO81VN57KAWAV14A1K6BEMLH1HG","","538","img/flower4.png","76","539","3","0","1","1","1,0.333,0.333,0.333,1,0.333,0.333,0.333,1","1,0.333,0.333,0.333,1,0.333,0.333,0.333,1","1",""
"","html-keyboard-response","259","107391","0.0-259.0","3U088ZLJVLF4MHIWRMX3WNYF4W30WA","A7VA2Y4H6U31O","3EHVO81VN57KAWAV14A1K6BEMLH1HG","","null","<img src=""img/flower4.png"" style=""width:200px;border:14px solid red;"">","null","","","","","","","","",""
"","image-keyboard-response","260","108058","0.0-260.0","3U088ZLJVLF4MHIWRMX3WNYF4W30WA","A7VA2Y4H6U31O","3EHVO81VN57KAWAV14A1K6BEMLH1HG","","665.6999999284744","img/flower5.png","75","666.3999999761581","2","0","3","1","1,0.333,0.333,0.333,1,0.333,0.333,0.333,1","1,0.333,0.333,0.333,1,0.333,0.333,0.333,1","1",""
"","html-keyboard-response","261","108360","0.0-261.0","3U088ZLJVLF4MHIWRMX3WNYF4W30WA","A7VA2Y4H6U31O","3EHVO81VN57KAWAV14A1K6BEMLH1HG","","null","<img src=""img/flower5.png"" style=""width:200px;border:14px solid red;"">","null","","","","","","","","",""
"","image-keyboard-response","262","108844","0.0-262.0","3U088ZLJVLF4MHIWRMX3WNYF4W30WA","A7VA2Y4H6U31O","3EHVO81VN57KAWAV14A1K6BEMLH1HG","","483.2000000476837","img/flower4.png","75","484.10000002384186","2","0","1","1","1,0.333,0.333,0.333,1,0.333,0.333,0.333,1","1,0.333,0.333,0.333,1,0.333,0.333,0.333,1","1",""
"","html-keyboard-response","263","109154","0.0-263.0","3U088ZLJVLF4MHIWRMX3WNYF4W30WA","A7VA2Y4H6U31O","3EHVO81VN57KAWAV14A1K6BEMLH1HG","","null","<img src=""img/flower4.png"" style=""width:200px;border:14px solid red;"">","null","","","","","","","","",""
"","image-keyboard-response","264","109788","0.0-264.0","3U088ZLJVLF4MHIWRMX3WNYF4W30WA","A7VA2Y4H6U31O","3EHVO81VN57KAWAV14A1K6BEMLH1HG","","633.5","img/flower5.png","76","633.8000000715256","3","1","3","1","1,0.333,0.333,0.333,1,0.333,0.333,0.333,1","1,0.333,0.333,0.333,1,0.333,0.333,0.333,1","1",""
"","html-keyboard-response","265","110090","0.0-265.0","3U088ZLJVLF4MHIWRMX3WNYF4W30WA","A7VA2Y4H6U31O","3EHVO81VN57KAWAV14A1K6BEMLH1HG","","null","<img src=""img/flower5.png"" style=""width:200px; border:14px solid green;"">","null","","","","","","","","",""
"","image-keyboard-response","266","110631","0.0-266.0","3U088ZLJVLF4MHIWRMX3WNYF4W30WA","A7VA2Y4H6U31O","3EHVO81VN57KAWAV14A1K6BEMLH1HG","","540.2000000476837","img/flower4.png","76","541","3","0","1","1","1,0.333,0.333,0.333,1,0.333,0.333,0.333,1","1,0.333,0.333,0.333,1,0.333,0.333,0.333,1","1",""
"","html-keyboard-response","267","110933","0.0-267.0","3U088ZLJVLF4MHIWRMX3WNYF4W30WA","A7VA2Y4H6U31O","3EHVO81VN57KAWAV14A1K6BEMLH1HG","","null","<img src=""img/flower4.png"" style=""width:200px;border:14px solid red;"">","null","","","","","","","","",""
"","image-keyboard-response","268","111665","0.0-268.0","3U088ZLJVLF4MHIWRMX3WNYF4W30WA","A7VA2Y4H6U31O","3EHVO81VN57KAWAV14A1K6BEMLH1HG","","730.3999999761581","img/flower5.png","75","731.8999999761581","2","0","3","1","1,0.333,0.333,0.333,1,0.333,0.333,0.333,1","1,0.333,0.333,0.333,1,0.333,0.333,0.333,1","1",""
"","html-keyboard-response","269","111968","0.0-269.0","3U088ZLJVLF4MHIWRMX3WNYF4W30WA","A7VA2Y4H6U31O","3EHVO81VN57KAWAV14A1K6BEMLH1HG","","null","<img src=""img/flower5.png"" style=""width:200px;border:14px solid red;"">","null","","","","","","","","",""
"","image-keyboard-response","270","112720","0.0-270.0","3U088ZLJVLF4MHIWRMX3WNYF4W30WA","A7VA2Y4H6U31O","3EHVO81VN57KAWAV14A1K6BEMLH1HG","","750.3000000715256","img/flower3.png","74","751.5999999046326","1","1","2","1","1,0.333,0.333,0.333,1,0.333,0.333,0.333,1","1,0.333,0.333,0.333,1,0.333,0.333,0.333,1","1",""
"","html-keyboard-response","271","113021","0.0-271.0","3U088ZLJVLF4MHIWRMX3WNYF4W30WA","A7VA2Y4H6U31O","3EHVO81VN57KAWAV14A1K6BEMLH1HG","","null","<img src=""img/flower3.png"" style=""width:200px; border:14px solid green;"">","null","","","","","","","","",""
"","image-keyboard-response","272","113232","0.0-272.0","3U088ZLJVLF4MHIWRMX3WNYF4W30WA","A7VA2Y4H6U31O","3EHVO81VN57KAWAV14A1K6BEMLH1HG","","210.09999990463257","img/flower3.png","74","210.60000002384186","1","0","2","1","1,0.333,0.333,0.333,1,0.333,0.333,0.333,1","1,0.333,0.333,0.333,1,0.333,0.333,0.333,1","1",""
"","html-keyboard-response","273","113533","0.0-273.0","3U088ZLJVLF4MHIWRMX3WNYF4W30WA","A7VA2Y4H6U31O","3EHVO81VN57KAWAV14A1K6BEMLH1HG","","null","<img src=""img/flower3.png"" style=""width:200px;border:14px solid red;"">","null","","","","","","","","",""
"","image-keyboard-response","274","114357","0.0-274.0","3U088ZLJVLF4MHIWRMX3WNYF4W30WA","A7VA2Y4H6U31O","3EHVO81VN57KAWAV14A1K6BEMLH1HG","","822.1000000238419","img/flower4.png","75","823.1999999284744","2","0","1","1","1,0.333,0.333,0.333,1,0.333,0.333,0.333,1","1,0.333,0.333,0.333,1,0.333,0.333,0.333,1","1",""
"","html-keyboard-response","275","114658","0.0-275.0","3U088ZLJVLF4MHIWRMX3WNYF4W30WA","A7VA2Y4H6U31O","3EHVO81VN57KAWAV14A1K6BEMLH1HG","","null","<img src=""img/flower4.png"" style=""width:200px;border:14px solid red;"">","null","","","","","","","","",""
"","image-keyboard-response","276","115312","0.0-276.0","3U088ZLJVLF4MHIWRMX3WNYF4W30WA","A7VA2Y4H6U31O","3EHVO81VN57KAWAV14A1K6BEMLH1HG","","652.6999999284744","img/flower5.png","76","653.3999999761581","3","1","3","1","1,0.333,0.333,0.333,1,0.333,0.333,0.333,1","1,0.333,0.333,0.333,1,0.333,0.333,0.333,1","1",""
"","html-keyboard-response","277","115613","0.0-277.0","3U088ZLJVLF4MHIWRMX3WNYF4W30WA","A7VA2Y4H6U31O","3EHVO81VN57KAWAV14A1K6BEMLH1HG","","null","<img src=""img/flower5.png"" style=""width:200px; border:14px solid green;"">","null","","","","","","","","",""
"","image-keyboard-response","278","116393","0.0-278.0","3U088ZLJVLF4MHIWRMX3WNYF4W30WA","A7VA2Y4H6U31O","3EHVO81VN57KAWAV14A1K6BEMLH1HG","","780","img/flower3.png","74","780.8999999761581","1","1","2","1","1,0.333,0.333,0.333,1,0.333,0.333,0.333,1","1,0.333,0.333,0.333,1,0.333,0.333,0.333,1","1",""
"","html-keyboard-response","279","116697","0.0-279.0","3U088ZLJVLF4MHIWRMX3WNYF4W30WA","A7VA2Y4H6U31O","3EHVO81VN57KAWAV14A1K6BEMLH1HG","","null","<img src=""img/flower3.png"" style=""width:200px; border:14px solid green;"">","null","","","","","","","","",""
"","image-keyboard-response","280","117733","0.0-280.0","3U088ZLJVLF4MHIWRMX3WNYF4W30WA","A7VA2Y4H6U31O","3EHVO81VN57KAWAV14A1K6BEMLH1HG","","1035.0999999046326","img/flower4.png","75","1036.4000000953674","2","0","1","1","1,0.333,0.333,0.333,1,0.333,0.333,0.333,1","1,0.333,0.333,0.333,1,0.333,0.333,0.333,1","1",""
"","html-keyboard-response","281","118035","0.0-281.0","3U088ZLJVLF4MHIWRMX3WNYF4W30WA","A7VA2Y4H6U31O","3EHVO81VN57KAWAV14A1K6BEMLH1HG","","null","<img src=""img/flower4.png"" style=""width:200px;border:14px solid red;"">","null","","","","","","","","",""
"","image-keyboard-response","282","118411","0.0-282.0","3U088ZLJVLF4MHIWRMX3WNYF4W30WA","A7VA2Y4H6U31O","3EHVO81VN57KAWAV14A1K6BEMLH1HG","","374.39999997615814","img/flower4.png","74","375.7000000476837","1","1","1","1","1,0.333,0.333,0.333,1,0.333,0.333,0.333,1","1,0.333,0.333,0.333,1,0.333,0.333,0.333,1","1",""
"","html-keyboard-response","283","118715","0.0-283.0","3U088ZLJVLF4MHIWRMX3WNYF4W30WA","A7VA2Y4H6U31O","3EHVO81VN57KAWAV14A1K6BEMLH1HG","","null","<img src=""img/flower4.png"" style=""width:200px; border:14px solid green;"">","null","","","","","","","","",""
"","image-keyboard-response","284","120069","0.0-284.0","3U088ZLJVLF4MHIWRMX3WNYF4W30WA","A7VA2Y4H6U31O","3EHVO81VN57KAWAV14A1K6BEMLH1HG","","1351.8999999761581","img/flower3.png","75","1353.1999999284744","2","1","2","1","1,0.333,0.333,0.333,1,0.333,0.333,0.333,1","1,0.333,0.333,0.333,1,0.333,0.333,0.333,1","1",""
"","html-keyboard-response","285","120370","0.0-285.0","3U088ZLJVLF4MHIWRMX3WNYF4W30WA","A7VA2Y4H6U31O","3EHVO81VN57KAWAV14A1K6BEMLH1HG","","null","<img src=""img/flower3.png"" style=""width:200px; border:14px solid green;"">","null","","","","","","","","",""
"","image-keyboard-response","286","121548","0.0-286.0","3U088ZLJVLF4MHIWRMX3WNYF4W30WA","A7VA2Y4H6U31O","3EHVO81VN57KAWAV14A1K6BEMLH1HG","","1176.3999999761581","img/flower5.png","74","1177.7999999523163","1","1","3","1","1,0.333,0.333,0.333,1,0.333,0.333,0.333,1","1,0.333,0.333,0.333,1,0.333,0.333,0.333,1","1",""
"","html-keyboard-response","287","121851","0.0-287.0","3U088ZLJVLF4MHIWRMX3WNYF4W30WA","A7VA2Y4H6U31O","3EHVO81VN57KAWAV14A1K6BEMLH1HG","","null","<img src=""img/flower5.png"" style=""width:200px; border:14px solid green;"">","null","","","","","","","","",""
"","image-keyboard-response","288","122580","0.0-288.0","3U088ZLJVLF4MHIWRMX3WNYF4W30WA","A7VA2Y4H6U31O","3EHVO81VN57KAWAV14A1K6BEMLH1HG","","726.8000000715256","img/flower3.png","75","728.1000000238419","2","1","2","1","1,0.333,0.333,0.333,1,0.333,0.333,0.333,1","1,0.333,0.333,0.333,1,0.333,0.333,0.333,1","1",""
"","html-keyboard-response","289","122882","0.0-289.0","3U088ZLJVLF4MHIWRMX3WNYF4W30WA","A7VA2Y4H6U31O","3EHVO81VN57KAWAV14A1K6BEMLH1HG","","null","<img src=""img/flower3.png"" style=""width:200px; border:14px solid green;"">","null","","","","","","","","",""
"","image-keyboard-response","290","123627","0.0-290.0","3U088ZLJVLF4MHIWRMX3WNYF4W30WA","A7VA2Y4H6U31O","3EHVO81VN57KAWAV14A1K6BEMLH1HG","","743.7999999523163","img/flower5.png","74","745","1","0","3","1","1,0.333,0.333,0.333,1,0.333,0.333,0.333,1","1,0.333,0.333,0.333,1,0.333,0.333,0.333,1","1",""
"","html-keyboard-response","291","123930","0.0-291.0","3U088ZLJVLF4MHIWRMX3WNYF4W30WA","A7VA2Y4H6U31O","3EHVO81VN57KAWAV14A1K6BEMLH1HG","","null","<img src=""img/flower5.png"" style=""width:200px;border:14px solid red;"">","null","","","","","","","","",""
"","image-keyboard-response","292","124398","0.0-292.0","3U088ZLJVLF4MHIWRMX3WNYF4W30WA","A7VA2Y4H6U31O","3EHVO81VN57KAWAV14A1K6BEMLH1HG","","466.7000000476837","img/flower4.png","75","468.10000002384186","2","0","1","1","1,0.333,0.333,0.333,1,0.333,0.333,0.333,1","1,0.333,0.333,0.333,1,0.333,0.333,0.333,1","1",""
"","html-keyboard-response","293","124700","0.0-293.0","3U088ZLJVLF4MHIWRMX3WNYF4W30WA","A7VA2Y4H6U31O","3EHVO81VN57KAWAV14A1K6BEMLH1HG","","null","<img src=""img/flower4.png"" style=""width:200px;border:14px solid red;"">","null","","","","","","","","",""
"","image-keyboard-response","294","125081","0.0-294.0","3U088ZLJVLF4MHIWRMX3WNYF4W30WA","A7VA2Y4H6U31O","3EHVO81VN57KAWAV14A1K6BEMLH1HG","","379.40000009536743","img/flower4.png","74","380.89999997615814","1","1","1","1","1,0.333,0.333,0.333,1,0.333,0.333,0.333,1","1,0.333,0.333,0.333,1,0.333,0.333,0.333,1","1",""
"","html-keyboard-response","295","125382","0.0-295.0","3U088ZLJVLF4MHIWRMX3WNYF4W30WA","A7VA2Y4H6U31O","3EHVO81VN57KAWAV14A1K6BEMLH1HG","","null","<img src=""img/flower4.png"" style=""width:200px; border:14px solid green;"">","null","","","","","","","","",""
"","image-keyboard-response","296","125905","0.0-296.0","3U088ZLJVLF4MHIWRMX3WNYF4W30WA","A7VA2Y4H6U31O","3EHVO81VN57KAWAV14A1K6BEMLH1HG","","522","img/flower3.png","74","522.5","1","0","2","1","1,0.333,0.333,0.333,1,0.333,0.333,0.333,1","1,0.333,0.333,0.333,1,0.333,0.333,0.333,1","1",""
"","html-keyboard-response","297","126206","0.0-297.0","3U088ZLJVLF4MHIWRMX3WNYF4W30WA","A7VA2Y4H6U31O","3EHVO81VN57KAWAV14A1K6BEMLH1HG","","null","<img src=""img/flower3.png"" style=""width:200px;border:14px solid red;"">","null","","","","","","","","",""
"","image-keyboard-response","298","126925","0.0-298.0","3U088ZLJVLF4MHIWRMX3WNYF4W30WA","A7VA2Y4H6U31O","3EHVO81VN57KAWAV14A1K6BEMLH1HG","","718.1000000238419","img/flower5.png","76","718.8999999761581","3","1","3","1","1,0.333,0.333,0.333,1,0.333,0.333,0.333,1","1,0.333,0.333,0.333,1,0.333,0.333,0.333,1","1",""
"","html-keyboard-response","299","127227","0.0-299.0","3U088ZLJVLF4MHIWRMX3WNYF4W30WA","A7VA2Y4H6U31O","3EHVO81VN57KAWAV14A1K6BEMLH1HG","","null","<img src=""img/flower5.png"" style=""width:200px; border:14px solid green;"">","null","","","","","","","","",""
"","image-keyboard-response","300","127599","0.0-300.0","3U088ZLJVLF4MHIWRMX3WNYF4W30WA","A7VA2Y4H6U31O","3EHVO81VN57KAWAV14A1K6BEMLH1HG","","370.3000000715256","img/flower5.png","76","371.90000009536743","3","1","3","1","1,0.333,0.333,0.333,1,0.333,0.333,0.333,1","1,0.333,0.333,0.333,1,0.333,0.333,0.333,1","1",""
"","html-keyboard-response","301","127901","0.0-301.0","3U088ZLJVLF4MHIWRMX3WNYF4W30WA","A7VA2Y4H6U31O","3EHVO81VN57KAWAV14A1K6BEMLH1HG","","null","<img src=""img/flower5.png"" style=""width:200px; border:14px solid green;"">","null","","","","","","","","",""
"","image-keyboard-response","302","127910","0.0-302.0","3U088ZLJVLF4MHIWRMX3WNYF4W30WA","A7VA2Y4H6U31O","3EHVO81VN57KAWAV14A1K6BEMLH1HG","","7.300000071525574","img/flower4.png","76","8.600000023841858","3","0","1","1","1,0.333,0.333,0.333,1,0.333,0.333,0.333,1","1,0.333,0.333,0.333,1,0.333,0.333,0.333,1","1",""
"","html-keyboard-response","303","128212","0.0-303.0","3U088ZLJVLF4MHIWRMX3WNYF4W30WA","A7VA2Y4H6U31O","3EHVO81VN57KAWAV14A1K6BEMLH1HG","","null","<img src=""img/flower4.png"" style=""width:200px;border:14px solid red;"">","null","","","","","","","","",""
"","image-keyboard-response","304","128752","0.0-304.0","3U088ZLJVLF4MHIWRMX3WNYF4W30WA","A7VA2Y4H6U31O","3EHVO81VN57KAWAV14A1K6BEMLH1HG","","538.7999999523163","img/flower3.png","74","540.1999999284744","1","0","2","1","1,0.333,0.333,0.333,1,0.333,0.333,0.333,1","1,0.333,0.333,0.333,1,0.333,0.333,0.333,1","1",""
"","html-keyboard-response","305","129055","0.0-305.0","3U088ZLJVLF4MHIWRMX3WNYF4W30WA","A7VA2Y4H6U31O","3EHVO81VN57KAWAV14A1K6BEMLH1HG","","null","<img src=""img/flower3.png"" style=""width:200px;border:14px solid red;"">","null","","","","","","","","",""
"","image-keyboard-response","306","129631","0.0-306.0","3U088ZLJVLF4MHIWRMX3WNYF4W30WA","A7VA2Y4H6U31O","3EHVO81VN57KAWAV14A1K6BEMLH1HG","","574.2999999523163","img/flower4.png","75","575.2999999523163","2","0","1","1","1,0.333,0.333,0.333,1,0.333,0.333,0.333,1","1,0.333,0.333,0.333,1,0.333,0.333,0.333,1","1",""
"","html-keyboard-response","307","129932","0.0-307.0","3U088ZLJVLF4MHIWRMX3WNYF4W30WA","A7VA2Y4H6U31O","3EHVO81VN57KAWAV14A1K6BEMLH1HG","","null","<img src=""img/flower4.png"" style=""width:200px;border:14px solid red;"">","null","","","","","","","","",""
"","image-keyboard-response","308","130762","0.0-308.0","3U088ZLJVLF4MHIWRMX3WNYF4W30WA","A7VA2Y4H6U31O","3EHVO81VN57KAWAV14A1K6BEMLH1HG","","829.7000000476837","img/flower3.png","74","830.3999999761581","1","0","2","1","1,0.333,0.333,0.333,1,0.333,0.333,0.333,1","1,0.333,0.333,0.333,1,0.333,0.333,0.333,1","1",""
"","html-keyboard-response","309","131063","0.0-309.0","3U088ZLJVLF4MHIWRMX3WNYF4W30WA","A7VA2Y4H6U31O","3EHVO81VN57KAWAV14A1K6BEMLH1HG","","null","<img src=""img/flower3.png"" style=""width:200px;border:14px solid red;"">","null","","","","","","","","",""
"","image-keyboard-response","310","131587","0.0-310.0","3U088ZLJVLF4MHIWRMX3WNYF4W30WA","A7VA2Y4H6U31O","3EHVO81VN57KAWAV14A1K6BEMLH1HG","","522","img/flower3.png","75","523.5","2","1","2","1","1,0.333,0.333,0.333,1,0.333,0.333,0.333,1","1,0.333,0.333,0.333,1,0.333,0.333,0.333,1","1",""
"","html-keyboard-response","311","131890","0.0-311.0","3U088ZLJVLF4MHIWRMX3WNYF4W30WA","A7VA2Y4H6U31O","3EHVO81VN57KAWAV14A1K6BEMLH1HG","","null","<img src=""img/flower3.png"" style=""width:200px; border:14px solid green;"">","null","","","","","","","","",""
"","image-keyboard-response","312","132705","0.0-312.0","3U088ZLJVLF4MHIWRMX3WNYF4W30WA","A7VA2Y4H6U31O","3EHVO81VN57KAWAV14A1K6BEMLH1HG","","813.7999999523163","img/flower4.png","74","815.2999999523163","1","1","1","1","1,0.333,0.333,0.333,1,0.333,0.333,0.333,1","1,0.333,0.333,0.333,1,0.333,0.333,0.333,1","1",""
"","html-keyboard-response","313","133009","0.0-313.0","3U088ZLJVLF4MHIWRMX3WNYF4W30WA","A7VA2Y4H6U31O","3EHVO81VN57KAWAV14A1K6BEMLH1HG","","null","<img src=""img/flower4.png"" style=""width:200px; border:14px solid green;"">","null","","","","","","","","",""
"","image-keyboard-response","314","133455","0.0-314.0","3U088ZLJVLF4MHIWRMX3WNYF4W30WA","A7VA2Y4H6U31O","3EHVO81VN57KAWAV14A1K6BEMLH1HG","","444.8000000715256","img/flower4.png","74","445.7999999523163","1","1","1","1","1,0.333,0.333,0.333,1,0.333,0.333,0.333,1","1,0.333,0.333,0.333,1,0.333,0.333,0.333,1","1",""
"","html-keyboard-response","315","133756","0.0-315.0","3U088ZLJVLF4MHIWRMX3WNYF4W30WA","A7VA2Y4H6U31O","3EHVO81VN57KAWAV14A1K6BEMLH1HG","","null","<img src=""img/flower4.png"" style=""width:200px; border:14px solid green;"">","null","","","","","","","","",""
"","image-keyboard-response","316","134317","0.0-316.0","3U088ZLJVLF4MHIWRMX3WNYF4W30WA","A7VA2Y4H6U31O","3EHVO81VN57KAWAV14A1K6BEMLH1HG","","561","img/flower5.png","76","561.5","3","1","3","1","1,0.333,0.333,0.333,1,0.333,0.333,0.333,1","1,0.333,0.333,0.333,1,0.333,0.333,0.333,1","1",""
"","html-keyboard-response","317","134619","0.0-317.0","3U088ZLJVLF4MHIWRMX3WNYF4W30WA","A7VA2Y4H6U31O","3EHVO81VN57KAWAV14A1K6BEMLH1HG","","null","<img src=""img/flower5.png"" style=""width:200px; border:14px solid green;"">","null","","","","","","","","",""
"","image-keyboard-response","318","135383","0.0-318.0","3U088ZLJVLF4MHIWRMX3WNYF4W30WA","A7VA2Y4H6U31O","3EHVO81VN57KAWAV14A1K6BEMLH1HG","","762.3999999761581","img/flower3.png","74","763.7999999523163","1","1","2","1","1,0.333,0.333,0.333,1,0.333,0.333,0.333,1","1,0.333,0.333,0.333,1,0.333,0.333,0.333,1","1",""
"","html-keyboard-response","319","135685","0.0-319.0","3U088ZLJVLF4MHIWRMX3WNYF4W30WA","A7VA2Y4H6U31O","3EHVO81VN57KAWAV14A1K6BEMLH1HG","","null","<img src=""img/flower3.png"" style=""width:200px; border:14px solid green;"">","null","","","","","","","","",""
"","image-keyboard-response","320","136520","0.0-320.0","3U088ZLJVLF4MHIWRMX3WNYF4W30WA","A7VA2Y4H6U31O","3EHVO81VN57KAWAV14A1K6BEMLH1HG","","832.8999999761581","img/flower4.png","76","834.3999999761581","3","1","1","1","1,0.333,0.333,0.333,1,0.333,0.333,0.333,1","1,0.333,0.333,0.333,1,0.333,0.333,0.333,1","1",""
"","html-keyboard-response","321","136821","0.0-321.0","3U088ZLJVLF4MHIWRMX3WNYF4W30WA","A7VA2Y4H6U31O","3EHVO81VN57KAWAV14A1K6BEMLH1HG","","null","<img src=""img/flower4.png"" style=""width:200px; border:14px solid green;"">","null","","","","","","","","",""
"","image-keyboard-response","322","137466","0.0-322.0","3U088ZLJVLF4MHIWRMX3WNYF4W30WA","A7VA2Y4H6U31O","3EHVO81VN57KAWAV14A1K6BEMLH1HG","","643.3999999761581","img/flower3.png","74","644.5","1","1","2","1","1,0.333,0.333,0.333,1,0.333,0.333,0.333,1","1,0.333,0.333,0.333,1,0.333,0.333,0.333,1","1",""
"","html-keyboard-response","323","137768","0.0-323.0","3U088ZLJVLF4MHIWRMX3WNYF4W30WA","A7VA2Y4H6U31O","3EHVO81VN57KAWAV14A1K6BEMLH1HG","","null","<img src=""img/flower3.png"" style=""width:200px; border:14px solid green;"">","null","","","","","","","","",""
"","image-keyboard-response","324","138315","0.0-324.0","3U088ZLJVLF4MHIWRMX3WNYF4W30WA","A7VA2Y4H6U31O","3EHVO81VN57KAWAV14A1K6BEMLH1HG","","547.1000000238419","img/flower4.png","76","547.5999999046326","3","1","1","1","1,0.333,0.333,0.333,1,0.333,0.333,0.333,1","1,0.333,0.333,0.333,1,0.333,0.333,0.333,1","1",""
"","html-keyboard-response","325","138616","0.0-325.0","3U088ZLJVLF4MHIWRMX3WNYF4W30WA","A7VA2Y4H6U31O","3EHVO81VN57KAWAV14A1K6BEMLH1HG","","null","<img src=""img/flower4.png"" style=""width:200px; border:14px solid green;"">","null","","","","","","","","",""
"","image-keyboard-response","326","139185","0.0-326.0","3U088ZLJVLF4MHIWRMX3WNYF4W30WA","A7VA2Y4H6U31O","3EHVO81VN57KAWAV14A1K6BEMLH1HG","","567.6999999284744","img/flower4.png","76","568.1000000238419","3","0","1","1","1,0.333,0.333,0.333,1,0.333,0.333,0.333,1","1,0.333,0.333,0.333,1,0.333,0.333,0.333,1","1",""
"","html-keyboard-response","327","139485","0.0-327.0","3U088ZLJVLF4MHIWRMX3WNYF4W30WA","A7VA2Y4H6U31O","3EHVO81VN57KAWAV14A1K6BEMLH1HG","","null","<img src=""img/flower4.png"" style=""width:200px;border:14px solid red;"">","null","","","","","","","","",""
"","image-keyboard-response","328","140562","0.0-328.0","3U088ZLJVLF4MHIWRMX3WNYF4W30WA","A7VA2Y4H6U31O","3EHVO81VN57KAWAV14A1K6BEMLH1HG","","1075.5","img/flower5.png","74","1076.1000000238419","1","1","3","1","1,0.333,0.333,0.333,1,0.333,0.333,0.333,1","1,0.333,0.333,0.333,1,0.333,0.333,0.333,1","1",""
"","html-keyboard-response","329","140863","0.0-329.0","3U088ZLJVLF4MHIWRMX3WNYF4W30WA","A7VA2Y4H6U31O","3EHVO81VN57KAWAV14A1K6BEMLH1HG","","null","<img src=""img/flower5.png"" style=""width:200px; border:14px solid green;"">","null","","","","","","","","",""
"","image-keyboard-response","330","141590","0.0-330.0","3U088ZLJVLF4MHIWRMX3WNYF4W30WA","A7VA2Y4H6U31O","3EHVO81VN57KAWAV14A1K6BEMLH1HG","","726.1999999284744","img/flower5.png","74","726.7000000476837","1","0","3","1","1,0.333,0.333,0.333,1,0.333,0.333,0.333,1","1,0.333,0.333,0.333,1,0.333,0.333,0.333,1","1",""
"","html-keyboard-response","331","141892","0.0-331.0","3U088ZLJVLF4MHIWRMX3WNYF4W30WA","A7VA2Y4H6U31O","3EHVO81VN57KAWAV14A1K6BEMLH1HG","","null","<img src=""img/flower5.png"" style=""width:200px;border:14px solid red;"">","null","","","","","","","","",""
"","image-keyboard-response","332","142249","0.0-332.0","3U088ZLJVLF4MHIWRMX3WNYF4W30WA","A7VA2Y4H6U31O","3EHVO81VN57KAWAV14A1K6BEMLH1HG","","355.2000000476837","img/flower5.png","74","356.39999997615814","1","0","3","1","1,0.333,0.333,0.333,1,0.333,0.333,0.333,1","1,0.333,0.333,0.333,1,0.333,0.333,0.333,1","1",""
"","html-keyboard-response","333","142551","0.0-333.0","3U088ZLJVLF4MHIWRMX3WNYF4W30WA","A7VA2Y4H6U31O","3EHVO81VN57KAWAV14A1K6BEMLH1HG","","null","<img src=""img/flower5.png"" style=""width:200px;border:14px solid red;"">","null","","","","","","","","",""
"","image-keyboard-response","334","143795","0.0-334.0","3U088ZLJVLF4MHIWRMX3WNYF4W30WA","A7VA2Y4H6U31O","3EHVO81VN57KAWAV14A1K6BEMLH1HG","","1241.5","img/flower4.png","74","1242.6000000238419","1","1","1","1","1,0.333,0.333,0.333,1,0.333,0.333,0.333,1","1,0.333,0.333,0.333,1,0.333,0.333,0.333,1","1",""
"","html-keyboard-response","335","144096","0.0-335.0","3U088ZLJVLF4MHIWRMX3WNYF4W30WA","A7VA2Y4H6U31O","3EHVO81VN57KAWAV14A1K6BEMLH1HG","","null","<img src=""img/flower4.png"" style=""width:200px; border:14px solid green;"">","null","","","","","","","","",""
"","image-keyboard-response","336","145199","0.0-336.0","3U088ZLJVLF4MHIWRMX3WNYF4W30WA","A7VA2Y4H6U31O","3EHVO81VN57KAWAV14A1K6BEMLH1HG","","1101.3999999761581","img/flower5.png","74","1102.8999999761581","1","0","3","1","1,0.333,0.333,0.333,1,0.333,0.333,0.333,1","1,0.333,0.333,0.333,1,0.333,0.333,0.333,1","1",""
"","html-keyboard-response","337","145501","0.0-337.0","3U088ZLJVLF4MHIWRMX3WNYF4W30WA","A7VA2Y4H6U31O","3EHVO81VN57KAWAV14A1K6BEMLH1HG","","null","<img src=""img/flower5.png"" style=""width:200px;border:14px solid red;"">","null","","","","","","","","",""
"","image-keyboard-response","338","146037","0.0-338.0","3U088ZLJVLF4MHIWRMX3WNYF4W30WA","A7VA2Y4H6U31O","3EHVO81VN57KAWAV14A1K6BEMLH1HG","","534.1000000238419","img/flower3.png","74","535.2000000476837","1","1","2","1","1,0.333,0.333,0.333,1,0.333,0.333,0.333,1","1,0.333,0.333,0.333,1,0.333,0.333,0.333,1","1",""
"","html-keyboard-response","339","146339","0.0-339.0","3U088ZLJVLF4MHIWRMX3WNYF4W30WA","A7VA2Y4H6U31O","3EHVO81VN57KAWAV14A1K6BEMLH1HG","","null","<img src=""img/flower3.png"" style=""width:200px; border:14px solid green;"">","null","","","","","","","","",""
"","image-keyboard-response","340","146619","0.0-340.0","3U088ZLJVLF4MHIWRMX3WNYF4W30WA","A7VA2Y4H6U31O","3EHVO81VN57KAWAV14A1K6BEMLH1HG","","280.2999999523163","img/flower5.png","76","280.8000000715256","3","1","3","1","1,0.333,0.333,0.333,1,0.333,0.333,0.333,1","1,0.333,0.333,0.333,1,0.333,0.333,0.333,1","1",""
"","html-keyboard-response","341","146920","0.0-341.0","3U088ZLJVLF4MHIWRMX3WNYF4W30WA","A7VA2Y4H6U31O","3EHVO81VN57KAWAV14A1K6BEMLH1HG","","null","<img src=""img/flower5.png"" style=""width:200px; border:14px solid green;"">","null","","","","","","","","",""
"","image-keyboard-response","342","147224","0.0-342.0","3U088ZLJVLF4MHIWRMX3WNYF4W30WA","A7VA2Y4H6U31O","3EHVO81VN57KAWAV14A1K6BEMLH1HG","","303.39999997615814","img/flower3.png","74","304","1","1","2","1","1,0.333,0.333,0.333,1,0.333,0.333,0.333,1","1,0.333,0.333,0.333,1,0.333,0.333,0.333,1","1",""
"","html-keyboard-response","343","147526","0.0-343.0","3U088ZLJVLF4MHIWRMX3WNYF4W30WA","A7VA2Y4H6U31O","3EHVO81VN57KAWAV14A1K6BEMLH1HG","","null","<img src=""img/flower3.png"" style=""width:200px; border:14px solid green;"">","null","","","","","","","","",""
"","image-keyboard-response","344","147787","0.0-344.0","3U088ZLJVLF4MHIWRMX3WNYF4W30WA","A7VA2Y4H6U31O","3EHVO81VN57KAWAV14A1K6BEMLH1HG","","259.6999999284744","img/flower3.png","76","260.8000000715256","3","0","2","1","1,0.333,0.333,0.333,1,0.333,0.333,0.333,1","1,0.333,0.333,0.333,1,0.333,0.333,0.333,1","1",""
"","html-keyboard-response","345","148088","0.0-345.0","3U088ZLJVLF4MHIWRMX3WNYF4W30WA","A7VA2Y4H6U31O","3EHVO81VN57KAWAV14A1K6BEMLH1HG","","null","<img src=""img/flower3.png"" style=""width:200px;border:14px solid red;"">","null","","","","","","","","",""
"","image-keyboard-response","346","148445","0.0-346.0","3U088ZLJVLF4MHIWRMX3WNYF4W30WA","A7VA2Y4H6U31O","3EHVO81VN57KAWAV14A1K6BEMLH1HG","","355.2999999523163","img/flower4.png","74","356.3000000715256","1","1","1","1","1,0.333,0.333,0.333,1,0.333,0.333,0.333,1","1,0.333,0.333,0.333,1,0.333,0.333,0.333,1","1",""
"","html-keyboard-response","347","148747","0.0-347.0","3U088ZLJVLF4MHIWRMX3WNYF4W30WA","A7VA2Y4H6U31O","3EHVO81VN57KAWAV14A1K6BEMLH1HG","","null","<img src=""img/flower4.png"" style=""width:200px; border:14px solid green;"">","null","","","","","","","","",""
"","image-keyboard-response","348","149291","0.0-348.0","3U088ZLJVLF4MHIWRMX3WNYF4W30WA","A7VA2Y4H6U31O","3EHVO81VN57KAWAV14A1K6BEMLH1HG","","543.2000000476837","img/flower4.png","75","544.3000000715256","2","0","1","1","1,0.333,0.333,0.333,1,0.333,0.333,0.333,1","1,0.333,0.333,0.333,1,0.333,0.333,0.333,1","1",""
"","html-keyboard-response","349","149593","0.0-349.0","3U088ZLJVLF4MHIWRMX3WNYF4W30WA","A7VA2Y4H6U31O","3EHVO81VN57KAWAV14A1K6BEMLH1HG","","null","<img src=""img/flower4.png"" style=""width:200px;border:14px solid red;"">","null","","","","","","","","",""
"","image-keyboard-response","350","149972","0.0-350.0","3U088ZLJVLF4MHIWRMX3WNYF4W30WA","A7VA2Y4H6U31O","3EHVO81VN57KAWAV14A1K6BEMLH1HG","","377.40000009536743","img/flower4.png","74","378.60000002384186","1","1","1","1","1,0.333,0.333,0.333,1,0.333,0.333,0.333,1","1,0.333,0.333,0.333,1,0.333,0.333,0.333,1","1",""
"","html-keyboard-response","351","150274","0.0-351.0","3U088ZLJVLF4MHIWRMX3WNYF4W30WA","A7VA2Y4H6U31O","3EHVO81VN57KAWAV14A1K6BEMLH1HG","","null","<img src=""img/flower4.png"" style=""width:200px; border:14px solid green;"">","null","","","","","","","","",""
"","image-keyboard-response","352","150639","0.0-352.0","3U088ZLJVLF4MHIWRMX3WNYF4W30WA","A7VA2Y4H6U31O","3EHVO81VN57KAWAV14A1K6BEMLH1HG","","363.60000002384186","img/flower5.png","76","364.89999997615814","3","1","3","1","1,0.333,0.333,0.333,1,0.333,0.333,0.333,1","1,0.333,0.333,0.333,1,0.333,0.333,0.333,1","1",""
"","html-keyboard-response","353","150941","0.0-353.0","3U088ZLJVLF4MHIWRMX3WNYF4W30WA","A7VA2Y4H6U31O","3EHVO81VN57KAWAV14A1K6BEMLH1HG","","null","<img src=""img/flower5.png"" style=""width:200px; border:14px solid green;"">","null","","","","","","","","",""
"","image-keyboard-response","354","151270","0.0-354.0","3U088ZLJVLF4MHIWRMX3WNYF4W30WA","A7VA2Y4H6U31O","3EHVO81VN57KAWAV14A1K6BEMLH1HG","","327.6999999284744","img/flower3.png","74","329.2999999523163","1","0","2","1","1,0.333,0.333,0.333,1,0.333,0.333,0.333,1","1,0.333,0.333,0.333,1,0.333,0.333,0.333,1","1",""
"","html-keyboard-response","355","151573","0.0-355.0","3U088ZLJVLF4MHIWRMX3WNYF4W30WA","A7VA2Y4H6U31O","3EHVO81VN57KAWAV14A1K6BEMLH1HG","","null","<img src=""img/flower3.png"" style=""width:200px;border:14px solid red;"">","null","","","","","","","","",""
"","image-keyboard-response","356","152157","0.0-356.0","3U088ZLJVLF4MHIWRMX3WNYF4W30WA","A7VA2Y4H6U31O","3EHVO81VN57KAWAV14A1K6BEMLH1HG","","582.1000000238419","img/flower4.png","75","583.3000000715256","2","0","1","1","1,0.333,0.333,0.333,1,0.333,0.333,0.333,1","1,0.333,0.333,0.333,1,0.333,0.333,0.333,1","1",""
"","html-keyboard-response","357","152459","0.0-357.0","3U088ZLJVLF4MHIWRMX3WNYF4W30WA","A7VA2Y4H6U31O","3EHVO81VN57KAWAV14A1K6BEMLH1HG","","null","<img src=""img/flower4.png"" style=""width:200px;border:14px solid red;"">","null","","","","","","","","",""
"","image-keyboard-response","358","152837","0.0-358.0","3U088ZLJVLF4MHIWRMX3WNYF4W30WA","A7VA2Y4H6U31O","3EHVO81VN57KAWAV14A1K6BEMLH1HG","","377.2999999523163","img/flower3.png","74","378.39999997615814","1","1","2","1","1,0.333,0.333,0.333,1,0.333,0.333,0.333,1","1,0.333,0.333,0.333,1,0.333,0.333,0.333,1","1",""
"","html-keyboard-response","359","153139","0.0-359.0","3U088ZLJVLF4MHIWRMX3WNYF4W30WA","A7VA2Y4H6U31O","3EHVO81VN57KAWAV14A1K6BEMLH1HG","","null","<img src=""img/flower3.png"" style=""width:200px; border:14px solid green;"">","null","","","","","","","","",""
"","image-keyboard-response","360","153464","0.0-360.0","3U088ZLJVLF4MHIWRMX3WNYF4W30WA","A7VA2Y4H6U31O","3EHVO81VN57KAWAV14A1K6BEMLH1HG","","324.60000002384186","img/flower5.png","76","325.2000000476837","3","1","3","1","1,0.333,0.333,0.333,1,0.333,0.333,0.333,1","1,0.333,0.333,0.333,1,0.333,0.333,0.333,1","1",""
"","html-keyboard-response","361","153767","0.0-361.0","3U088ZLJVLF4MHIWRMX3WNYF4W30WA","A7VA2Y4H6U31O","3EHVO81VN57KAWAV14A1K6BEMLH1HG","","null","<img src=""img/flower5.png"" style=""width:200px; border:14px solid green;"">","null","","","","","","","","",""
"","html-keyboard-response","362","157804","0.0-362.0","3U088ZLJVLF4MHIWRMX3WNYF4W30WA","A7VA2Y4H6U31O","3EHVO81VN57KAWAV14A1K6BEMLH1HG","","","","","","","","","","","","",""
"","instructions","363","161833","0.0-363.0","3U088ZLJVLF4MHIWRMX3WNYF4W30WA","A7VA2Y4H6U31O","3EHVO81VN57KAWAV14A1K6BEMLH1HG","[{""page_index"":0,""viewing_time"":4027.8000000715256}]","4028","","","","","","","","","","",""
