"success","trial_type","trial_index","time_elapsed","internal_node_id","assignmentID","mturkID","hitID","view_history","rt","stimulus","key_press","reactionTime","a","r","s","cond","reward_cond","reward_cond_actual","reward_matrix_idx","responses"
"true","fullscreen","0","3959","0.0-0.0","3LBXNTKX0SH17BBZ1NCIRHDFG479XW","A8V0L2YF8U6OX","3566S7OX5D5NH74JOVOPTTMK8IR17K","","","","","","","","","","","","",""
"","instructions","1","11807","0.0-1.0","3LBXNTKX0SH17BBZ1NCIRHDFG479XW","A8V0L2YF8U6OX","3566S7OX5D5NH74JOVOPTTMK8IR17K","[{""page_index"":0,""viewing_time"":1518.699999999255},{""page_index"":1,""viewing_time"":623.8000000007451},{""page_index"":2,""viewing_time"":430},{""page_index"":3,""viewing_time"":397.69999999925494},{""page_index"":4,""viewing_time"":1218.0999999996275},{""page_index"":5,""viewing_time"":1570.2000000011176},{""page_index"":6,""viewing_time"":905.6999999992549},{""page_index"":7,""viewing_time"":1179.800000000745}]","7845.4000000003725","","","","","","","","","","",""
"","image-keyboard-response","2","12759","0.0-2.0","3LBXNTKX0SH17BBZ1NCIRHDFG479XW","A8V0L2YF8U6OX","3566S7OX5D5NH74JOVOPTTMK8IR17K","","948.5999999996275","img/flower6.png","74","951.5999999996275","1","0","2","2","1,0,0,1,1,0,1,0,1","0,1,0,0,1,1,1,1,0","3",""
"","html-keyboard-response","3","13063","0.0-3.0","3LBXNTKX0SH17BBZ1NCIRHDFG479XW","A8V0L2YF8U6OX","3566S7OX5D5NH74JOVOPTTMK8IR17K","","null","<img src=""img/flower6.png"" style=""width:200px;border:14px solid red;"">","null","","","","","","","","",""
"","image-keyboard-response","4","13979","0.0-4.0","3LBXNTKX0SH17BBZ1NCIRHDFG479XW","A8V0L2YF8U6OX","3566S7OX5D5NH74JOVOPTTMK8IR17K","","914.5","img/flower5.png","74","915.9000000003725","1","1","3","2","1,0,0,1,1,0,1,0,1","0,1,0,0,1,1,1,1,0","3",""
"","html-keyboard-response","5","14281","0.0-5.0","3LBXNTKX0SH17BBZ1NCIRHDFG479XW","A8V0L2YF8U6OX","3566S7OX5D5NH74JOVOPTTMK8IR17K","","null","<img src=""img/flower5.png"" style=""width:200px; border:14px solid green;"">","null","","","","","","","","",""
"","image-keyboard-response","6","15192","0.0-6.0","3LBXNTKX0SH17BBZ1NCIRHDFG479XW","A8V0L2YF8U6OX","3566S7OX5D5NH74JOVOPTTMK8IR17K","","908.0999999996275","img/flower6.png","75","909.7000000011176","2","1","2","2","1,0,0,1,1,0,1,0,1","0,1,0,0,1,1,1,1,0","3",""
"","html-keyboard-response","7","15493","0.0-7.0","3LBXNTKX0SH17BBZ1NCIRHDFG479XW","A8V0L2YF8U6OX","3566S7OX5D5NH74JOVOPTTMK8IR17K","","null","<img src=""img/flower6.png"" style=""width:200px; border:14px solid green;"">","null","","","","","","","","",""
"","image-keyboard-response","8","15917","0.0-8.0","3LBXNTKX0SH17BBZ1NCIRHDFG479XW","A8V0L2YF8U6OX","3566S7OX5D5NH74JOVOPTTMK8IR17K","","421.09999999962747","img/flower4.png","75","422.7000000011176","2","1","1","2","1,0,0,1,1,0,1,0,1","0,1,0,0,1,1,1,1,0","3",""
"","html-keyboard-response","9","16219","0.0-9.0","3LBXNTKX0SH17BBZ1NCIRHDFG479XW","A8V0L2YF8U6OX","3566S7OX5D5NH74JOVOPTTMK8IR17K","","null","<img src=""img/flower4.png"" style=""width:200px; border:14px solid green;"">","null","","","","","","","","",""
"","image-keyboard-response","10","16602","0.0-10.0","3LBXNTKX0SH17BBZ1NCIRHDFG479XW","A8V0L2YF8U6OX","3566S7OX5D5NH74JOVOPTTMK8IR17K","","380.59999999962747","img/flower5.png","75","382.2000000011176","2","1","3","2","1,0,0,1,1,0,1,0,1","0,1,0,0,1,1,1,1,0","3",""
"","html-keyboard-response","11","16904","0.0-11.0","3LBXNTKX0SH17BBZ1NCIRHDFG479XW","A8V0L2YF8U6OX","3566S7OX5D5NH74JOVOPTTMK8IR17K","","null","<img src=""img/flower5.png"" style=""width:200px; border:14px solid green;"">","null","","","","","","","","",""
"","image-keyboard-response","12","17160","0.0-12.0","3LBXNTKX0SH17BBZ1NCIRHDFG479XW","A8V0L2YF8U6OX","3566S7OX5D5NH74JOVOPTTMK8IR17K","","254.5","img/flower4.png","75","255.89999999850988","2","1","1","2","1,0,0,1,1,0,1,0,1","0,1,0,0,1,1,1,1,0","3",""
"","html-keyboard-response","13","17462","0.0-13.0","3LBXNTKX0SH17BBZ1NCIRHDFG479XW","A8V0L2YF8U6OX","3566S7OX5D5NH74JOVOPTTMK8IR17K","","null","<img src=""img/flower4.png"" style=""width:200px; border:14px solid green;"">","null","","","","","","","","",""
"","image-keyboard-response","14","17682","0.0-14.0","3LBXNTKX0SH17BBZ1NCIRHDFG479XW","A8V0L2YF8U6OX","3566S7OX5D5NH74JOVOPTTMK8IR17K","","218.59999999962747","img/flower6.png","75","219.7999999988824","2","1","2","2","1,0,0,1,1,0,1,0,1","0,1,0,0,1,1,1,1,0","3",""
"","html-keyboard-response","15","17984","0.0-15.0","3LBXNTKX0SH17BBZ1NCIRHDFG479XW","A8V0L2YF8U6OX","3566S7OX5D5NH74JOVOPTTMK8IR17K","","null","<img src=""img/flower6.png"" style=""width:200px; border:14px solid green;"">","null","","","","","","","","",""
"","image-keyboard-response","16","18146","0.0-16.0","3LBXNTKX0SH17BBZ1NCIRHDFG479XW","A8V0L2YF8U6OX","3566S7OX5D5NH74JOVOPTTMK8IR17K","","160.69999999925494","img/flower5.png","75","161.90000000037253","2","1","3","2","1,0,0,1,1,0,1,0,1","0,1,0,0,1,1,1,1,0","3",""
"","html-keyboard-response","17","18449","0.0-17.0","3LBXNTKX0SH17BBZ1NCIRHDFG479XW","A8V0L2YF8U6OX","3566S7OX5D5NH74JOVOPTTMK8IR17K","","null","<img src=""img/flower5.png"" style=""width:200px; border:14px solid green;"">","null","","","","","","","","",""
"","image-keyboard-response","18","18589","0.0-18.0","3LBXNTKX0SH17BBZ1NCIRHDFG479XW","A8V0L2YF8U6OX","3566S7OX5D5NH74JOVOPTTMK8IR17K","","138.09999999962747","img/flower6.png","75","139.59999999962747","2","1","2","2","1,0,0,1,1,0,1,0,1","0,1,0,0,1,1,1,1,0","3",""
"","html-keyboard-response","19","18890","0.0-19.0","3LBXNTKX0SH17BBZ1NCIRHDFG479XW","A8V0L2YF8U6OX","3566S7OX5D5NH74JOVOPTTMK8IR17K","","null","<img src=""img/flower6.png"" style=""width:200px; border:14px solid green;"">","null","","","","","","","","",""
"","image-keyboard-response","20","19031","0.0-20.0","3LBXNTKX0SH17BBZ1NCIRHDFG479XW","A8V0L2YF8U6OX","3566S7OX5D5NH74JOVOPTTMK8IR17K","","138.59999999962747","img/flower5.png","75","140","2","1","3","2","1,0,0,1,1,0,1,0,1","0,1,0,0,1,1,1,1,0","3",""
"","html-keyboard-response","21","19333","0.0-21.0","3LBXNTKX0SH17BBZ1NCIRHDFG479XW","A8V0L2YF8U6OX","3566S7OX5D5NH74JOVOPTTMK8IR17K","","null","<img src=""img/flower5.png"" style=""width:200px; border:14px solid green;"">","null","","","","","","","","",""
"","image-keyboard-response","22","19443","0.0-22.0","3LBXNTKX0SH17BBZ1NCIRHDFG479XW","A8V0L2YF8U6OX","3566S7OX5D5NH74JOVOPTTMK8IR17K","","109","img/flower6.png","75","110.30000000074506","2","1","2","2","1,0,0,1,1,0,1,0,1","0,1,0,0,1,1,1,1,0","3",""
"","html-keyboard-response","23","19746","0.0-23.0","3LBXNTKX0SH17BBZ1NCIRHDFG479XW","A8V0L2YF8U6OX","3566S7OX5D5NH74JOVOPTTMK8IR17K","","null","<img src=""img/flower6.png"" style=""width:200px; border:14px solid green;"">","null","","","","","","","","",""
"","image-keyboard-response","24","19841","0.0-24.0","3LBXNTKX0SH17BBZ1NCIRHDFG479XW","A8V0L2YF8U6OX","3566S7OX5D5NH74JOVOPTTMK8IR17K","","92.90000000037253","img/flower5.png","75","94.19999999925494","2","1","3","2","1,0,0,1,1,0,1,0,1","0,1,0,0,1,1,1,1,0","3",""
"","html-keyboard-response","25","20143","0.0-25.0","3LBXNTKX0SH17BBZ1NCIRHDFG479XW","A8V0L2YF8U6OX","3566S7OX5D5NH74JOVOPTTMK8IR17K","","null","<img src=""img/flower5.png"" style=""width:200px; border:14px solid green;"">","null","","","","","","","","",""
"","image-keyboard-response","26","20252","0.0-26.0","3LBXNTKX0SH17BBZ1NCIRHDFG479XW","A8V0L2YF8U6OX","3566S7OX5D5NH74JOVOPTTMK8IR17K","","107.70000000111759","img/flower5.png","75","109.39999999850988","2","1","3","2","1,0,0,1,1,0,1,0,1","0,1,0,0,1,1,1,1,0","3",""
"","html-keyboard-response","27","20554","0.0-27.0","3LBXNTKX0SH17BBZ1NCIRHDFG479XW","A8V0L2YF8U6OX","3566S7OX5D5NH74JOVOPTTMK8IR17K","","null","<img src=""img/flower5.png"" style=""width:200px; border:14px solid green;"">","null","","","","","","","","",""
"","image-keyboard-response","28","20644","0.0-28.0","3LBXNTKX0SH17BBZ1NCIRHDFG479XW","A8V0L2YF8U6OX","3566S7OX5D5NH74JOVOPTTMK8IR17K","","87.90000000037253","img/flower6.png","75","89","2","1","2","2","1,0,0,1,1,0,1,0,1","0,1,0,0,1,1,1,1,0","3",""
"","html-keyboard-response","29","20945","0.0-29.0","3LBXNTKX0SH17BBZ1NCIRHDFG479XW","A8V0L2YF8U6OX","3566S7OX5D5NH74JOVOPTTMK8IR17K","","null","<img src=""img/flower6.png"" style=""width:200px; border:14px solid green;"">","null","","","","","","","","",""
"","image-keyboard-response","30","21024","0.0-30.0","3LBXNTKX0SH17BBZ1NCIRHDFG479XW","A8V0L2YF8U6OX","3566S7OX5D5NH74JOVOPTTMK8IR17K","","76.90000000037253","img/flower6.png","75","78.29999999888241","2","1","2","2","1,0,0,1,1,0,1,0,1","0,1,0,0,1,1,1,1,0","3",""
"","html-keyboard-response","31","21326","0.0-31.0","3LBXNTKX0SH17BBZ1NCIRHDFG479XW","A8V0L2YF8U6OX","3566S7OX5D5NH74JOVOPTTMK8IR17K","","null","<img src=""img/flower6.png"" style=""width:200px; border:14px solid green;"">","null","","","","","","","","",""
"","image-keyboard-response","32","21432","0.0-32.0","3LBXNTKX0SH17BBZ1NCIRHDFG479XW","A8V0L2YF8U6OX","3566S7OX5D5NH74JOVOPTTMK8IR17K","","103.90000000037253","img/flower6.png","75","105.5","2","1","2","2","1,0,0,1,1,0,1,0,1","0,1,0,0,1,1,1,1,0","3",""
"","html-keyboard-response","33","21734","0.0-33.0","3LBXNTKX0SH17BBZ1NCIRHDFG479XW","A8V0L2YF8U6OX","3566S7OX5D5NH74JOVOPTTMK8IR17K","","null","<img src=""img/flower6.png"" style=""width:200px; border:14px solid green;"">","null","","","","","","","","",""
"","image-keyboard-response","34","21814","0.0-34.0","3LBXNTKX0SH17BBZ1NCIRHDFG479XW","A8V0L2YF8U6OX","3566S7OX5D5NH74JOVOPTTMK8IR17K","","78.29999999888241","img/flower6.png","75","79.79999999888241","2","1","2","2","1,0,0,1,1,0,1,0,1","0,1,0,0,1,1,1,1,0","3",""
"","html-keyboard-response","35","22116","0.0-35.0","3LBXNTKX0SH17BBZ1NCIRHDFG479XW","A8V0L2YF8U6OX","3566S7OX5D5NH74JOVOPTTMK8IR17K","","null","<img src=""img/flower6.png"" style=""width:200px; border:14px solid green;"">","null","","","","","","","","",""
"","image-keyboard-response","36","22211","0.0-36.0","3LBXNTKX0SH17BBZ1NCIRHDFG479XW","A8V0L2YF8U6OX","3566S7OX5D5NH74JOVOPTTMK8IR17K","","92.59999999962747","img/flower4.png","75","94.10000000149012","2","1","1","2","1,0,0,1,1,0,1,0,1","0,1,0,0,1,1,1,1,0","3",""
"","html-keyboard-response","37","22513","0.0-37.0","3LBXNTKX0SH17BBZ1NCIRHDFG479XW","A8V0L2YF8U6OX","3566S7OX5D5NH74JOVOPTTMK8IR17K","","null","<img src=""img/flower4.png"" style=""width:200px; border:14px solid green;"">","null","","","","","","","","",""
"","image-keyboard-response","38","22595","0.0-38.0","3LBXNTKX0SH17BBZ1NCIRHDFG479XW","A8V0L2YF8U6OX","3566S7OX5D5NH74JOVOPTTMK8IR17K","","80.40000000037253","img/flower5.png","75","81.59999999962747","2","1","3","2","1,0,0,1,1,0,1,0,1","0,1,0,0,1,1,1,1,0","3",""
"","html-keyboard-response","39","22897","0.0-39.0","3LBXNTKX0SH17BBZ1NCIRHDFG479XW","A8V0L2YF8U6OX","3566S7OX5D5NH74JOVOPTTMK8IR17K","","null","<img src=""img/flower5.png"" style=""width:200px; border:14px solid green;"">","null","","","","","","","","",""
"","image-keyboard-response","40","22954","0.0-40.0","3LBXNTKX0SH17BBZ1NCIRHDFG479XW","A8V0L2YF8U6OX","3566S7OX5D5NH74JOVOPTTMK8IR17K","","55.40000000037253","img/flower5.png","75","56.70000000111759","2","1","3","2","1,0,0,1,1,0,1,0,1","0,1,0,0,1,1,1,1,0","3",""
"","html-keyboard-response","41","23256","0.0-41.0","3LBXNTKX0SH17BBZ1NCIRHDFG479XW","A8V0L2YF8U6OX","3566S7OX5D5NH74JOVOPTTMK8IR17K","","null","<img src=""img/flower5.png"" style=""width:200px; border:14px solid green;"">","null","","","","","","","","",""
"","image-keyboard-response","42","23303","0.0-42.0","3LBXNTKX0SH17BBZ1NCIRHDFG479XW","A8V0L2YF8U6OX","3566S7OX5D5NH74JOVOPTTMK8IR17K","","44.69999999925494","img/flower5.png","75","46.30000000074506","2","1","3","2","1,0,0,1,1,0,1,0,1","0,1,0,0,1,1,1,1,0","3",""
"","html-keyboard-response","43","23605","0.0-43.0","3LBXNTKX0SH17BBZ1NCIRHDFG479XW","A8V0L2YF8U6OX","3566S7OX5D5NH74JOVOPTTMK8IR17K","","null","<img src=""img/flower5.png"" style=""width:200px; border:14px solid green;"">","null","","","","","","","","",""
"","image-keyboard-response","44","23657","0.0-44.0","3LBXNTKX0SH17BBZ1NCIRHDFG479XW","A8V0L2YF8U6OX","3566S7OX5D5NH74JOVOPTTMK8IR17K","","50","img/flower5.png","75","51.20000000111759","2","1","3","2","1,0,0,1,1,0,1,0,1","0,1,0,0,1,1,1,1,0","3",""
"","html-keyboard-response","45","23959","0.0-45.0","3LBXNTKX0SH17BBZ1NCIRHDFG479XW","A8V0L2YF8U6OX","3566S7OX5D5NH74JOVOPTTMK8IR17K","","null","<img src=""img/flower5.png"" style=""width:200px; border:14px solid green;"">","null","","","","","","","","",""
"","image-keyboard-response","46","24041","0.0-46.0","3LBXNTKX0SH17BBZ1NCIRHDFG479XW","A8V0L2YF8U6OX","3566S7OX5D5NH74JOVOPTTMK8IR17K","","79.70000000111759","img/flower5.png","75","81.29999999888241","2","1","3","2","1,0,0,1,1,0,1,0,1","0,1,0,0,1,1,1,1,0","3",""
"","html-keyboard-response","47","24343","0.0-47.0","3LBXNTKX0SH17BBZ1NCIRHDFG479XW","A8V0L2YF8U6OX","3566S7OX5D5NH74JOVOPTTMK8IR17K","","null","<img src=""img/flower5.png"" style=""width:200px; border:14px solid green;"">","null","","","","","","","","",""
"","image-keyboard-response","48","24416","0.0-48.0","3LBXNTKX0SH17BBZ1NCIRHDFG479XW","A8V0L2YF8U6OX","3566S7OX5D5NH74JOVOPTTMK8IR17K","","70.79999999888241","img/flower4.png","75","72.19999999925494","2","1","1","2","1,0,0,1,1,0,1,0,1","0,1,0,0,1,1,1,1,0","3",""
"","html-keyboard-response","49","24718","0.0-49.0","3LBXNTKX0SH17BBZ1NCIRHDFG479XW","A8V0L2YF8U6OX","3566S7OX5D5NH74JOVOPTTMK8IR17K","","null","<img src=""img/flower4.png"" style=""width:200px; border:14px solid green;"">","null","","","","","","","","",""
"","image-keyboard-response","50","24813","0.0-50.0","3LBXNTKX0SH17BBZ1NCIRHDFG479XW","A8V0L2YF8U6OX","3566S7OX5D5NH74JOVOPTTMK8IR17K","","92.70000000111759","img/flower5.png","75","94.30000000074506","2","1","3","2","1,0,0,1,1,0,1,0,1","0,1,0,0,1,1,1,1,0","3",""
"","html-keyboard-response","51","25114","0.0-51.0","3LBXNTKX0SH17BBZ1NCIRHDFG479XW","A8V0L2YF8U6OX","3566S7OX5D5NH74JOVOPTTMK8IR17K","","null","<img src=""img/flower5.png"" style=""width:200px; border:14px solid green;"">","null","","","","","","","","",""
"","image-keyboard-response","52","25183","0.0-52.0","3LBXNTKX0SH17BBZ1NCIRHDFG479XW","A8V0L2YF8U6OX","3566S7OX5D5NH74JOVOPTTMK8IR17K","","66.90000000037253","img/flower5.png","75","68.20000000111759","2","1","3","2","1,0,0,1,1,0,1,0,1","0,1,0,0,1,1,1,1,0","3",""
"","html-keyboard-response","53","25486","0.0-53.0","3LBXNTKX0SH17BBZ1NCIRHDFG479XW","A8V0L2YF8U6OX","3566S7OX5D5NH74JOVOPTTMK8IR17K","","null","<img src=""img/flower5.png"" style=""width:200px; border:14px solid green;"">","null","","","","","","","","",""
"","image-keyboard-response","54","25542","0.0-54.0","3LBXNTKX0SH17BBZ1NCIRHDFG479XW","A8V0L2YF8U6OX","3566S7OX5D5NH74JOVOPTTMK8IR17K","","54","img/flower4.png","75","55.69999999925494","2","1","1","2","1,0,0,1,1,0,1,0,1","0,1,0,0,1,1,1,1,0","3",""
"","html-keyboard-response","55","25843","0.0-55.0","3LBXNTKX0SH17BBZ1NCIRHDFG479XW","A8V0L2YF8U6OX","3566S7OX5D5NH74JOVOPTTMK8IR17K","","null","<img src=""img/flower4.png"" style=""width:200px; border:14px solid green;"">","null","","","","","","","","",""
"","image-keyboard-response","56","25926","0.0-56.0","3LBXNTKX0SH17BBZ1NCIRHDFG479XW","A8V0L2YF8U6OX","3566S7OX5D5NH74JOVOPTTMK8IR17K","","80.09999999962747","img/flower6.png","75","81.40000000037253","2","1","2","2","1,0,0,1,1,0,1,0,1","0,1,0,0,1,1,1,1,0","3",""
"","html-keyboard-response","57","26227","0.0-57.0","3LBXNTKX0SH17BBZ1NCIRHDFG479XW","A8V0L2YF8U6OX","3566S7OX5D5NH74JOVOPTTMK8IR17K","","null","<img src=""img/flower6.png"" style=""width:200px; border:14px solid green;"">","null","","","","","","","","",""
"","image-keyboard-response","58","26278","0.0-58.0","3LBXNTKX0SH17BBZ1NCIRHDFG479XW","A8V0L2YF8U6OX","3566S7OX5D5NH74JOVOPTTMK8IR17K","","48.30000000074506","img/flower5.png","75","50","2","1","3","2","1,0,0,1,1,0,1,0,1","0,1,0,0,1,1,1,1,0","3",""
"","html-keyboard-response","59","26580","0.0-59.0","3LBXNTKX0SH17BBZ1NCIRHDFG479XW","A8V0L2YF8U6OX","3566S7OX5D5NH74JOVOPTTMK8IR17K","","null","<img src=""img/flower5.png"" style=""width:200px; border:14px solid green;"">","null","","","","","","","","",""
"","image-keyboard-response","60","26645","0.0-60.0","3LBXNTKX0SH17BBZ1NCIRHDFG479XW","A8V0L2YF8U6OX","3566S7OX5D5NH74JOVOPTTMK8IR17K","","62.40000000037253","img/flower6.png","75","64.09999999962747","2","1","2","2","1,0,0,1,1,0,1,0,1","0,1,0,0,1,1,1,1,0","3",""
"","html-keyboard-response","61","26947","0.0-61.0","3LBXNTKX0SH17BBZ1NCIRHDFG479XW","A8V0L2YF8U6OX","3566S7OX5D5NH74JOVOPTTMK8IR17K","","null","<img src=""img/flower6.png"" style=""width:200px; border:14px solid green;"">","null","","","","","","","","",""
"","image-keyboard-response","62","26993","0.0-62.0","3LBXNTKX0SH17BBZ1NCIRHDFG479XW","A8V0L2YF8U6OX","3566S7OX5D5NH74JOVOPTTMK8IR17K","","44.29999999888241","img/flower4.png","75","45.59999999962747","2","1","1","2","1,0,0,1,1,0,1,0,1","0,1,0,0,1,1,1,1,0","3",""
"","html-keyboard-response","63","27295","0.0-63.0","3LBXNTKX0SH17BBZ1NCIRHDFG479XW","A8V0L2YF8U6OX","3566S7OX5D5NH74JOVOPTTMK8IR17K","","null","<img src=""img/flower4.png"" style=""width:200px; border:14px solid green;"">","null","","","","","","","","",""
"","image-keyboard-response","64","27492","0.0-64.0","3LBXNTKX0SH17BBZ1NCIRHDFG479XW","A8V0L2YF8U6OX","3566S7OX5D5NH74JOVOPTTMK8IR17K","","195.80000000074506","img/flower4.png","75","196.90000000037253","2","1","1","2","1,0,0,1,1,0,1,0,1","0,1,0,0,1,1,1,1,0","3",""
"","html-keyboard-response","65","27796","0.0-65.0","3LBXNTKX0SH17BBZ1NCIRHDFG479XW","A8V0L2YF8U6OX","3566S7OX5D5NH74JOVOPTTMK8IR17K","","null","<img src=""img/flower4.png"" style=""width:200px; border:14px solid green;"">","null","","","","","","","","",""
"","image-keyboard-response","66","28163","0.0-66.0","3LBXNTKX0SH17BBZ1NCIRHDFG479XW","A8V0L2YF8U6OX","3566S7OX5D5NH74JOVOPTTMK8IR17K","","365.09999999962747","img/flower5.png","75","366.5","2","1","3","2","1,0,0,1,1,0,1,0,1","0,1,0,0,1,1,1,1,0","3",""
"","html-keyboard-response","67","28464","0.0-67.0","3LBXNTKX0SH17BBZ1NCIRHDFG479XW","A8V0L2YF8U6OX","3566S7OX5D5NH74JOVOPTTMK8IR17K","","null","<img src=""img/flower5.png"" style=""width:200px; border:14px solid green;"">","null","","","","","","","","",""
"","image-keyboard-response","68","28584","0.0-68.0","3LBXNTKX0SH17BBZ1NCIRHDFG479XW","A8V0L2YF8U6OX","3566S7OX5D5NH74JOVOPTTMK8IR17K","","117.69999999925494","img/flower4.png","75","118.90000000037253","2","1","1","2","1,0,0,1,1,0,1,0,1","0,1,0,0,1,1,1,1,0","3",""
"","html-keyboard-response","69","28886","0.0-69.0","3LBXNTKX0SH17BBZ1NCIRHDFG479XW","A8V0L2YF8U6OX","3566S7OX5D5NH74JOVOPTTMK8IR17K","","null","<img src=""img/flower4.png"" style=""width:200px; border:14px solid green;"">","null","","","","","","","","",""
"","image-keyboard-response","70","28960","0.0-70.0","3LBXNTKX0SH17BBZ1NCIRHDFG479XW","A8V0L2YF8U6OX","3566S7OX5D5NH74JOVOPTTMK8IR17K","","72.59999999962747","img/flower6.png","75","73.79999999888241","2","1","2","2","1,0,0,1,1,0,1,0,1","0,1,0,0,1,1,1,1,0","3",""
"","html-keyboard-response","71","29261","0.0-71.0","3LBXNTKX0SH17BBZ1NCIRHDFG479XW","A8V0L2YF8U6OX","3566S7OX5D5NH74JOVOPTTMK8IR17K","","null","<img src=""img/flower6.png"" style=""width:200px; border:14px solid green;"">","null","","","","","","","","",""
"","image-keyboard-response","72","29313","0.0-72.0","3LBXNTKX0SH17BBZ1NCIRHDFG479XW","A8V0L2YF8U6OX","3566S7OX5D5NH74JOVOPTTMK8IR17K","","50.30000000074506","img/flower4.png","75","51.5","2","1","1","2","1,0,0,1,1,0,1,0,1","0,1,0,0,1,1,1,1,0","3",""
"","html-keyboard-response","73","29615","0.0-73.0","3LBXNTKX0SH17BBZ1NCIRHDFG479XW","A8V0L2YF8U6OX","3566S7OX5D5NH74JOVOPTTMK8IR17K","","null","<img src=""img/flower4.png"" style=""width:200px; border:14px solid green;"">","null","","","","","","","","",""
"","image-keyboard-response","74","29638","0.0-74.0","3LBXNTKX0SH17BBZ1NCIRHDFG479XW","A8V0L2YF8U6OX","3566S7OX5D5NH74JOVOPTTMK8IR17K","","21.299999998882413","img/flower6.png","75","22.5","2","1","2","2","1,0,0,1,1,0,1,0,1","0,1,0,0,1,1,1,1,0","3",""
"","html-keyboard-response","75","29940","0.0-75.0","3LBXNTKX0SH17BBZ1NCIRHDFG479XW","A8V0L2YF8U6OX","3566S7OX5D5NH74JOVOPTTMK8IR17K","","null","<img src=""img/flower6.png"" style=""width:200px; border:14px solid green;"">","null","","","","","","","","",""
"","image-keyboard-response","76","29970","0.0-76.0","3LBXNTKX0SH17BBZ1NCIRHDFG479XW","A8V0L2YF8U6OX","3566S7OX5D5NH74JOVOPTTMK8IR17K","","27.700000001117587","img/flower4.png","75","29.09999999962747","2","1","1","2","1,0,0,1,1,0,1,0,1","0,1,0,0,1,1,1,1,0","3",""
"","html-keyboard-response","77","30272","0.0-77.0","3LBXNTKX0SH17BBZ1NCIRHDFG479XW","A8V0L2YF8U6OX","3566S7OX5D5NH74JOVOPTTMK8IR17K","","null","<img src=""img/flower4.png"" style=""width:200px; border:14px solid green;"">","null","","","","","","","","",""
"","image-keyboard-response","78","30336","0.0-78.0","3LBXNTKX0SH17BBZ1NCIRHDFG479XW","A8V0L2YF8U6OX","3566S7OX5D5NH74JOVOPTTMK8IR17K","","62.30000000074506","img/flower6.png","75","63.90000000037253","2","1","2","2","1,0,0,1,1,0,1,0,1","0,1,0,0,1,1,1,1,0","3",""
"","html-keyboard-response","79","30638","0.0-79.0","3LBXNTKX0SH17BBZ1NCIRHDFG479XW","A8V0L2YF8U6OX","3566S7OX5D5NH74JOVOPTTMK8IR17K","","null","<img src=""img/flower6.png"" style=""width:200px; border:14px solid green;"">","null","","","","","","","","",""
"","image-keyboard-response","80","30664","0.0-80.0","3LBXNTKX0SH17BBZ1NCIRHDFG479XW","A8V0L2YF8U6OX","3566S7OX5D5NH74JOVOPTTMK8IR17K","","24.299999998882413","img/flower4.png","75","25.90000000037253","2","1","1","2","1,0,0,1,1,0,1,0,1","0,1,0,0,1,1,1,1,0","3",""
"","html-keyboard-response","81","30966","0.0-81.0","3LBXNTKX0SH17BBZ1NCIRHDFG479XW","A8V0L2YF8U6OX","3566S7OX5D5NH74JOVOPTTMK8IR17K","","null","<img src=""img/flower4.png"" style=""width:200px; border:14px solid green;"">","null","","","","","","","","",""
"","image-keyboard-response","82","30995","0.0-82.0","3LBXNTKX0SH17BBZ1NCIRHDFG479XW","A8V0L2YF8U6OX","3566S7OX5D5NH74JOVOPTTMK8IR17K","","26.699999999254942","img/flower4.png","75","28.40000000037253","2","1","1","2","1,0,0,1,1,0,1,0,1","0,1,0,0,1,1,1,1,0","3",""
"","html-keyboard-response","83","31297","0.0-83.0","3LBXNTKX0SH17BBZ1NCIRHDFG479XW","A8V0L2YF8U6OX","3566S7OX5D5NH74JOVOPTTMK8IR17K","","null","<img src=""img/flower4.png"" style=""width:200px; border:14px solid green;"">","null","","","","","","","","",""
"","image-keyboard-response","84","31362","0.0-84.0","3LBXNTKX0SH17BBZ1NCIRHDFG479XW","A8V0L2YF8U6OX","3566S7OX5D5NH74JOVOPTTMK8IR17K","","62.70000000111759","img/flower5.png","75","64.10000000149012","2","1","3","2","1,0,0,1,1,0,1,0,1","0,1,0,0,1,1,1,1,0","3",""
"","html-keyboard-response","85","31664","0.0-85.0","3LBXNTKX0SH17BBZ1NCIRHDFG479XW","A8V0L2YF8U6OX","3566S7OX5D5NH74JOVOPTTMK8IR17K","","null","<img src=""img/flower5.png"" style=""width:200px; border:14px solid green;"">","null","","","","","","","","",""
"","image-keyboard-response","86","31707","0.0-86.0","3LBXNTKX0SH17BBZ1NCIRHDFG479XW","A8V0L2YF8U6OX","3566S7OX5D5NH74JOVOPTTMK8IR17K","","41.80000000074506","img/flower6.png","75","43","2","1","2","2","1,0,0,1,1,0,1,0,1","0,1,0,0,1,1,1,1,0","3",""
"","html-keyboard-response","87","32009","0.0-87.0","3LBXNTKX0SH17BBZ1NCIRHDFG479XW","A8V0L2YF8U6OX","3566S7OX5D5NH74JOVOPTTMK8IR17K","","null","<img src=""img/flower6.png"" style=""width:200px; border:14px solid green;"">","null","","","","","","","","",""
"","image-keyboard-response","88","32074","0.0-88.0","3LBXNTKX0SH17BBZ1NCIRHDFG479XW","A8V0L2YF8U6OX","3566S7OX5D5NH74JOVOPTTMK8IR17K","","63.80000000074506","img/flower6.png","75","65.09999999962747","2","1","2","2","1,0,0,1,1,0,1,0,1","0,1,0,0,1,1,1,1,0","3",""
"","html-keyboard-response","89","32376","0.0-89.0","3LBXNTKX0SH17BBZ1NCIRHDFG479XW","A8V0L2YF8U6OX","3566S7OX5D5NH74JOVOPTTMK8IR17K","","null","<img src=""img/flower6.png"" style=""width:200px; border:14px solid green;"">","null","","","","","","","","",""
"","image-keyboard-response","90","32405","0.0-90.0","3LBXNTKX0SH17BBZ1NCIRHDFG479XW","A8V0L2YF8U6OX","3566S7OX5D5NH74JOVOPTTMK8IR17K","","27.09999999962747","img/flower5.png","75","28.300000000745058","2","1","3","2","1,0,0,1,1,0,1,0,1","0,1,0,0,1,1,1,1,0","3",""
"","html-keyboard-response","91","32707","0.0-91.0","3LBXNTKX0SH17BBZ1NCIRHDFG479XW","A8V0L2YF8U6OX","3566S7OX5D5NH74JOVOPTTMK8IR17K","","null","<img src=""img/flower5.png"" style=""width:200px; border:14px solid green;"">","null","","","","","","","","",""
"","image-keyboard-response","92","32766","0.0-92.0","3LBXNTKX0SH17BBZ1NCIRHDFG479XW","A8V0L2YF8U6OX","3566S7OX5D5NH74JOVOPTTMK8IR17K","","57.29999999888241","img/flower4.png","75","58.59999999962747","2","1","1","2","1,0,0,1,1,0,1,0,1","0,1,0,0,1,1,1,1,0","3",""
"","html-keyboard-response","93","33068","0.0-93.0","3LBXNTKX0SH17BBZ1NCIRHDFG479XW","A8V0L2YF8U6OX","3566S7OX5D5NH74JOVOPTTMK8IR17K","","null","<img src=""img/flower4.png"" style=""width:200px; border:14px solid green;"">","null","","","","","","","","",""
"","image-keyboard-response","94","33188","0.0-94.0","3LBXNTKX0SH17BBZ1NCIRHDFG479XW","A8V0L2YF8U6OX","3566S7OX5D5NH74JOVOPTTMK8IR17K","","118.69999999925494","img/flower5.png","75","119.90000000037253","2","1","3","2","1,0,0,1,1,0,1,0,1","0,1,0,0,1,1,1,1,0","3",""
"","html-keyboard-response","95","33490","0.0-95.0","3LBXNTKX0SH17BBZ1NCIRHDFG479XW","A8V0L2YF8U6OX","3566S7OX5D5NH74JOVOPTTMK8IR17K","","null","<img src=""img/flower5.png"" style=""width:200px; border:14px solid green;"">","null","","","","","","","","",""
"","image-keyboard-response","96","33543","0.0-96.0","3LBXNTKX0SH17BBZ1NCIRHDFG479XW","A8V0L2YF8U6OX","3566S7OX5D5NH74JOVOPTTMK8IR17K","","50.69999999925494","img/flower5.png","75","52.30000000074506","2","1","3","2","1,0,0,1,1,0,1,0,1","0,1,0,0,1,1,1,1,0","3",""
"","html-keyboard-response","97","33845","0.0-97.0","3LBXNTKX0SH17BBZ1NCIRHDFG479XW","A8V0L2YF8U6OX","3566S7OX5D5NH74JOVOPTTMK8IR17K","","null","<img src=""img/flower5.png"" style=""width:200px; border:14px solid green;"">","null","","","","","","","","",""
"","image-keyboard-response","98","33958","0.0-98.0","3LBXNTKX0SH17BBZ1NCIRHDFG479XW","A8V0L2YF8U6OX","3566S7OX5D5NH74JOVOPTTMK8IR17K","","111.80000000074506","img/flower4.png","75","113","2","1","1","2","1,0,0,1,1,0,1,0,1","0,1,0,0,1,1,1,1,0","3",""
"","html-keyboard-response","99","34260","0.0-99.0","3LBXNTKX0SH17BBZ1NCIRHDFG479XW","A8V0L2YF8U6OX","3566S7OX5D5NH74JOVOPTTMK8IR17K","","null","<img src=""img/flower4.png"" style=""width:200px; border:14px solid green;"">","null","","","","","","","","",""
"","image-keyboard-response","100","34270","0.0-100.0","3LBXNTKX0SH17BBZ1NCIRHDFG479XW","A8V0L2YF8U6OX","3566S7OX5D5NH74JOVOPTTMK8IR17K","","8","img/flower5.png","75","9.400000000372529","2","1","3","2","1,0,0,1,1,0,1,0,1","0,1,0,0,1,1,1,1,0","3",""
"","html-keyboard-response","101","34572","0.0-101.0","3LBXNTKX0SH17BBZ1NCIRHDFG479XW","A8V0L2YF8U6OX","3566S7OX5D5NH74JOVOPTTMK8IR17K","","null","<img src=""img/flower5.png"" style=""width:200px; border:14px solid green;"">","null","","","","","","","","",""
"","image-keyboard-response","102","34638","0.0-102.0","3LBXNTKX0SH17BBZ1NCIRHDFG479XW","A8V0L2YF8U6OX","3566S7OX5D5NH74JOVOPTTMK8IR17K","","64.70000000111759","img/flower6.png","75","66","2","1","2","2","1,0,0,1,1,0,1,0,1","0,1,0,0,1,1,1,1,0","3",""
"","html-keyboard-response","103","34940","0.0-103.0","3LBXNTKX0SH17BBZ1NCIRHDFG479XW","A8V0L2YF8U6OX","3566S7OX5D5NH74JOVOPTTMK8IR17K","","null","<img src=""img/flower6.png"" style=""width:200px; border:14px solid green;"">","null","","","","","","","","",""
"","image-keyboard-response","104","34977","0.0-104.0","3LBXNTKX0SH17BBZ1NCIRHDFG479XW","A8V0L2YF8U6OX","3566S7OX5D5NH74JOVOPTTMK8IR17K","","34","img/flower4.png","75","35.20000000111759","2","1","1","2","1,0,0,1,1,0,1,0,1","0,1,0,0,1,1,1,1,0","3",""
"","html-keyboard-response","105","35279","0.0-105.0","3LBXNTKX0SH17BBZ1NCIRHDFG479XW","A8V0L2YF8U6OX","3566S7OX5D5NH74JOVOPTTMK8IR17K","","null","<img src=""img/flower4.png"" style=""width:200px; border:14px solid green;"">","null","","","","","","","","",""
"","image-keyboard-response","106","35327","0.0-106.0","3LBXNTKX0SH17BBZ1NCIRHDFG479XW","A8V0L2YF8U6OX","3566S7OX5D5NH74JOVOPTTMK8IR17K","","46.70000000111759","img/flower4.png","75","48.19999999925494","2","1","1","2","1,0,0,1,1,0,1,0,1","0,1,0,0,1,1,1,1,0","3",""
"","html-keyboard-response","107","35629","0.0-107.0","3LBXNTKX0SH17BBZ1NCIRHDFG479XW","A8V0L2YF8U6OX","3566S7OX5D5NH74JOVOPTTMK8IR17K","","null","<img src=""img/flower4.png"" style=""width:200px; border:14px solid green;"">","null","","","","","","","","",""
"","image-keyboard-response","108","35681","0.0-108.0","3LBXNTKX0SH17BBZ1NCIRHDFG479XW","A8V0L2YF8U6OX","3566S7OX5D5NH74JOVOPTTMK8IR17K","","50.40000000037253","img/flower5.png","75","51.59999999962747","2","1","3","2","1,0,0,1,1,0,1,0,1","0,1,0,0,1,1,1,1,0","3",""
"","html-keyboard-response","109","35983","0.0-109.0","3LBXNTKX0SH17BBZ1NCIRHDFG479XW","A8V0L2YF8U6OX","3566S7OX5D5NH74JOVOPTTMK8IR17K","","null","<img src=""img/flower5.png"" style=""width:200px; border:14px solid green;"">","null","","","","","","","","",""
"","image-keyboard-response","110","36032","0.0-110.0","3LBXNTKX0SH17BBZ1NCIRHDFG479XW","A8V0L2YF8U6OX","3566S7OX5D5NH74JOVOPTTMK8IR17K","","46.600000001490116","img/flower6.png","75","48","2","1","2","2","1,0,0,1,1,0,1,0,1","0,1,0,0,1,1,1,1,0","3",""
"","html-keyboard-response","111","36333","0.0-111.0","3LBXNTKX0SH17BBZ1NCIRHDFG479XW","A8V0L2YF8U6OX","3566S7OX5D5NH74JOVOPTTMK8IR17K","","null","<img src=""img/flower6.png"" style=""width:200px; border:14px solid green;"">","null","","","","","","","","",""
"","image-keyboard-response","112","36411","0.0-112.0","3LBXNTKX0SH17BBZ1NCIRHDFG479XW","A8V0L2YF8U6OX","3566S7OX5D5NH74JOVOPTTMK8IR17K","","75.69999999925494","img/flower6.png","75","77.30000000074506","2","1","2","2","1,0,0,1,1,0,1,0,1","0,1,0,0,1,1,1,1,0","3",""
"","html-keyboard-response","113","36713","0.0-113.0","3LBXNTKX0SH17BBZ1NCIRHDFG479XW","A8V0L2YF8U6OX","3566S7OX5D5NH74JOVOPTTMK8IR17K","","null","<img src=""img/flower6.png"" style=""width:200px; border:14px solid green;"">","null","","","","","","","","",""
"","image-keyboard-response","114","36731","0.0-114.0","3LBXNTKX0SH17BBZ1NCIRHDFG479XW","A8V0L2YF8U6OX","3566S7OX5D5NH74JOVOPTTMK8IR17K","","17","img/flower6.png","75","18.199999999254942","2","1","2","2","1,0,0,1,1,0,1,0,1","0,1,0,0,1,1,1,1,0","3",""
"","html-keyboard-response","115","37033","0.0-115.0","3LBXNTKX0SH17BBZ1NCIRHDFG479XW","A8V0L2YF8U6OX","3566S7OX5D5NH74JOVOPTTMK8IR17K","","null","<img src=""img/flower6.png"" style=""width:200px; border:14px solid green;"">","null","","","","","","","","",""
"","image-keyboard-response","116","37097","0.0-116.0","3LBXNTKX0SH17BBZ1NCIRHDFG479XW","A8V0L2YF8U6OX","3566S7OX5D5NH74JOVOPTTMK8IR17K","","62","img/flower6.png","75","63.399999998509884","2","1","2","2","1,0,0,1,1,0,1,0,1","0,1,0,0,1,1,1,1,0","3",""
"","html-keyboard-response","117","37399","0.0-117.0","3LBXNTKX0SH17BBZ1NCIRHDFG479XW","A8V0L2YF8U6OX","3566S7OX5D5NH74JOVOPTTMK8IR17K","","null","<img src=""img/flower6.png"" style=""width:200px; border:14px solid green;"">","null","","","","","","","","",""
"","image-keyboard-response","118","37401","0.0-118.0","3LBXNTKX0SH17BBZ1NCIRHDFG479XW","A8V0L2YF8U6OX","3566S7OX5D5NH74JOVOPTTMK8IR17K","","0.6999999992549419","img/flower4.png","75","1.800000000745058","2","1","1","2","1,0,0,1,1,0,1,0,1","0,1,0,0,1,1,1,1,0","3",""
"","html-keyboard-response","119","37703","0.0-119.0","3LBXNTKX0SH17BBZ1NCIRHDFG479XW","A8V0L2YF8U6OX","3566S7OX5D5NH74JOVOPTTMK8IR17K","","null","<img src=""img/flower4.png"" style=""width:200px; border:14px solid green;"">","null","","","","","","","","",""
"","image-keyboard-response","120","37787","0.0-120.0","3LBXNTKX0SH17BBZ1NCIRHDFG479XW","A8V0L2YF8U6OX","3566S7OX5D5NH74JOVOPTTMK8IR17K","","81.5","img/flower5.png","75","83","2","1","3","2","1,0,0,1,1,0,1,0,1","0,1,0,0,1,1,1,1,0","3",""
"","html-keyboard-response","121","38088","0.0-121.0","3LBXNTKX0SH17BBZ1NCIRHDFG479XW","A8V0L2YF8U6OX","3566S7OX5D5NH74JOVOPTTMK8IR17K","","null","<img src=""img/flower5.png"" style=""width:200px; border:14px solid green;"">","null","","","","","","","","",""
"","image-keyboard-response","122","38148","0.0-122.0","3LBXNTKX0SH17BBZ1NCIRHDFG479XW","A8V0L2YF8U6OX","3566S7OX5D5NH74JOVOPTTMK8IR17K","","57.40000000037253","img/flower6.png","75","58.70000000111759","2","1","2","2","1,0,0,1,1,0,1,0,1","0,1,0,0,1,1,1,1,0","3",""
"","html-keyboard-response","123","38450","0.0-123.0","3LBXNTKX0SH17BBZ1NCIRHDFG479XW","A8V0L2YF8U6OX","3566S7OX5D5NH74JOVOPTTMK8IR17K","","null","<img src=""img/flower6.png"" style=""width:200px; border:14px solid green;"">","null","","","","","","","","",""
"","image-keyboard-response","124","38457","0.0-124.0","3LBXNTKX0SH17BBZ1NCIRHDFG479XW","A8V0L2YF8U6OX","3566S7OX5D5NH74JOVOPTTMK8IR17K","","5.400000000372529","img/flower4.png","75","6.600000001490116","2","1","1","2","1,0,0,1,1,0,1,0,1","0,1,0,0,1,1,1,1,0","3",""
"","html-keyboard-response","125","38759","0.0-125.0","3LBXNTKX0SH17BBZ1NCIRHDFG479XW","A8V0L2YF8U6OX","3566S7OX5D5NH74JOVOPTTMK8IR17K","","null","<img src=""img/flower4.png"" style=""width:200px; border:14px solid green;"">","null","","","","","","","","",""
"","image-keyboard-response","126","38761","0.0-126.0","3LBXNTKX0SH17BBZ1NCIRHDFG479XW","A8V0L2YF8U6OX","3566S7OX5D5NH74JOVOPTTMK8IR17K","","0.30000000074505806","img/flower4.png","75","1.300000000745058","2","1","1","2","1,0,0,1,1,0,1,0,1","0,1,0,0,1,1,1,1,0","3",""
"","html-keyboard-response","127","39062","0.0-127.0","3LBXNTKX0SH17BBZ1NCIRHDFG479XW","A8V0L2YF8U6OX","3566S7OX5D5NH74JOVOPTTMK8IR17K","","null","<img src=""img/flower4.png"" style=""width:200px; border:14px solid green;"">","null","","","","","","","","",""
"","image-keyboard-response","128","39105","0.0-128.0","3LBXNTKX0SH17BBZ1NCIRHDFG479XW","A8V0L2YF8U6OX","3566S7OX5D5NH74JOVOPTTMK8IR17K","","40.40000000037253","img/flower5.png","75","41.70000000111759","2","1","3","2","1,0,0,1,1,0,1,0,1","0,1,0,0,1,1,1,1,0","3",""
"","html-keyboard-response","129","39407","0.0-129.0","3LBXNTKX0SH17BBZ1NCIRHDFG479XW","A8V0L2YF8U6OX","3566S7OX5D5NH74JOVOPTTMK8IR17K","","null","<img src=""img/flower5.png"" style=""width:200px; border:14px solid green;"">","null","","","","","","","","",""
"","image-keyboard-response","130","39469","0.0-130.0","3LBXNTKX0SH17BBZ1NCIRHDFG479XW","A8V0L2YF8U6OX","3566S7OX5D5NH74JOVOPTTMK8IR17K","","58.69999999925494","img/flower5.png","75","61.29999999888241","2","1","3","2","1,0,0,1,1,0,1,0,1","0,1,0,0,1,1,1,1,0","3",""
"","html-keyboard-response","131","39771","0.0-131.0","3LBXNTKX0SH17BBZ1NCIRHDFG479XW","A8V0L2YF8U6OX","3566S7OX5D5NH74JOVOPTTMK8IR17K","","null","<img src=""img/flower5.png"" style=""width:200px; border:14px solid green;"">","null","","","","","","","","",""
"","image-keyboard-response","132","40075","0.0-132.0","3LBXNTKX0SH17BBZ1NCIRHDFG479XW","A8V0L2YF8U6OX","3566S7OX5D5NH74JOVOPTTMK8IR17K","","301.6000000014901","img/flower6.png","75","303.09999999962747","2","1","2","2","1,0,0,1,1,0,1,0,1","0,1,0,0,1,1,1,1,0","3",""
"","html-keyboard-response","133","40376","0.0-133.0","3LBXNTKX0SH17BBZ1NCIRHDFG479XW","A8V0L2YF8U6OX","3566S7OX5D5NH74JOVOPTTMK8IR17K","","null","<img src=""img/flower6.png"" style=""width:200px; border:14px solid green;"">","null","","","","","","","","",""
"","image-keyboard-response","134","40394","0.0-134.0","3LBXNTKX0SH17BBZ1NCIRHDFG479XW","A8V0L2YF8U6OX","3566S7OX5D5NH74JOVOPTTMK8IR17K","","16.5","img/flower6.png","75","17.700000001117587","2","1","2","2","1,0,0,1,1,0,1,0,1","0,1,0,0,1,1,1,1,0","3",""
"","html-keyboard-response","135","40696","0.0-135.0","3LBXNTKX0SH17BBZ1NCIRHDFG479XW","A8V0L2YF8U6OX","3566S7OX5D5NH74JOVOPTTMK8IR17K","","null","<img src=""img/flower6.png"" style=""width:200px; border:14px solid green;"">","null","","","","","","","","",""
"","image-keyboard-response","136","40728","0.0-136.0","3LBXNTKX0SH17BBZ1NCIRHDFG479XW","A8V0L2YF8U6OX","3566S7OX5D5NH74JOVOPTTMK8IR17K","","29.59999999962747","img/flower4.png","75","30.799999998882413","2","1","1","2","1,0,0,1,1,0,1,0,1","0,1,0,0,1,1,1,1,0","3",""
"","html-keyboard-response","137","41030","0.0-137.0","3LBXNTKX0SH17BBZ1NCIRHDFG479XW","A8V0L2YF8U6OX","3566S7OX5D5NH74JOVOPTTMK8IR17K","","null","<img src=""img/flower4.png"" style=""width:200px; border:14px solid green;"">","null","","","","","","","","",""
"","image-keyboard-response","138","41378","0.0-138.0","3LBXNTKX0SH17BBZ1NCIRHDFG479XW","A8V0L2YF8U6OX","3566S7OX5D5NH74JOVOPTTMK8IR17K","","346.5","img/flower5.png","75","348.1000000014901","2","1","3","2","1,0,0,1,1,0,1,0,1","0,1,0,0,1,1,1,1,0","3",""
"","html-keyboard-response","139","41681","0.0-139.0","3LBXNTKX0SH17BBZ1NCIRHDFG479XW","A8V0L2YF8U6OX","3566S7OX5D5NH74JOVOPTTMK8IR17K","","null","<img src=""img/flower5.png"" style=""width:200px; border:14px solid green;"">","null","","","","","","","","",""
"","image-keyboard-response","140","41693","0.0-140.0","3LBXNTKX0SH17BBZ1NCIRHDFG479XW","A8V0L2YF8U6OX","3566S7OX5D5NH74JOVOPTTMK8IR17K","","9.900000000372529","img/flower4.png","75","11.900000000372529","2","1","1","2","1,0,0,1,1,0,1,0,1","0,1,0,0,1,1,1,1,0","3",""
"","html-keyboard-response","141","41995","0.0-141.0","3LBXNTKX0SH17BBZ1NCIRHDFG479XW","A8V0L2YF8U6OX","3566S7OX5D5NH74JOVOPTTMK8IR17K","","null","<img src=""img/flower4.png"" style=""width:200px; border:14px solid green;"">","null","","","","","","","","",""
"","image-keyboard-response","142","42032","0.0-142.0","3LBXNTKX0SH17BBZ1NCIRHDFG479XW","A8V0L2YF8U6OX","3566S7OX5D5NH74JOVOPTTMK8IR17K","","34.59999999962747","img/flower6.png","75","36.19999999925494","2","1","2","2","1,0,0,1,1,0,1,0,1","0,1,0,0,1,1,1,1,0","3",""
"","html-keyboard-response","143","42333","0.0-143.0","3LBXNTKX0SH17BBZ1NCIRHDFG479XW","A8V0L2YF8U6OX","3566S7OX5D5NH74JOVOPTTMK8IR17K","","null","<img src=""img/flower6.png"" style=""width:200px; border:14px solid green;"">","null","","","","","","","","",""
"","image-keyboard-response","144","42355","0.0-144.0","3LBXNTKX0SH17BBZ1NCIRHDFG479XW","A8V0L2YF8U6OX","3566S7OX5D5NH74JOVOPTTMK8IR17K","","19.40000000037253","img/flower4.png","75","20.600000001490116","2","1","1","2","1,0,0,1,1,0,1,0,1","0,1,0,0,1,1,1,1,0","3",""
"","html-keyboard-response","145","42656","0.0-145.0","3LBXNTKX0SH17BBZ1NCIRHDFG479XW","A8V0L2YF8U6OX","3566S7OX5D5NH74JOVOPTTMK8IR17K","","null","<img src=""img/flower4.png"" style=""width:200px; border:14px solid green;"">","null","","","","","","","","",""
"","image-keyboard-response","146","42659","0.0-146.0","3LBXNTKX0SH17BBZ1NCIRHDFG479XW","A8V0L2YF8U6OX","3566S7OX5D5NH74JOVOPTTMK8IR17K","","1.700000001117587","img/flower5.png","75","2.699999999254942","2","1","3","2","1,0,0,1,1,0,1,0,1","0,1,0,0,1,1,1,1,0","3",""
"","html-keyboard-response","147","42961","0.0-147.0","3LBXNTKX0SH17BBZ1NCIRHDFG479XW","A8V0L2YF8U6OX","3566S7OX5D5NH74JOVOPTTMK8IR17K","","null","<img src=""img/flower5.png"" style=""width:200px; border:14px solid green;"">","null","","","","","","","","",""
"","image-keyboard-response","148","42983","0.0-148.0","3LBXNTKX0SH17BBZ1NCIRHDFG479XW","A8V0L2YF8U6OX","3566S7OX5D5NH74JOVOPTTMK8IR17K","","20.5","img/flower6.png","75","21.700000001117587","2","1","2","2","1,0,0,1,1,0,1,0,1","0,1,0,0,1,1,1,1,0","3",""
"","html-keyboard-response","149","43286","0.0-149.0","3LBXNTKX0SH17BBZ1NCIRHDFG479XW","A8V0L2YF8U6OX","3566S7OX5D5NH74JOVOPTTMK8IR17K","","null","<img src=""img/flower6.png"" style=""width:200px; border:14px solid green;"">","null","","","","","","","","",""
"","image-keyboard-response","150","43313","0.0-150.0","3LBXNTKX0SH17BBZ1NCIRHDFG479XW","A8V0L2YF8U6OX","3566S7OX5D5NH74JOVOPTTMK8IR17K","","26.200000001117587","img/flower4.png","75","27.299999998882413","2","1","1","2","1,0,0,1,1,0,1,0,1","0,1,0,0,1,1,1,1,0","3",""
"","html-keyboard-response","151","43615","0.0-151.0","3LBXNTKX0SH17BBZ1NCIRHDFG479XW","A8V0L2YF8U6OX","3566S7OX5D5NH74JOVOPTTMK8IR17K","","null","<img src=""img/flower4.png"" style=""width:200px; border:14px solid green;"">","null","","","","","","","","",""
"","image-keyboard-response","152","43696","0.0-152.0","3LBXNTKX0SH17BBZ1NCIRHDFG479XW","A8V0L2YF8U6OX","3566S7OX5D5NH74JOVOPTTMK8IR17K","","78.39999999850988","img/flower6.png","75","80.09999999962747","2","1","2","2","1,0,0,1,1,0,1,0,1","0,1,0,0,1,1,1,1,0","3",""
"","html-keyboard-response","153","43998","0.0-153.0","3LBXNTKX0SH17BBZ1NCIRHDFG479XW","A8V0L2YF8U6OX","3566S7OX5D5NH74JOVOPTTMK8IR17K","","null","<img src=""img/flower6.png"" style=""width:200px; border:14px solid green;"">","null","","","","","","","","",""
"","image-keyboard-response","154","44314","0.0-154.0","3LBXNTKX0SH17BBZ1NCIRHDFG479XW","A8V0L2YF8U6OX","3566S7OX5D5NH74JOVOPTTMK8IR17K","","314.7000000011176","img/flower4.png","75","316","2","1","1","2","1,0,0,1,1,0,1,0,1","0,1,0,0,1,1,1,1,0","3",""
"","html-keyboard-response","155","44616","0.0-155.0","3LBXNTKX0SH17BBZ1NCIRHDFG479XW","A8V0L2YF8U6OX","3566S7OX5D5NH74JOVOPTTMK8IR17K","","null","<img src=""img/flower4.png"" style=""width:200px; border:14px solid green;"">","null","","","","","","","","",""
"","image-keyboard-response","156","44661","0.0-156.0","3LBXNTKX0SH17BBZ1NCIRHDFG479XW","A8V0L2YF8U6OX","3566S7OX5D5NH74JOVOPTTMK8IR17K","","43.19999999925494","img/flower5.png","75","44.80000000074506","2","1","3","2","1,0,0,1,1,0,1,0,1","0,1,0,0,1,1,1,1,0","3",""
"","html-keyboard-response","157","44963","0.0-157.0","3LBXNTKX0SH17BBZ1NCIRHDFG479XW","A8V0L2YF8U6OX","3566S7OX5D5NH74JOVOPTTMK8IR17K","","null","<img src=""img/flower5.png"" style=""width:200px; border:14px solid green;"">","null","","","","","","","","",""
"","image-keyboard-response","158","44979","0.0-158.0","3LBXNTKX0SH17BBZ1NCIRHDFG479XW","A8V0L2YF8U6OX","3566S7OX5D5NH74JOVOPTTMK8IR17K","","14.5","img/flower4.png","75","15.699999999254942","2","1","1","2","1,0,0,1,1,0,1,0,1","0,1,0,0,1,1,1,1,0","3",""
"","html-keyboard-response","159","45281","0.0-159.0","3LBXNTKX0SH17BBZ1NCIRHDFG479XW","A8V0L2YF8U6OX","3566S7OX5D5NH74JOVOPTTMK8IR17K","","null","<img src=""img/flower4.png"" style=""width:200px; border:14px solid green;"">","null","","","","","","","","",""
"","image-keyboard-response","160","45647","0.0-160.0","3LBXNTKX0SH17BBZ1NCIRHDFG479XW","A8V0L2YF8U6OX","3566S7OX5D5NH74JOVOPTTMK8IR17K","","363.7999999988824","img/flower4.png","75","365","2","1","1","2","1,0,0,1,1,0,1,0,1","0,1,0,0,1,1,1,1,0","3",""
"","html-keyboard-response","161","45948","0.0-161.0","3LBXNTKX0SH17BBZ1NCIRHDFG479XW","A8V0L2YF8U6OX","3566S7OX5D5NH74JOVOPTTMK8IR17K","","null","<img src=""img/flower4.png"" style=""width:200px; border:14px solid green;"">","null","","","","","","","","",""
"","image-keyboard-response","162","45963","0.0-162.0","3LBXNTKX0SH17BBZ1NCIRHDFG479XW","A8V0L2YF8U6OX","3566S7OX5D5NH74JOVOPTTMK8IR17K","","13.300000000745058","img/flower5.png","75","14.600000001490116","2","1","3","2","1,0,0,1,1,0,1,0,1","0,1,0,0,1,1,1,1,0","3",""
"","html-keyboard-response","163","46265","0.0-163.0","3LBXNTKX0SH17BBZ1NCIRHDFG479XW","A8V0L2YF8U6OX","3566S7OX5D5NH74JOVOPTTMK8IR17K","","null","<img src=""img/flower5.png"" style=""width:200px; border:14px solid green;"">","null","","","","","","","","",""
"","image-keyboard-response","164","46318","0.0-164.0","3LBXNTKX0SH17BBZ1NCIRHDFG479XW","A8V0L2YF8U6OX","3566S7OX5D5NH74JOVOPTTMK8IR17K","","50.90000000037253","img/flower5.png","75","52.20000000111759","2","1","3","2","1,0,0,1,1,0,1,0,1","0,1,0,0,1,1,1,1,0","3",""
"","html-keyboard-response","165","46620","0.0-165.0","3LBXNTKX0SH17BBZ1NCIRHDFG479XW","A8V0L2YF8U6OX","3566S7OX5D5NH74JOVOPTTMK8IR17K","","null","<img src=""img/flower5.png"" style=""width:200px; border:14px solid green;"">","null","","","","","","","","",""
"","image-keyboard-response","166","46648","0.0-166.0","3LBXNTKX0SH17BBZ1NCIRHDFG479XW","A8V0L2YF8U6OX","3566S7OX5D5NH74JOVOPTTMK8IR17K","","25.59999999962747","img/flower4.png","75","27.299999998882413","2","1","1","2","1,0,0,1,1,0,1,0,1","0,1,0,0,1,1,1,1,0","3",""
"","html-keyboard-response","167","46950","0.0-167.0","3LBXNTKX0SH17BBZ1NCIRHDFG479XW","A8V0L2YF8U6OX","3566S7OX5D5NH74JOVOPTTMK8IR17K","","null","<img src=""img/flower4.png"" style=""width:200px; border:14px solid green;"">","null","","","","","","","","",""
"","image-keyboard-response","168","47008","0.0-168.0","3LBXNTKX0SH17BBZ1NCIRHDFG479XW","A8V0L2YF8U6OX","3566S7OX5D5NH74JOVOPTTMK8IR17K","","56.70000000111759","img/flower5.png","75","58","2","1","3","2","1,0,0,1,1,0,1,0,1","0,1,0,0,1,1,1,1,0","3",""
"","html-keyboard-response","169","47310","0.0-169.0","3LBXNTKX0SH17BBZ1NCIRHDFG479XW","A8V0L2YF8U6OX","3566S7OX5D5NH74JOVOPTTMK8IR17K","","null","<img src=""img/flower5.png"" style=""width:200px; border:14px solid green;"">","null","","","","","","","","",""
"","image-keyboard-response","170","47324","0.0-170.0","3LBXNTKX0SH17BBZ1NCIRHDFG479XW","A8V0L2YF8U6OX","3566S7OX5D5NH74JOVOPTTMK8IR17K","","12.300000000745058","img/flower4.png","75","14","2","1","1","2","1,0,0,1,1,0,1,0,1","0,1,0,0,1,1,1,1,0","3",""
"","html-keyboard-response","171","47626","0.0-171.0","3LBXNTKX0SH17BBZ1NCIRHDFG479XW","A8V0L2YF8U6OX","3566S7OX5D5NH74JOVOPTTMK8IR17K","","null","<img src=""img/flower4.png"" style=""width:200px; border:14px solid green;"">","null","","","","","","","","",""
"","image-keyboard-response","172","47642","0.0-172.0","3LBXNTKX0SH17BBZ1NCIRHDFG479XW","A8V0L2YF8U6OX","3566S7OX5D5NH74JOVOPTTMK8IR17K","","13.699999999254942","img/flower4.png","75","15.099999999627471","2","1","1","2","1,0,0,1,1,0,1,0,1","0,1,0,0,1,1,1,1,0","3",""
"","html-keyboard-response","173","47943","0.0-173.0","3LBXNTKX0SH17BBZ1NCIRHDFG479XW","A8V0L2YF8U6OX","3566S7OX5D5NH74JOVOPTTMK8IR17K","","null","<img src=""img/flower4.png"" style=""width:200px; border:14px solid green;"">","null","","","","","","","","",""
"","image-keyboard-response","174","47970","0.0-174.0","3LBXNTKX0SH17BBZ1NCIRHDFG479XW","A8V0L2YF8U6OX","3566S7OX5D5NH74JOVOPTTMK8IR17K","","24.59999999962747","img/flower6.png","75","25.799999998882413","2","1","2","2","1,0,0,1,1,0,1,0,1","0,1,0,0,1,1,1,1,0","3",""
"","html-keyboard-response","175","48272","0.0-175.0","3LBXNTKX0SH17BBZ1NCIRHDFG479XW","A8V0L2YF8U6OX","3566S7OX5D5NH74JOVOPTTMK8IR17K","","null","<img src=""img/flower6.png"" style=""width:200px; border:14px solid green;"">","null","","","","","","","","",""
"","image-keyboard-response","176","48280","0.0-176.0","3LBXNTKX0SH17BBZ1NCIRHDFG479XW","A8V0L2YF8U6OX","3566S7OX5D5NH74JOVOPTTMK8IR17K","","6.5","img/flower6.png","75","7.900000000372529","2","1","2","2","1,0,0,1,1,0,1,0,1","0,1,0,0,1,1,1,1,0","3",""
"","html-keyboard-response","177","48582","0.0-177.0","3LBXNTKX0SH17BBZ1NCIRHDFG479XW","A8V0L2YF8U6OX","3566S7OX5D5NH74JOVOPTTMK8IR17K","","null","<img src=""img/flower6.png"" style=""width:200px; border:14px solid green;"">","null","","","","","","","","",""
"","image-keyboard-response","178","48594","0.0-178.0","3LBXNTKX0SH17BBZ1NCIRHDFG479XW","A8V0L2YF8U6OX","3566S7OX5D5NH74JOVOPTTMK8IR17K","","9.299999998882413","img/flower6.png","75","10.699999999254942","2","1","2","2","1,0,0,1,1,0,1,0,1","0,1,0,0,1,1,1,1,0","3",""
"","html-keyboard-response","179","48896","0.0-179.0","3LBXNTKX0SH17BBZ1NCIRHDFG479XW","A8V0L2YF8U6OX","3566S7OX5D5NH74JOVOPTTMK8IR17K","","null","<img src=""img/flower6.png"" style=""width:200px; border:14px solid green;"">","null","","","","","","","","",""
"","image-keyboard-response","180","48902","0.0-180.0","3LBXNTKX0SH17BBZ1NCIRHDFG479XW","A8V0L2YF8U6OX","3566S7OX5D5NH74JOVOPTTMK8IR17K","","4.599999999627471","img/flower4.png","75","6","2","1","1","2","1,0,0,1,1,0,1,0,1","0,1,0,0,1,1,1,1,0","3",""
"","html-keyboard-response","181","49204","0.0-181.0","3LBXNTKX0SH17BBZ1NCIRHDFG479XW","A8V0L2YF8U6OX","3566S7OX5D5NH74JOVOPTTMK8IR17K","","null","<img src=""img/flower4.png"" style=""width:200px; border:14px solid green;"">","null","","","","","","","","",""
"","image-keyboard-response","182","49226","0.0-182.0","3LBXNTKX0SH17BBZ1NCIRHDFG479XW","A8V0L2YF8U6OX","3566S7OX5D5NH74JOVOPTTMK8IR17K","","19.59999999962747","img/flower2.png","75","20.800000000745058","2","0","3","1","1,0.333,0.333,0.333,1,0.333,0.333,0.333,1","1,0.333,0.333,0.333,1,0.333,0.333,0.333,1","1",""
"","html-keyboard-response","183","49528","0.0-183.0","3LBXNTKX0SH17BBZ1NCIRHDFG479XW","A8V0L2YF8U6OX","3566S7OX5D5NH74JOVOPTTMK8IR17K","","null","<img src=""img/flower2.png"" style=""width:200px;border:14px solid red;"">","null","","","","","","","","",""
"","image-keyboard-response","184","49566","0.0-184.0","3LBXNTKX0SH17BBZ1NCIRHDFG479XW","A8V0L2YF8U6OX","3566S7OX5D5NH74JOVOPTTMK8IR17K","","35.899999998509884","img/flower3.png","75","37.19999999925494","2","0","1","1","1,0.333,0.333,0.333,1,0.333,0.333,0.333,1","1,0.333,0.333,0.333,1,0.333,0.333,0.333,1","1",""
"","html-keyboard-response","185","49868","0.0-185.0","3LBXNTKX0SH17BBZ1NCIRHDFG479XW","A8V0L2YF8U6OX","3566S7OX5D5NH74JOVOPTTMK8IR17K","","null","<img src=""img/flower3.png"" style=""width:200px;border:14px solid red;"">","null","","","","","","","","",""
"","image-keyboard-response","186","49909","0.0-186.0","3LBXNTKX0SH17BBZ1NCIRHDFG479XW","A8V0L2YF8U6OX","3566S7OX5D5NH74JOVOPTTMK8IR17K","","39.80000000074506","img/flower3.png","75","41.09999999962747","2","1","1","1","1,0.333,0.333,0.333,1,0.333,0.333,0.333,1","1,0.333,0.333,0.333,1,0.333,0.333,0.333,1","1",""
"","html-keyboard-response","187","50211","0.0-187.0","3LBXNTKX0SH17BBZ1NCIRHDFG479XW","A8V0L2YF8U6OX","3566S7OX5D5NH74JOVOPTTMK8IR17K","","null","<img src=""img/flower3.png"" style=""width:200px; border:14px solid green;"">","null","","","","","","","","",""
"","image-keyboard-response","188","50218","0.0-188.0","3LBXNTKX0SH17BBZ1NCIRHDFG479XW","A8V0L2YF8U6OX","3566S7OX5D5NH74JOVOPTTMK8IR17K","","5.200000001117587","img/flower1.png","75","7","2","1","2","1","1,0.333,0.333,0.333,1,0.333,0.333,0.333,1","1,0.333,0.333,0.333,1,0.333,0.333,0.333,1","1",""
"","html-keyboard-response","189","50520","0.0-189.0","3LBXNTKX0SH17BBZ1NCIRHDFG479XW","A8V0L2YF8U6OX","3566S7OX5D5NH74JOVOPTTMK8IR17K","","null","<img src=""img/flower1.png"" style=""width:200px; border:14px solid green;"">","null","","","","","","","","",""
"","image-keyboard-response","190","50552","0.0-190.0","3LBXNTKX0SH17BBZ1NCIRHDFG479XW","A8V0L2YF8U6OX","3566S7OX5D5NH74JOVOPTTMK8IR17K","","30.399999998509884","img/flower2.png","75","31.90000000037253","2","0","3","1","1,0.333,0.333,0.333,1,0.333,0.333,0.333,1","1,0.333,0.333,0.333,1,0.333,0.333,0.333,1","1",""
"","html-keyboard-response","191","50855","0.0-191.0","3LBXNTKX0SH17BBZ1NCIRHDFG479XW","A8V0L2YF8U6OX","3566S7OX5D5NH74JOVOPTTMK8IR17K","","null","<img src=""img/flower2.png"" style=""width:200px;border:14px solid red;"">","null","","","","","","","","",""
"","image-keyboard-response","192","50896","0.0-192.0","3LBXNTKX0SH17BBZ1NCIRHDFG479XW","A8V0L2YF8U6OX","3566S7OX5D5NH74JOVOPTTMK8IR17K","","39.20000000111759","img/flower1.png","75","40.69999999925494","2","1","2","1","1,0.333,0.333,0.333,1,0.333,0.333,0.333,1","1,0.333,0.333,0.333,1,0.333,0.333,0.333,1","1",""
"","html-keyboard-response","193","51198","0.0-193.0","3LBXNTKX0SH17BBZ1NCIRHDFG479XW","A8V0L2YF8U6OX","3566S7OX5D5NH74JOVOPTTMK8IR17K","","null","<img src=""img/flower1.png"" style=""width:200px; border:14px solid green;"">","null","","","","","","","","",""
"","image-keyboard-response","194","51222","0.0-194.0","3LBXNTKX0SH17BBZ1NCIRHDFG479XW","A8V0L2YF8U6OX","3566S7OX5D5NH74JOVOPTTMK8IR17K","","23.100000001490116","img/flower1.png","75","24.5","2","1","2","1","1,0.333,0.333,0.333,1,0.333,0.333,0.333,1","1,0.333,0.333,0.333,1,0.333,0.333,0.333,1","1",""
"","html-keyboard-response","195","51524","0.0-195.0","3LBXNTKX0SH17BBZ1NCIRHDFG479XW","A8V0L2YF8U6OX","3566S7OX5D5NH74JOVOPTTMK8IR17K","","null","<img src=""img/flower1.png"" style=""width:200px; border:14px solid green;"">","null","","","","","","","","",""
"","image-keyboard-response","196","51555","0.0-196.0","3LBXNTKX0SH17BBZ1NCIRHDFG479XW","A8V0L2YF8U6OX","3566S7OX5D5NH74JOVOPTTMK8IR17K","","28.800000000745058","img/flower2.png","75","30","2","0","3","1","1,0.333,0.333,0.333,1,0.333,0.333,0.333,1","1,0.333,0.333,0.333,1,0.333,0.333,0.333,1","1",""
"","html-keyboard-response","197","51856","0.0-197.0","3LBXNTKX0SH17BBZ1NCIRHDFG479XW","A8V0L2YF8U6OX","3566S7OX5D5NH74JOVOPTTMK8IR17K","","null","<img src=""img/flower2.png"" style=""width:200px;border:14px solid red;"">","null","","","","","","","","",""
"","image-keyboard-response","198","51863","0.0-198.0","3LBXNTKX0SH17BBZ1NCIRHDFG479XW","A8V0L2YF8U6OX","3566S7OX5D5NH74JOVOPTTMK8IR17K","","5.099999999627471","img/flower3.png","75","6.400000000372529","2","1","1","1","1,0.333,0.333,0.333,1,0.333,0.333,0.333,1","1,0.333,0.333,0.333,1,0.333,0.333,0.333,1","1",""
"","html-keyboard-response","199","52166","0.0-199.0","3LBXNTKX0SH17BBZ1NCIRHDFG479XW","A8V0L2YF8U6OX","3566S7OX5D5NH74JOVOPTTMK8IR17K","","null","<img src=""img/flower3.png"" style=""width:200px; border:14px solid green;"">","null","","","","","","","","",""
"","image-keyboard-response","200","52189","0.0-200.0","3LBXNTKX0SH17BBZ1NCIRHDFG479XW","A8V0L2YF8U6OX","3566S7OX5D5NH74JOVOPTTMK8IR17K","","22.100000001490116","img/flower2.png","75","23.399999998509884","2","1","3","1","1,0.333,0.333,0.333,1,0.333,0.333,0.333,1","1,0.333,0.333,0.333,1,0.333,0.333,0.333,1","1",""
"","html-keyboard-response","201","52491","0.0-201.0","3LBXNTKX0SH17BBZ1NCIRHDFG479XW","A8V0L2YF8U6OX","3566S7OX5D5NH74JOVOPTTMK8IR17K","","null","<img src=""img/flower2.png"" style=""width:200px; border:14px solid green;"">","null","","","","","","","","",""
"","image-keyboard-response","202","52543","0.0-202.0","3LBXNTKX0SH17BBZ1NCIRHDFG479XW","A8V0L2YF8U6OX","3566S7OX5D5NH74JOVOPTTMK8IR17K","","49.80000000074506","img/flower2.png","75","51.600000001490116","2","0","3","1","1,0.333,0.333,0.333,1,0.333,0.333,0.333,1","1,0.333,0.333,0.333,1,0.333,0.333,0.333,1","1",""
"","html-keyboard-response","203","52846","0.0-203.0","3LBXNTKX0SH17BBZ1NCIRHDFG479XW","A8V0L2YF8U6OX","3566S7OX5D5NH74JOVOPTTMK8IR17K","","null","<img src=""img/flower2.png"" style=""width:200px;border:14px solid red;"">","null","","","","","","","","",""
"","image-keyboard-response","204","52851","0.0-204.0","3LBXNTKX0SH17BBZ1NCIRHDFG479XW","A8V0L2YF8U6OX","3566S7OX5D5NH74JOVOPTTMK8IR17K","","3.700000001117587","img/flower3.png","75","4.900000000372529","2","0","1","1","1,0.333,0.333,0.333,1,0.333,0.333,0.333,1","1,0.333,0.333,0.333,1,0.333,0.333,0.333,1","1",""
"","html-keyboard-response","205","53153","0.0-205.0","3LBXNTKX0SH17BBZ1NCIRHDFG479XW","A8V0L2YF8U6OX","3566S7OX5D5NH74JOVOPTTMK8IR17K","","null","<img src=""img/flower3.png"" style=""width:200px;border:14px solid red;"">","null","","","","","","","","",""
"","image-keyboard-response","206","53176","0.0-206.0","3LBXNTKX0SH17BBZ1NCIRHDFG479XW","A8V0L2YF8U6OX","3566S7OX5D5NH74JOVOPTTMK8IR17K","","21.5","img/flower2.png","75","22.700000001117587","2","0","3","1","1,0.333,0.333,0.333,1,0.333,0.333,0.333,1","1,0.333,0.333,0.333,1,0.333,0.333,0.333,1","1",""
"","html-keyboard-response","207","53478","0.0-207.0","3LBXNTKX0SH17BBZ1NCIRHDFG479XW","A8V0L2YF8U6OX","3566S7OX5D5NH74JOVOPTTMK8IR17K","","null","<img src=""img/flower2.png"" style=""width:200px;border:14px solid red;"">","null","","","","","","","","",""
"","image-keyboard-response","208","53498","0.0-208.0","3LBXNTKX0SH17BBZ1NCIRHDFG479XW","A8V0L2YF8U6OX","3566S7OX5D5NH74JOVOPTTMK8IR17K","","18.59999999962747","img/flower1.png","75","19.899999998509884","2","1","2","1","1,0.333,0.333,0.333,1,0.333,0.333,0.333,1","1,0.333,0.333,0.333,1,0.333,0.333,0.333,1","1",""
"","html-keyboard-response","209","53800","0.0-209.0","3LBXNTKX0SH17BBZ1NCIRHDFG479XW","A8V0L2YF8U6OX","3566S7OX5D5NH74JOVOPTTMK8IR17K","","null","<img src=""img/flower1.png"" style=""width:200px; border:14px solid green;"">","null","","","","","","","","",""
"","image-keyboard-response","210","53832","0.0-210.0","3LBXNTKX0SH17BBZ1NCIRHDFG479XW","A8V0L2YF8U6OX","3566S7OX5D5NH74JOVOPTTMK8IR17K","","30.5","img/flower1.png","75","31.59999999962747","2","1","2","1","1,0.333,0.333,0.333,1,0.333,0.333,0.333,1","1,0.333,0.333,0.333,1,0.333,0.333,0.333,1","1",""
"","html-keyboard-response","211","54134","0.0-211.0","3LBXNTKX0SH17BBZ1NCIRHDFG479XW","A8V0L2YF8U6OX","3566S7OX5D5NH74JOVOPTTMK8IR17K","","null","<img src=""img/flower1.png"" style=""width:200px; border:14px solid green;"">","null","","","","","","","","",""
"","image-keyboard-response","212","54172","0.0-212.0","3LBXNTKX0SH17BBZ1NCIRHDFG479XW","A8V0L2YF8U6OX","3566S7OX5D5NH74JOVOPTTMK8IR17K","","36.30000000074506","img/flower1.png","75","37.69999999925494","2","1","2","1","1,0.333,0.333,0.333,1,0.333,0.333,0.333,1","1,0.333,0.333,0.333,1,0.333,0.333,0.333,1","1",""
"","html-keyboard-response","213","54474","0.0-213.0","3LBXNTKX0SH17BBZ1NCIRHDFG479XW","A8V0L2YF8U6OX","3566S7OX5D5NH74JOVOPTTMK8IR17K","","null","<img src=""img/flower1.png"" style=""width:200px; border:14px solid green;"">","null","","","","","","","","",""
"","image-keyboard-response","214","54481","0.0-214.0","3LBXNTKX0SH17BBZ1NCIRHDFG479XW","A8V0L2YF8U6OX","3566S7OX5D5NH74JOVOPTTMK8IR17K","","4.699999999254942","img/flower2.png","75","6","2","1","3","1","1,0.333,0.333,0.333,1,0.333,0.333,0.333,1","1,0.333,0.333,0.333,1,0.333,0.333,0.333,1","1",""
"","html-keyboard-response","215","54783","0.0-215.0","3LBXNTKX0SH17BBZ1NCIRHDFG479XW","A8V0L2YF8U6OX","3566S7OX5D5NH74JOVOPTTMK8IR17K","","null","<img src=""img/flower2.png"" style=""width:200px; border:14px solid green;"">","null","","","","","","","","",""
"","image-keyboard-response","216","54788","0.0-216.0","3LBXNTKX0SH17BBZ1NCIRHDFG479XW","A8V0L2YF8U6OX","3566S7OX5D5NH74JOVOPTTMK8IR17K","","3","img/flower2.png","75","4.599999999627471","2","0","3","1","1,0.333,0.333,0.333,1,0.333,0.333,0.333,1","1,0.333,0.333,0.333,1,0.333,0.333,0.333,1","1",""
"","html-keyboard-response","217","55091","0.0-217.0","3LBXNTKX0SH17BBZ1NCIRHDFG479XW","A8V0L2YF8U6OX","3566S7OX5D5NH74JOVOPTTMK8IR17K","","null","<img src=""img/flower2.png"" style=""width:200px;border:14px solid red;"">","null","","","","","","","","",""
"","image-keyboard-response","218","55137","0.0-218.0","3LBXNTKX0SH17BBZ1NCIRHDFG479XW","A8V0L2YF8U6OX","3566S7OX5D5NH74JOVOPTTMK8IR17K","","43.59999999962747","img/flower3.png","75","45.90000000037253","2","1","1","1","1,0.333,0.333,0.333,1,0.333,0.333,0.333,1","1,0.333,0.333,0.333,1,0.333,0.333,0.333,1","1",""
"","html-keyboard-response","219","55439","0.0-219.0","3LBXNTKX0SH17BBZ1NCIRHDFG479XW","A8V0L2YF8U6OX","3566S7OX5D5NH74JOVOPTTMK8IR17K","","null","<img src=""img/flower3.png"" style=""width:200px; border:14px solid green;"">","null","","","","","","","","",""
"","image-keyboard-response","220","55773","0.0-220.0","3LBXNTKX0SH17BBZ1NCIRHDFG479XW","A8V0L2YF8U6OX","3566S7OX5D5NH74JOVOPTTMK8IR17K","","333.2000000011176","img/flower3.png","75","334.40000000037253","2","0","1","1","1,0.333,0.333,0.333,1,0.333,0.333,0.333,1","1,0.333,0.333,0.333,1,0.333,0.333,0.333,1","1",""
"","html-keyboard-response","221","56075","0.0-221.0","3LBXNTKX0SH17BBZ1NCIRHDFG479XW","A8V0L2YF8U6OX","3566S7OX5D5NH74JOVOPTTMK8IR17K","","null","<img src=""img/flower3.png"" style=""width:200px;border:14px solid red;"">","null","","","","","","","","",""
"","image-keyboard-response","222","56098","0.0-222.0","3LBXNTKX0SH17BBZ1NCIRHDFG479XW","A8V0L2YF8U6OX","3566S7OX5D5NH74JOVOPTTMK8IR17K","","21.700000001117587","img/flower3.png","75","23","2","1","1","1","1,0.333,0.333,0.333,1,0.333,0.333,0.333,1","1,0.333,0.333,0.333,1,0.333,0.333,0.333,1","1",""
"","html-keyboard-response","223","56401","0.0-223.0","3LBXNTKX0SH17BBZ1NCIRHDFG479XW","A8V0L2YF8U6OX","3566S7OX5D5NH74JOVOPTTMK8IR17K","","null","<img src=""img/flower3.png"" style=""width:200px; border:14px solid green;"">","null","","","","","","","","",""
"","image-keyboard-response","224","56441","0.0-224.0","3LBXNTKX0SH17BBZ1NCIRHDFG479XW","A8V0L2YF8U6OX","3566S7OX5D5NH74JOVOPTTMK8IR17K","","38.09999999962747","img/flower1.png","75","39.90000000037253","2","1","2","1","1,0.333,0.333,0.333,1,0.333,0.333,0.333,1","1,0.333,0.333,0.333,1,0.333,0.333,0.333,1","1",""
"","html-keyboard-response","225","56744","0.0-225.0","3LBXNTKX0SH17BBZ1NCIRHDFG479XW","A8V0L2YF8U6OX","3566S7OX5D5NH74JOVOPTTMK8IR17K","","null","<img src=""img/flower1.png"" style=""width:200px; border:14px solid green;"">","null","","","","","","","","",""
"","image-keyboard-response","226","56759","0.0-226.0","3LBXNTKX0SH17BBZ1NCIRHDFG479XW","A8V0L2YF8U6OX","3566S7OX5D5NH74JOVOPTTMK8IR17K","","13.199999999254942","img/flower1.png","75","14.5","2","1","2","1","1,0.333,0.333,0.333,1,0.333,0.333,0.333,1","1,0.333,0.333,0.333,1,0.333,0.333,0.333,1","1",""
"","html-keyboard-response","227","57061","0.0-227.0","3LBXNTKX0SH17BBZ1NCIRHDFG479XW","A8V0L2YF8U6OX","3566S7OX5D5NH74JOVOPTTMK8IR17K","","null","<img src=""img/flower1.png"" style=""width:200px; border:14px solid green;"">","null","","","","","","","","",""
"","image-keyboard-response","228","57345","0.0-228.0","3LBXNTKX0SH17BBZ1NCIRHDFG479XW","A8V0L2YF8U6OX","3566S7OX5D5NH74JOVOPTTMK8IR17K","","282.40000000037253","img/flower2.png","75","283.69999999925494","2","0","3","1","1,0.333,0.333,0.333,1,0.333,0.333,0.333,1","1,0.333,0.333,0.333,1,0.333,0.333,0.333,1","1",""
"","html-keyboard-response","229","57647","0.0-229.0","3LBXNTKX0SH17BBZ1NCIRHDFG479XW","A8V0L2YF8U6OX","3566S7OX5D5NH74JOVOPTTMK8IR17K","","null","<img src=""img/flower2.png"" style=""width:200px;border:14px solid red;"">","null","","","","","","","","",""
"","image-keyboard-response","230","57673","0.0-230.0","3LBXNTKX0SH17BBZ1NCIRHDFG479XW","A8V0L2YF8U6OX","3566S7OX5D5NH74JOVOPTTMK8IR17K","","24.199999999254942","img/flower3.png","75","25.40000000037253","2","1","1","1","1,0.333,0.333,0.333,1,0.333,0.333,0.333,1","1,0.333,0.333,0.333,1,0.333,0.333,0.333,1","1",""
"","html-keyboard-response","231","57975","0.0-231.0","3LBXNTKX0SH17BBZ1NCIRHDFG479XW","A8V0L2YF8U6OX","3566S7OX5D5NH74JOVOPTTMK8IR17K","","null","<img src=""img/flower3.png"" style=""width:200px; border:14px solid green;"">","null","","","","","","","","",""
"","image-keyboard-response","232","57992","0.0-232.0","3LBXNTKX0SH17BBZ1NCIRHDFG479XW","A8V0L2YF8U6OX","3566S7OX5D5NH74JOVOPTTMK8IR17K","","15.600000001490116","img/flower3.png","75","16.899999998509884","2","1","1","1","1,0.333,0.333,0.333,1,0.333,0.333,0.333,1","1,0.333,0.333,0.333,1,0.333,0.333,0.333,1","1",""
"","html-keyboard-response","233","58294","0.0-233.0","3LBXNTKX0SH17BBZ1NCIRHDFG479XW","A8V0L2YF8U6OX","3566S7OX5D5NH74JOVOPTTMK8IR17K","","null","<img src=""img/flower3.png"" style=""width:200px; border:14px solid green;"">","null","","","","","","","","",""
"","image-keyboard-response","234","58305","0.0-234.0","3LBXNTKX0SH17BBZ1NCIRHDFG479XW","A8V0L2YF8U6OX","3566S7OX5D5NH74JOVOPTTMK8IR17K","","9.199999999254942","img/flower1.png","75","10.599999999627471","2","1","2","1","1,0.333,0.333,0.333,1,0.333,0.333,0.333,1","1,0.333,0.333,0.333,1,0.333,0.333,0.333,1","1",""
"","html-keyboard-response","235","58607","0.0-235.0","3LBXNTKX0SH17BBZ1NCIRHDFG479XW","A8V0L2YF8U6OX","3566S7OX5D5NH74JOVOPTTMK8IR17K","","null","<img src=""img/flower1.png"" style=""width:200px; border:14px solid green;"">","null","","","","","","","","",""
"","image-keyboard-response","236","58637","0.0-236.0","3LBXNTKX0SH17BBZ1NCIRHDFG479XW","A8V0L2YF8U6OX","3566S7OX5D5NH74JOVOPTTMK8IR17K","","28.199999999254942","img/flower1.png","75","29.5","2","1","2","1","1,0.333,0.333,0.333,1,0.333,0.333,0.333,1","1,0.333,0.333,0.333,1,0.333,0.333,0.333,1","1",""
"","html-keyboard-response","237","58939","0.0-237.0","3LBXNTKX0SH17BBZ1NCIRHDFG479XW","A8V0L2YF8U6OX","3566S7OX5D5NH74JOVOPTTMK8IR17K","","null","<img src=""img/flower1.png"" style=""width:200px; border:14px solid green;"">","null","","","","","","","","",""
"","image-keyboard-response","238","59004","0.0-238.0","3LBXNTKX0SH17BBZ1NCIRHDFG479XW","A8V0L2YF8U6OX","3566S7OX5D5NH74JOVOPTTMK8IR17K","","62.40000000037253","img/flower1.png","75","64.20000000111759","2","1","2","1","1,0.333,0.333,0.333,1,0.333,0.333,0.333,1","1,0.333,0.333,0.333,1,0.333,0.333,0.333,1","1",""
"","html-keyboard-response","239","59306","0.0-239.0","3LBXNTKX0SH17BBZ1NCIRHDFG479XW","A8V0L2YF8U6OX","3566S7OX5D5NH74JOVOPTTMK8IR17K","","null","<img src=""img/flower1.png"" style=""width:200px; border:14px solid green;"">","null","","","","","","","","",""
"","image-keyboard-response","240","59590","0.0-240.0","3LBXNTKX0SH17BBZ1NCIRHDFG479XW","A8V0L2YF8U6OX","3566S7OX5D5NH74JOVOPTTMK8IR17K","","282.19999999925494","img/flower2.png","75","283.5","2","0","3","1","1,0.333,0.333,0.333,1,0.333,0.333,0.333,1","1,0.333,0.333,0.333,1,0.333,0.333,0.333,1","1",""
"","html-keyboard-response","241","59892","0.0-241.0","3LBXNTKX0SH17BBZ1NCIRHDFG479XW","A8V0L2YF8U6OX","3566S7OX5D5NH74JOVOPTTMK8IR17K","","null","<img src=""img/flower2.png"" style=""width:200px;border:14px solid red;"">","null","","","","","","","","",""
"","image-keyboard-response","242","60211","0.0-242.0","3LBXNTKX0SH17BBZ1NCIRHDFG479XW","A8V0L2YF8U6OX","3566S7OX5D5NH74JOVOPTTMK8IR17K","","316.40000000037253","img/flower2.png","75","317.80000000074506","2","0","3","1","1,0.333,0.333,0.333,1,0.333,0.333,0.333,1","1,0.333,0.333,0.333,1,0.333,0.333,0.333,1","1",""
"","html-keyboard-response","243","60512","0.0-243.0","3LBXNTKX0SH17BBZ1NCIRHDFG479XW","A8V0L2YF8U6OX","3566S7OX5D5NH74JOVOPTTMK8IR17K","","null","<img src=""img/flower2.png"" style=""width:200px;border:14px solid red;"">","null","","","","","","","","",""
"","image-keyboard-response","244","60519","0.0-244.0","3LBXNTKX0SH17BBZ1NCIRHDFG479XW","A8V0L2YF8U6OX","3566S7OX5D5NH74JOVOPTTMK8IR17K","","4.5","img/flower1.png","75","5.799999998882413","2","1","2","1","1,0.333,0.333,0.333,1,0.333,0.333,0.333,1","1,0.333,0.333,0.333,1,0.333,0.333,0.333,1","1",""
"","html-keyboard-response","245","60821","0.0-245.0","3LBXNTKX0SH17BBZ1NCIRHDFG479XW","A8V0L2YF8U6OX","3566S7OX5D5NH74JOVOPTTMK8IR17K","","null","<img src=""img/flower1.png"" style=""width:200px; border:14px solid green;"">","null","","","","","","","","",""
"","image-keyboard-response","246","60828","0.0-246.0","3LBXNTKX0SH17BBZ1NCIRHDFG479XW","A8V0L2YF8U6OX","3566S7OX5D5NH74JOVOPTTMK8IR17K","","5.200000001117587","img/flower2.png","75","6.400000000372529","2","0","3","1","1,0.333,0.333,0.333,1,0.333,0.333,0.333,1","1,0.333,0.333,0.333,1,0.333,0.333,0.333,1","1",""
"","html-keyboard-response","247","61130","0.0-247.0","3LBXNTKX0SH17BBZ1NCIRHDFG479XW","A8V0L2YF8U6OX","3566S7OX5D5NH74JOVOPTTMK8IR17K","","null","<img src=""img/flower2.png"" style=""width:200px;border:14px solid red;"">","null","","","","","","","","",""
"","image-keyboard-response","248","61160","0.0-248.0","3LBXNTKX0SH17BBZ1NCIRHDFG479XW","A8V0L2YF8U6OX","3566S7OX5D5NH74JOVOPTTMK8IR17K","","28.09999999962747","img/flower2.png","75","29.40000000037253","2","1","3","1","1,0.333,0.333,0.333,1,0.333,0.333,0.333,1","1,0.333,0.333,0.333,1,0.333,0.333,0.333,1","1",""
"","html-keyboard-response","249","61463","0.0-249.0","3LBXNTKX0SH17BBZ1NCIRHDFG479XW","A8V0L2YF8U6OX","3566S7OX5D5NH74JOVOPTTMK8IR17K","","null","<img src=""img/flower2.png"" style=""width:200px; border:14px solid green;"">","null","","","","","","","","",""
"","image-keyboard-response","250","61511","0.0-250.0","3LBXNTKX0SH17BBZ1NCIRHDFG479XW","A8V0L2YF8U6OX","3566S7OX5D5NH74JOVOPTTMK8IR17K","","44.90000000037253","img/flower3.png","75","48","2","0","1","1","1,0.333,0.333,0.333,1,0.333,0.333,0.333,1","1,0.333,0.333,0.333,1,0.333,0.333,0.333,1","1",""
"","html-keyboard-response","251","61814","0.0-251.0","3LBXNTKX0SH17BBZ1NCIRHDFG479XW","A8V0L2YF8U6OX","3566S7OX5D5NH74JOVOPTTMK8IR17K","","null","<img src=""img/flower3.png"" style=""width:200px;border:14px solid red;"">","null","","","","","","","","",""
"","image-keyboard-response","252","62115","0.0-252.0","3LBXNTKX0SH17BBZ1NCIRHDFG479XW","A8V0L2YF8U6OX","3566S7OX5D5NH74JOVOPTTMK8IR17K","","299.69999999925494","img/flower1.png","75","300.7999999988824","2","1","2","1","1,0.333,0.333,0.333,1,0.333,0.333,0.333,1","1,0.333,0.333,0.333,1,0.333,0.333,0.333,1","1",""
"","html-keyboard-response","253","62417","0.0-253.0","3LBXNTKX0SH17BBZ1NCIRHDFG479XW","A8V0L2YF8U6OX","3566S7OX5D5NH74JOVOPTTMK8IR17K","","null","<img src=""img/flower1.png"" style=""width:200px; border:14px solid green;"">","null","","","","","","","","",""
"","image-keyboard-response","254","62429","0.0-254.0","3LBXNTKX0SH17BBZ1NCIRHDFG479XW","A8V0L2YF8U6OX","3566S7OX5D5NH74JOVOPTTMK8IR17K","","9.699999999254942","img/flower1.png","75","11","2","1","2","1","1,0.333,0.333,0.333,1,0.333,0.333,0.333,1","1,0.333,0.333,0.333,1,0.333,0.333,0.333,1","1",""
"","html-keyboard-response","255","62731","0.0-255.0","3LBXNTKX0SH17BBZ1NCIRHDFG479XW","A8V0L2YF8U6OX","3566S7OX5D5NH74JOVOPTTMK8IR17K","","null","<img src=""img/flower1.png"" style=""width:200px; border:14px solid green;"">","null","","","","","","","","",""
"","image-keyboard-response","256","62737","0.0-256.0","3LBXNTKX0SH17BBZ1NCIRHDFG479XW","A8V0L2YF8U6OX","3566S7OX5D5NH74JOVOPTTMK8IR17K","","5.200000001117587","img/flower1.png","75","6.400000000372529","2","1","2","1","1,0.333,0.333,0.333,1,0.333,0.333,0.333,1","1,0.333,0.333,0.333,1,0.333,0.333,0.333,1","1",""
"","html-keyboard-response","257","63040","0.0-257.0","3LBXNTKX0SH17BBZ1NCIRHDFG479XW","A8V0L2YF8U6OX","3566S7OX5D5NH74JOVOPTTMK8IR17K","","null","<img src=""img/flower1.png"" style=""width:200px; border:14px solid green;"">","null","","","","","","","","",""
"","image-keyboard-response","258","63061","0.0-258.0","3LBXNTKX0SH17BBZ1NCIRHDFG479XW","A8V0L2YF8U6OX","3566S7OX5D5NH74JOVOPTTMK8IR17K","","19.40000000037253","img/flower1.png","75","20.699999999254942","2","1","2","1","1,0.333,0.333,0.333,1,0.333,0.333,0.333,1","1,0.333,0.333,0.333,1,0.333,0.333,0.333,1","1",""
"","html-keyboard-response","259","63363","0.0-259.0","3LBXNTKX0SH17BBZ1NCIRHDFG479XW","A8V0L2YF8U6OX","3566S7OX5D5NH74JOVOPTTMK8IR17K","","null","<img src=""img/flower1.png"" style=""width:200px; border:14px solid green;"">","null","","","","","","","","",""
"","image-keyboard-response","260","63384","0.0-260.0","3LBXNTKX0SH17BBZ1NCIRHDFG479XW","A8V0L2YF8U6OX","3566S7OX5D5NH74JOVOPTTMK8IR17K","","19.5","img/flower3.png","75","20.800000000745058","2","1","1","1","1,0.333,0.333,0.333,1,0.333,0.333,0.333,1","1,0.333,0.333,0.333,1,0.333,0.333,0.333,1","1",""
"","html-keyboard-response","261","63686","0.0-261.0","3LBXNTKX0SH17BBZ1NCIRHDFG479XW","A8V0L2YF8U6OX","3566S7OX5D5NH74JOVOPTTMK8IR17K","","null","<img src=""img/flower3.png"" style=""width:200px; border:14px solid green;"">","null","","","","","","","","",""
"","image-keyboard-response","262","63695","0.0-262.0","3LBXNTKX0SH17BBZ1NCIRHDFG479XW","A8V0L2YF8U6OX","3566S7OX5D5NH74JOVOPTTMK8IR17K","","6.900000000372529","img/flower2.png","75","8","2","1","3","1","1,0.333,0.333,0.333,1,0.333,0.333,0.333,1","1,0.333,0.333,0.333,1,0.333,0.333,0.333,1","1",""
"","html-keyboard-response","263","63997","0.0-263.0","3LBXNTKX0SH17BBZ1NCIRHDFG479XW","A8V0L2YF8U6OX","3566S7OX5D5NH74JOVOPTTMK8IR17K","","null","<img src=""img/flower2.png"" style=""width:200px; border:14px solid green;"">","null","","","","","","","","",""
"","image-keyboard-response","264","64190","0.0-264.0","3LBXNTKX0SH17BBZ1NCIRHDFG479XW","A8V0L2YF8U6OX","3566S7OX5D5NH74JOVOPTTMK8IR17K","","191.09999999962747","img/flower3.png","75","192.30000000074506","2","0","1","1","1,0.333,0.333,0.333,1,0.333,0.333,0.333,1","1,0.333,0.333,0.333,1,0.333,0.333,0.333,1","1",""
"","html-keyboard-response","265","64492","0.0-265.0","3LBXNTKX0SH17BBZ1NCIRHDFG479XW","A8V0L2YF8U6OX","3566S7OX5D5NH74JOVOPTTMK8IR17K","","null","<img src=""img/flower3.png"" style=""width:200px;border:14px solid red;"">","null","","","","","","","","",""
"","image-keyboard-response","266","64531","0.0-266.0","3LBXNTKX0SH17BBZ1NCIRHDFG479XW","A8V0L2YF8U6OX","3566S7OX5D5NH74JOVOPTTMK8IR17K","","36.90000000037253","img/flower1.png","75","38.100000001490116","2","1","2","1","1,0.333,0.333,0.333,1,0.333,0.333,0.333,1","1,0.333,0.333,0.333,1,0.333,0.333,0.333,1","1",""
"","html-keyboard-response","267","64833","0.0-267.0","3LBXNTKX0SH17BBZ1NCIRHDFG479XW","A8V0L2YF8U6OX","3566S7OX5D5NH74JOVOPTTMK8IR17K","","null","<img src=""img/flower1.png"" style=""width:200px; border:14px solid green;"">","null","","","","","","","","",""
"","image-keyboard-response","268","64843","0.0-268.0","3LBXNTKX0SH17BBZ1NCIRHDFG479XW","A8V0L2YF8U6OX","3566S7OX5D5NH74JOVOPTTMK8IR17K","","7.900000000372529","img/flower2.png","75","9.200000001117587","2","0","3","1","1,0.333,0.333,0.333,1,0.333,0.333,0.333,1","1,0.333,0.333,0.333,1,0.333,0.333,0.333,1","1",""
"","html-keyboard-response","269","65145","0.0-269.0","3LBXNTKX0SH17BBZ1NCIRHDFG479XW","A8V0L2YF8U6OX","3566S7OX5D5NH74JOVOPTTMK8IR17K","","null","<img src=""img/flower2.png"" style=""width:200px;border:14px solid red;"">","null","","","","","","","","",""
"","image-keyboard-response","270","65160","0.0-270.0","3LBXNTKX0SH17BBZ1NCIRHDFG479XW","A8V0L2YF8U6OX","3566S7OX5D5NH74JOVOPTTMK8IR17K","","12.700000001117587","img/flower3.png","75","14","2","0","1","1","1,0.333,0.333,0.333,1,0.333,0.333,0.333,1","1,0.333,0.333,0.333,1,0.333,0.333,0.333,1","1",""
"","html-keyboard-response","271","65462","0.0-271.0","3LBXNTKX0SH17BBZ1NCIRHDFG479XW","A8V0L2YF8U6OX","3566S7OX5D5NH74JOVOPTTMK8IR17K","","null","<img src=""img/flower3.png"" style=""width:200px;border:14px solid red;"">","null","","","","","","","","",""
"","image-keyboard-response","272","65736","0.0-272.0","3LBXNTKX0SH17BBZ1NCIRHDFG479XW","A8V0L2YF8U6OX","3566S7OX5D5NH74JOVOPTTMK8IR17K","","272.90000000037253","img/flower1.png","75","274.09999999962747","2","1","2","1","1,0.333,0.333,0.333,1,0.333,0.333,0.333,1","1,0.333,0.333,0.333,1,0.333,0.333,0.333,1","1",""
"","html-keyboard-response","273","66038","0.0-273.0","3LBXNTKX0SH17BBZ1NCIRHDFG479XW","A8V0L2YF8U6OX","3566S7OX5D5NH74JOVOPTTMK8IR17K","","null","<img src=""img/flower1.png"" style=""width:200px; border:14px solid green;"">","null","","","","","","","","",""
"","image-keyboard-response","274","66326","0.0-274.0","3LBXNTKX0SH17BBZ1NCIRHDFG479XW","A8V0L2YF8U6OX","3566S7OX5D5NH74JOVOPTTMK8IR17K","","285.7000000011176","img/flower3.png","75","286.7999999988824","2","0","1","1","1,0.333,0.333,0.333,1,0.333,0.333,0.333,1","1,0.333,0.333,0.333,1,0.333,0.333,0.333,1","1",""
"","html-keyboard-response","275","66628","0.0-275.0","3LBXNTKX0SH17BBZ1NCIRHDFG479XW","A8V0L2YF8U6OX","3566S7OX5D5NH74JOVOPTTMK8IR17K","","null","<img src=""img/flower3.png"" style=""width:200px;border:14px solid red;"">","null","","","","","","","","",""
"","image-keyboard-response","276","66947","0.0-276.0","3LBXNTKX0SH17BBZ1NCIRHDFG479XW","A8V0L2YF8U6OX","3566S7OX5D5NH74JOVOPTTMK8IR17K","","316.7000000011176","img/flower3.png","75","318.09999999962747","2","0","1","1","1,0.333,0.333,0.333,1,0.333,0.333,0.333,1","1,0.333,0.333,0.333,1,0.333,0.333,0.333,1","1",""
"","html-keyboard-response","277","67249","0.0-277.0","3LBXNTKX0SH17BBZ1NCIRHDFG479XW","A8V0L2YF8U6OX","3566S7OX5D5NH74JOVOPTTMK8IR17K","","null","<img src=""img/flower3.png"" style=""width:200px;border:14px solid red;"">","null","","","","","","","","",""
"","image-keyboard-response","278","67487","0.0-278.0","3LBXNTKX0SH17BBZ1NCIRHDFG479XW","A8V0L2YF8U6OX","3566S7OX5D5NH74JOVOPTTMK8IR17K","","236.69999999925494","img/flower2.png","75","238","2","0","3","1","1,0.333,0.333,0.333,1,0.333,0.333,0.333,1","1,0.333,0.333,0.333,1,0.333,0.333,0.333,1","1",""
"","html-keyboard-response","279","67789","0.0-279.0","3LBXNTKX0SH17BBZ1NCIRHDFG479XW","A8V0L2YF8U6OX","3566S7OX5D5NH74JOVOPTTMK8IR17K","","null","<img src=""img/flower2.png"" style=""width:200px;border:14px solid red;"">","null","","","","","","","","",""
"","image-keyboard-response","280","68088","0.0-280.0","3LBXNTKX0SH17BBZ1NCIRHDFG479XW","A8V0L2YF8U6OX","3566S7OX5D5NH74JOVOPTTMK8IR17K","","296.5","img/flower1.png","75","297.90000000037253","2","1","2","1","1,0.333,0.333,0.333,1,0.333,0.333,0.333,1","1,0.333,0.333,0.333,1,0.333,0.333,0.333,1","1",""
"","html-keyboard-response","281","68390","0.0-281.0","3LBXNTKX0SH17BBZ1NCIRHDFG479XW","A8V0L2YF8U6OX","3566S7OX5D5NH74JOVOPTTMK8IR17K","","null","<img src=""img/flower1.png"" style=""width:200px; border:14px solid green;"">","null","","","","","","","","",""
"","image-keyboard-response","282","68407","0.0-282.0","3LBXNTKX0SH17BBZ1NCIRHDFG479XW","A8V0L2YF8U6OX","3566S7OX5D5NH74JOVOPTTMK8IR17K","","15.5","img/flower3.png","75","16.90000000037253","2","0","1","1","1,0.333,0.333,0.333,1,0.333,0.333,0.333,1","1,0.333,0.333,0.333,1,0.333,0.333,0.333,1","1",""
"","html-keyboard-response","283","68709","0.0-283.0","3LBXNTKX0SH17BBZ1NCIRHDFG479XW","A8V0L2YF8U6OX","3566S7OX5D5NH74JOVOPTTMK8IR17K","","null","<img src=""img/flower3.png"" style=""width:200px;border:14px solid red;"">","null","","","","","","","","",""
"","image-keyboard-response","284","68715","0.0-284.0","3LBXNTKX0SH17BBZ1NCIRHDFG479XW","A8V0L2YF8U6OX","3566S7OX5D5NH74JOVOPTTMK8IR17K","","4.599999999627471","img/flower3.png","75","5.800000000745058","2","0","1","1","1,0.333,0.333,0.333,1,0.333,0.333,0.333,1","1,0.333,0.333,0.333,1,0.333,0.333,0.333,1","1",""
"","html-keyboard-response","285","69017","0.0-285.0","3LBXNTKX0SH17BBZ1NCIRHDFG479XW","A8V0L2YF8U6OX","3566S7OX5D5NH74JOVOPTTMK8IR17K","","null","<img src=""img/flower3.png"" style=""width:200px;border:14px solid red;"">","null","","","","","","","","",""
"","image-keyboard-response","286","69288","0.0-286.0","3LBXNTKX0SH17BBZ1NCIRHDFG479XW","A8V0L2YF8U6OX","3566S7OX5D5NH74JOVOPTTMK8IR17K","","268.90000000037253","img/flower1.png","75","270.3999999985099","2","1","2","1","1,0.333,0.333,0.333,1,0.333,0.333,0.333,1","1,0.333,0.333,0.333,1,0.333,0.333,0.333,1","1",""
"","html-keyboard-response","287","69590","0.0-287.0","3LBXNTKX0SH17BBZ1NCIRHDFG479XW","A8V0L2YF8U6OX","3566S7OX5D5NH74JOVOPTTMK8IR17K","","null","<img src=""img/flower1.png"" style=""width:200px; border:14px solid green;"">","null","","","","","","","","",""
"","image-keyboard-response","288","69604","0.0-288.0","3LBXNTKX0SH17BBZ1NCIRHDFG479XW","A8V0L2YF8U6OX","3566S7OX5D5NH74JOVOPTTMK8IR17K","","12.100000001490116","img/flower3.png","75","13.700000001117587","2","1","1","1","1,0.333,0.333,0.333,1,0.333,0.333,0.333,1","1,0.333,0.333,0.333,1,0.333,0.333,0.333,1","1",""
"","html-keyboard-response","289","69906","0.0-289.0","3LBXNTKX0SH17BBZ1NCIRHDFG479XW","A8V0L2YF8U6OX","3566S7OX5D5NH74JOVOPTTMK8IR17K","","null","<img src=""img/flower3.png"" style=""width:200px; border:14px solid green;"">","null","","","","","","","","",""
"","image-keyboard-response","290","69937","0.0-290.0","3LBXNTKX0SH17BBZ1NCIRHDFG479XW","A8V0L2YF8U6OX","3566S7OX5D5NH74JOVOPTTMK8IR17K","","29.5","img/flower2.png","75","30.90000000037253","2","1","3","1","1,0.333,0.333,0.333,1,0.333,0.333,0.333,1","1,0.333,0.333,0.333,1,0.333,0.333,0.333,1","1",""
"","html-keyboard-response","291","70239","0.0-291.0","3LBXNTKX0SH17BBZ1NCIRHDFG479XW","A8V0L2YF8U6OX","3566S7OX5D5NH74JOVOPTTMK8IR17K","","null","<img src=""img/flower2.png"" style=""width:200px; border:14px solid green;"">","null","","","","","","","","",""
"","image-keyboard-response","292","70242","0.0-292.0","3LBXNTKX0SH17BBZ1NCIRHDFG479XW","A8V0L2YF8U6OX","3566S7OX5D5NH74JOVOPTTMK8IR17K","","1.5","img/flower3.png","75","2.699999999254942","2","1","1","1","1,0.333,0.333,0.333,1,0.333,0.333,0.333,1","1,0.333,0.333,0.333,1,0.333,0.333,0.333,1","1",""
"","html-keyboard-response","293","70544","0.0-293.0","3LBXNTKX0SH17BBZ1NCIRHDFG479XW","A8V0L2YF8U6OX","3566S7OX5D5NH74JOVOPTTMK8IR17K","","null","<img src=""img/flower3.png"" style=""width:200px; border:14px solid green;"">","null","","","","","","","","",""
"","image-keyboard-response","294","70844","0.0-294.0","3LBXNTKX0SH17BBZ1NCIRHDFG479XW","A8V0L2YF8U6OX","3566S7OX5D5NH74JOVOPTTMK8IR17K","","298.6000000014901","img/flower1.png","75","300.59999999962747","2","1","2","1","1,0.333,0.333,0.333,1,0.333,0.333,0.333,1","1,0.333,0.333,0.333,1,0.333,0.333,0.333,1","1",""
"","html-keyboard-response","295","71147","0.0-295.0","3LBXNTKX0SH17BBZ1NCIRHDFG479XW","A8V0L2YF8U6OX","3566S7OX5D5NH74JOVOPTTMK8IR17K","","null","<img src=""img/flower1.png"" style=""width:200px; border:14px solid green;"">","null","","","","","","","","",""
"","image-keyboard-response","296","71150","0.0-296.0","3LBXNTKX0SH17BBZ1NCIRHDFG479XW","A8V0L2YF8U6OX","3566S7OX5D5NH74JOVOPTTMK8IR17K","","0.6999999992549419","img/flower3.png","75","2","2","1","1","1","1,0.333,0.333,0.333,1,0.333,0.333,0.333,1","1,0.333,0.333,0.333,1,0.333,0.333,0.333,1","1",""
"","html-keyboard-response","297","71452","0.0-297.0","3LBXNTKX0SH17BBZ1NCIRHDFG479XW","A8V0L2YF8U6OX","3566S7OX5D5NH74JOVOPTTMK8IR17K","","null","<img src=""img/flower3.png"" style=""width:200px; border:14px solid green;"">","null","","","","","","","","",""
"","image-keyboard-response","298","71472","0.0-298.0","3LBXNTKX0SH17BBZ1NCIRHDFG479XW","A8V0L2YF8U6OX","3566S7OX5D5NH74JOVOPTTMK8IR17K","","17.800000000745058","img/flower2.png","75","19.299999998882413","2","0","3","1","1,0.333,0.333,0.333,1,0.333,0.333,0.333,1","1,0.333,0.333,0.333,1,0.333,0.333,0.333,1","1",""
"","html-keyboard-response","299","71774","0.0-299.0","3LBXNTKX0SH17BBZ1NCIRHDFG479XW","A8V0L2YF8U6OX","3566S7OX5D5NH74JOVOPTTMK8IR17K","","null","<img src=""img/flower2.png"" style=""width:200px;border:14px solid red;"">","null","","","","","","","","",""
"","image-keyboard-response","300","71801","0.0-300.0","3LBXNTKX0SH17BBZ1NCIRHDFG479XW","A8V0L2YF8U6OX","3566S7OX5D5NH74JOVOPTTMK8IR17K","","24.90000000037253","img/flower2.png","75","26.699999999254942","2","1","3","1","1,0.333,0.333,0.333,1,0.333,0.333,0.333,1","1,0.333,0.333,0.333,1,0.333,0.333,0.333,1","1",""
"","html-keyboard-response","301","72104","0.0-301.0","3LBXNTKX0SH17BBZ1NCIRHDFG479XW","A8V0L2YF8U6OX","3566S7OX5D5NH74JOVOPTTMK8IR17K","","null","<img src=""img/flower2.png"" style=""width:200px; border:14px solid green;"">","null","","","","","","","","",""
"","image-keyboard-response","302","72435","0.0-302.0","3LBXNTKX0SH17BBZ1NCIRHDFG479XW","A8V0L2YF8U6OX","3566S7OX5D5NH74JOVOPTTMK8IR17K","","329.69999999925494","img/flower1.png","75","330.90000000037253","2","1","2","1","1,0.333,0.333,0.333,1,0.333,0.333,0.333,1","1,0.333,0.333,0.333,1,0.333,0.333,0.333,1","1",""
"","html-keyboard-response","303","72737","0.0-303.0","3LBXNTKX0SH17BBZ1NCIRHDFG479XW","A8V0L2YF8U6OX","3566S7OX5D5NH74JOVOPTTMK8IR17K","","null","<img src=""img/flower1.png"" style=""width:200px; border:14px solid green;"">","null","","","","","","","","",""
"","image-keyboard-response","304","73028","0.0-304.0","3LBXNTKX0SH17BBZ1NCIRHDFG479XW","A8V0L2YF8U6OX","3566S7OX5D5NH74JOVOPTTMK8IR17K","","289.80000000074506","img/flower2.png","75","291.09999999962747","2","0","3","1","1,0.333,0.333,0.333,1,0.333,0.333,0.333,1","1,0.333,0.333,0.333,1,0.333,0.333,0.333,1","1",""
"","html-keyboard-response","305","73330","0.0-305.0","3LBXNTKX0SH17BBZ1NCIRHDFG479XW","A8V0L2YF8U6OX","3566S7OX5D5NH74JOVOPTTMK8IR17K","","null","<img src=""img/flower2.png"" style=""width:200px;border:14px solid red;"">","null","","","","","","","","",""
"","image-keyboard-response","306","73336","0.0-306.0","3LBXNTKX0SH17BBZ1NCIRHDFG479XW","A8V0L2YF8U6OX","3566S7OX5D5NH74JOVOPTTMK8IR17K","","4.200000001117587","img/flower2.png","75","5.699999999254942","2","0","3","1","1,0.333,0.333,0.333,1,0.333,0.333,0.333,1","1,0.333,0.333,0.333,1,0.333,0.333,0.333,1","1",""
"","html-keyboard-response","307","73638","0.0-307.0","3LBXNTKX0SH17BBZ1NCIRHDFG479XW","A8V0L2YF8U6OX","3566S7OX5D5NH74JOVOPTTMK8IR17K","","null","<img src=""img/flower2.png"" style=""width:200px;border:14px solid red;"">","null","","","","","","","","",""
"","image-keyboard-response","308","73908","0.0-308.0","3LBXNTKX0SH17BBZ1NCIRHDFG479XW","A8V0L2YF8U6OX","3566S7OX5D5NH74JOVOPTTMK8IR17K","","267.69999999925494","img/flower1.png","75","269","2","1","2","1","1,0.333,0.333,0.333,1,0.333,0.333,0.333,1","1,0.333,0.333,0.333,1,0.333,0.333,0.333,1","1",""
"","html-keyboard-response","309","74210","0.0-309.0","3LBXNTKX0SH17BBZ1NCIRHDFG479XW","A8V0L2YF8U6OX","3566S7OX5D5NH74JOVOPTTMK8IR17K","","null","<img src=""img/flower1.png"" style=""width:200px; border:14px solid green;"">","null","","","","","","","","",""
"","image-keyboard-response","310","74215","0.0-310.0","3LBXNTKX0SH17BBZ1NCIRHDFG479XW","A8V0L2YF8U6OX","3566S7OX5D5NH74JOVOPTTMK8IR17K","","3.899999998509884","img/flower2.png","75","5.199999999254942","2","1","3","1","1,0.333,0.333,0.333,1,0.333,0.333,0.333,1","1,0.333,0.333,0.333,1,0.333,0.333,0.333,1","1",""
"","html-keyboard-response","311","74518","0.0-311.0","3LBXNTKX0SH17BBZ1NCIRHDFG479XW","A8V0L2YF8U6OX","3566S7OX5D5NH74JOVOPTTMK8IR17K","","null","<img src=""img/flower2.png"" style=""width:200px; border:14px solid green;"">","null","","","","","","","","",""
"","image-keyboard-response","312","74546","0.0-312.0","3LBXNTKX0SH17BBZ1NCIRHDFG479XW","A8V0L2YF8U6OX","3566S7OX5D5NH74JOVOPTTMK8IR17K","","25.600000001490116","img/flower1.png","75","27","2","1","2","1","1,0.333,0.333,0.333,1,0.333,0.333,0.333,1","1,0.333,0.333,0.333,1,0.333,0.333,0.333,1","1",""
"","html-keyboard-response","313","74848","0.0-313.0","3LBXNTKX0SH17BBZ1NCIRHDFG479XW","A8V0L2YF8U6OX","3566S7OX5D5NH74JOVOPTTMK8IR17K","","null","<img src=""img/flower1.png"" style=""width:200px; border:14px solid green;"">","null","","","","","","","","",""
"","image-keyboard-response","314","75134","0.0-314.0","3LBXNTKX0SH17BBZ1NCIRHDFG479XW","A8V0L2YF8U6OX","3566S7OX5D5NH74JOVOPTTMK8IR17K","","284.80000000074506","img/flower3.png","75","286","2","0","1","1","1,0.333,0.333,0.333,1,0.333,0.333,0.333,1","1,0.333,0.333,0.333,1,0.333,0.333,0.333,1","1",""
"","html-keyboard-response","315","75436","0.0-315.0","3LBXNTKX0SH17BBZ1NCIRHDFG479XW","A8V0L2YF8U6OX","3566S7OX5D5NH74JOVOPTTMK8IR17K","","null","<img src=""img/flower3.png"" style=""width:200px;border:14px solid red;"">","null","","","","","","","","",""
"","image-keyboard-response","316","75700","0.0-316.0","3LBXNTKX0SH17BBZ1NCIRHDFG479XW","A8V0L2YF8U6OX","3566S7OX5D5NH74JOVOPTTMK8IR17K","","262.19999999925494","img/flower2.png","75","263.19999999925494","2","0","3","1","1,0.333,0.333,0.333,1,0.333,0.333,0.333,1","1,0.333,0.333,0.333,1,0.333,0.333,0.333,1","1",""
"","html-keyboard-response","317","76002","0.0-317.0","3LBXNTKX0SH17BBZ1NCIRHDFG479XW","A8V0L2YF8U6OX","3566S7OX5D5NH74JOVOPTTMK8IR17K","","null","<img src=""img/flower2.png"" style=""width:200px;border:14px solid red;"">","null","","","","","","","","",""
"","image-keyboard-response","318","76359","0.0-318.0","3LBXNTKX0SH17BBZ1NCIRHDFG479XW","A8V0L2YF8U6OX","3566S7OX5D5NH74JOVOPTTMK8IR17K","","354.90000000037253","img/flower1.png","75","356.19999999925494","2","1","2","1","1,0.333,0.333,0.333,1,0.333,0.333,0.333,1","1,0.333,0.333,0.333,1,0.333,0.333,0.333,1","1",""
"","html-keyboard-response","319","76661","0.0-319.0","3LBXNTKX0SH17BBZ1NCIRHDFG479XW","A8V0L2YF8U6OX","3566S7OX5D5NH74JOVOPTTMK8IR17K","","null","<img src=""img/flower1.png"" style=""width:200px; border:14px solid green;"">","null","","","","","","","","",""
"","image-keyboard-response","320","76901","0.0-320.0","3LBXNTKX0SH17BBZ1NCIRHDFG479XW","A8V0L2YF8U6OX","3566S7OX5D5NH74JOVOPTTMK8IR17K","","238.39999999850988","img/flower2.png","75","239.69999999925494","2","0","3","1","1,0.333,0.333,0.333,1,0.333,0.333,0.333,1","1,0.333,0.333,0.333,1,0.333,0.333,0.333,1","1",""
"","html-keyboard-response","321","77202","0.0-321.0","3LBXNTKX0SH17BBZ1NCIRHDFG479XW","A8V0L2YF8U6OX","3566S7OX5D5NH74JOVOPTTMK8IR17K","","null","<img src=""img/flower2.png"" style=""width:200px;border:14px solid red;"">","null","","","","","","","","",""
"","image-keyboard-response","322","77360","0.0-322.0","3LBXNTKX0SH17BBZ1NCIRHDFG479XW","A8V0L2YF8U6OX","3566S7OX5D5NH74JOVOPTTMK8IR17K","","155","img/flower3.png","75","156.59999999962747","2","0","1","1","1,0.333,0.333,0.333,1,0.333,0.333,0.333,1","1,0.333,0.333,0.333,1,0.333,0.333,0.333,1","1",""
"","html-keyboard-response","323","77662","0.0-323.0","3LBXNTKX0SH17BBZ1NCIRHDFG479XW","A8V0L2YF8U6OX","3566S7OX5D5NH74JOVOPTTMK8IR17K","","null","<img src=""img/flower3.png"" style=""width:200px;border:14px solid red;"">","null","","","","","","","","",""
"","image-keyboard-response","324","77664","0.0-324.0","3LBXNTKX0SH17BBZ1NCIRHDFG479XW","A8V0L2YF8U6OX","3566S7OX5D5NH74JOVOPTTMK8IR17K","","0.7000000011175871","img/flower1.png","75","2","2","1","2","1","1,0.333,0.333,0.333,1,0.333,0.333,0.333,1","1,0.333,0.333,0.333,1,0.333,0.333,0.333,1","1",""
"","html-keyboard-response","325","77966","0.0-325.0","3LBXNTKX0SH17BBZ1NCIRHDFG479XW","A8V0L2YF8U6OX","3566S7OX5D5NH74JOVOPTTMK8IR17K","","null","<img src=""img/flower1.png"" style=""width:200px; border:14px solid green;"">","null","","","","","","","","",""
"","image-keyboard-response","326","78242","0.0-326.0","3LBXNTKX0SH17BBZ1NCIRHDFG479XW","A8V0L2YF8U6OX","3566S7OX5D5NH74JOVOPTTMK8IR17K","","273.80000000074506","img/flower2.png","75","275.1000000014901","2","0","3","1","1,0.333,0.333,0.333,1,0.333,0.333,0.333,1","1,0.333,0.333,0.333,1,0.333,0.333,0.333,1","1",""
"","html-keyboard-response","327","78544","0.0-327.0","3LBXNTKX0SH17BBZ1NCIRHDFG479XW","A8V0L2YF8U6OX","3566S7OX5D5NH74JOVOPTTMK8IR17K","","null","<img src=""img/flower2.png"" style=""width:200px;border:14px solid red;"">","null","","","","","","","","",""
"","image-keyboard-response","328","78808","0.0-328.0","3LBXNTKX0SH17BBZ1NCIRHDFG479XW","A8V0L2YF8U6OX","3566S7OX5D5NH74JOVOPTTMK8IR17K","","261.69999999925494","img/flower2.png","75","263.59999999962747","2","0","3","1","1,0.333,0.333,0.333,1,0.333,0.333,0.333,1","1,0.333,0.333,0.333,1,0.333,0.333,0.333,1","1",""
"","html-keyboard-response","329","79110","0.0-329.0","3LBXNTKX0SH17BBZ1NCIRHDFG479XW","A8V0L2YF8U6OX","3566S7OX5D5NH74JOVOPTTMK8IR17K","","null","<img src=""img/flower2.png"" style=""width:200px;border:14px solid red;"">","null","","","","","","","","",""
"","image-keyboard-response","330","79139","0.0-330.0","3LBXNTKX0SH17BBZ1NCIRHDFG479XW","A8V0L2YF8U6OX","3566S7OX5D5NH74JOVOPTTMK8IR17K","","26.300000000745058","img/flower3.png","75","27.700000001117587","2","1","1","1","1,0.333,0.333,0.333,1,0.333,0.333,0.333,1","1,0.333,0.333,0.333,1,0.333,0.333,0.333,1","1",""
"","html-keyboard-response","331","79441","0.0-331.0","3LBXNTKX0SH17BBZ1NCIRHDFG479XW","A8V0L2YF8U6OX","3566S7OX5D5NH74JOVOPTTMK8IR17K","","null","<img src=""img/flower3.png"" style=""width:200px; border:14px solid green;"">","null","","","","","","","","",""
"","image-keyboard-response","332","79456","0.0-332.0","3LBXNTKX0SH17BBZ1NCIRHDFG479XW","A8V0L2YF8U6OX","3566S7OX5D5NH74JOVOPTTMK8IR17K","","13.900000000372529","img/flower2.png","75","15.300000000745058","2","0","3","1","1,0.333,0.333,0.333,1,0.333,0.333,0.333,1","1,0.333,0.333,0.333,1,0.333,0.333,0.333,1","1",""
"","html-keyboard-response","333","79760","0.0-333.0","3LBXNTKX0SH17BBZ1NCIRHDFG479XW","A8V0L2YF8U6OX","3566S7OX5D5NH74JOVOPTTMK8IR17K","","null","<img src=""img/flower2.png"" style=""width:200px;border:14px solid red;"">","null","","","","","","","","",""
"","image-keyboard-response","334","80036","0.0-334.0","3LBXNTKX0SH17BBZ1NCIRHDFG479XW","A8V0L2YF8U6OX","3566S7OX5D5NH74JOVOPTTMK8IR17K","","274","img/flower3.png","75","275.2999999988824","2","0","1","1","1,0.333,0.333,0.333,1,0.333,0.333,0.333,1","1,0.333,0.333,0.333,1,0.333,0.333,0.333,1","1",""
"","html-keyboard-response","335","80338","0.0-335.0","3LBXNTKX0SH17BBZ1NCIRHDFG479XW","A8V0L2YF8U6OX","3566S7OX5D5NH74JOVOPTTMK8IR17K","","null","<img src=""img/flower3.png"" style=""width:200px;border:14px solid red;"">","null","","","","","","","","",""
"","image-keyboard-response","336","80343","0.0-336.0","3LBXNTKX0SH17BBZ1NCIRHDFG479XW","A8V0L2YF8U6OX","3566S7OX5D5NH74JOVOPTTMK8IR17K","","3.300000000745058","img/flower2.png","75","4.900000000372529","2","1","3","1","1,0.333,0.333,0.333,1,0.333,0.333,0.333,1","1,0.333,0.333,0.333,1,0.333,0.333,0.333,1","1",""
"","html-keyboard-response","337","80645","0.0-337.0","3LBXNTKX0SH17BBZ1NCIRHDFG479XW","A8V0L2YF8U6OX","3566S7OX5D5NH74JOVOPTTMK8IR17K","","null","<img src=""img/flower2.png"" style=""width:200px; border:14px solid green;"">","null","","","","","","","","",""
"","image-keyboard-response","338","80652","0.0-338.0","3LBXNTKX0SH17BBZ1NCIRHDFG479XW","A8V0L2YF8U6OX","3566S7OX5D5NH74JOVOPTTMK8IR17K","","5","img/flower3.png","75","6.599999999627471","2","0","1","1","1,0.333,0.333,0.333,1,0.333,0.333,0.333,1","1,0.333,0.333,0.333,1,0.333,0.333,0.333,1","1",""
"","html-keyboard-response","339","80954","0.0-339.0","3LBXNTKX0SH17BBZ1NCIRHDFG479XW","A8V0L2YF8U6OX","3566S7OX5D5NH74JOVOPTTMK8IR17K","","null","<img src=""img/flower3.png"" style=""width:200px;border:14px solid red;"">","null","","","","","","","","",""
"","image-keyboard-response","340","81016","0.0-340.0","3LBXNTKX0SH17BBZ1NCIRHDFG479XW","A8V0L2YF8U6OX","3566S7OX5D5NH74JOVOPTTMK8IR17K","","59.40000000037253","img/flower1.png","75","60.90000000037253","2","1","2","1","1,0.333,0.333,0.333,1,0.333,0.333,0.333,1","1,0.333,0.333,0.333,1,0.333,0.333,0.333,1","1",""
"","html-keyboard-response","341","81318","0.0-341.0","3LBXNTKX0SH17BBZ1NCIRHDFG479XW","A8V0L2YF8U6OX","3566S7OX5D5NH74JOVOPTTMK8IR17K","","null","<img src=""img/flower1.png"" style=""width:200px; border:14px solid green;"">","null","","","","","","","","",""
"","image-keyboard-response","342","81401","0.0-342.0","3LBXNTKX0SH17BBZ1NCIRHDFG479XW","A8V0L2YF8U6OX","3566S7OX5D5NH74JOVOPTTMK8IR17K","","81.19999999925494","img/flower3.png","75","82.59999999962747","2","0","1","1","1,0.333,0.333,0.333,1,0.333,0.333,0.333,1","1,0.333,0.333,0.333,1,0.333,0.333,0.333,1","1",""
"","html-keyboard-response","343","81703","0.0-343.0","3LBXNTKX0SH17BBZ1NCIRHDFG479XW","A8V0L2YF8U6OX","3566S7OX5D5NH74JOVOPTTMK8IR17K","","null","<img src=""img/flower3.png"" style=""width:200px;border:14px solid red;"">","null","","","","","","","","",""
"","image-keyboard-response","344","81834","0.0-344.0","3LBXNTKX0SH17BBZ1NCIRHDFG479XW","A8V0L2YF8U6OX","3566S7OX5D5NH74JOVOPTTMK8IR17K","","129.30000000074506","img/flower1.png","75","130.80000000074506","2","1","2","1","1,0.333,0.333,0.333,1,0.333,0.333,0.333,1","1,0.333,0.333,0.333,1,0.333,0.333,0.333,1","1",""
"","html-keyboard-response","345","82137","0.0-345.0","3LBXNTKX0SH17BBZ1NCIRHDFG479XW","A8V0L2YF8U6OX","3566S7OX5D5NH74JOVOPTTMK8IR17K","","null","<img src=""img/flower1.png"" style=""width:200px; border:14px solid green;"">","null","","","","","","","","",""
"","image-keyboard-response","346","82206","0.0-346.0","3LBXNTKX0SH17BBZ1NCIRHDFG479XW","A8V0L2YF8U6OX","3566S7OX5D5NH74JOVOPTTMK8IR17K","","67.29999999888241","img/flower3.png","75","68.79999999888241","2","0","1","1","1,0.333,0.333,0.333,1,0.333,0.333,0.333,1","1,0.333,0.333,0.333,1,0.333,0.333,0.333,1","1",""
"","html-keyboard-response","347","82508","0.0-347.0","3LBXNTKX0SH17BBZ1NCIRHDFG479XW","A8V0L2YF8U6OX","3566S7OX5D5NH74JOVOPTTMK8IR17K","","null","<img src=""img/flower3.png"" style=""width:200px;border:14px solid red;"">","null","","","","","","","","",""
"","image-keyboard-response","348","82565","0.0-348.0","3LBXNTKX0SH17BBZ1NCIRHDFG479XW","A8V0L2YF8U6OX","3566S7OX5D5NH74JOVOPTTMK8IR17K","","55.09999999962747","img/flower3.png","75","56.30000000074506","2","1","1","1","1,0.333,0.333,0.333,1,0.333,0.333,0.333,1","1,0.333,0.333,0.333,1,0.333,0.333,0.333,1","1",""
"","html-keyboard-response","349","82867","0.0-349.0","3LBXNTKX0SH17BBZ1NCIRHDFG479XW","A8V0L2YF8U6OX","3566S7OX5D5NH74JOVOPTTMK8IR17K","","null","<img src=""img/flower3.png"" style=""width:200px; border:14px solid green;"">","null","","","","","","","","",""
"","image-keyboard-response","350","82952","0.0-350.0","3LBXNTKX0SH17BBZ1NCIRHDFG479XW","A8V0L2YF8U6OX","3566S7OX5D5NH74JOVOPTTMK8IR17K","","82.79999999888241","img/flower2.png","75","84.5","2","1","3","1","1,0.333,0.333,0.333,1,0.333,0.333,0.333,1","1,0.333,0.333,0.333,1,0.333,0.333,0.333,1","1",""
"","html-keyboard-response","351","83254","0.0-351.0","3LBXNTKX0SH17BBZ1NCIRHDFG479XW","A8V0L2YF8U6OX","3566S7OX5D5NH74JOVOPTTMK8IR17K","","null","<img src=""img/flower2.png"" style=""width:200px; border:14px solid green;"">","null","","","","","","","","",""
"","image-keyboard-response","352","83297","0.0-352.0","3LBXNTKX0SH17BBZ1NCIRHDFG479XW","A8V0L2YF8U6OX","3566S7OX5D5NH74JOVOPTTMK8IR17K","","41.59999999962747","img/flower1.png","75","42.90000000037253","2","1","2","1","1,0.333,0.333,0.333,1,0.333,0.333,0.333,1","1,0.333,0.333,0.333,1,0.333,0.333,0.333,1","1",""
"","html-keyboard-response","353","83599","0.0-353.0","3LBXNTKX0SH17BBZ1NCIRHDFG479XW","A8V0L2YF8U6OX","3566S7OX5D5NH74JOVOPTTMK8IR17K","","null","<img src=""img/flower1.png"" style=""width:200px; border:14px solid green;"">","null","","","","","","","","",""
"","image-keyboard-response","354","83763","0.0-354.0","3LBXNTKX0SH17BBZ1NCIRHDFG479XW","A8V0L2YF8U6OX","3566S7OX5D5NH74JOVOPTTMK8IR17K","","162.30000000074506","img/flower3.png","75","164","2","0","1","1","1,0.333,0.333,0.333,1,0.333,0.333,0.333,1","1,0.333,0.333,0.333,1,0.333,0.333,0.333,1","1",""
"","html-keyboard-response","355","84065","0.0-355.0","3LBXNTKX0SH17BBZ1NCIRHDFG479XW","A8V0L2YF8U6OX","3566S7OX5D5NH74JOVOPTTMK8IR17K","","null","<img src=""img/flower3.png"" style=""width:200px;border:14px solid red;"">","null","","","","","","","","",""
"","image-keyboard-response","356","84198","0.0-356.0","3LBXNTKX0SH17BBZ1NCIRHDFG479XW","A8V0L2YF8U6OX","3566S7OX5D5NH74JOVOPTTMK8IR17K","","131.30000000074506","img/flower1.png","75","132.5","2","1","2","1","1,0.333,0.333,0.333,1,0.333,0.333,0.333,1","1,0.333,0.333,0.333,1,0.333,0.333,0.333,1","1",""
"","html-keyboard-response","357","84500","0.0-357.0","3LBXNTKX0SH17BBZ1NCIRHDFG479XW","A8V0L2YF8U6OX","3566S7OX5D5NH74JOVOPTTMK8IR17K","","null","<img src=""img/flower1.png"" style=""width:200px; border:14px solid green;"">","null","","","","","","","","",""
"","image-keyboard-response","358","84647","0.0-358.0","3LBXNTKX0SH17BBZ1NCIRHDFG479XW","A8V0L2YF8U6OX","3566S7OX5D5NH74JOVOPTTMK8IR17K","","145.09999999962747","img/flower3.png","75","146.7000000011176","2","0","1","1","1,0.333,0.333,0.333,1,0.333,0.333,0.333,1","1,0.333,0.333,0.333,1,0.333,0.333,0.333,1","1",""
"","html-keyboard-response","359","84949","0.0-359.0","3LBXNTKX0SH17BBZ1NCIRHDFG479XW","A8V0L2YF8U6OX","3566S7OX5D5NH74JOVOPTTMK8IR17K","","null","<img src=""img/flower3.png"" style=""width:200px;border:14px solid red;"">","null","","","","","","","","",""
"","image-keyboard-response","360","85091","0.0-360.0","3LBXNTKX0SH17BBZ1NCIRHDFG479XW","A8V0L2YF8U6OX","3566S7OX5D5NH74JOVOPTTMK8IR17K","","139.59999999962747","img/flower2.png","75","140.90000000037253","2","0","3","1","1,0.333,0.333,0.333,1,0.333,0.333,0.333,1","1,0.333,0.333,0.333,1,0.333,0.333,0.333,1","1",""
"","html-keyboard-response","361","85393","0.0-361.0","3LBXNTKX0SH17BBZ1NCIRHDFG479XW","A8V0L2YF8U6OX","3566S7OX5D5NH74JOVOPTTMK8IR17K","","null","<img src=""img/flower2.png"" style=""width:200px;border:14px solid red;"">","null","","","","","","","","",""
"","html-keyboard-response","362","104055","0.0-362.0","3LBXNTKX0SH17BBZ1NCIRHDFG479XW","A8V0L2YF8U6OX","3566S7OX5D5NH74JOVOPTTMK8IR17K","","","","","","","","","","","","",""
"","instructions","363","105446","0.0-363.0","3LBXNTKX0SH17BBZ1NCIRHDFG479XW","A8V0L2YF8U6OX","3566S7OX5D5NH74JOVOPTTMK8IR17K","[{""page_index"":0,""viewing_time"":1388.7999999988824}]","1389.199999999255","","","","","","","","","","",""
"","survey-text","364","108477","0.0-364.0","3LBXNTKX0SH17BBZ1NCIRHDFG479XW","A8V0L2YF8U6OX","3566S7OX5D5NH74JOVOPTTMK8IR17K","","3025","","","","","","","","","","","{""Q0"":""A8V0L2YF8U6OX""}"
