"success","trial_type","trial_index","time_elapsed","internal_node_id","assignmentID","mturkID","hitID","view_history","rt","stimulus","key_press","reactionTime","a","r","s","cond","reward_cond","reward_cond_actual","reward_matrix_idx","responses"
"true","fullscreen","0","81729","0.0-0.0","34J10VATJGKA9F3QJ3N3A2GP1EMIQF","A9LYIVFG3ZU4Z","3BDORL6HKKZHMTYWD6BFF6WBDQ9CRF","","","","","","","","","","","","",""
"","instructions","1","102880","0.0-1.0","34J10VATJGKA9F3QJ3N3A2GP1EMIQF","A9LYIVFG3ZU4Z","3BDORL6HKKZHMTYWD6BFF6WBDQ9CRF","[{""page_index"":0,""viewing_time"":2828},{""page_index"":1,""viewing_time"":1341},{""page_index"":2,""viewing_time"":1976},{""page_index"":3,""viewing_time"":1121},{""page_index"":4,""viewing_time"":6811},{""page_index"":5,""viewing_time"":2310},{""page_index"":6,""viewing_time"":1490},{""page_index"":7,""viewing_time"":3270}]","21147","","","","","","","","","","",""
"","image-keyboard-response","2","103873","0.0-2.0","34J10VATJGKA9F3QJ3N3A2GP1EMIQF","A9LYIVFG3ZU4Z","3BDORL6HKKZHMTYWD6BFF6WBDQ9CRF","","991","img/flower5.png","74","993","1","1","2","1","1,0.333,0.333,0.333,1,0.333,0.333,0.333,1","1,0.333,0.333,0.333,1,0.333,0.333,0.333,1","1",""
"","html-keyboard-response","3","104180","0.0-3.0","34J10VATJGKA9F3QJ3N3A2GP1EMIQF","A9LYIVFG3ZU4Z","3BDORL6HKKZHMTYWD6BFF6WBDQ9CRF","","null","<img src=""img/flower5.png"" style=""width:200px; border:14px solid green;"">","null","","","","","","","","",""
"","image-keyboard-response","4","104209","0.0-4.0","34J10VATJGKA9F3QJ3N3A2GP1EMIQF","A9LYIVFG3ZU4Z","3BDORL6HKKZHMTYWD6BFF6WBDQ9CRF","","27","img/flower5.png","74","28","1","1","2","1","1,0.333,0.333,0.333,1,0.333,0.333,0.333,1","1,0.333,0.333,0.333,1,0.333,0.333,0.333,1","1",""
"","html-keyboard-response","5","104510","0.0-5.0","34J10VATJGKA9F3QJ3N3A2GP1EMIQF","A9LYIVFG3ZU4Z","3BDORL6HKKZHMTYWD6BFF6WBDQ9CRF","","null","<img src=""img/flower5.png"" style=""width:200px; border:14px solid green;"">","null","","","","","","","","",""
"","image-keyboard-response","6","104539","0.0-6.0","34J10VATJGKA9F3QJ3N3A2GP1EMIQF","A9LYIVFG3ZU4Z","3BDORL6HKKZHMTYWD6BFF6WBDQ9CRF","","28","img/flower5.png","75","29","2","1","2","1","1,0.333,0.333,0.333,1,0.333,0.333,0.333,1","1,0.333,0.333,0.333,1,0.333,0.333,0.333,1","1",""
"","html-keyboard-response","7","104850","0.0-7.0","34J10VATJGKA9F3QJ3N3A2GP1EMIQF","A9LYIVFG3ZU4Z","3BDORL6HKKZHMTYWD6BFF6WBDQ9CRF","","null","<img src=""img/flower5.png"" style=""width:200px; border:14px solid green;"">","null","","","","","","","","",""
"","image-keyboard-response","8","105028","0.0-8.0","34J10VATJGKA9F3QJ3N3A2GP1EMIQF","A9LYIVFG3ZU4Z","3BDORL6HKKZHMTYWD6BFF6WBDQ9CRF","","177","img/flower4.png","76","178","3","0","1","1","1,0.333,0.333,0.333,1,0.333,0.333,0.333,1","1,0.333,0.333,0.333,1,0.333,0.333,0.333,1","1",""
"","html-keyboard-response","9","105368","0.0-9.0","34J10VATJGKA9F3QJ3N3A2GP1EMIQF","A9LYIVFG3ZU4Z","3BDORL6HKKZHMTYWD6BFF6WBDQ9CRF","","null","<img src=""img/flower4.png"" style=""width:200px;border:14px solid red;"">","null","","","","","","","","",""
"","image-keyboard-response","10","105459","0.0-10.0","34J10VATJGKA9F3QJ3N3A2GP1EMIQF","A9LYIVFG3ZU4Z","3BDORL6HKKZHMTYWD6BFF6WBDQ9CRF","","90","img/flower5.png","74","91","1","0","2","1","1,0.333,0.333,0.333,1,0.333,0.333,0.333,1","1,0.333,0.333,0.333,1,0.333,0.333,0.333,1","1",""
"","html-keyboard-response","11","105760","0.0-11.0","34J10VATJGKA9F3QJ3N3A2GP1EMIQF","A9LYIVFG3ZU4Z","3BDORL6HKKZHMTYWD6BFF6WBDQ9CRF","","null","<img src=""img/flower5.png"" style=""width:200px;border:14px solid red;"">","null","","","","","","","","",""
"","image-keyboard-response","12","105789","0.0-12.0","34J10VATJGKA9F3QJ3N3A2GP1EMIQF","A9LYIVFG3ZU4Z","3BDORL6HKKZHMTYWD6BFF6WBDQ9CRF","","27","img/flower3.png","76","29","3","1","3","1","1,0.333,0.333,0.333,1,0.333,0.333,0.333,1","1,0.333,0.333,0.333,1,0.333,0.333,0.333,1","1",""
"","html-keyboard-response","13","106090","0.0-13.0","34J10VATJGKA9F3QJ3N3A2GP1EMIQF","A9LYIVFG3ZU4Z","3BDORL6HKKZHMTYWD6BFF6WBDQ9CRF","","null","<img src=""img/flower3.png"" style=""width:200px; border:14px solid green;"">","null","","","","","","","","",""
"","image-keyboard-response","14","106165","0.0-14.0","34J10VATJGKA9F3QJ3N3A2GP1EMIQF","A9LYIVFG3ZU4Z","3BDORL6HKKZHMTYWD6BFF6WBDQ9CRF","","73","img/flower5.png","74","75","1","1","2","1","1,0.333,0.333,0.333,1,0.333,0.333,0.333,1","1,0.333,0.333,0.333,1,0.333,0.333,0.333,1","1",""
"","html-keyboard-response","15","106494","0.0-15.0","34J10VATJGKA9F3QJ3N3A2GP1EMIQF","A9LYIVFG3ZU4Z","3BDORL6HKKZHMTYWD6BFF6WBDQ9CRF","","null","<img src=""img/flower5.png"" style=""width:200px; border:14px solid green;"">","null","","","","","","","","",""
"","image-keyboard-response","16","106498","0.0-16.0","34J10VATJGKA9F3QJ3N3A2GP1EMIQF","A9LYIVFG3ZU4Z","3BDORL6HKKZHMTYWD6BFF6WBDQ9CRF","","4","img/flower3.png","74","4","1","0","3","1","1,0.333,0.333,0.333,1,0.333,0.333,0.333,1","1,0.333,0.333,0.333,1,0.333,0.333,0.333,1","1",""
"","html-keyboard-response","17","106800","0.0-17.0","34J10VATJGKA9F3QJ3N3A2GP1EMIQF","A9LYIVFG3ZU4Z","3BDORL6HKKZHMTYWD6BFF6WBDQ9CRF","","null","<img src=""img/flower3.png"" style=""width:200px;border:14px solid red;"">","null","","","","","","","","",""
"","image-keyboard-response","18","106816","0.0-18.0","34J10VATJGKA9F3QJ3N3A2GP1EMIQF","A9LYIVFG3ZU4Z","3BDORL6HKKZHMTYWD6BFF6WBDQ9CRF","","15","img/flower5.png","74","16","1","0","2","1","1,0.333,0.333,0.333,1,0.333,0.333,0.333,1","1,0.333,0.333,0.333,1,0.333,0.333,0.333,1","1",""
"","html-keyboard-response","19","107118","0.0-19.0","34J10VATJGKA9F3QJ3N3A2GP1EMIQF","A9LYIVFG3ZU4Z","3BDORL6HKKZHMTYWD6BFF6WBDQ9CRF","","null","<img src=""img/flower5.png"" style=""width:200px;border:14px solid red;"">","null","","","","","","","","",""
"","image-keyboard-response","20","107129","0.0-20.0","34J10VATJGKA9F3QJ3N3A2GP1EMIQF","A9LYIVFG3ZU4Z","3BDORL6HKKZHMTYWD6BFF6WBDQ9CRF","","10","img/flower4.png","74","11","1","1","1","1","1,0.333,0.333,0.333,1,0.333,0.333,0.333,1","1,0.333,0.333,0.333,1,0.333,0.333,0.333,1","1",""
"","html-keyboard-response","21","107429","0.0-21.0","34J10VATJGKA9F3QJ3N3A2GP1EMIQF","A9LYIVFG3ZU4Z","3BDORL6HKKZHMTYWD6BFF6WBDQ9CRF","","null","<img src=""img/flower4.png"" style=""width:200px; border:14px solid green;"">","null","","","","","","","","",""
"","image-keyboard-response","22","107539","0.0-22.0","34J10VATJGKA9F3QJ3N3A2GP1EMIQF","A9LYIVFG3ZU4Z","3BDORL6HKKZHMTYWD6BFF6WBDQ9CRF","","109","img/flower4.png","75","110","2","1","1","1","1,0.333,0.333,0.333,1,0.333,0.333,0.333,1","1,0.333,0.333,0.333,1,0.333,0.333,0.333,1","1",""
"","html-keyboard-response","23","107841","0.0-23.0","34J10VATJGKA9F3QJ3N3A2GP1EMIQF","A9LYIVFG3ZU4Z","3BDORL6HKKZHMTYWD6BFF6WBDQ9CRF","","null","<img src=""img/flower4.png"" style=""width:200px; border:14px solid green;"">","null","","","","","","","","",""
"","image-keyboard-response","24","107950","0.0-24.0","34J10VATJGKA9F3QJ3N3A2GP1EMIQF","A9LYIVFG3ZU4Z","3BDORL6HKKZHMTYWD6BFF6WBDQ9CRF","","107","img/flower3.png","74","109","1","1","3","1","1,0.333,0.333,0.333,1,0.333,0.333,0.333,1","1,0.333,0.333,0.333,1,0.333,0.333,0.333,1","1",""
"","html-keyboard-response","25","108251","0.0-25.0","34J10VATJGKA9F3QJ3N3A2GP1EMIQF","A9LYIVFG3ZU4Z","3BDORL6HKKZHMTYWD6BFF6WBDQ9CRF","","null","<img src=""img/flower3.png"" style=""width:200px; border:14px solid green;"">","null","","","","","","","","",""
"","image-keyboard-response","26","108349","0.0-26.0","34J10VATJGKA9F3QJ3N3A2GP1EMIQF","A9LYIVFG3ZU4Z","3BDORL6HKKZHMTYWD6BFF6WBDQ9CRF","","97","img/flower4.png","75","98","2","0","1","1","1,0.333,0.333,0.333,1,0.333,0.333,0.333,1","1,0.333,0.333,0.333,1,0.333,0.333,0.333,1","1",""
"","html-keyboard-response","27","108651","0.0-27.0","34J10VATJGKA9F3QJ3N3A2GP1EMIQF","A9LYIVFG3ZU4Z","3BDORL6HKKZHMTYWD6BFF6WBDQ9CRF","","null","<img src=""img/flower4.png"" style=""width:200px;border:14px solid red;"">","null","","","","","","","","",""
"","image-keyboard-response","28","108781","0.0-28.0","34J10VATJGKA9F3QJ3N3A2GP1EMIQF","A9LYIVFG3ZU4Z","3BDORL6HKKZHMTYWD6BFF6WBDQ9CRF","","129","img/flower3.png","75","130","2","0","3","1","1,0.333,0.333,0.333,1,0.333,0.333,0.333,1","1,0.333,0.333,0.333,1,0.333,0.333,0.333,1","1",""
"","html-keyboard-response","29","109083","0.0-29.0","34J10VATJGKA9F3QJ3N3A2GP1EMIQF","A9LYIVFG3ZU4Z","3BDORL6HKKZHMTYWD6BFF6WBDQ9CRF","","null","<img src=""img/flower3.png"" style=""width:200px;border:14px solid red;"">","null","","","","","","","","",""
"","image-keyboard-response","30","109190","0.0-30.0","34J10VATJGKA9F3QJ3N3A2GP1EMIQF","A9LYIVFG3ZU4Z","3BDORL6HKKZHMTYWD6BFF6WBDQ9CRF","","106","img/flower4.png","75","107","2","1","1","1","1,0.333,0.333,0.333,1,0.333,0.333,0.333,1","1,0.333,0.333,0.333,1,0.333,0.333,0.333,1","1",""
"","html-keyboard-response","31","109491","0.0-31.0","34J10VATJGKA9F3QJ3N3A2GP1EMIQF","A9LYIVFG3ZU4Z","3BDORL6HKKZHMTYWD6BFF6WBDQ9CRF","","null","<img src=""img/flower4.png"" style=""width:200px; border:14px solid green;"">","null","","","","","","","","",""
"","image-keyboard-response","32","109619","0.0-32.0","34J10VATJGKA9F3QJ3N3A2GP1EMIQF","A9LYIVFG3ZU4Z","3BDORL6HKKZHMTYWD6BFF6WBDQ9CRF","","128","img/flower5.png","76","128","3","0","2","1","1,0.333,0.333,0.333,1,0.333,0.333,0.333,1","1,0.333,0.333,0.333,1,0.333,0.333,0.333,1","1",""
"","html-keyboard-response","33","109920","0.0-33.0","34J10VATJGKA9F3QJ3N3A2GP1EMIQF","A9LYIVFG3ZU4Z","3BDORL6HKKZHMTYWD6BFF6WBDQ9CRF","","null","<img src=""img/flower5.png"" style=""width:200px;border:14px solid red;"">","null","","","","","","","","",""
"","image-keyboard-response","34","109931","0.0-34.0","34J10VATJGKA9F3QJ3N3A2GP1EMIQF","A9LYIVFG3ZU4Z","3BDORL6HKKZHMTYWD6BFF6WBDQ9CRF","","10","img/flower3.png","75","11","2","0","3","1","1,0.333,0.333,0.333,1,0.333,0.333,0.333,1","1,0.333,0.333,0.333,1,0.333,0.333,0.333,1","1",""
"","html-keyboard-response","35","110232","0.0-35.0","34J10VATJGKA9F3QJ3N3A2GP1EMIQF","A9LYIVFG3ZU4Z","3BDORL6HKKZHMTYWD6BFF6WBDQ9CRF","","null","<img src=""img/flower3.png"" style=""width:200px;border:14px solid red;"">","null","","","","","","","","",""
"","image-keyboard-response","36","110240","0.0-36.0","34J10VATJGKA9F3QJ3N3A2GP1EMIQF","A9LYIVFG3ZU4Z","3BDORL6HKKZHMTYWD6BFF6WBDQ9CRF","","7","img/flower5.png","75","8","2","1","2","1","1,0.333,0.333,0.333,1,0.333,0.333,0.333,1","1,0.333,0.333,0.333,1,0.333,0.333,0.333,1","1",""
"","html-keyboard-response","37","110541","0.0-37.0","34J10VATJGKA9F3QJ3N3A2GP1EMIQF","A9LYIVFG3ZU4Z","3BDORL6HKKZHMTYWD6BFF6WBDQ9CRF","","null","<img src=""img/flower5.png"" style=""width:200px; border:14px solid green;"">","null","","","","","","","","",""
"","image-keyboard-response","38","110587","0.0-38.0","34J10VATJGKA9F3QJ3N3A2GP1EMIQF","A9LYIVFG3ZU4Z","3BDORL6HKKZHMTYWD6BFF6WBDQ9CRF","","44","img/flower5.png","75","46","2","1","2","1","1,0.333,0.333,0.333,1,0.333,0.333,0.333,1","1,0.333,0.333,0.333,1,0.333,0.333,0.333,1","1",""
"","html-keyboard-response","39","110888","0.0-39.0","34J10VATJGKA9F3QJ3N3A2GP1EMIQF","A9LYIVFG3ZU4Z","3BDORL6HKKZHMTYWD6BFF6WBDQ9CRF","","null","<img src=""img/flower5.png"" style=""width:200px; border:14px solid green;"">","null","","","","","","","","",""
"","image-keyboard-response","40","110907","0.0-40.0","34J10VATJGKA9F3QJ3N3A2GP1EMIQF","A9LYIVFG3ZU4Z","3BDORL6HKKZHMTYWD6BFF6WBDQ9CRF","","18","img/flower4.png","75","19","2","1","1","1","1,0.333,0.333,0.333,1,0.333,0.333,0.333,1","1,0.333,0.333,0.333,1,0.333,0.333,0.333,1","1",""
"","html-keyboard-response","41","111209","0.0-41.0","34J10VATJGKA9F3QJ3N3A2GP1EMIQF","A9LYIVFG3ZU4Z","3BDORL6HKKZHMTYWD6BFF6WBDQ9CRF","","null","<img src=""img/flower4.png"" style=""width:200px; border:14px solid green;"">","null","","","","","","","","",""
"","image-keyboard-response","42","111244","0.0-42.0","34J10VATJGKA9F3QJ3N3A2GP1EMIQF","A9LYIVFG3ZU4Z","3BDORL6HKKZHMTYWD6BFF6WBDQ9CRF","","34","img/flower3.png","75","35","2","1","3","1","1,0.333,0.333,0.333,1,0.333,0.333,0.333,1","1,0.333,0.333,0.333,1,0.333,0.333,0.333,1","1",""
"","html-keyboard-response","43","111544","0.0-43.0","34J10VATJGKA9F3QJ3N3A2GP1EMIQF","A9LYIVFG3ZU4Z","3BDORL6HKKZHMTYWD6BFF6WBDQ9CRF","","null","<img src=""img/flower3.png"" style=""width:200px; border:14px solid green;"">","null","","","","","","","","",""
"","image-keyboard-response","44","111662","0.0-44.0","34J10VATJGKA9F3QJ3N3A2GP1EMIQF","A9LYIVFG3ZU4Z","3BDORL6HKKZHMTYWD6BFF6WBDQ9CRF","","118","img/flower3.png","76","118","3","1","3","1","1,0.333,0.333,0.333,1,0.333,0.333,0.333,1","1,0.333,0.333,0.333,1,0.333,0.333,0.333,1","1",""
"","html-keyboard-response","45","111964","0.0-45.0","34J10VATJGKA9F3QJ3N3A2GP1EMIQF","A9LYIVFG3ZU4Z","3BDORL6HKKZHMTYWD6BFF6WBDQ9CRF","","null","<img src=""img/flower3.png"" style=""width:200px; border:14px solid green;"">","null","","","","","","","","",""
"","image-keyboard-response","46","111969","0.0-46.0","34J10VATJGKA9F3QJ3N3A2GP1EMIQF","A9LYIVFG3ZU4Z","3BDORL6HKKZHMTYWD6BFF6WBDQ9CRF","","5","img/flower5.png","76","6","3","0","2","1","1,0.333,0.333,0.333,1,0.333,0.333,0.333,1","1,0.333,0.333,0.333,1,0.333,0.333,0.333,1","1",""
"","html-keyboard-response","47","112271","0.0-47.0","34J10VATJGKA9F3QJ3N3A2GP1EMIQF","A9LYIVFG3ZU4Z","3BDORL6HKKZHMTYWD6BFF6WBDQ9CRF","","null","<img src=""img/flower5.png"" style=""width:200px;border:14px solid red;"">","null","","","","","","","","",""
"","image-keyboard-response","48","112389","0.0-48.0","34J10VATJGKA9F3QJ3N3A2GP1EMIQF","A9LYIVFG3ZU4Z","3BDORL6HKKZHMTYWD6BFF6WBDQ9CRF","","117","img/flower5.png","76","118","3","1","2","1","1,0.333,0.333,0.333,1,0.333,0.333,0.333,1","1,0.333,0.333,0.333,1,0.333,0.333,0.333,1","1",""
"","html-keyboard-response","49","112690","0.0-49.0","34J10VATJGKA9F3QJ3N3A2GP1EMIQF","A9LYIVFG3ZU4Z","3BDORL6HKKZHMTYWD6BFF6WBDQ9CRF","","null","<img src=""img/flower5.png"" style=""width:200px; border:14px solid green;"">","null","","","","","","","","",""
"","image-keyboard-response","50","112840","0.0-50.0","34J10VATJGKA9F3QJ3N3A2GP1EMIQF","A9LYIVFG3ZU4Z","3BDORL6HKKZHMTYWD6BFF6WBDQ9CRF","","150","img/flower4.png","74","150","1","1","1","1","1,0.333,0.333,0.333,1,0.333,0.333,0.333,1","1,0.333,0.333,0.333,1,0.333,0.333,0.333,1","1",""
"","html-keyboard-response","51","113141","0.0-51.0","34J10VATJGKA9F3QJ3N3A2GP1EMIQF","A9LYIVFG3ZU4Z","3BDORL6HKKZHMTYWD6BFF6WBDQ9CRF","","null","<img src=""img/flower4.png"" style=""width:200px; border:14px solid green;"">","null","","","","","","","","",""
"","image-keyboard-response","52","113177","0.0-52.0","34J10VATJGKA9F3QJ3N3A2GP1EMIQF","A9LYIVFG3ZU4Z","3BDORL6HKKZHMTYWD6BFF6WBDQ9CRF","","36","img/flower4.png","76","36","3","1","1","1","1,0.333,0.333,0.333,1,0.333,0.333,0.333,1","1,0.333,0.333,0.333,1,0.333,0.333,0.333,1","1",""
"","html-keyboard-response","53","113481","0.0-53.0","34J10VATJGKA9F3QJ3N3A2GP1EMIQF","A9LYIVFG3ZU4Z","3BDORL6HKKZHMTYWD6BFF6WBDQ9CRF","","null","<img src=""img/flower4.png"" style=""width:200px; border:14px solid green;"">","null","","","","","","","","",""
"","image-keyboard-response","54","113581","0.0-54.0","34J10VATJGKA9F3QJ3N3A2GP1EMIQF","A9LYIVFG3ZU4Z","3BDORL6HKKZHMTYWD6BFF6WBDQ9CRF","","98","img/flower3.png","75","100","2","1","3","1","1,0.333,0.333,0.333,1,0.333,0.333,0.333,1","1,0.333,0.333,0.333,1,0.333,0.333,0.333,1","1",""
"","html-keyboard-response","55","113888","0.0-55.0","34J10VATJGKA9F3QJ3N3A2GP1EMIQF","A9LYIVFG3ZU4Z","3BDORL6HKKZHMTYWD6BFF6WBDQ9CRF","","null","<img src=""img/flower3.png"" style=""width:200px; border:14px solid green;"">","null","","","","","","","","",""
"","image-keyboard-response","56","113903","0.0-56.0","34J10VATJGKA9F3QJ3N3A2GP1EMIQF","A9LYIVFG3ZU4Z","3BDORL6HKKZHMTYWD6BFF6WBDQ9CRF","","14","img/flower4.png","74","16","1","1","1","1","1,0.333,0.333,0.333,1,0.333,0.333,0.333,1","1,0.333,0.333,0.333,1,0.333,0.333,0.333,1","1",""
"","html-keyboard-response","57","114217","0.0-57.0","34J10VATJGKA9F3QJ3N3A2GP1EMIQF","A9LYIVFG3ZU4Z","3BDORL6HKKZHMTYWD6BFF6WBDQ9CRF","","null","<img src=""img/flower4.png"" style=""width:200px; border:14px solid green;"">","null","","","","","","","","",""
"","image-keyboard-response","58","114226","0.0-58.0","34J10VATJGKA9F3QJ3N3A2GP1EMIQF","A9LYIVFG3ZU4Z","3BDORL6HKKZHMTYWD6BFF6WBDQ9CRF","","8","img/flower5.png","74","9","1","1","2","1","1,0.333,0.333,0.333,1,0.333,0.333,0.333,1","1,0.333,0.333,0.333,1,0.333,0.333,0.333,1","1",""
"","html-keyboard-response","59","114526","0.0-59.0","34J10VATJGKA9F3QJ3N3A2GP1EMIQF","A9LYIVFG3ZU4Z","3BDORL6HKKZHMTYWD6BFF6WBDQ9CRF","","null","<img src=""img/flower5.png"" style=""width:200px; border:14px solid green;"">","null","","","","","","","","",""
"","image-keyboard-response","60","114539","0.0-60.0","34J10VATJGKA9F3QJ3N3A2GP1EMIQF","A9LYIVFG3ZU4Z","3BDORL6HKKZHMTYWD6BFF6WBDQ9CRF","","13","img/flower3.png","76","13","3","1","3","1","1,0.333,0.333,0.333,1,0.333,0.333,0.333,1","1,0.333,0.333,0.333,1,0.333,0.333,0.333,1","1",""
"","html-keyboard-response","61","114839","0.0-61.0","34J10VATJGKA9F3QJ3N3A2GP1EMIQF","A9LYIVFG3ZU4Z","3BDORL6HKKZHMTYWD6BFF6WBDQ9CRF","","null","<img src=""img/flower3.png"" style=""width:200px; border:14px solid green;"">","null","","","","","","","","",""
"","image-keyboard-response","62","114840","0.0-62.0","34J10VATJGKA9F3QJ3N3A2GP1EMIQF","A9LYIVFG3ZU4Z","3BDORL6HKKZHMTYWD6BFF6WBDQ9CRF","","0","img/flower4.png","76","1","3","0","1","1","1,0.333,0.333,0.333,1,0.333,0.333,0.333,1","1,0.333,0.333,0.333,1,0.333,0.333,0.333,1","1",""
"","html-keyboard-response","63","115140","0.0-63.0","34J10VATJGKA9F3QJ3N3A2GP1EMIQF","A9LYIVFG3ZU4Z","3BDORL6HKKZHMTYWD6BFF6WBDQ9CRF","","null","<img src=""img/flower4.png"" style=""width:200px;border:14px solid red;"">","null","","","","","","","","",""
"","image-keyboard-response","64","115280","0.0-64.0","34J10VATJGKA9F3QJ3N3A2GP1EMIQF","A9LYIVFG3ZU4Z","3BDORL6HKKZHMTYWD6BFF6WBDQ9CRF","","138","img/flower4.png","75","140","2","1","1","1","1,0.333,0.333,0.333,1,0.333,0.333,0.333,1","1,0.333,0.333,0.333,1,0.333,0.333,0.333,1","1",""
"","html-keyboard-response","65","115581","0.0-65.0","34J10VATJGKA9F3QJ3N3A2GP1EMIQF","A9LYIVFG3ZU4Z","3BDORL6HKKZHMTYWD6BFF6WBDQ9CRF","","null","<img src=""img/flower4.png"" style=""width:200px; border:14px solid green;"">","null","","","","","","","","",""
"","image-keyboard-response","66","115600","0.0-66.0","34J10VATJGKA9F3QJ3N3A2GP1EMIQF","A9LYIVFG3ZU4Z","3BDORL6HKKZHMTYWD6BFF6WBDQ9CRF","","17","img/flower4.png","75","19","2","0","1","1","1,0.333,0.333,0.333,1,0.333,0.333,0.333,1","1,0.333,0.333,0.333,1,0.333,0.333,0.333,1","1",""
"","html-keyboard-response","67","115902","0.0-67.0","34J10VATJGKA9F3QJ3N3A2GP1EMIQF","A9LYIVFG3ZU4Z","3BDORL6HKKZHMTYWD6BFF6WBDQ9CRF","","null","<img src=""img/flower4.png"" style=""width:200px;border:14px solid red;"">","null","","","","","","","","",""
"","image-keyboard-response","68","115920","0.0-68.0","34J10VATJGKA9F3QJ3N3A2GP1EMIQF","A9LYIVFG3ZU4Z","3BDORL6HKKZHMTYWD6BFF6WBDQ9CRF","","18","img/flower5.png","74","18","1","0","2","1","1,0.333,0.333,0.333,1,0.333,0.333,0.333,1","1,0.333,0.333,0.333,1,0.333,0.333,0.333,1","1",""
"","html-keyboard-response","69","116221","0.0-69.0","34J10VATJGKA9F3QJ3N3A2GP1EMIQF","A9LYIVFG3ZU4Z","3BDORL6HKKZHMTYWD6BFF6WBDQ9CRF","","null","<img src=""img/flower5.png"" style=""width:200px;border:14px solid red;"">","null","","","","","","","","",""
"","image-keyboard-response","70","116369","0.0-70.0","34J10VATJGKA9F3QJ3N3A2GP1EMIQF","A9LYIVFG3ZU4Z","3BDORL6HKKZHMTYWD6BFF6WBDQ9CRF","","148","img/flower5.png","76","148","3","0","2","1","1,0.333,0.333,0.333,1,0.333,0.333,0.333,1","1,0.333,0.333,0.333,1,0.333,0.333,0.333,1","1",""
"","html-keyboard-response","71","116672","0.0-71.0","34J10VATJGKA9F3QJ3N3A2GP1EMIQF","A9LYIVFG3ZU4Z","3BDORL6HKKZHMTYWD6BFF6WBDQ9CRF","","null","<img src=""img/flower5.png"" style=""width:200px;border:14px solid red;"">","null","","","","","","","","",""
"","image-keyboard-response","72","116689","0.0-72.0","34J10VATJGKA9F3QJ3N3A2GP1EMIQF","A9LYIVFG3ZU4Z","3BDORL6HKKZHMTYWD6BFF6WBDQ9CRF","","16","img/flower5.png","74","17","1","0","2","1","1,0.333,0.333,0.333,1,0.333,0.333,0.333,1","1,0.333,0.333,0.333,1,0.333,0.333,0.333,1","1",""
"","html-keyboard-response","73","116990","0.0-73.0","34J10VATJGKA9F3QJ3N3A2GP1EMIQF","A9LYIVFG3ZU4Z","3BDORL6HKKZHMTYWD6BFF6WBDQ9CRF","","null","<img src=""img/flower5.png"" style=""width:200px;border:14px solid red;"">","null","","","","","","","","",""
"","image-keyboard-response","74","117019","0.0-74.0","34J10VATJGKA9F3QJ3N3A2GP1EMIQF","A9LYIVFG3ZU4Z","3BDORL6HKKZHMTYWD6BFF6WBDQ9CRF","","28","img/flower4.png","76","29","3","0","1","1","1,0.333,0.333,0.333,1,0.333,0.333,0.333,1","1,0.333,0.333,0.333,1,0.333,0.333,0.333,1","1",""
"","html-keyboard-response","75","117320","0.0-75.0","34J10VATJGKA9F3QJ3N3A2GP1EMIQF","A9LYIVFG3ZU4Z","3BDORL6HKKZHMTYWD6BFF6WBDQ9CRF","","null","<img src=""img/flower4.png"" style=""width:200px;border:14px solid red;"">","null","","","","","","","","",""
"","image-keyboard-response","76","117339","0.0-76.0","34J10VATJGKA9F3QJ3N3A2GP1EMIQF","A9LYIVFG3ZU4Z","3BDORL6HKKZHMTYWD6BFF6WBDQ9CRF","","18","img/flower3.png","76","18","3","1","3","1","1,0.333,0.333,0.333,1,0.333,0.333,0.333,1","1,0.333,0.333,0.333,1,0.333,0.333,0.333,1","1",""
"","html-keyboard-response","77","117641","0.0-77.0","34J10VATJGKA9F3QJ3N3A2GP1EMIQF","A9LYIVFG3ZU4Z","3BDORL6HKKZHMTYWD6BFF6WBDQ9CRF","","null","<img src=""img/flower3.png"" style=""width:200px; border:14px solid green;"">","null","","","","","","","","",""
"","image-keyboard-response","78","117650","0.0-78.0","34J10VATJGKA9F3QJ3N3A2GP1EMIQF","A9LYIVFG3ZU4Z","3BDORL6HKKZHMTYWD6BFF6WBDQ9CRF","","8","img/flower4.png","74","9","1","1","1","1","1,0.333,0.333,0.333,1,0.333,0.333,0.333,1","1,0.333,0.333,0.333,1,0.333,0.333,0.333,1","1",""
"","html-keyboard-response","79","117951","0.0-79.0","34J10VATJGKA9F3QJ3N3A2GP1EMIQF","A9LYIVFG3ZU4Z","3BDORL6HKKZHMTYWD6BFF6WBDQ9CRF","","null","<img src=""img/flower4.png"" style=""width:200px; border:14px solid green;"">","null","","","","","","","","",""
"","image-keyboard-response","80","117958","0.0-80.0","34J10VATJGKA9F3QJ3N3A2GP1EMIQF","A9LYIVFG3ZU4Z","3BDORL6HKKZHMTYWD6BFF6WBDQ9CRF","","7","img/flower4.png","74","7","1","1","1","1","1,0.333,0.333,0.333,1,0.333,0.333,0.333,1","1,0.333,0.333,0.333,1,0.333,0.333,0.333,1","1",""
"","html-keyboard-response","81","118260","0.0-81.0","34J10VATJGKA9F3QJ3N3A2GP1EMIQF","A9LYIVFG3ZU4Z","3BDORL6HKKZHMTYWD6BFF6WBDQ9CRF","","null","<img src=""img/flower4.png"" style=""width:200px; border:14px solid green;"">","null","","","","","","","","",""
"","image-keyboard-response","82","118268","0.0-82.0","34J10VATJGKA9F3QJ3N3A2GP1EMIQF","A9LYIVFG3ZU4Z","3BDORL6HKKZHMTYWD6BFF6WBDQ9CRF","","8","img/flower3.png","74","8","1","0","3","1","1,0.333,0.333,0.333,1,0.333,0.333,0.333,1","1,0.333,0.333,0.333,1,0.333,0.333,0.333,1","1",""
"","html-keyboard-response","83","118569","0.0-83.0","34J10VATJGKA9F3QJ3N3A2GP1EMIQF","A9LYIVFG3ZU4Z","3BDORL6HKKZHMTYWD6BFF6WBDQ9CRF","","null","<img src=""img/flower3.png"" style=""width:200px;border:14px solid red;"">","null","","","","","","","","",""
"","image-keyboard-response","84","118578","0.0-84.0","34J10VATJGKA9F3QJ3N3A2GP1EMIQF","A9LYIVFG3ZU4Z","3BDORL6HKKZHMTYWD6BFF6WBDQ9CRF","","8","img/flower3.png","76","8","3","1","3","1","1,0.333,0.333,0.333,1,0.333,0.333,0.333,1","1,0.333,0.333,0.333,1,0.333,0.333,0.333,1","1",""
"","html-keyboard-response","85","118879","0.0-85.0","34J10VATJGKA9F3QJ3N3A2GP1EMIQF","A9LYIVFG3ZU4Z","3BDORL6HKKZHMTYWD6BFF6WBDQ9CRF","","null","<img src=""img/flower3.png"" style=""width:200px; border:14px solid green;"">","null","","","","","","","","",""
"","image-keyboard-response","86","118889","0.0-86.0","34J10VATJGKA9F3QJ3N3A2GP1EMIQF","A9LYIVFG3ZU4Z","3BDORL6HKKZHMTYWD6BFF6WBDQ9CRF","","9","img/flower4.png","76","10","3","0","1","1","1,0.333,0.333,0.333,1,0.333,0.333,0.333,1","1,0.333,0.333,0.333,1,0.333,0.333,0.333,1","1",""
"","html-keyboard-response","87","119190","0.0-87.0","34J10VATJGKA9F3QJ3N3A2GP1EMIQF","A9LYIVFG3ZU4Z","3BDORL6HKKZHMTYWD6BFF6WBDQ9CRF","","null","<img src=""img/flower4.png"" style=""width:200px;border:14px solid red;"">","null","","","","","","","","",""
"","image-keyboard-response","88","119219","0.0-88.0","34J10VATJGKA9F3QJ3N3A2GP1EMIQF","A9LYIVFG3ZU4Z","3BDORL6HKKZHMTYWD6BFF6WBDQ9CRF","","28","img/flower4.png","76","29","3","0","1","1","1,0.333,0.333,0.333,1,0.333,0.333,0.333,1","1,0.333,0.333,0.333,1,0.333,0.333,0.333,1","1",""
"","html-keyboard-response","89","119520","0.0-89.0","34J10VATJGKA9F3QJ3N3A2GP1EMIQF","A9LYIVFG3ZU4Z","3BDORL6HKKZHMTYWD6BFF6WBDQ9CRF","","null","<img src=""img/flower4.png"" style=""width:200px;border:14px solid red;"">","null","","","","","","","","",""
"","image-keyboard-response","90","119528","0.0-90.0","34J10VATJGKA9F3QJ3N3A2GP1EMIQF","A9LYIVFG3ZU4Z","3BDORL6HKKZHMTYWD6BFF6WBDQ9CRF","","8","img/flower3.png","75","8","2","0","3","1","1,0.333,0.333,0.333,1,0.333,0.333,0.333,1","1,0.333,0.333,0.333,1,0.333,0.333,0.333,1","1",""
"","html-keyboard-response","91","119829","0.0-91.0","34J10VATJGKA9F3QJ3N3A2GP1EMIQF","A9LYIVFG3ZU4Z","3BDORL6HKKZHMTYWD6BFF6WBDQ9CRF","","null","<img src=""img/flower3.png"" style=""width:200px;border:14px solid red;"">","null","","","","","","","","",""
"","image-keyboard-response","92","119838","0.0-92.0","34J10VATJGKA9F3QJ3N3A2GP1EMIQF","A9LYIVFG3ZU4Z","3BDORL6HKKZHMTYWD6BFF6WBDQ9CRF","","9","img/flower5.png","75","9","2","1","2","1","1,0.333,0.333,0.333,1,0.333,0.333,0.333,1","1,0.333,0.333,0.333,1,0.333,0.333,0.333,1","1",""
"","html-keyboard-response","93","120140","0.0-93.0","34J10VATJGKA9F3QJ3N3A2GP1EMIQF","A9LYIVFG3ZU4Z","3BDORL6HKKZHMTYWD6BFF6WBDQ9CRF","","null","<img src=""img/flower5.png"" style=""width:200px; border:14px solid green;"">","null","","","","","","","","",""
"","image-keyboard-response","94","120166","0.0-94.0","34J10VATJGKA9F3QJ3N3A2GP1EMIQF","A9LYIVFG3ZU4Z","3BDORL6HKKZHMTYWD6BFF6WBDQ9CRF","","25","img/flower3.png","74","26","1","0","3","1","1,0.333,0.333,0.333,1,0.333,0.333,0.333,1","1,0.333,0.333,0.333,1,0.333,0.333,0.333,1","1",""
"","html-keyboard-response","95","120467","0.0-95.0","34J10VATJGKA9F3QJ3N3A2GP1EMIQF","A9LYIVFG3ZU4Z","3BDORL6HKKZHMTYWD6BFF6WBDQ9CRF","","null","<img src=""img/flower3.png"" style=""width:200px;border:14px solid red;"">","null","","","","","","","","",""
"","image-keyboard-response","96","120475","0.0-96.0","34J10VATJGKA9F3QJ3N3A2GP1EMIQF","A9LYIVFG3ZU4Z","3BDORL6HKKZHMTYWD6BFF6WBDQ9CRF","","7","img/flower3.png","74","7","1","0","3","1","1,0.333,0.333,0.333,1,0.333,0.333,0.333,1","1,0.333,0.333,0.333,1,0.333,0.333,0.333,1","1",""
"","html-keyboard-response","97","120776","0.0-97.0","34J10VATJGKA9F3QJ3N3A2GP1EMIQF","A9LYIVFG3ZU4Z","3BDORL6HKKZHMTYWD6BFF6WBDQ9CRF","","null","<img src=""img/flower3.png"" style=""width:200px;border:14px solid red;"">","null","","","","","","","","",""
"","image-keyboard-response","98","120799","0.0-98.0","34J10VATJGKA9F3QJ3N3A2GP1EMIQF","A9LYIVFG3ZU4Z","3BDORL6HKKZHMTYWD6BFF6WBDQ9CRF","","23","img/flower3.png","74","23","1","0","3","1","1,0.333,0.333,0.333,1,0.333,0.333,0.333,1","1,0.333,0.333,0.333,1,0.333,0.333,0.333,1","1",""
"","html-keyboard-response","99","121099","0.0-99.0","34J10VATJGKA9F3QJ3N3A2GP1EMIQF","A9LYIVFG3ZU4Z","3BDORL6HKKZHMTYWD6BFF6WBDQ9CRF","","null","<img src=""img/flower3.png"" style=""width:200px;border:14px solid red;"">","null","","","","","","","","",""
"","image-keyboard-response","100","121119","0.0-100.0","34J10VATJGKA9F3QJ3N3A2GP1EMIQF","A9LYIVFG3ZU4Z","3BDORL6HKKZHMTYWD6BFF6WBDQ9CRF","","20","img/flower5.png","75","20","2","1","2","1","1,0.333,0.333,0.333,1,0.333,0.333,0.333,1","1,0.333,0.333,0.333,1,0.333,0.333,0.333,1","1",""
"","html-keyboard-response","101","121422","0.0-101.0","34J10VATJGKA9F3QJ3N3A2GP1EMIQF","A9LYIVFG3ZU4Z","3BDORL6HKKZHMTYWD6BFF6WBDQ9CRF","","null","<img src=""img/flower5.png"" style=""width:200px; border:14px solid green;"">","null","","","","","","","","",""
"","image-keyboard-response","102","121440","0.0-102.0","34J10VATJGKA9F3QJ3N3A2GP1EMIQF","A9LYIVFG3ZU4Z","3BDORL6HKKZHMTYWD6BFF6WBDQ9CRF","","16","img/flower4.png","76","16","3","0","1","1","1,0.333,0.333,0.333,1,0.333,0.333,0.333,1","1,0.333,0.333,0.333,1,0.333,0.333,0.333,1","1",""
"","html-keyboard-response","103","121742","0.0-103.0","34J10VATJGKA9F3QJ3N3A2GP1EMIQF","A9LYIVFG3ZU4Z","3BDORL6HKKZHMTYWD6BFF6WBDQ9CRF","","null","<img src=""img/flower4.png"" style=""width:200px;border:14px solid red;"">","null","","","","","","","","",""
"","image-keyboard-response","104","121786","0.0-104.0","34J10VATJGKA9F3QJ3N3A2GP1EMIQF","A9LYIVFG3ZU4Z","3BDORL6HKKZHMTYWD6BFF6WBDQ9CRF","","44","img/flower3.png","76","44","3","1","3","1","1,0.333,0.333,0.333,1,0.333,0.333,0.333,1","1,0.333,0.333,0.333,1,0.333,0.333,0.333,1","1",""
"","html-keyboard-response","105","122087","0.0-105.0","34J10VATJGKA9F3QJ3N3A2GP1EMIQF","A9LYIVFG3ZU4Z","3BDORL6HKKZHMTYWD6BFF6WBDQ9CRF","","null","<img src=""img/flower3.png"" style=""width:200px; border:14px solid green;"">","null","","","","","","","","",""
"","image-keyboard-response","106","122123","0.0-106.0","34J10VATJGKA9F3QJ3N3A2GP1EMIQF","A9LYIVFG3ZU4Z","3BDORL6HKKZHMTYWD6BFF6WBDQ9CRF","","35","img/flower5.png","76","36","3","0","2","1","1,0.333,0.333,0.333,1,0.333,0.333,0.333,1","1,0.333,0.333,0.333,1,0.333,0.333,0.333,1","1",""
"","html-keyboard-response","107","122425","0.0-107.0","34J10VATJGKA9F3QJ3N3A2GP1EMIQF","A9LYIVFG3ZU4Z","3BDORL6HKKZHMTYWD6BFF6WBDQ9CRF","","null","<img src=""img/flower5.png"" style=""width:200px;border:14px solid red;"">","null","","","","","","","","",""
"","image-keyboard-response","108","122426","0.0-108.0","34J10VATJGKA9F3QJ3N3A2GP1EMIQF","A9LYIVFG3ZU4Z","3BDORL6HKKZHMTYWD6BFF6WBDQ9CRF","","0","img/flower3.png","75","1","2","0","3","1","1,0.333,0.333,0.333,1,0.333,0.333,0.333,1","1,0.333,0.333,0.333,1,0.333,0.333,0.333,1","1",""
"","html-keyboard-response","109","122727","0.0-109.0","34J10VATJGKA9F3QJ3N3A2GP1EMIQF","A9LYIVFG3ZU4Z","3BDORL6HKKZHMTYWD6BFF6WBDQ9CRF","","null","<img src=""img/flower3.png"" style=""width:200px;border:14px solid red;"">","null","","","","","","","","",""
"","image-keyboard-response","110","122800","0.0-110.0","34J10VATJGKA9F3QJ3N3A2GP1EMIQF","A9LYIVFG3ZU4Z","3BDORL6HKKZHMTYWD6BFF6WBDQ9CRF","","72","img/flower3.png","76","73","3","1","3","1","1,0.333,0.333,0.333,1,0.333,0.333,0.333,1","1,0.333,0.333,0.333,1,0.333,0.333,0.333,1","1",""
"","html-keyboard-response","111","123102","0.0-111.0","34J10VATJGKA9F3QJ3N3A2GP1EMIQF","A9LYIVFG3ZU4Z","3BDORL6HKKZHMTYWD6BFF6WBDQ9CRF","","null","<img src=""img/flower3.png"" style=""width:200px; border:14px solid green;"">","null","","","","","","","","",""
"","image-keyboard-response","112","123149","0.0-112.0","34J10VATJGKA9F3QJ3N3A2GP1EMIQF","A9LYIVFG3ZU4Z","3BDORL6HKKZHMTYWD6BFF6WBDQ9CRF","","46","img/flower3.png","75","47","2","0","3","1","1,0.333,0.333,0.333,1,0.333,0.333,0.333,1","1,0.333,0.333,0.333,1,0.333,0.333,0.333,1","1",""
"","html-keyboard-response","113","123449","0.0-113.0","34J10VATJGKA9F3QJ3N3A2GP1EMIQF","A9LYIVFG3ZU4Z","3BDORL6HKKZHMTYWD6BFF6WBDQ9CRF","","null","<img src=""img/flower3.png"" style=""width:200px;border:14px solid red;"">","null","","","","","","","","",""
"","image-keyboard-response","114","123539","0.0-114.0","34J10VATJGKA9F3QJ3N3A2GP1EMIQF","A9LYIVFG3ZU4Z","3BDORL6HKKZHMTYWD6BFF6WBDQ9CRF","","89","img/flower5.png","76","90","3","1","2","1","1,0.333,0.333,0.333,1,0.333,0.333,0.333,1","1,0.333,0.333,0.333,1,0.333,0.333,0.333,1","1",""
"","html-keyboard-response","115","123841","0.0-115.0","34J10VATJGKA9F3QJ3N3A2GP1EMIQF","A9LYIVFG3ZU4Z","3BDORL6HKKZHMTYWD6BFF6WBDQ9CRF","","null","<img src=""img/flower5.png"" style=""width:200px; border:14px solid green;"">","null","","","","","","","","",""
"","image-keyboard-response","116","123889","0.0-116.0","34J10VATJGKA9F3QJ3N3A2GP1EMIQF","A9LYIVFG3ZU4Z","3BDORL6HKKZHMTYWD6BFF6WBDQ9CRF","","48","img/flower4.png","75","48","2","1","1","1","1,0.333,0.333,0.333,1,0.333,0.333,0.333,1","1,0.333,0.333,0.333,1,0.333,0.333,0.333,1","1",""
"","html-keyboard-response","117","124191","0.0-117.0","34J10VATJGKA9F3QJ3N3A2GP1EMIQF","A9LYIVFG3ZU4Z","3BDORL6HKKZHMTYWD6BFF6WBDQ9CRF","","null","<img src=""img/flower4.png"" style=""width:200px; border:14px solid green;"">","null","","","","","","","","",""
"","image-keyboard-response","118","124229","0.0-118.0","34J10VATJGKA9F3QJ3N3A2GP1EMIQF","A9LYIVFG3ZU4Z","3BDORL6HKKZHMTYWD6BFF6WBDQ9CRF","","36","img/flower3.png","75","38","2","1","3","1","1,0.333,0.333,0.333,1,0.333,0.333,0.333,1","1,0.333,0.333,0.333,1,0.333,0.333,0.333,1","1",""
"","html-keyboard-response","119","124556","0.0-119.0","34J10VATJGKA9F3QJ3N3A2GP1EMIQF","A9LYIVFG3ZU4Z","3BDORL6HKKZHMTYWD6BFF6WBDQ9CRF","","null","<img src=""img/flower3.png"" style=""width:200px; border:14px solid green;"">","null","","","","","","","","",""
"","image-keyboard-response","120","124586","0.0-120.0","34J10VATJGKA9F3QJ3N3A2GP1EMIQF","A9LYIVFG3ZU4Z","3BDORL6HKKZHMTYWD6BFF6WBDQ9CRF","","30","img/flower5.png","75","30","2","1","2","1","1,0.333,0.333,0.333,1,0.333,0.333,0.333,1","1,0.333,0.333,0.333,1,0.333,0.333,0.333,1","1",""
"","html-keyboard-response","121","124887","0.0-121.0","34J10VATJGKA9F3QJ3N3A2GP1EMIQF","A9LYIVFG3ZU4Z","3BDORL6HKKZHMTYWD6BFF6WBDQ9CRF","","null","<img src=""img/flower5.png"" style=""width:200px; border:14px solid green;"">","null","","","","","","","","",""
"","image-keyboard-response","122","124919","0.0-122.0","34J10VATJGKA9F3QJ3N3A2GP1EMIQF","A9LYIVFG3ZU4Z","3BDORL6HKKZHMTYWD6BFF6WBDQ9CRF","","31","img/flower4.png","75","32","2","0","1","1","1,0.333,0.333,0.333,1,0.333,0.333,0.333,1","1,0.333,0.333,0.333,1,0.333,0.333,0.333,1","1",""
"","html-keyboard-response","123","125219","0.0-123.0","34J10VATJGKA9F3QJ3N3A2GP1EMIQF","A9LYIVFG3ZU4Z","3BDORL6HKKZHMTYWD6BFF6WBDQ9CRF","","null","<img src=""img/flower4.png"" style=""width:200px;border:14px solid red;"">","null","","","","","","","","",""
"","image-keyboard-response","124","125250","0.0-124.0","34J10VATJGKA9F3QJ3N3A2GP1EMIQF","A9LYIVFG3ZU4Z","3BDORL6HKKZHMTYWD6BFF6WBDQ9CRF","","30","img/flower3.png","75","31","2","0","3","1","1,0.333,0.333,0.333,1,0.333,0.333,0.333,1","1,0.333,0.333,0.333,1,0.333,0.333,0.333,1","1",""
"","html-keyboard-response","125","125553","0.0-125.0","34J10VATJGKA9F3QJ3N3A2GP1EMIQF","A9LYIVFG3ZU4Z","3BDORL6HKKZHMTYWD6BFF6WBDQ9CRF","","null","<img src=""img/flower3.png"" style=""width:200px;border:14px solid red;"">","null","","","","","","","","",""
"","image-keyboard-response","126","125597","0.0-126.0","34J10VATJGKA9F3QJ3N3A2GP1EMIQF","A9LYIVFG3ZU4Z","3BDORL6HKKZHMTYWD6BFF6WBDQ9CRF","","43","img/flower5.png","76","44","3","1","2","1","1,0.333,0.333,0.333,1,0.333,0.333,0.333,1","1,0.333,0.333,0.333,1,0.333,0.333,0.333,1","1",""
"","html-keyboard-response","127","125898","0.0-127.0","34J10VATJGKA9F3QJ3N3A2GP1EMIQF","A9LYIVFG3ZU4Z","3BDORL6HKKZHMTYWD6BFF6WBDQ9CRF","","null","<img src=""img/flower5.png"" style=""width:200px; border:14px solid green;"">","null","","","","","","","","",""
"","image-keyboard-response","128","125940","0.0-128.0","34J10VATJGKA9F3QJ3N3A2GP1EMIQF","A9LYIVFG3ZU4Z","3BDORL6HKKZHMTYWD6BFF6WBDQ9CRF","","41","img/flower3.png","76","42","3","1","3","1","1,0.333,0.333,0.333,1,0.333,0.333,0.333,1","1,0.333,0.333,0.333,1,0.333,0.333,0.333,1","1",""
"","html-keyboard-response","129","126240","0.0-129.0","34J10VATJGKA9F3QJ3N3A2GP1EMIQF","A9LYIVFG3ZU4Z","3BDORL6HKKZHMTYWD6BFF6WBDQ9CRF","","null","<img src=""img/flower3.png"" style=""width:200px; border:14px solid green;"">","null","","","","","","","","",""
"","image-keyboard-response","130","126301","0.0-130.0","34J10VATJGKA9F3QJ3N3A2GP1EMIQF","A9LYIVFG3ZU4Z","3BDORL6HKKZHMTYWD6BFF6WBDQ9CRF","","59","img/flower3.png","76","61","3","1","3","1","1,0.333,0.333,0.333,1,0.333,0.333,0.333,1","1,0.333,0.333,0.333,1,0.333,0.333,0.333,1","1",""
"","html-keyboard-response","131","126602","0.0-131.0","34J10VATJGKA9F3QJ3N3A2GP1EMIQF","A9LYIVFG3ZU4Z","3BDORL6HKKZHMTYWD6BFF6WBDQ9CRF","","null","<img src=""img/flower3.png"" style=""width:200px; border:14px solid green;"">","null","","","","","","","","",""
"","image-keyboard-response","132","126639","0.0-132.0","34J10VATJGKA9F3QJ3N3A2GP1EMIQF","A9LYIVFG3ZU4Z","3BDORL6HKKZHMTYWD6BFF6WBDQ9CRF","","37","img/flower3.png","76","37","3","1","3","1","1,0.333,0.333,0.333,1,0.333,0.333,0.333,1","1,0.333,0.333,0.333,1,0.333,0.333,0.333,1","1",""
"","html-keyboard-response","133","126941","0.0-133.0","34J10VATJGKA9F3QJ3N3A2GP1EMIQF","A9LYIVFG3ZU4Z","3BDORL6HKKZHMTYWD6BFF6WBDQ9CRF","","null","<img src=""img/flower3.png"" style=""width:200px; border:14px solid green;"">","null","","","","","","","","",""
"","image-keyboard-response","134","126980","0.0-134.0","34J10VATJGKA9F3QJ3N3A2GP1EMIQF","A9LYIVFG3ZU4Z","3BDORL6HKKZHMTYWD6BFF6WBDQ9CRF","","39","img/flower4.png","76","39","3","0","1","1","1,0.333,0.333,0.333,1,0.333,0.333,0.333,1","1,0.333,0.333,0.333,1,0.333,0.333,0.333,1","1",""
"","html-keyboard-response","135","127281","0.0-135.0","34J10VATJGKA9F3QJ3N3A2GP1EMIQF","A9LYIVFG3ZU4Z","3BDORL6HKKZHMTYWD6BFF6WBDQ9CRF","","null","<img src=""img/flower4.png"" style=""width:200px;border:14px solid red;"">","null","","","","","","","","",""
"","image-keyboard-response","136","127339","0.0-136.0","34J10VATJGKA9F3QJ3N3A2GP1EMIQF","A9LYIVFG3ZU4Z","3BDORL6HKKZHMTYWD6BFF6WBDQ9CRF","","57","img/flower5.png","75","58","2","1","2","1","1,0.333,0.333,0.333,1,0.333,0.333,0.333,1","1,0.333,0.333,0.333,1,0.333,0.333,0.333,1","1",""
"","html-keyboard-response","137","127641","0.0-137.0","34J10VATJGKA9F3QJ3N3A2GP1EMIQF","A9LYIVFG3ZU4Z","3BDORL6HKKZHMTYWD6BFF6WBDQ9CRF","","null","<img src=""img/flower5.png"" style=""width:200px; border:14px solid green;"">","null","","","","","","","","",""
"","image-keyboard-response","138","127679","0.0-138.0","34J10VATJGKA9F3QJ3N3A2GP1EMIQF","A9LYIVFG3ZU4Z","3BDORL6HKKZHMTYWD6BFF6WBDQ9CRF","","37","img/flower4.png","76","38","3","1","1","1","1,0.333,0.333,0.333,1,0.333,0.333,0.333,1","1,0.333,0.333,0.333,1,0.333,0.333,0.333,1","1",""
"","html-keyboard-response","139","127980","0.0-139.0","34J10VATJGKA9F3QJ3N3A2GP1EMIQF","A9LYIVFG3ZU4Z","3BDORL6HKKZHMTYWD6BFF6WBDQ9CRF","","null","<img src=""img/flower4.png"" style=""width:200px; border:14px solid green;"">","null","","","","","","","","",""
"","image-keyboard-response","140","128018","0.0-140.0","34J10VATJGKA9F3QJ3N3A2GP1EMIQF","A9LYIVFG3ZU4Z","3BDORL6HKKZHMTYWD6BFF6WBDQ9CRF","","38","img/flower4.png","76","38","3","1","1","1","1,0.333,0.333,0.333,1,0.333,0.333,0.333,1","1,0.333,0.333,0.333,1,0.333,0.333,0.333,1","1",""
"","html-keyboard-response","141","128320","0.0-141.0","34J10VATJGKA9F3QJ3N3A2GP1EMIQF","A9LYIVFG3ZU4Z","3BDORL6HKKZHMTYWD6BFF6WBDQ9CRF","","null","<img src=""img/flower4.png"" style=""width:200px; border:14px solid green;"">","null","","","","","","","","",""
"","image-keyboard-response","142","128361","0.0-142.0","34J10VATJGKA9F3QJ3N3A2GP1EMIQF","A9LYIVFG3ZU4Z","3BDORL6HKKZHMTYWD6BFF6WBDQ9CRF","","40","img/flower5.png","76","41","3","0","2","1","1,0.333,0.333,0.333,1,0.333,0.333,0.333,1","1,0.333,0.333,0.333,1,0.333,0.333,0.333,1","1",""
"","html-keyboard-response","143","128663","0.0-143.0","34J10VATJGKA9F3QJ3N3A2GP1EMIQF","A9LYIVFG3ZU4Z","3BDORL6HKKZHMTYWD6BFF6WBDQ9CRF","","null","<img src=""img/flower5.png"" style=""width:200px;border:14px solid red;"">","null","","","","","","","","",""
"","image-keyboard-response","144","128739","0.0-144.0","34J10VATJGKA9F3QJ3N3A2GP1EMIQF","A9LYIVFG3ZU4Z","3BDORL6HKKZHMTYWD6BFF6WBDQ9CRF","","75","img/flower4.png","76","76","3","0","1","1","1,0.333,0.333,0.333,1,0.333,0.333,0.333,1","1,0.333,0.333,0.333,1,0.333,0.333,0.333,1","1",""
"","html-keyboard-response","145","129041","0.0-145.0","34J10VATJGKA9F3QJ3N3A2GP1EMIQF","A9LYIVFG3ZU4Z","3BDORL6HKKZHMTYWD6BFF6WBDQ9CRF","","null","<img src=""img/flower4.png"" style=""width:200px;border:14px solid red;"">","null","","","","","","","","",""
"","image-keyboard-response","146","129119","0.0-146.0","34J10VATJGKA9F3QJ3N3A2GP1EMIQF","A9LYIVFG3ZU4Z","3BDORL6HKKZHMTYWD6BFF6WBDQ9CRF","","77","img/flower4.png","76","78","3","0","1","1","1,0.333,0.333,0.333,1,0.333,0.333,0.333,1","1,0.333,0.333,0.333,1,0.333,0.333,0.333,1","1",""
"","html-keyboard-response","147","129419","0.0-147.0","34J10VATJGKA9F3QJ3N3A2GP1EMIQF","A9LYIVFG3ZU4Z","3BDORL6HKKZHMTYWD6BFF6WBDQ9CRF","","null","<img src=""img/flower4.png"" style=""width:200px;border:14px solid red;"">","null","","","","","","","","",""
"","image-keyboard-response","148","129479","0.0-148.0","34J10VATJGKA9F3QJ3N3A2GP1EMIQF","A9LYIVFG3ZU4Z","3BDORL6HKKZHMTYWD6BFF6WBDQ9CRF","","59","img/flower5.png","76","60","3","0","2","1","1,0.333,0.333,0.333,1,0.333,0.333,0.333,1","1,0.333,0.333,0.333,1,0.333,0.333,0.333,1","1",""
"","html-keyboard-response","149","129779","0.0-149.0","34J10VATJGKA9F3QJ3N3A2GP1EMIQF","A9LYIVFG3ZU4Z","3BDORL6HKKZHMTYWD6BFF6WBDQ9CRF","","null","<img src=""img/flower5.png"" style=""width:200px;border:14px solid red;"">","null","","","","","","","","",""
"","image-keyboard-response","150","129848","0.0-150.0","34J10VATJGKA9F3QJ3N3A2GP1EMIQF","A9LYIVFG3ZU4Z","3BDORL6HKKZHMTYWD6BFF6WBDQ9CRF","","68","img/flower5.png","76","69","3","0","2","1","1,0.333,0.333,0.333,1,0.333,0.333,0.333,1","1,0.333,0.333,0.333,1,0.333,0.333,0.333,1","1",""
"","html-keyboard-response","151","130150","0.0-151.0","34J10VATJGKA9F3QJ3N3A2GP1EMIQF","A9LYIVFG3ZU4Z","3BDORL6HKKZHMTYWD6BFF6WBDQ9CRF","","null","<img src=""img/flower5.png"" style=""width:200px;border:14px solid red;"">","null","","","","","","","","",""
"","image-keyboard-response","152","130212","0.0-152.0","34J10VATJGKA9F3QJ3N3A2GP1EMIQF","A9LYIVFG3ZU4Z","3BDORL6HKKZHMTYWD6BFF6WBDQ9CRF","","61","img/flower5.png","76","62","3","0","2","1","1,0.333,0.333,0.333,1,0.333,0.333,0.333,1","1,0.333,0.333,0.333,1,0.333,0.333,0.333,1","1",""
"","html-keyboard-response","153","130514","0.0-153.0","34J10VATJGKA9F3QJ3N3A2GP1EMIQF","A9LYIVFG3ZU4Z","3BDORL6HKKZHMTYWD6BFF6WBDQ9CRF","","null","<img src=""img/flower5.png"" style=""width:200px;border:14px solid red;"">","null","","","","","","","","",""
"","image-keyboard-response","154","130568","0.0-154.0","34J10VATJGKA9F3QJ3N3A2GP1EMIQF","A9LYIVFG3ZU4Z","3BDORL6HKKZHMTYWD6BFF6WBDQ9CRF","","53","img/flower5.png","76","54","3","0","2","1","1,0.333,0.333,0.333,1,0.333,0.333,0.333,1","1,0.333,0.333,0.333,1,0.333,0.333,0.333,1","1",""
"","html-keyboard-response","155","130870","0.0-155.0","34J10VATJGKA9F3QJ3N3A2GP1EMIQF","A9LYIVFG3ZU4Z","3BDORL6HKKZHMTYWD6BFF6WBDQ9CRF","","null","<img src=""img/flower5.png"" style=""width:200px;border:14px solid red;"">","null","","","","","","","","",""
"","image-keyboard-response","156","130951","0.0-156.0","34J10VATJGKA9F3QJ3N3A2GP1EMIQF","A9LYIVFG3ZU4Z","3BDORL6HKKZHMTYWD6BFF6WBDQ9CRF","","80","img/flower4.png","76","81","3","1","1","1","1,0.333,0.333,0.333,1,0.333,0.333,0.333,1","1,0.333,0.333,0.333,1,0.333,0.333,0.333,1","1",""
"","html-keyboard-response","157","131341","0.0-157.0","34J10VATJGKA9F3QJ3N3A2GP1EMIQF","A9LYIVFG3ZU4Z","3BDORL6HKKZHMTYWD6BFF6WBDQ9CRF","","null","<img src=""img/flower4.png"" style=""width:200px; border:14px solid green;"">","null","","","","","","","","",""
"","image-keyboard-response","158","131449","0.0-158.0","34J10VATJGKA9F3QJ3N3A2GP1EMIQF","A9LYIVFG3ZU4Z","3BDORL6HKKZHMTYWD6BFF6WBDQ9CRF","","108","img/flower5.png","74","108","1","0","2","1","1,0.333,0.333,0.333,1,0.333,0.333,0.333,1","1,0.333,0.333,0.333,1,0.333,0.333,0.333,1","1",""
"","html-keyboard-response","159","131749","0.0-159.0","34J10VATJGKA9F3QJ3N3A2GP1EMIQF","A9LYIVFG3ZU4Z","3BDORL6HKKZHMTYWD6BFF6WBDQ9CRF","","null","<img src=""img/flower5.png"" style=""width:200px;border:14px solid red;"">","null","","","","","","","","",""
"","image-keyboard-response","160","131761","0.0-160.0","34J10VATJGKA9F3QJ3N3A2GP1EMIQF","A9LYIVFG3ZU4Z","3BDORL6HKKZHMTYWD6BFF6WBDQ9CRF","","10","img/flower4.png","76","12","3","0","1","1","1,0.333,0.333,0.333,1,0.333,0.333,0.333,1","1,0.333,0.333,0.333,1,0.333,0.333,0.333,1","1",""
"","html-keyboard-response","161","132064","0.0-161.0","34J10VATJGKA9F3QJ3N3A2GP1EMIQF","A9LYIVFG3ZU4Z","3BDORL6HKKZHMTYWD6BFF6WBDQ9CRF","","null","<img src=""img/flower4.png"" style=""width:200px;border:14px solid red;"">","null","","","","","","","","",""
"","image-keyboard-response","162","132104","0.0-162.0","34J10VATJGKA9F3QJ3N3A2GP1EMIQF","A9LYIVFG3ZU4Z","3BDORL6HKKZHMTYWD6BFF6WBDQ9CRF","","36","img/flower5.png","74","39","1","0","2","1","1,0.333,0.333,0.333,1,0.333,0.333,0.333,1","1,0.333,0.333,0.333,1,0.333,0.333,0.333,1","1",""
"","html-keyboard-response","163","132405","0.0-163.0","34J10VATJGKA9F3QJ3N3A2GP1EMIQF","A9LYIVFG3ZU4Z","3BDORL6HKKZHMTYWD6BFF6WBDQ9CRF","","null","<img src=""img/flower5.png"" style=""width:200px;border:14px solid red;"">","null","","","","","","","","",""
"","image-keyboard-response","164","132459","0.0-164.0","34J10VATJGKA9F3QJ3N3A2GP1EMIQF","A9LYIVFG3ZU4Z","3BDORL6HKKZHMTYWD6BFF6WBDQ9CRF","","54","img/flower4.png","75","54","2","1","1","1","1,0.333,0.333,0.333,1,0.333,0.333,0.333,1","1,0.333,0.333,0.333,1,0.333,0.333,0.333,1","1",""
"","html-keyboard-response","165","132761","0.0-165.0","34J10VATJGKA9F3QJ3N3A2GP1EMIQF","A9LYIVFG3ZU4Z","3BDORL6HKKZHMTYWD6BFF6WBDQ9CRF","","null","<img src=""img/flower4.png"" style=""width:200px; border:14px solid green;"">","null","","","","","","","","",""
"","image-keyboard-response","166","132828","0.0-166.0","34J10VATJGKA9F3QJ3N3A2GP1EMIQF","A9LYIVFG3ZU4Z","3BDORL6HKKZHMTYWD6BFF6WBDQ9CRF","","67","img/flower3.png","76","68","3","1","3","1","1,0.333,0.333,0.333,1,0.333,0.333,0.333,1","1,0.333,0.333,0.333,1,0.333,0.333,0.333,1","1",""
"","html-keyboard-response","167","133130","0.0-167.0","34J10VATJGKA9F3QJ3N3A2GP1EMIQF","A9LYIVFG3ZU4Z","3BDORL6HKKZHMTYWD6BFF6WBDQ9CRF","","null","<img src=""img/flower3.png"" style=""width:200px; border:14px solid green;"">","null","","","","","","","","",""
"","image-keyboard-response","168","133158","0.0-168.0","34J10VATJGKA9F3QJ3N3A2GP1EMIQF","A9LYIVFG3ZU4Z","3BDORL6HKKZHMTYWD6BFF6WBDQ9CRF","","28","img/flower4.png","75","28","2","1","1","1","1,0.333,0.333,0.333,1,0.333,0.333,0.333,1","1,0.333,0.333,0.333,1,0.333,0.333,0.333,1","1",""
"","html-keyboard-response","169","133496","0.0-169.0","34J10VATJGKA9F3QJ3N3A2GP1EMIQF","A9LYIVFG3ZU4Z","3BDORL6HKKZHMTYWD6BFF6WBDQ9CRF","","null","<img src=""img/flower4.png"" style=""width:200px; border:14px solid green;"">","null","","","","","","","","",""
"","image-keyboard-response","170","133619","0.0-170.0","34J10VATJGKA9F3QJ3N3A2GP1EMIQF","A9LYIVFG3ZU4Z","3BDORL6HKKZHMTYWD6BFF6WBDQ9CRF","","121","img/flower3.png","76","123","3","1","3","1","1,0.333,0.333,0.333,1,0.333,0.333,0.333,1","1,0.333,0.333,0.333,1,0.333,0.333,0.333,1","1",""
"","html-keyboard-response","171","133921","0.0-171.0","34J10VATJGKA9F3QJ3N3A2GP1EMIQF","A9LYIVFG3ZU4Z","3BDORL6HKKZHMTYWD6BFF6WBDQ9CRF","","null","<img src=""img/flower3.png"" style=""width:200px; border:14px solid green;"">","null","","","","","","","","",""
"","image-keyboard-response","172","134349","0.0-172.0","34J10VATJGKA9F3QJ3N3A2GP1EMIQF","A9LYIVFG3ZU4Z","3BDORL6HKKZHMTYWD6BFF6WBDQ9CRF","","427","img/flower4.png","76","428","3","0","1","1","1,0.333,0.333,0.333,1,0.333,0.333,0.333,1","1,0.333,0.333,0.333,1,0.333,0.333,0.333,1","1",""
"","html-keyboard-response","173","134651","0.0-173.0","34J10VATJGKA9F3QJ3N3A2GP1EMIQF","A9LYIVFG3ZU4Z","3BDORL6HKKZHMTYWD6BFF6WBDQ9CRF","","null","<img src=""img/flower4.png"" style=""width:200px;border:14px solid red;"">","null","","","","","","","","",""
"","image-keyboard-response","174","134659","0.0-174.0","34J10VATJGKA9F3QJ3N3A2GP1EMIQF","A9LYIVFG3ZU4Z","3BDORL6HKKZHMTYWD6BFF6WBDQ9CRF","","8","img/flower3.png","76","8","3","1","3","1","1,0.333,0.333,0.333,1,0.333,0.333,0.333,1","1,0.333,0.333,0.333,1,0.333,0.333,0.333,1","1",""
"","html-keyboard-response","175","134959","0.0-175.0","34J10VATJGKA9F3QJ3N3A2GP1EMIQF","A9LYIVFG3ZU4Z","3BDORL6HKKZHMTYWD6BFF6WBDQ9CRF","","null","<img src=""img/flower3.png"" style=""width:200px; border:14px solid green;"">","null","","","","","","","","",""
"","image-keyboard-response","176","134978","0.0-176.0","34J10VATJGKA9F3QJ3N3A2GP1EMIQF","A9LYIVFG3ZU4Z","3BDORL6HKKZHMTYWD6BFF6WBDQ9CRF","","19","img/flower3.png","74","19","1","1","3","1","1,0.333,0.333,0.333,1,0.333,0.333,0.333,1","1,0.333,0.333,0.333,1,0.333,0.333,0.333,1","1",""
"","html-keyboard-response","177","135279","0.0-177.0","34J10VATJGKA9F3QJ3N3A2GP1EMIQF","A9LYIVFG3ZU4Z","3BDORL6HKKZHMTYWD6BFF6WBDQ9CRF","","null","<img src=""img/flower3.png"" style=""width:200px; border:14px solid green;"">","null","","","","","","","","",""
"","image-keyboard-response","178","135358","0.0-178.0","34J10VATJGKA9F3QJ3N3A2GP1EMIQF","A9LYIVFG3ZU4Z","3BDORL6HKKZHMTYWD6BFF6WBDQ9CRF","","78","img/flower3.png","74","79","1","0","3","1","1,0.333,0.333,0.333,1,0.333,0.333,0.333,1","1,0.333,0.333,0.333,1,0.333,0.333,0.333,1","1",""
"","html-keyboard-response","179","135659","0.0-179.0","34J10VATJGKA9F3QJ3N3A2GP1EMIQF","A9LYIVFG3ZU4Z","3BDORL6HKKZHMTYWD6BFF6WBDQ9CRF","","null","<img src=""img/flower3.png"" style=""width:200px;border:14px solid red;"">","null","","","","","","","","",""
"","image-keyboard-response","180","135749","0.0-180.0","34J10VATJGKA9F3QJ3N3A2GP1EMIQF","A9LYIVFG3ZU4Z","3BDORL6HKKZHMTYWD6BFF6WBDQ9CRF","","89","img/flower5.png","76","90","3","0","2","1","1,0.333,0.333,0.333,1,0.333,0.333,0.333,1","1,0.333,0.333,0.333,1,0.333,0.333,0.333,1","1",""
"","html-keyboard-response","181","136051","0.0-181.0","34J10VATJGKA9F3QJ3N3A2GP1EMIQF","A9LYIVFG3ZU4Z","3BDORL6HKKZHMTYWD6BFF6WBDQ9CRF","","null","<img src=""img/flower5.png"" style=""width:200px;border:14px solid red;"">","null","","","","","","","","",""
"","html-keyboard-response","182","138618","0.0-182.0","34J10VATJGKA9F3QJ3N3A2GP1EMIQF","A9LYIVFG3ZU4Z","3BDORL6HKKZHMTYWD6BFF6WBDQ9CRF","","","","","","","","","","","","",""
"","image-keyboard-response","183","139620","0.0-183.0","34J10VATJGKA9F3QJ3N3A2GP1EMIQF","A9LYIVFG3ZU4Z","3BDORL6HKKZHMTYWD6BFF6WBDQ9CRF","","1001","img/flower2.png","74","1002","1","0","1","2","1,0,0,1,1,0,1,0,1","0,1,0,0,1,1,1,1,0","3",""
"","html-keyboard-response","184","139922","0.0-184.0","34J10VATJGKA9F3QJ3N3A2GP1EMIQF","A9LYIVFG3ZU4Z","3BDORL6HKKZHMTYWD6BFF6WBDQ9CRF","","null","<img src=""img/flower2.png"" style=""width:200px;border:14px solid red;"">","null","","","","","","","","",""
"","image-keyboard-response","185","140050","0.0-185.0","34J10VATJGKA9F3QJ3N3A2GP1EMIQF","A9LYIVFG3ZU4Z","3BDORL6HKKZHMTYWD6BFF6WBDQ9CRF","","126","img/flower2.png","76","129","3","0","1","2","1,0,0,1,1,0,1,0,1","0,1,0,0,1,1,1,1,0","3",""
"","html-keyboard-response","186","140352","0.0-186.0","34J10VATJGKA9F3QJ3N3A2GP1EMIQF","A9LYIVFG3ZU4Z","3BDORL6HKKZHMTYWD6BFF6WBDQ9CRF","","null","<img src=""img/flower2.png"" style=""width:200px;border:14px solid red;"">","null","","","","","","","","",""
"","image-keyboard-response","187","140381","0.0-187.0","34J10VATJGKA9F3QJ3N3A2GP1EMIQF","A9LYIVFG3ZU4Z","3BDORL6HKKZHMTYWD6BFF6WBDQ9CRF","","29","img/flower2.png","74","29","1","0","1","2","1,0,0,1,1,0,1,0,1","0,1,0,0,1,1,1,1,0","3",""
"","html-keyboard-response","188","140682","0.0-188.0","34J10VATJGKA9F3QJ3N3A2GP1EMIQF","A9LYIVFG3ZU4Z","3BDORL6HKKZHMTYWD6BFF6WBDQ9CRF","","null","<img src=""img/flower2.png"" style=""width:200px;border:14px solid red;"">","null","","","","","","","","",""
"","image-keyboard-response","189","140849","0.0-189.0","34J10VATJGKA9F3QJ3N3A2GP1EMIQF","A9LYIVFG3ZU4Z","3BDORL6HKKZHMTYWD6BFF6WBDQ9CRF","","165","img/flower2.png","74","167","1","0","1","2","1,0,0,1,1,0,1,0,1","0,1,0,0,1,1,1,1,0","3",""
"","html-keyboard-response","190","141180","0.0-190.0","34J10VATJGKA9F3QJ3N3A2GP1EMIQF","A9LYIVFG3ZU4Z","3BDORL6HKKZHMTYWD6BFF6WBDQ9CRF","","null","<img src=""img/flower2.png"" style=""width:200px;border:14px solid red;"">","null","","","","","","","","",""
"","image-keyboard-response","191","141190","0.0-191.0","34J10VATJGKA9F3QJ3N3A2GP1EMIQF","A9LYIVFG3ZU4Z","3BDORL6HKKZHMTYWD6BFF6WBDQ9CRF","","9","img/flower2.png","75","9","2","1","1","2","1,0,0,1,1,0,1,0,1","0,1,0,0,1,1,1,1,0","3",""
"","html-keyboard-response","192","141492","0.0-192.0","34J10VATJGKA9F3QJ3N3A2GP1EMIQF","A9LYIVFG3ZU4Z","3BDORL6HKKZHMTYWD6BFF6WBDQ9CRF","","null","<img src=""img/flower2.png"" style=""width:200px; border:14px solid green;"">","null","","","","","","","","",""
"","image-keyboard-response","193","141578","0.0-193.0","34J10VATJGKA9F3QJ3N3A2GP1EMIQF","A9LYIVFG3ZU4Z","3BDORL6HKKZHMTYWD6BFF6WBDQ9CRF","","85","img/flower6.png","76","86","3","0","3","2","1,0,0,1,1,0,1,0,1","0,1,0,0,1,1,1,1,0","3",""
"","html-keyboard-response","194","141880","0.0-194.0","34J10VATJGKA9F3QJ3N3A2GP1EMIQF","A9LYIVFG3ZU4Z","3BDORL6HKKZHMTYWD6BFF6WBDQ9CRF","","null","<img src=""img/flower6.png"" style=""width:200px;border:14px solid red;"">","null","","","","","","","","",""
"","image-keyboard-response","195","141999","0.0-195.0","34J10VATJGKA9F3QJ3N3A2GP1EMIQF","A9LYIVFG3ZU4Z","3BDORL6HKKZHMTYWD6BFF6WBDQ9CRF","","119","img/flower2.png","75","119","2","1","1","2","1,0,0,1,1,0,1,0,1","0,1,0,0,1,1,1,1,0","3",""
"","html-keyboard-response","196","142300","0.0-196.0","34J10VATJGKA9F3QJ3N3A2GP1EMIQF","A9LYIVFG3ZU4Z","3BDORL6HKKZHMTYWD6BFF6WBDQ9CRF","","null","<img src=""img/flower2.png"" style=""width:200px; border:14px solid green;"">","null","","","","","","","","",""
"","image-keyboard-response","197","142389","0.0-197.0","34J10VATJGKA9F3QJ3N3A2GP1EMIQF","A9LYIVFG3ZU4Z","3BDORL6HKKZHMTYWD6BFF6WBDQ9CRF","","88","img/flower1.png","76","89","3","1","2","2","1,0,0,1,1,0,1,0,1","0,1,0,0,1,1,1,1,0","3",""
"","html-keyboard-response","198","142791","0.0-198.0","34J10VATJGKA9F3QJ3N3A2GP1EMIQF","A9LYIVFG3ZU4Z","3BDORL6HKKZHMTYWD6BFF6WBDQ9CRF","","null","<img src=""img/flower1.png"" style=""width:200px; border:14px solid green;"">","null","","","","","","","","",""
"","image-keyboard-response","199","142797","0.0-199.0","34J10VATJGKA9F3QJ3N3A2GP1EMIQF","A9LYIVFG3ZU4Z","3BDORL6HKKZHMTYWD6BFF6WBDQ9CRF","","5","img/flower6.png","76","5","3","0","3","2","1,0,0,1,1,0,1,0,1","0,1,0,0,1,1,1,1,0","3",""
"","html-keyboard-response","200","143097","0.0-200.0","34J10VATJGKA9F3QJ3N3A2GP1EMIQF","A9LYIVFG3ZU4Z","3BDORL6HKKZHMTYWD6BFF6WBDQ9CRF","","null","<img src=""img/flower6.png"" style=""width:200px;border:14px solid red;"">","null","","","","","","","","",""
"","image-keyboard-response","201","143187","0.0-201.0","34J10VATJGKA9F3QJ3N3A2GP1EMIQF","A9LYIVFG3ZU4Z","3BDORL6HKKZHMTYWD6BFF6WBDQ9CRF","","88","img/flower1.png","76","90","3","1","2","2","1,0,0,1,1,0,1,0,1","0,1,0,0,1,1,1,1,0","3",""
"","html-keyboard-response","202","143487","0.0-202.0","34J10VATJGKA9F3QJ3N3A2GP1EMIQF","A9LYIVFG3ZU4Z","3BDORL6HKKZHMTYWD6BFF6WBDQ9CRF","","null","<img src=""img/flower1.png"" style=""width:200px; border:14px solid green;"">","null","","","","","","","","",""
"","image-keyboard-response","203","143508","0.0-203.0","34J10VATJGKA9F3QJ3N3A2GP1EMIQF","A9LYIVFG3ZU4Z","3BDORL6HKKZHMTYWD6BFF6WBDQ9CRF","","21","img/flower2.png","76","21","3","0","1","2","1,0,0,1,1,0,1,0,1","0,1,0,0,1,1,1,1,0","3",""
"","html-keyboard-response","204","143810","0.0-204.0","34J10VATJGKA9F3QJ3N3A2GP1EMIQF","A9LYIVFG3ZU4Z","3BDORL6HKKZHMTYWD6BFF6WBDQ9CRF","","null","<img src=""img/flower2.png"" style=""width:200px;border:14px solid red;"">","null","","","","","","","","",""
"","image-keyboard-response","205","144149","0.0-205.0","34J10VATJGKA9F3QJ3N3A2GP1EMIQF","A9LYIVFG3ZU4Z","3BDORL6HKKZHMTYWD6BFF6WBDQ9CRF","","338","img/flower6.png","75","339","2","1","3","2","1,0,0,1,1,0,1,0,1","0,1,0,0,1,1,1,1,0","3",""
"","html-keyboard-response","206","144450","0.0-206.0","34J10VATJGKA9F3QJ3N3A2GP1EMIQF","A9LYIVFG3ZU4Z","3BDORL6HKKZHMTYWD6BFF6WBDQ9CRF","","null","<img src=""img/flower6.png"" style=""width:200px; border:14px solid green;"">","null","","","","","","","","",""
"","image-keyboard-response","207","144619","0.0-207.0","34J10VATJGKA9F3QJ3N3A2GP1EMIQF","A9LYIVFG3ZU4Z","3BDORL6HKKZHMTYWD6BFF6WBDQ9CRF","","168","img/flower1.png","74","169","1","0","2","2","1,0,0,1,1,0,1,0,1","0,1,0,0,1,1,1,1,0","3",""
"","html-keyboard-response","208","144920","0.0-208.0","34J10VATJGKA9F3QJ3N3A2GP1EMIQF","A9LYIVFG3ZU4Z","3BDORL6HKKZHMTYWD6BFF6WBDQ9CRF","","null","<img src=""img/flower1.png"" style=""width:200px;border:14px solid red;"">","null","","","","","","","","",""
"","image-keyboard-response","209","144949","0.0-209.0","34J10VATJGKA9F3QJ3N3A2GP1EMIQF","A9LYIVFG3ZU4Z","3BDORL6HKKZHMTYWD6BFF6WBDQ9CRF","","28","img/flower6.png","75","29","2","1","3","2","1,0,0,1,1,0,1,0,1","0,1,0,0,1,1,1,1,0","3",""
"","html-keyboard-response","210","145251","0.0-210.0","34J10VATJGKA9F3QJ3N3A2GP1EMIQF","A9LYIVFG3ZU4Z","3BDORL6HKKZHMTYWD6BFF6WBDQ9CRF","","null","<img src=""img/flower6.png"" style=""width:200px; border:14px solid green;"">","null","","","","","","","","",""
"","image-keyboard-response","211","145359","0.0-211.0","34J10VATJGKA9F3QJ3N3A2GP1EMIQF","A9LYIVFG3ZU4Z","3BDORL6HKKZHMTYWD6BFF6WBDQ9CRF","","107","img/flower6.png","76","108","3","0","3","2","1,0,0,1,1,0,1,0,1","0,1,0,0,1,1,1,1,0","3",""
"","html-keyboard-response","212","145661","0.0-212.0","34J10VATJGKA9F3QJ3N3A2GP1EMIQF","A9LYIVFG3ZU4Z","3BDORL6HKKZHMTYWD6BFF6WBDQ9CRF","","null","<img src=""img/flower6.png"" style=""width:200px;border:14px solid red;"">","null","","","","","","","","",""
"","image-keyboard-response","213","145709","0.0-213.0","34J10VATJGKA9F3QJ3N3A2GP1EMIQF","A9LYIVFG3ZU4Z","3BDORL6HKKZHMTYWD6BFF6WBDQ9CRF","","47","img/flower2.png","76","48","3","0","1","2","1,0,0,1,1,0,1,0,1","0,1,0,0,1,1,1,1,0","3",""
"","html-keyboard-response","214","146009","0.0-214.0","34J10VATJGKA9F3QJ3N3A2GP1EMIQF","A9LYIVFG3ZU4Z","3BDORL6HKKZHMTYWD6BFF6WBDQ9CRF","","null","<img src=""img/flower2.png"" style=""width:200px;border:14px solid red;"">","null","","","","","","","","",""
"","image-keyboard-response","215","146099","0.0-215.0","34J10VATJGKA9F3QJ3N3A2GP1EMIQF","A9LYIVFG3ZU4Z","3BDORL6HKKZHMTYWD6BFF6WBDQ9CRF","","89","img/flower2.png","76","90","3","0","1","2","1,0,0,1,1,0,1,0,1","0,1,0,0,1,1,1,1,0","3",""
"","html-keyboard-response","216","146400","0.0-216.0","34J10VATJGKA9F3QJ3N3A2GP1EMIQF","A9LYIVFG3ZU4Z","3BDORL6HKKZHMTYWD6BFF6WBDQ9CRF","","null","<img src=""img/flower2.png"" style=""width:200px;border:14px solid red;"">","null","","","","","","","","",""
"","image-keyboard-response","217","146459","0.0-217.0","34J10VATJGKA9F3QJ3N3A2GP1EMIQF","A9LYIVFG3ZU4Z","3BDORL6HKKZHMTYWD6BFF6WBDQ9CRF","","58","img/flower1.png","76","59","3","1","2","2","1,0,0,1,1,0,1,0,1","0,1,0,0,1,1,1,1,0","3",""
"","html-keyboard-response","218","146761","0.0-218.0","34J10VATJGKA9F3QJ3N3A2GP1EMIQF","A9LYIVFG3ZU4Z","3BDORL6HKKZHMTYWD6BFF6WBDQ9CRF","","null","<img src=""img/flower1.png"" style=""width:200px; border:14px solid green;"">","null","","","","","","","","",""
"","image-keyboard-response","219","146989","0.0-219.0","34J10VATJGKA9F3QJ3N3A2GP1EMIQF","A9LYIVFG3ZU4Z","3BDORL6HKKZHMTYWD6BFF6WBDQ9CRF","","227","img/flower6.png","74","228","1","1","3","2","1,0,0,1,1,0,1,0,1","0,1,0,0,1,1,1,1,0","3",""
"","html-keyboard-response","220","147289","0.0-220.0","34J10VATJGKA9F3QJ3N3A2GP1EMIQF","A9LYIVFG3ZU4Z","3BDORL6HKKZHMTYWD6BFF6WBDQ9CRF","","null","<img src=""img/flower6.png"" style=""width:200px; border:14px solid green;"">","null","","","","","","","","",""
"","image-keyboard-response","221","147389","0.0-221.0","34J10VATJGKA9F3QJ3N3A2GP1EMIQF","A9LYIVFG3ZU4Z","3BDORL6HKKZHMTYWD6BFF6WBDQ9CRF","","98","img/flower6.png","74","100","1","1","3","2","1,0,0,1,1,0,1,0,1","0,1,0,0,1,1,1,1,0","3",""
"","html-keyboard-response","222","147691","0.0-222.0","34J10VATJGKA9F3QJ3N3A2GP1EMIQF","A9LYIVFG3ZU4Z","3BDORL6HKKZHMTYWD6BFF6WBDQ9CRF","","null","<img src=""img/flower6.png"" style=""width:200px; border:14px solid green;"">","null","","","","","","","","",""
"","image-keyboard-response","223","147821","0.0-223.0","34J10VATJGKA9F3QJ3N3A2GP1EMIQF","A9LYIVFG3ZU4Z","3BDORL6HKKZHMTYWD6BFF6WBDQ9CRF","","128","img/flower2.png","74","130","1","0","1","2","1,0,0,1,1,0,1,0,1","0,1,0,0,1,1,1,1,0","3",""
"","html-keyboard-response","224","148122","0.0-224.0","34J10VATJGKA9F3QJ3N3A2GP1EMIQF","A9LYIVFG3ZU4Z","3BDORL6HKKZHMTYWD6BFF6WBDQ9CRF","","null","<img src=""img/flower2.png"" style=""width:200px;border:14px solid red;"">","null","","","","","","","","",""
"","image-keyboard-response","225","148219","0.0-225.0","34J10VATJGKA9F3QJ3N3A2GP1EMIQF","A9LYIVFG3ZU4Z","3BDORL6HKKZHMTYWD6BFF6WBDQ9CRF","","96","img/flower6.png","74","97","1","1","3","2","1,0,0,1,1,0,1,0,1","0,1,0,0,1,1,1,1,0","3",""
"","html-keyboard-response","226","148520","0.0-226.0","34J10VATJGKA9F3QJ3N3A2GP1EMIQF","A9LYIVFG3ZU4Z","3BDORL6HKKZHMTYWD6BFF6WBDQ9CRF","","null","<img src=""img/flower6.png"" style=""width:200px; border:14px solid green;"">","null","","","","","","","","",""
"","image-keyboard-response","227","148649","0.0-227.0","34J10VATJGKA9F3QJ3N3A2GP1EMIQF","A9LYIVFG3ZU4Z","3BDORL6HKKZHMTYWD6BFF6WBDQ9CRF","","129","img/flower1.png","76","129","3","1","2","2","1,0,0,1,1,0,1,0,1","0,1,0,0,1,1,1,1,0","3",""
"","html-keyboard-response","228","148951","0.0-228.0","34J10VATJGKA9F3QJ3N3A2GP1EMIQF","A9LYIVFG3ZU4Z","3BDORL6HKKZHMTYWD6BFF6WBDQ9CRF","","null","<img src=""img/flower1.png"" style=""width:200px; border:14px solid green;"">","null","","","","","","","","",""
"","image-keyboard-response","229","149119","0.0-229.0","34J10VATJGKA9F3QJ3N3A2GP1EMIQF","A9LYIVFG3ZU4Z","3BDORL6HKKZHMTYWD6BFF6WBDQ9CRF","","168","img/flower2.png","74","168","1","0","1","2","1,0,0,1,1,0,1,0,1","0,1,0,0,1,1,1,1,0","3",""
"","html-keyboard-response","230","149421","0.0-230.0","34J10VATJGKA9F3QJ3N3A2GP1EMIQF","A9LYIVFG3ZU4Z","3BDORL6HKKZHMTYWD6BFF6WBDQ9CRF","","null","<img src=""img/flower2.png"" style=""width:200px;border:14px solid red;"">","null","","","","","","","","",""
"","image-keyboard-response","231","149498","0.0-231.0","34J10VATJGKA9F3QJ3N3A2GP1EMIQF","A9LYIVFG3ZU4Z","3BDORL6HKKZHMTYWD6BFF6WBDQ9CRF","","76","img/flower2.png","76","77","3","0","1","2","1,0,0,1,1,0,1,0,1","0,1,0,0,1,1,1,1,0","3",""
"","html-keyboard-response","232","149799","0.0-232.0","34J10VATJGKA9F3QJ3N3A2GP1EMIQF","A9LYIVFG3ZU4Z","3BDORL6HKKZHMTYWD6BFF6WBDQ9CRF","","null","<img src=""img/flower2.png"" style=""width:200px;border:14px solid red;"">","null","","","","","","","","",""
"","image-keyboard-response","233","149813","0.0-233.0","34J10VATJGKA9F3QJ3N3A2GP1EMIQF","A9LYIVFG3ZU4Z","3BDORL6HKKZHMTYWD6BFF6WBDQ9CRF","","13","img/flower6.png","74","15","1","1","3","2","1,0,0,1,1,0,1,0,1","0,1,0,0,1,1,1,1,0","3",""
"","html-keyboard-response","234","150114","0.0-234.0","34J10VATJGKA9F3QJ3N3A2GP1EMIQF","A9LYIVFG3ZU4Z","3BDORL6HKKZHMTYWD6BFF6WBDQ9CRF","","null","<img src=""img/flower6.png"" style=""width:200px; border:14px solid green;"">","null","","","","","","","","",""
"","image-keyboard-response","235","150129","0.0-235.0","34J10VATJGKA9F3QJ3N3A2GP1EMIQF","A9LYIVFG3ZU4Z","3BDORL6HKKZHMTYWD6BFF6WBDQ9CRF","","15","img/flower1.png","75","15","2","1","2","2","1,0,0,1,1,0,1,0,1","0,1,0,0,1,1,1,1,0","3",""
"","html-keyboard-response","236","150431","0.0-236.0","34J10VATJGKA9F3QJ3N3A2GP1EMIQF","A9LYIVFG3ZU4Z","3BDORL6HKKZHMTYWD6BFF6WBDQ9CRF","","null","<img src=""img/flower1.png"" style=""width:200px; border:14px solid green;"">","null","","","","","","","","",""
"","image-keyboard-response","237","150470","0.0-237.0","34J10VATJGKA9F3QJ3N3A2GP1EMIQF","A9LYIVFG3ZU4Z","3BDORL6HKKZHMTYWD6BFF6WBDQ9CRF","","38","img/flower6.png","75","39","2","1","3","2","1,0,0,1,1,0,1,0,1","0,1,0,0,1,1,1,1,0","3",""
"","html-keyboard-response","238","150772","0.0-238.0","34J10VATJGKA9F3QJ3N3A2GP1EMIQF","A9LYIVFG3ZU4Z","3BDORL6HKKZHMTYWD6BFF6WBDQ9CRF","","null","<img src=""img/flower6.png"" style=""width:200px; border:14px solid green;"">","null","","","","","","","","",""
"","image-keyboard-response","239","150971","0.0-239.0","34J10VATJGKA9F3QJ3N3A2GP1EMIQF","A9LYIVFG3ZU4Z","3BDORL6HKKZHMTYWD6BFF6WBDQ9CRF","","197","img/flower1.png","75","199","2","1","2","2","1,0,0,1,1,0,1,0,1","0,1,0,0,1,1,1,1,0","3",""
"","html-keyboard-response","240","151272","0.0-240.0","34J10VATJGKA9F3QJ3N3A2GP1EMIQF","A9LYIVFG3ZU4Z","3BDORL6HKKZHMTYWD6BFF6WBDQ9CRF","","null","<img src=""img/flower1.png"" style=""width:200px; border:14px solid green;"">","null","","","","","","","","",""
"","image-keyboard-response","241","151289","0.0-241.0","34J10VATJGKA9F3QJ3N3A2GP1EMIQF","A9LYIVFG3ZU4Z","3BDORL6HKKZHMTYWD6BFF6WBDQ9CRF","","17","img/flower2.png","74","17","1","0","1","2","1,0,0,1,1,0,1,0,1","0,1,0,0,1,1,1,1,0","3",""
"","html-keyboard-response","242","151589","0.0-242.0","34J10VATJGKA9F3QJ3N3A2GP1EMIQF","A9LYIVFG3ZU4Z","3BDORL6HKKZHMTYWD6BFF6WBDQ9CRF","","null","<img src=""img/flower2.png"" style=""width:200px;border:14px solid red;"">","null","","","","","","","","",""
"","image-keyboard-response","243","151850","0.0-243.0","34J10VATJGKA9F3QJ3N3A2GP1EMIQF","A9LYIVFG3ZU4Z","3BDORL6HKKZHMTYWD6BFF6WBDQ9CRF","","259","img/flower1.png","74","261","1","0","2","2","1,0,0,1,1,0,1,0,1","0,1,0,0,1,1,1,1,0","3",""
"","html-keyboard-response","244","152163","0.0-244.0","34J10VATJGKA9F3QJ3N3A2GP1EMIQF","A9LYIVFG3ZU4Z","3BDORL6HKKZHMTYWD6BFF6WBDQ9CRF","","null","<img src=""img/flower1.png"" style=""width:200px;border:14px solid red;"">","null","","","","","","","","",""
"","image-keyboard-response","245","152197","0.0-245.0","34J10VATJGKA9F3QJ3N3A2GP1EMIQF","A9LYIVFG3ZU4Z","3BDORL6HKKZHMTYWD6BFF6WBDQ9CRF","","34","img/flower2.png","76","35","3","0","1","2","1,0,0,1,1,0,1,0,1","0,1,0,0,1,1,1,1,0","3",""
"","html-keyboard-response","246","152498","0.0-246.0","34J10VATJGKA9F3QJ3N3A2GP1EMIQF","A9LYIVFG3ZU4Z","3BDORL6HKKZHMTYWD6BFF6WBDQ9CRF","","null","<img src=""img/flower2.png"" style=""width:200px;border:14px solid red;"">","null","","","","","","","","",""
"","image-keyboard-response","247","152559","0.0-247.0","34J10VATJGKA9F3QJ3N3A2GP1EMIQF","A9LYIVFG3ZU4Z","3BDORL6HKKZHMTYWD6BFF6WBDQ9CRF","","60","img/flower6.png","74","61","1","1","3","2","1,0,0,1,1,0,1,0,1","0,1,0,0,1,1,1,1,0","3",""
"","html-keyboard-response","248","152862","0.0-248.0","34J10VATJGKA9F3QJ3N3A2GP1EMIQF","A9LYIVFG3ZU4Z","3BDORL6HKKZHMTYWD6BFF6WBDQ9CRF","","null","<img src=""img/flower6.png"" style=""width:200px; border:14px solid green;"">","null","","","","","","","","",""
"","image-keyboard-response","249","152939","0.0-249.0","34J10VATJGKA9F3QJ3N3A2GP1EMIQF","A9LYIVFG3ZU4Z","3BDORL6HKKZHMTYWD6BFF6WBDQ9CRF","","76","img/flower1.png","74","77","1","0","2","2","1,0,0,1,1,0,1,0,1","0,1,0,0,1,1,1,1,0","3",""
"","html-keyboard-response","250","153240","0.0-250.0","34J10VATJGKA9F3QJ3N3A2GP1EMIQF","A9LYIVFG3ZU4Z","3BDORL6HKKZHMTYWD6BFF6WBDQ9CRF","","null","<img src=""img/flower1.png"" style=""width:200px;border:14px solid red;"">","null","","","","","","","","",""
"","image-keyboard-response","251","153390","0.0-251.0","34J10VATJGKA9F3QJ3N3A2GP1EMIQF","A9LYIVFG3ZU4Z","3BDORL6HKKZHMTYWD6BFF6WBDQ9CRF","","140","img/flower1.png","76","150","3","1","2","2","1,0,0,1,1,0,1,0,1","0,1,0,0,1,1,1,1,0","3",""
"","html-keyboard-response","252","153690","0.0-252.0","34J10VATJGKA9F3QJ3N3A2GP1EMIQF","A9LYIVFG3ZU4Z","3BDORL6HKKZHMTYWD6BFF6WBDQ9CRF","","null","<img src=""img/flower1.png"" style=""width:200px; border:14px solid green;"">","null","","","","","","","","",""
"","image-keyboard-response","253","153759","0.0-253.0","34J10VATJGKA9F3QJ3N3A2GP1EMIQF","A9LYIVFG3ZU4Z","3BDORL6HKKZHMTYWD6BFF6WBDQ9CRF","","69","img/flower6.png","74","69","1","1","3","2","1,0,0,1,1,0,1,0,1","0,1,0,0,1,1,1,1,0","3",""
"","html-keyboard-response","254","154061","0.0-254.0","34J10VATJGKA9F3QJ3N3A2GP1EMIQF","A9LYIVFG3ZU4Z","3BDORL6HKKZHMTYWD6BFF6WBDQ9CRF","","null","<img src=""img/flower6.png"" style=""width:200px; border:14px solid green;"">","null","","","","","","","","",""
"","image-keyboard-response","255","154109","0.0-255.0","34J10VATJGKA9F3QJ3N3A2GP1EMIQF","A9LYIVFG3ZU4Z","3BDORL6HKKZHMTYWD6BFF6WBDQ9CRF","","46","img/flower2.png","74","48","1","0","1","2","1,0,0,1,1,0,1,0,1","0,1,0,0,1,1,1,1,0","3",""
"","html-keyboard-response","256","154411","0.0-256.0","34J10VATJGKA9F3QJ3N3A2GP1EMIQF","A9LYIVFG3ZU4Z","3BDORL6HKKZHMTYWD6BFF6WBDQ9CRF","","null","<img src=""img/flower2.png"" style=""width:200px;border:14px solid red;"">","null","","","","","","","","",""
"","image-keyboard-response","257","154459","0.0-257.0","34J10VATJGKA9F3QJ3N3A2GP1EMIQF","A9LYIVFG3ZU4Z","3BDORL6HKKZHMTYWD6BFF6WBDQ9CRF","","47","img/flower1.png","74","48","1","0","2","2","1,0,0,1,1,0,1,0,1","0,1,0,0,1,1,1,1,0","3",""
"","html-keyboard-response","258","154760","0.0-258.0","34J10VATJGKA9F3QJ3N3A2GP1EMIQF","A9LYIVFG3ZU4Z","3BDORL6HKKZHMTYWD6BFF6WBDQ9CRF","","null","<img src=""img/flower1.png"" style=""width:200px;border:14px solid red;"">","null","","","","","","","","",""
"","image-keyboard-response","259","154768","0.0-259.0","34J10VATJGKA9F3QJ3N3A2GP1EMIQF","A9LYIVFG3ZU4Z","3BDORL6HKKZHMTYWD6BFF6WBDQ9CRF","","8","img/flower6.png","76","8","3","0","3","2","1,0,0,1,1,0,1,0,1","0,1,0,0,1,1,1,1,0","3",""
"","html-keyboard-response","260","155070","0.0-260.0","34J10VATJGKA9F3QJ3N3A2GP1EMIQF","A9LYIVFG3ZU4Z","3BDORL6HKKZHMTYWD6BFF6WBDQ9CRF","","null","<img src=""img/flower6.png"" style=""width:200px;border:14px solid red;"">","null","","","","","","","","",""
"","image-keyboard-response","261","155134","0.0-261.0","34J10VATJGKA9F3QJ3N3A2GP1EMIQF","A9LYIVFG3ZU4Z","3BDORL6HKKZHMTYWD6BFF6WBDQ9CRF","","64","img/flower6.png","75","64","2","1","3","2","1,0,0,1,1,0,1,0,1","0,1,0,0,1,1,1,1,0","3",""
"","html-keyboard-response","262","155436","0.0-262.0","34J10VATJGKA9F3QJ3N3A2GP1EMIQF","A9LYIVFG3ZU4Z","3BDORL6HKKZHMTYWD6BFF6WBDQ9CRF","","null","<img src=""img/flower6.png"" style=""width:200px; border:14px solid green;"">","null","","","","","","","","",""
"","image-keyboard-response","263","155559","0.0-263.0","34J10VATJGKA9F3QJ3N3A2GP1EMIQF","A9LYIVFG3ZU4Z","3BDORL6HKKZHMTYWD6BFF6WBDQ9CRF","","121","img/flower6.png","76","123","3","0","3","2","1,0,0,1,1,0,1,0,1","0,1,0,0,1,1,1,1,0","3",""
"","html-keyboard-response","264","155859","0.0-264.0","34J10VATJGKA9F3QJ3N3A2GP1EMIQF","A9LYIVFG3ZU4Z","3BDORL6HKKZHMTYWD6BFF6WBDQ9CRF","","null","<img src=""img/flower6.png"" style=""width:200px;border:14px solid red;"">","null","","","","","","","","",""
"","image-keyboard-response","265","155946","0.0-265.0","34J10VATJGKA9F3QJ3N3A2GP1EMIQF","A9LYIVFG3ZU4Z","3BDORL6HKKZHMTYWD6BFF6WBDQ9CRF","","86","img/flower1.png","74","87","1","0","2","2","1,0,0,1,1,0,1,0,1","0,1,0,0,1,1,1,1,0","3",""
"","html-keyboard-response","266","156247","0.0-266.0","34J10VATJGKA9F3QJ3N3A2GP1EMIQF","A9LYIVFG3ZU4Z","3BDORL6HKKZHMTYWD6BFF6WBDQ9CRF","","null","<img src=""img/flower1.png"" style=""width:200px;border:14px solid red;"">","null","","","","","","","","",""
"","image-keyboard-response","267","156298","0.0-267.0","34J10VATJGKA9F3QJ3N3A2GP1EMIQF","A9LYIVFG3ZU4Z","3BDORL6HKKZHMTYWD6BFF6WBDQ9CRF","","50","img/flower1.png","74","51","1","0","2","2","1,0,0,1,1,0,1,0,1","0,1,0,0,1,1,1,1,0","3",""
"","html-keyboard-response","268","156601","0.0-268.0","34J10VATJGKA9F3QJ3N3A2GP1EMIQF","A9LYIVFG3ZU4Z","3BDORL6HKKZHMTYWD6BFF6WBDQ9CRF","","null","<img src=""img/flower1.png"" style=""width:200px;border:14px solid red;"">","null","","","","","","","","",""
"","image-keyboard-response","269","156630","0.0-269.0","34J10VATJGKA9F3QJ3N3A2GP1EMIQF","A9LYIVFG3ZU4Z","3BDORL6HKKZHMTYWD6BFF6WBDQ9CRF","","28","img/flower6.png","76","29","3","0","3","2","1,0,0,1,1,0,1,0,1","0,1,0,0,1,1,1,1,0","3",""
"","html-keyboard-response","270","156932","0.0-270.0","34J10VATJGKA9F3QJ3N3A2GP1EMIQF","A9LYIVFG3ZU4Z","3BDORL6HKKZHMTYWD6BFF6WBDQ9CRF","","null","<img src=""img/flower6.png"" style=""width:200px;border:14px solid red;"">","null","","","","","","","","",""
"","image-keyboard-response","271","156938","0.0-271.0","34J10VATJGKA9F3QJ3N3A2GP1EMIQF","A9LYIVFG3ZU4Z","3BDORL6HKKZHMTYWD6BFF6WBDQ9CRF","","6","img/flower6.png","76","6","3","0","3","2","1,0,0,1,1,0,1,0,1","0,1,0,0,1,1,1,1,0","3",""
"","html-keyboard-response","272","157238","0.0-272.0","34J10VATJGKA9F3QJ3N3A2GP1EMIQF","A9LYIVFG3ZU4Z","3BDORL6HKKZHMTYWD6BFF6WBDQ9CRF","","null","<img src=""img/flower6.png"" style=""width:200px;border:14px solid red;"">","null","","","","","","","","",""
"","image-keyboard-response","273","157451","0.0-273.0","34J10VATJGKA9F3QJ3N3A2GP1EMIQF","A9LYIVFG3ZU4Z","3BDORL6HKKZHMTYWD6BFF6WBDQ9CRF","","211","img/flower6.png","75","213","2","1","3","2","1,0,0,1,1,0,1,0,1","0,1,0,0,1,1,1,1,0","3",""
"","html-keyboard-response","274","157753","0.0-274.0","34J10VATJGKA9F3QJ3N3A2GP1EMIQF","A9LYIVFG3ZU4Z","3BDORL6HKKZHMTYWD6BFF6WBDQ9CRF","","null","<img src=""img/flower6.png"" style=""width:200px; border:14px solid green;"">","null","","","","","","","","",""
"","image-keyboard-response","275","157939","0.0-275.0","34J10VATJGKA9F3QJ3N3A2GP1EMIQF","A9LYIVFG3ZU4Z","3BDORL6HKKZHMTYWD6BFF6WBDQ9CRF","","185","img/flower1.png","74","186","1","0","2","2","1,0,0,1,1,0,1,0,1","0,1,0,0,1,1,1,1,0","3",""
"","html-keyboard-response","276","158240","0.0-276.0","34J10VATJGKA9F3QJ3N3A2GP1EMIQF","A9LYIVFG3ZU4Z","3BDORL6HKKZHMTYWD6BFF6WBDQ9CRF","","null","<img src=""img/flower1.png"" style=""width:200px;border:14px solid red;"">","null","","","","","","","","",""
"","image-keyboard-response","277","158269","0.0-277.0","34J10VATJGKA9F3QJ3N3A2GP1EMIQF","A9LYIVFG3ZU4Z","3BDORL6HKKZHMTYWD6BFF6WBDQ9CRF","","29","img/flower2.png","74","30","1","0","1","2","1,0,0,1,1,0,1,0,1","0,1,0,0,1,1,1,1,0","3",""
"","html-keyboard-response","278","158571","0.0-278.0","34J10VATJGKA9F3QJ3N3A2GP1EMIQF","A9LYIVFG3ZU4Z","3BDORL6HKKZHMTYWD6BFF6WBDQ9CRF","","null","<img src=""img/flower2.png"" style=""width:200px;border:14px solid red;"">","null","","","","","","","","",""
"","image-keyboard-response","279","158670","0.0-279.0","34J10VATJGKA9F3QJ3N3A2GP1EMIQF","A9LYIVFG3ZU4Z","3BDORL6HKKZHMTYWD6BFF6WBDQ9CRF","","98","img/flower2.png","74","99","1","0","1","2","1,0,0,1,1,0,1,0,1","0,1,0,0,1,1,1,1,0","3",""
"","html-keyboard-response","280","158970","0.0-280.0","34J10VATJGKA9F3QJ3N3A2GP1EMIQF","A9LYIVFG3ZU4Z","3BDORL6HKKZHMTYWD6BFF6WBDQ9CRF","","null","<img src=""img/flower2.png"" style=""width:200px;border:14px solid red;"">","null","","","","","","","","",""
"","image-keyboard-response","281","159049","0.0-281.0","34J10VATJGKA9F3QJ3N3A2GP1EMIQF","A9LYIVFG3ZU4Z","3BDORL6HKKZHMTYWD6BFF6WBDQ9CRF","","77","img/flower6.png","74","79","1","1","3","2","1,0,0,1,1,0,1,0,1","0,1,0,0,1,1,1,1,0","3",""
"","html-keyboard-response","282","159382","0.0-282.0","34J10VATJGKA9F3QJ3N3A2GP1EMIQF","A9LYIVFG3ZU4Z","3BDORL6HKKZHMTYWD6BFF6WBDQ9CRF","","null","<img src=""img/flower6.png"" style=""width:200px; border:14px solid green;"">","null","","","","","","","","",""
"","image-keyboard-response","283","159439","0.0-283.0","34J10VATJGKA9F3QJ3N3A2GP1EMIQF","A9LYIVFG3ZU4Z","3BDORL6HKKZHMTYWD6BFF6WBDQ9CRF","","55","img/flower1.png","74","57","1","0","2","2","1,0,0,1,1,0,1,0,1","0,1,0,0,1,1,1,1,0","3",""
"","html-keyboard-response","284","159740","0.0-284.0","34J10VATJGKA9F3QJ3N3A2GP1EMIQF","A9LYIVFG3ZU4Z","3BDORL6HKKZHMTYWD6BFF6WBDQ9CRF","","null","<img src=""img/flower1.png"" style=""width:200px;border:14px solid red;"">","null","","","","","","","","",""
"","image-keyboard-response","285","159819","0.0-285.0","34J10VATJGKA9F3QJ3N3A2GP1EMIQF","A9LYIVFG3ZU4Z","3BDORL6HKKZHMTYWD6BFF6WBDQ9CRF","","78","img/flower2.png","76","79","3","0","1","2","1,0,0,1,1,0,1,0,1","0,1,0,0,1,1,1,1,0","3",""
"","html-keyboard-response","286","160121","0.0-286.0","34J10VATJGKA9F3QJ3N3A2GP1EMIQF","A9LYIVFG3ZU4Z","3BDORL6HKKZHMTYWD6BFF6WBDQ9CRF","","null","<img src=""img/flower2.png"" style=""width:200px;border:14px solid red;"">","null","","","","","","","","",""
"","image-keyboard-response","287","160209","0.0-287.0","34J10VATJGKA9F3QJ3N3A2GP1EMIQF","A9LYIVFG3ZU4Z","3BDORL6HKKZHMTYWD6BFF6WBDQ9CRF","","86","img/flower1.png","76","88","3","1","2","2","1,0,0,1,1,0,1,0,1","0,1,0,0,1,1,1,1,0","3",""
"","html-keyboard-response","288","160509","0.0-288.0","34J10VATJGKA9F3QJ3N3A2GP1EMIQF","A9LYIVFG3ZU4Z","3BDORL6HKKZHMTYWD6BFF6WBDQ9CRF","","null","<img src=""img/flower1.png"" style=""width:200px; border:14px solid green;"">","null","","","","","","","","",""
"","image-keyboard-response","289","160510","0.0-289.0","34J10VATJGKA9F3QJ3N3A2GP1EMIQF","A9LYIVFG3ZU4Z","3BDORL6HKKZHMTYWD6BFF6WBDQ9CRF","","0","img/flower6.png","76","1","3","0","3","2","1,0,0,1,1,0,1,0,1","0,1,0,0,1,1,1,1,0","3",""
"","html-keyboard-response","290","160816","0.0-290.0","34J10VATJGKA9F3QJ3N3A2GP1EMIQF","A9LYIVFG3ZU4Z","3BDORL6HKKZHMTYWD6BFF6WBDQ9CRF","","null","<img src=""img/flower6.png"" style=""width:200px;border:14px solid red;"">","null","","","","","","","","",""
"","image-keyboard-response","291","160878","0.0-291.0","34J10VATJGKA9F3QJ3N3A2GP1EMIQF","A9LYIVFG3ZU4Z","3BDORL6HKKZHMTYWD6BFF6WBDQ9CRF","","62","img/flower1.png","76","63","3","1","2","2","1,0,0,1,1,0,1,0,1","0,1,0,0,1,1,1,1,0","3",""
"","html-keyboard-response","292","161179","0.0-292.0","34J10VATJGKA9F3QJ3N3A2GP1EMIQF","A9LYIVFG3ZU4Z","3BDORL6HKKZHMTYWD6BFF6WBDQ9CRF","","null","<img src=""img/flower1.png"" style=""width:200px; border:14px solid green;"">","null","","","","","","","","",""
"","image-keyboard-response","293","161279","0.0-293.0","34J10VATJGKA9F3QJ3N3A2GP1EMIQF","A9LYIVFG3ZU4Z","3BDORL6HKKZHMTYWD6BFF6WBDQ9CRF","","100","img/flower1.png","74","100","1","0","2","2","1,0,0,1,1,0,1,0,1","0,1,0,0,1,1,1,1,0","3",""
"","html-keyboard-response","294","161591","0.0-294.0","34J10VATJGKA9F3QJ3N3A2GP1EMIQF","A9LYIVFG3ZU4Z","3BDORL6HKKZHMTYWD6BFF6WBDQ9CRF","","null","<img src=""img/flower1.png"" style=""width:200px;border:14px solid red;"">","null","","","","","","","","",""
"","image-keyboard-response","295","161595","0.0-295.0","34J10VATJGKA9F3QJ3N3A2GP1EMIQF","A9LYIVFG3ZU4Z","3BDORL6HKKZHMTYWD6BFF6WBDQ9CRF","","0","img/flower2.png","75","3","2","1","1","2","1,0,0,1,1,0,1,0,1","0,1,0,0,1,1,1,1,0","3",""
"","html-keyboard-response","296","161896","0.0-296.0","34J10VATJGKA9F3QJ3N3A2GP1EMIQF","A9LYIVFG3ZU4Z","3BDORL6HKKZHMTYWD6BFF6WBDQ9CRF","","null","<img src=""img/flower2.png"" style=""width:200px; border:14px solid green;"">","null","","","","","","","","",""
"","image-keyboard-response","297","161951","0.0-297.0","34J10VATJGKA9F3QJ3N3A2GP1EMIQF","A9LYIVFG3ZU4Z","3BDORL6HKKZHMTYWD6BFF6WBDQ9CRF","","54","img/flower6.png","76","55","3","0","3","2","1,0,0,1,1,0,1,0,1","0,1,0,0,1,1,1,1,0","3",""
"","html-keyboard-response","298","162252","0.0-298.0","34J10VATJGKA9F3QJ3N3A2GP1EMIQF","A9LYIVFG3ZU4Z","3BDORL6HKKZHMTYWD6BFF6WBDQ9CRF","","null","<img src=""img/flower6.png"" style=""width:200px;border:14px solid red;"">","null","","","","","","","","",""
"","image-keyboard-response","299","162420","0.0-299.0","34J10VATJGKA9F3QJ3N3A2GP1EMIQF","A9LYIVFG3ZU4Z","3BDORL6HKKZHMTYWD6BFF6WBDQ9CRF","","167","img/flower2.png","74","169","1","0","1","2","1,0,0,1,1,0,1,0,1","0,1,0,0,1,1,1,1,0","3",""
"","html-keyboard-response","300","162722","0.0-300.0","34J10VATJGKA9F3QJ3N3A2GP1EMIQF","A9LYIVFG3ZU4Z","3BDORL6HKKZHMTYWD6BFF6WBDQ9CRF","","null","<img src=""img/flower2.png"" style=""width:200px;border:14px solid red;"">","null","","","","","","","","",""
"","image-keyboard-response","301","162759","0.0-301.0","34J10VATJGKA9F3QJ3N3A2GP1EMIQF","A9LYIVFG3ZU4Z","3BDORL6HKKZHMTYWD6BFF6WBDQ9CRF","","36","img/flower1.png","76","37","3","1","2","2","1,0,0,1,1,0,1,0,1","0,1,0,0,1,1,1,1,0","3",""
"","html-keyboard-response","302","163060","0.0-302.0","34J10VATJGKA9F3QJ3N3A2GP1EMIQF","A9LYIVFG3ZU4Z","3BDORL6HKKZHMTYWD6BFF6WBDQ9CRF","","null","<img src=""img/flower1.png"" style=""width:200px; border:14px solid green;"">","null","","","","","","","","",""
"","image-keyboard-response","303","163099","0.0-303.0","34J10VATJGKA9F3QJ3N3A2GP1EMIQF","A9LYIVFG3ZU4Z","3BDORL6HKKZHMTYWD6BFF6WBDQ9CRF","","39","img/flower6.png","76","39","3","0","3","2","1,0,0,1,1,0,1,0,1","0,1,0,0,1,1,1,1,0","3",""
"","html-keyboard-response","304","163401","0.0-304.0","34J10VATJGKA9F3QJ3N3A2GP1EMIQF","A9LYIVFG3ZU4Z","3BDORL6HKKZHMTYWD6BFF6WBDQ9CRF","","null","<img src=""img/flower6.png"" style=""width:200px;border:14px solid red;"">","null","","","","","","","","",""
"","image-keyboard-response","305","163429","0.0-305.0","34J10VATJGKA9F3QJ3N3A2GP1EMIQF","A9LYIVFG3ZU4Z","3BDORL6HKKZHMTYWD6BFF6WBDQ9CRF","","27","img/flower2.png","75","28","2","1","1","2","1,0,0,1,1,0,1,0,1","0,1,0,0,1,1,1,1,0","3",""
"","html-keyboard-response","306","163730","0.0-306.0","34J10VATJGKA9F3QJ3N3A2GP1EMIQF","A9LYIVFG3ZU4Z","3BDORL6HKKZHMTYWD6BFF6WBDQ9CRF","","null","<img src=""img/flower2.png"" style=""width:200px; border:14px solid green;"">","null","","","","","","","","",""
"","image-keyboard-response","307","163769","0.0-307.0","34J10VATJGKA9F3QJ3N3A2GP1EMIQF","A9LYIVFG3ZU4Z","3BDORL6HKKZHMTYWD6BFF6WBDQ9CRF","","38","img/flower1.png","74","39","1","0","2","2","1,0,0,1,1,0,1,0,1","0,1,0,0,1,1,1,1,0","3",""
"","html-keyboard-response","308","164070","0.0-308.0","34J10VATJGKA9F3QJ3N3A2GP1EMIQF","A9LYIVFG3ZU4Z","3BDORL6HKKZHMTYWD6BFF6WBDQ9CRF","","null","<img src=""img/flower1.png"" style=""width:200px;border:14px solid red;"">","null","","","","","","","","",""
"","image-keyboard-response","309","164139","0.0-309.0","34J10VATJGKA9F3QJ3N3A2GP1EMIQF","A9LYIVFG3ZU4Z","3BDORL6HKKZHMTYWD6BFF6WBDQ9CRF","","68","img/flower6.png","76","69","3","0","3","2","1,0,0,1,1,0,1,0,1","0,1,0,0,1,1,1,1,0","3",""
"","html-keyboard-response","310","164440","0.0-310.0","34J10VATJGKA9F3QJ3N3A2GP1EMIQF","A9LYIVFG3ZU4Z","3BDORL6HKKZHMTYWD6BFF6WBDQ9CRF","","null","<img src=""img/flower6.png"" style=""width:200px;border:14px solid red;"">","null","","","","","","","","",""
"","image-keyboard-response","311","164498","0.0-311.0","34J10VATJGKA9F3QJ3N3A2GP1EMIQF","A9LYIVFG3ZU4Z","3BDORL6HKKZHMTYWD6BFF6WBDQ9CRF","","57","img/flower1.png","74","58","1","0","2","2","1,0,0,1,1,0,1,0,1","0,1,0,0,1,1,1,1,0","3",""
"","html-keyboard-response","312","164800","0.0-312.0","34J10VATJGKA9F3QJ3N3A2GP1EMIQF","A9LYIVFG3ZU4Z","3BDORL6HKKZHMTYWD6BFF6WBDQ9CRF","","null","<img src=""img/flower1.png"" style=""width:200px;border:14px solid red;"">","null","","","","","","","","",""
"","image-keyboard-response","313","164828","0.0-313.0","34J10VATJGKA9F3QJ3N3A2GP1EMIQF","A9LYIVFG3ZU4Z","3BDORL6HKKZHMTYWD6BFF6WBDQ9CRF","","27","img/flower6.png","76","28","3","0","3","2","1,0,0,1,1,0,1,0,1","0,1,0,0,1,1,1,1,0","3",""
"","html-keyboard-response","314","165155","0.0-314.0","34J10VATJGKA9F3QJ3N3A2GP1EMIQF","A9LYIVFG3ZU4Z","3BDORL6HKKZHMTYWD6BFF6WBDQ9CRF","","null","<img src=""img/flower6.png"" style=""width:200px;border:14px solid red;"">","null","","","","","","","","",""
"","image-keyboard-response","315","165216","0.0-315.0","34J10VATJGKA9F3QJ3N3A2GP1EMIQF","A9LYIVFG3ZU4Z","3BDORL6HKKZHMTYWD6BFF6WBDQ9CRF","","61","img/flower1.png","76","62","3","1","2","2","1,0,0,1,1,0,1,0,1","0,1,0,0,1,1,1,1,0","3",""
"","html-keyboard-response","316","165519","0.0-316.0","34J10VATJGKA9F3QJ3N3A2GP1EMIQF","A9LYIVFG3ZU4Z","3BDORL6HKKZHMTYWD6BFF6WBDQ9CRF","","null","<img src=""img/flower1.png"" style=""width:200px; border:14px solid green;"">","null","","","","","","","","",""
"","image-keyboard-response","317","165971","0.0-317.0","34J10VATJGKA9F3QJ3N3A2GP1EMIQF","A9LYIVFG3ZU4Z","3BDORL6HKKZHMTYWD6BFF6WBDQ9CRF","","450","img/flower1.png","74","452","1","0","2","2","1,0,0,1,1,0,1,0,1","0,1,0,0,1,1,1,1,0","3",""
"","html-keyboard-response","318","166272","0.0-318.0","34J10VATJGKA9F3QJ3N3A2GP1EMIQF","A9LYIVFG3ZU4Z","3BDORL6HKKZHMTYWD6BFF6WBDQ9CRF","","null","<img src=""img/flower1.png"" style=""width:200px;border:14px solid red;"">","null","","","","","","","","",""
"","image-keyboard-response","319","166299","0.0-319.0","34J10VATJGKA9F3QJ3N3A2GP1EMIQF","A9LYIVFG3ZU4Z","3BDORL6HKKZHMTYWD6BFF6WBDQ9CRF","","27","img/flower2.png","76","27","3","0","1","2","1,0,0,1,1,0,1,0,1","0,1,0,0,1,1,1,1,0","3",""
"","html-keyboard-response","320","166600","0.0-320.0","34J10VATJGKA9F3QJ3N3A2GP1EMIQF","A9LYIVFG3ZU4Z","3BDORL6HKKZHMTYWD6BFF6WBDQ9CRF","","null","<img src=""img/flower2.png"" style=""width:200px;border:14px solid red;"">","null","","","","","","","","",""
"","image-keyboard-response","321","166640","0.0-321.0","34J10VATJGKA9F3QJ3N3A2GP1EMIQF","A9LYIVFG3ZU4Z","3BDORL6HKKZHMTYWD6BFF6WBDQ9CRF","","40","img/flower2.png","74","40","1","0","1","2","1,0,0,1,1,0,1,0,1","0,1,0,0,1,1,1,1,0","3",""
"","html-keyboard-response","322","166942","0.0-322.0","34J10VATJGKA9F3QJ3N3A2GP1EMIQF","A9LYIVFG3ZU4Z","3BDORL6HKKZHMTYWD6BFF6WBDQ9CRF","","null","<img src=""img/flower2.png"" style=""width:200px;border:14px solid red;"">","null","","","","","","","","",""
"","image-keyboard-response","323","166950","0.0-323.0","34J10VATJGKA9F3QJ3N3A2GP1EMIQF","A9LYIVFG3ZU4Z","3BDORL6HKKZHMTYWD6BFF6WBDQ9CRF","","8","img/flower2.png","74","8","1","0","1","2","1,0,0,1,1,0,1,0,1","0,1,0,0,1,1,1,1,0","3",""
"","html-keyboard-response","324","167251","0.0-324.0","34J10VATJGKA9F3QJ3N3A2GP1EMIQF","A9LYIVFG3ZU4Z","3BDORL6HKKZHMTYWD6BFF6WBDQ9CRF","","null","<img src=""img/flower2.png"" style=""width:200px;border:14px solid red;"">","null","","","","","","","","",""
"","image-keyboard-response","325","167480","0.0-325.0","34J10VATJGKA9F3QJ3N3A2GP1EMIQF","A9LYIVFG3ZU4Z","3BDORL6HKKZHMTYWD6BFF6WBDQ9CRF","","228","img/flower6.png","75","229","2","1","3","2","1,0,0,1,1,0,1,0,1","0,1,0,0,1,1,1,1,0","3",""
"","html-keyboard-response","326","167781","0.0-326.0","34J10VATJGKA9F3QJ3N3A2GP1EMIQF","A9LYIVFG3ZU4Z","3BDORL6HKKZHMTYWD6BFF6WBDQ9CRF","","null","<img src=""img/flower6.png"" style=""width:200px; border:14px solid green;"">","null","","","","","","","","",""
"","image-keyboard-response","327","167849","0.0-327.0","34J10VATJGKA9F3QJ3N3A2GP1EMIQF","A9LYIVFG3ZU4Z","3BDORL6HKKZHMTYWD6BFF6WBDQ9CRF","","68","img/flower2.png","76","68","3","0","1","2","1,0,0,1,1,0,1,0,1","0,1,0,0,1,1,1,1,0","3",""
"","html-keyboard-response","328","168151","0.0-328.0","34J10VATJGKA9F3QJ3N3A2GP1EMIQF","A9LYIVFG3ZU4Z","3BDORL6HKKZHMTYWD6BFF6WBDQ9CRF","","null","<img src=""img/flower2.png"" style=""width:200px;border:14px solid red;"">","null","","","","","","","","",""
"","image-keyboard-response","329","168199","0.0-329.0","34J10VATJGKA9F3QJ3N3A2GP1EMIQF","A9LYIVFG3ZU4Z","3BDORL6HKKZHMTYWD6BFF6WBDQ9CRF","","48","img/flower1.png","75","48","2","1","2","2","1,0,0,1,1,0,1,0,1","0,1,0,0,1,1,1,1,0","3",""
"","html-keyboard-response","330","168500","0.0-330.0","34J10VATJGKA9F3QJ3N3A2GP1EMIQF","A9LYIVFG3ZU4Z","3BDORL6HKKZHMTYWD6BFF6WBDQ9CRF","","null","<img src=""img/flower1.png"" style=""width:200px; border:14px solid green;"">","null","","","","","","","","",""
"","image-keyboard-response","331","168519","0.0-331.0","34J10VATJGKA9F3QJ3N3A2GP1EMIQF","A9LYIVFG3ZU4Z","3BDORL6HKKZHMTYWD6BFF6WBDQ9CRF","","17","img/flower2.png","75","19","2","1","1","2","1,0,0,1,1,0,1,0,1","0,1,0,0,1,1,1,1,0","3",""
"","html-keyboard-response","332","168819","0.0-332.0","34J10VATJGKA9F3QJ3N3A2GP1EMIQF","A9LYIVFG3ZU4Z","3BDORL6HKKZHMTYWD6BFF6WBDQ9CRF","","null","<img src=""img/flower2.png"" style=""width:200px; border:14px solid green;"">","null","","","","","","","","",""
"","image-keyboard-response","333","168878","0.0-333.0","34J10VATJGKA9F3QJ3N3A2GP1EMIQF","A9LYIVFG3ZU4Z","3BDORL6HKKZHMTYWD6BFF6WBDQ9CRF","","59","img/flower1.png","76","59","3","1","2","2","1,0,0,1,1,0,1,0,1","0,1,0,0,1,1,1,1,0","3",""
"","html-keyboard-response","334","169179","0.0-334.0","34J10VATJGKA9F3QJ3N3A2GP1EMIQF","A9LYIVFG3ZU4Z","3BDORL6HKKZHMTYWD6BFF6WBDQ9CRF","","null","<img src=""img/flower1.png"" style=""width:200px; border:14px solid green;"">","null","","","","","","","","",""
"","image-keyboard-response","335","169260","0.0-335.0","34J10VATJGKA9F3QJ3N3A2GP1EMIQF","A9LYIVFG3ZU4Z","3BDORL6HKKZHMTYWD6BFF6WBDQ9CRF","","81","img/flower1.png","76","81","3","1","2","2","1,0,0,1,1,0,1,0,1","0,1,0,0,1,1,1,1,0","3",""
"","html-keyboard-response","336","169560","0.0-336.0","34J10VATJGKA9F3QJ3N3A2GP1EMIQF","A9LYIVFG3ZU4Z","3BDORL6HKKZHMTYWD6BFF6WBDQ9CRF","","null","<img src=""img/flower1.png"" style=""width:200px; border:14px solid green;"">","null","","","","","","","","",""
"","image-keyboard-response","337","169699","0.0-337.0","34J10VATJGKA9F3QJ3N3A2GP1EMIQF","A9LYIVFG3ZU4Z","3BDORL6HKKZHMTYWD6BFF6WBDQ9CRF","","138","img/flower6.png","76","138","3","0","3","2","1,0,0,1,1,0,1,0,1","0,1,0,0,1,1,1,1,0","3",""
"","html-keyboard-response","338","170001","0.0-338.0","34J10VATJGKA9F3QJ3N3A2GP1EMIQF","A9LYIVFG3ZU4Z","3BDORL6HKKZHMTYWD6BFF6WBDQ9CRF","","null","<img src=""img/flower6.png"" style=""width:200px;border:14px solid red;"">","null","","","","","","","","",""
"","image-keyboard-response","339","170070","0.0-339.0","34J10VATJGKA9F3QJ3N3A2GP1EMIQF","A9LYIVFG3ZU4Z","3BDORL6HKKZHMTYWD6BFF6WBDQ9CRF","","68","img/flower1.png","76","69","3","1","2","2","1,0,0,1,1,0,1,0,1","0,1,0,0,1,1,1,1,0","3",""
"","html-keyboard-response","340","170372","0.0-340.0","34J10VATJGKA9F3QJ3N3A2GP1EMIQF","A9LYIVFG3ZU4Z","3BDORL6HKKZHMTYWD6BFF6WBDQ9CRF","","null","<img src=""img/flower1.png"" style=""width:200px; border:14px solid green;"">","null","","","","","","","","",""
"","image-keyboard-response","341","170469","0.0-341.0","34J10VATJGKA9F3QJ3N3A2GP1EMIQF","A9LYIVFG3ZU4Z","3BDORL6HKKZHMTYWD6BFF6WBDQ9CRF","","95","img/flower1.png","74","97","1","0","2","2","1,0,0,1,1,0,1,0,1","0,1,0,0,1,1,1,1,0","3",""
"","html-keyboard-response","342","170770","0.0-342.0","34J10VATJGKA9F3QJ3N3A2GP1EMIQF","A9LYIVFG3ZU4Z","3BDORL6HKKZHMTYWD6BFF6WBDQ9CRF","","null","<img src=""img/flower1.png"" style=""width:200px;border:14px solid red;"">","null","","","","","","","","",""
"","image-keyboard-response","343","170900","0.0-343.0","34J10VATJGKA9F3QJ3N3A2GP1EMIQF","A9LYIVFG3ZU4Z","3BDORL6HKKZHMTYWD6BFF6WBDQ9CRF","","129","img/flower2.png","76","130","3","0","1","2","1,0,0,1,1,0,1,0,1","0,1,0,0,1,1,1,1,0","3",""
"","html-keyboard-response","344","171201","0.0-344.0","34J10VATJGKA9F3QJ3N3A2GP1EMIQF","A9LYIVFG3ZU4Z","3BDORL6HKKZHMTYWD6BFF6WBDQ9CRF","","null","<img src=""img/flower2.png"" style=""width:200px;border:14px solid red;"">","null","","","","","","","","",""
"","image-keyboard-response","345","171248","0.0-345.0","34J10VATJGKA9F3QJ3N3A2GP1EMIQF","A9LYIVFG3ZU4Z","3BDORL6HKKZHMTYWD6BFF6WBDQ9CRF","","46","img/flower2.png","74","47","1","0","1","2","1,0,0,1,1,0,1,0,1","0,1,0,0,1,1,1,1,0","3",""
"","html-keyboard-response","346","171550","0.0-346.0","34J10VATJGKA9F3QJ3N3A2GP1EMIQF","A9LYIVFG3ZU4Z","3BDORL6HKKZHMTYWD6BFF6WBDQ9CRF","","null","<img src=""img/flower2.png"" style=""width:200px;border:14px solid red;"">","null","","","","","","","","",""
"","image-keyboard-response","347","171580","0.0-347.0","34J10VATJGKA9F3QJ3N3A2GP1EMIQF","A9LYIVFG3ZU4Z","3BDORL6HKKZHMTYWD6BFF6WBDQ9CRF","","29","img/flower2.png","76","30","3","0","1","2","1,0,0,1,1,0,1,0,1","0,1,0,0,1,1,1,1,0","3",""
"","html-keyboard-response","348","171882","0.0-348.0","34J10VATJGKA9F3QJ3N3A2GP1EMIQF","A9LYIVFG3ZU4Z","3BDORL6HKKZHMTYWD6BFF6WBDQ9CRF","","null","<img src=""img/flower2.png"" style=""width:200px;border:14px solid red;"">","null","","","","","","","","",""
"","image-keyboard-response","349","171939","0.0-349.0","34J10VATJGKA9F3QJ3N3A2GP1EMIQF","A9LYIVFG3ZU4Z","3BDORL6HKKZHMTYWD6BFF6WBDQ9CRF","","56","img/flower6.png","75","57","2","1","3","2","1,0,0,1,1,0,1,0,1","0,1,0,0,1,1,1,1,0","3",""
"","html-keyboard-response","350","172240","0.0-350.0","34J10VATJGKA9F3QJ3N3A2GP1EMIQF","A9LYIVFG3ZU4Z","3BDORL6HKKZHMTYWD6BFF6WBDQ9CRF","","null","<img src=""img/flower6.png"" style=""width:200px; border:14px solid green;"">","null","","","","","","","","",""
"","image-keyboard-response","351","172319","0.0-351.0","34J10VATJGKA9F3QJ3N3A2GP1EMIQF","A9LYIVFG3ZU4Z","3BDORL6HKKZHMTYWD6BFF6WBDQ9CRF","","78","img/flower6.png","75","79","2","1","3","2","1,0,0,1,1,0,1,0,1","0,1,0,0,1,1,1,1,0","3",""
"","html-keyboard-response","352","172620","0.0-352.0","34J10VATJGKA9F3QJ3N3A2GP1EMIQF","A9LYIVFG3ZU4Z","3BDORL6HKKZHMTYWD6BFF6WBDQ9CRF","","null","<img src=""img/flower6.png"" style=""width:200px; border:14px solid green;"">","null","","","","","","","","",""
"","image-keyboard-response","353","172679","0.0-353.0","34J10VATJGKA9F3QJ3N3A2GP1EMIQF","A9LYIVFG3ZU4Z","3BDORL6HKKZHMTYWD6BFF6WBDQ9CRF","","58","img/flower6.png","76","59","3","0","3","2","1,0,0,1,1,0,1,0,1","0,1,0,0,1,1,1,1,0","3",""
"","html-keyboard-response","354","172981","0.0-354.0","34J10VATJGKA9F3QJ3N3A2GP1EMIQF","A9LYIVFG3ZU4Z","3BDORL6HKKZHMTYWD6BFF6WBDQ9CRF","","null","<img src=""img/flower6.png"" style=""width:200px;border:14px solid red;"">","null","","","","","","","","",""
"","image-keyboard-response","355","173019","0.0-355.0","34J10VATJGKA9F3QJ3N3A2GP1EMIQF","A9LYIVFG3ZU4Z","3BDORL6HKKZHMTYWD6BFF6WBDQ9CRF","","37","img/flower2.png","76","39","3","0","1","2","1,0,0,1,1,0,1,0,1","0,1,0,0,1,1,1,1,0","3",""
"","html-keyboard-response","356","173321","0.0-356.0","34J10VATJGKA9F3QJ3N3A2GP1EMIQF","A9LYIVFG3ZU4Z","3BDORL6HKKZHMTYWD6BFF6WBDQ9CRF","","null","<img src=""img/flower2.png"" style=""width:200px;border:14px solid red;"">","null","","","","","","","","",""
"","image-keyboard-response","357","173339","0.0-357.0","34J10VATJGKA9F3QJ3N3A2GP1EMIQF","A9LYIVFG3ZU4Z","3BDORL6HKKZHMTYWD6BFF6WBDQ9CRF","","17","img/flower6.png","75","18","2","1","3","2","1,0,0,1,1,0,1,0,1","0,1,0,0,1,1,1,1,0","3",""
"","html-keyboard-response","358","173640","0.0-358.0","34J10VATJGKA9F3QJ3N3A2GP1EMIQF","A9LYIVFG3ZU4Z","3BDORL6HKKZHMTYWD6BFF6WBDQ9CRF","","null","<img src=""img/flower6.png"" style=""width:200px; border:14px solid green;"">","null","","","","","","","","",""
"","image-keyboard-response","359","173659","0.0-359.0","34J10VATJGKA9F3QJ3N3A2GP1EMIQF","A9LYIVFG3ZU4Z","3BDORL6HKKZHMTYWD6BFF6WBDQ9CRF","","18","img/flower1.png","76","19","3","1","2","2","1,0,0,1,1,0,1,0,1","0,1,0,0,1,1,1,1,0","3",""
"","html-keyboard-response","360","173961","0.0-360.0","34J10VATJGKA9F3QJ3N3A2GP1EMIQF","A9LYIVFG3ZU4Z","3BDORL6HKKZHMTYWD6BFF6WBDQ9CRF","","null","<img src=""img/flower1.png"" style=""width:200px; border:14px solid green;"">","null","","","","","","","","",""
"","image-keyboard-response","361","173979","0.0-361.0","34J10VATJGKA9F3QJ3N3A2GP1EMIQF","A9LYIVFG3ZU4Z","3BDORL6HKKZHMTYWD6BFF6WBDQ9CRF","","18","img/flower1.png","76","18","3","1","2","2","1,0,0,1,1,0,1,0,1","0,1,0,0,1,1,1,1,0","3",""
"","html-keyboard-response","362","174280","0.0-362.0","34J10VATJGKA9F3QJ3N3A2GP1EMIQF","A9LYIVFG3ZU4Z","3BDORL6HKKZHMTYWD6BFF6WBDQ9CRF","","null","<img src=""img/flower1.png"" style=""width:200px; border:14px solid green;"">","null","","","","","","","","",""
"","instructions","363","177540","0.0-363.0","34J10VATJGKA9F3QJ3N3A2GP1EMIQF","A9LYIVFG3ZU4Z","3BDORL6HKKZHMTYWD6BFF6WBDQ9CRF","[{""page_index"":0,""viewing_time"":3258}]","3259","","","","","","","","","","",""
"","survey-text","364","182634","0.0-364.0","34J10VATJGKA9F3QJ3N3A2GP1EMIQF","A9LYIVFG3ZU4Z","3BDORL6HKKZHMTYWD6BFF6WBDQ9CRF","","5083","","","","","","","","","","","{""Q0"":""A9LYIVFG3ZU4Z""}"
