"success","trial_type","trial_index","time_elapsed","internal_node_id","assignmentID","mturkID","hitID","view_history","rt","stimulus","key_press","reactionTime","a","r","s","cond","reward_cond","reward_cond_actual","reward_matrix_idx","responses"
"true","fullscreen","0","2266","0.0-0.0","30LB5CDZNDW8GCN129HAVRSXLXOZ0E","A9S6EGIY10U0X","3TKXBROM5TWR181JXBYSOI8FGFVJIU","","","","","","","","","","","","",""
"","instructions","1","41314","0.0-1.0","30LB5CDZNDW8GCN129HAVRSXLXOZ0E","A9S6EGIY10U0X","3TKXBROM5TWR181JXBYSOI8FGFVJIU","[{""page_index"":0,""viewing_time"":3912},{""page_index"":1,""viewing_time"":1675},{""page_index"":2,""viewing_time"":1516},{""page_index"":1,""viewing_time"":389},{""page_index"":2,""viewing_time"":228},{""page_index"":3,""viewing_time"":2319},{""page_index"":4,""viewing_time"":6187},{""page_index"":5,""viewing_time"":1882},{""page_index"":4,""viewing_time"":1336},{""page_index"":5,""viewing_time"":6081},{""page_index"":6,""viewing_time"":6401},{""page_index"":7,""viewing_time"":7119}]","39045","","","","","","","","","","",""
"","image-keyboard-response","2","42281","0.0-2.0","30LB5CDZNDW8GCN129HAVRSXLXOZ0E","A9S6EGIY10U0X","3TKXBROM5TWR181JXBYSOI8FGFVJIU","","966","img/flower3.png","74","968","1","0","1","2","1,0,0,1,1,0,1,0,1","0,0,1,1,0,1,0,1,1","2",""
"","html-keyboard-response","3","42596","0.0-3.0","30LB5CDZNDW8GCN129HAVRSXLXOZ0E","A9S6EGIY10U0X","3TKXBROM5TWR181JXBYSOI8FGFVJIU","","null","<img src=""img/flower3.png"" style=""width:200px;border:14px solid red;"">","null","","","","","","","","",""
"","image-keyboard-response","4","43306","0.0-4.0","30LB5CDZNDW8GCN129HAVRSXLXOZ0E","A9S6EGIY10U0X","3TKXBROM5TWR181JXBYSOI8FGFVJIU","","706","img/flower5.png","74","707","1","1","2","2","1,0,0,1,1,0,1,0,1","0,0,1,1,0,1,0,1,1","2",""
"","html-keyboard-response","5","43609","0.0-5.0","30LB5CDZNDW8GCN129HAVRSXLXOZ0E","A9S6EGIY10U0X","3TKXBROM5TWR181JXBYSOI8FGFVJIU","","null","<img src=""img/flower5.png"" style=""width:200px; border:14px solid green;"">","null","","","","","","","","",""
"","image-keyboard-response","6","44362","0.0-6.0","30LB5CDZNDW8GCN129HAVRSXLXOZ0E","A9S6EGIY10U0X","3TKXBROM5TWR181JXBYSOI8FGFVJIU","","753","img/flower6.png","75","753","2","1","3","2","1,0,0,1,1,0,1,0,1","0,0,1,1,0,1,0,1,1","2",""
"","html-keyboard-response","7","44671","0.0-7.0","30LB5CDZNDW8GCN129HAVRSXLXOZ0E","A9S6EGIY10U0X","3TKXBROM5TWR181JXBYSOI8FGFVJIU","","null","<img src=""img/flower6.png"" style=""width:200px; border:14px solid green;"">","null","","","","","","","","",""
"","image-keyboard-response","8","45288","0.0-8.0","30LB5CDZNDW8GCN129HAVRSXLXOZ0E","A9S6EGIY10U0X","3TKXBROM5TWR181JXBYSOI8FGFVJIU","","616","img/flower6.png","75","617","2","1","3","2","1,0,0,1,1,0,1,0,1","0,0,1,1,0,1,0,1,1","2",""
"","html-keyboard-response","9","45593","0.0-9.0","30LB5CDZNDW8GCN129HAVRSXLXOZ0E","A9S6EGIY10U0X","3TKXBROM5TWR181JXBYSOI8FGFVJIU","","null","<img src=""img/flower6.png"" style=""width:200px; border:14px solid green;"">","null","","","","","","","","",""
"","image-keyboard-response","10","46195","0.0-10.0","30LB5CDZNDW8GCN129HAVRSXLXOZ0E","A9S6EGIY10U0X","3TKXBROM5TWR181JXBYSOI8FGFVJIU","","603","img/flower3.png","74","603","1","0","1","2","1,0,0,1,1,0,1,0,1","0,0,1,1,0,1,0,1,1","2",""
"","html-keyboard-response","11","46498","0.0-11.0","30LB5CDZNDW8GCN129HAVRSXLXOZ0E","A9S6EGIY10U0X","3TKXBROM5TWR181JXBYSOI8FGFVJIU","","null","<img src=""img/flower3.png"" style=""width:200px;border:14px solid red;"">","null","","","","","","","","",""
"","image-keyboard-response","12","47307","0.0-12.0","30LB5CDZNDW8GCN129HAVRSXLXOZ0E","A9S6EGIY10U0X","3TKXBROM5TWR181JXBYSOI8FGFVJIU","","807","img/flower6.png","75","807","2","1","3","2","1,0,0,1,1,0,1,0,1","0,0,1,1,0,1,0,1,1","2",""
"","html-keyboard-response","13","47611","0.0-13.0","30LB5CDZNDW8GCN129HAVRSXLXOZ0E","A9S6EGIY10U0X","3TKXBROM5TWR181JXBYSOI8FGFVJIU","","null","<img src=""img/flower6.png"" style=""width:200px; border:14px solid green;"">","null","","","","","","","","",""
"","image-keyboard-response","14","48158","0.0-14.0","30LB5CDZNDW8GCN129HAVRSXLXOZ0E","A9S6EGIY10U0X","3TKXBROM5TWR181JXBYSOI8FGFVJIU","","545","img/flower3.png","76","547","3","1","1","2","1,0,0,1,1,0,1,0,1","0,0,1,1,0,1,0,1,1","2",""
"","html-keyboard-response","15","48463","0.0-15.0","30LB5CDZNDW8GCN129HAVRSXLXOZ0E","A9S6EGIY10U0X","3TKXBROM5TWR181JXBYSOI8FGFVJIU","","null","<img src=""img/flower3.png"" style=""width:200px; border:14px solid green;"">","null","","","","","","","","",""
"","image-keyboard-response","16","49106","0.0-16.0","30LB5CDZNDW8GCN129HAVRSXLXOZ0E","A9S6EGIY10U0X","3TKXBROM5TWR181JXBYSOI8FGFVJIU","","642","img/flower5.png","74","642","1","1","2","2","1,0,0,1,1,0,1,0,1","0,0,1,1,0,1,0,1,1","2",""
"","html-keyboard-response","17","49413","0.0-17.0","30LB5CDZNDW8GCN129HAVRSXLXOZ0E","A9S6EGIY10U0X","3TKXBROM5TWR181JXBYSOI8FGFVJIU","","null","<img src=""img/flower5.png"" style=""width:200px; border:14px solid green;"">","null","","","","","","","","",""
"","image-keyboard-response","18","50105","0.0-18.0","30LB5CDZNDW8GCN129HAVRSXLXOZ0E","A9S6EGIY10U0X","3TKXBROM5TWR181JXBYSOI8FGFVJIU","","692","img/flower3.png","75","693","2","0","1","2","1,0,0,1,1,0,1,0,1","0,0,1,1,0,1,0,1,1","2",""
"","html-keyboard-response","19","50415","0.0-19.0","30LB5CDZNDW8GCN129HAVRSXLXOZ0E","A9S6EGIY10U0X","3TKXBROM5TWR181JXBYSOI8FGFVJIU","","null","<img src=""img/flower3.png"" style=""width:200px;border:14px solid red;"">","null","","","","","","","","",""
"","image-keyboard-response","20","51195","0.0-20.0","30LB5CDZNDW8GCN129HAVRSXLXOZ0E","A9S6EGIY10U0X","3TKXBROM5TWR181JXBYSOI8FGFVJIU","","779","img/flower5.png","76","779","3","1","2","2","1,0,0,1,1,0,1,0,1","0,0,1,1,0,1,0,1,1","2",""
"","html-keyboard-response","21","51504","0.0-21.0","30LB5CDZNDW8GCN129HAVRSXLXOZ0E","A9S6EGIY10U0X","3TKXBROM5TWR181JXBYSOI8FGFVJIU","","null","<img src=""img/flower5.png"" style=""width:200px; border:14px solid green;"">","null","","","","","","","","",""
"","image-keyboard-response","22","53038","0.0-22.0","30LB5CDZNDW8GCN129HAVRSXLXOZ0E","A9S6EGIY10U0X","3TKXBROM5TWR181JXBYSOI8FGFVJIU","","1532","img/flower6.png","76","1533","3","1","3","2","1,0,0,1,1,0,1,0,1","0,0,1,1,0,1,0,1,1","2",""
"","html-keyboard-response","23","53347","0.0-23.0","30LB5CDZNDW8GCN129HAVRSXLXOZ0E","A9S6EGIY10U0X","3TKXBROM5TWR181JXBYSOI8FGFVJIU","","null","<img src=""img/flower6.png"" style=""width:200px; border:14px solid green;"">","null","","","","","","","","",""
"","image-keyboard-response","24","54184","0.0-24.0","30LB5CDZNDW8GCN129HAVRSXLXOZ0E","A9S6EGIY10U0X","3TKXBROM5TWR181JXBYSOI8FGFVJIU","","837","img/flower5.png","74","839","1","1","2","2","1,0,0,1,1,0,1,0,1","0,0,1,1,0,1,0,1,1","2",""
"","html-keyboard-response","25","54485","0.0-25.0","30LB5CDZNDW8GCN129HAVRSXLXOZ0E","A9S6EGIY10U0X","3TKXBROM5TWR181JXBYSOI8FGFVJIU","","null","<img src=""img/flower5.png"" style=""width:200px; border:14px solid green;"">","null","","","","","","","","",""
"","image-keyboard-response","26","55362","0.0-26.0","30LB5CDZNDW8GCN129HAVRSXLXOZ0E","A9S6EGIY10U0X","3TKXBROM5TWR181JXBYSOI8FGFVJIU","","874","img/flower3.png","76","875","3","1","1","2","1,0,0,1,1,0,1,0,1","0,0,1,1,0,1,0,1,1","2",""
"","html-keyboard-response","27","55674","0.0-27.0","30LB5CDZNDW8GCN129HAVRSXLXOZ0E","A9S6EGIY10U0X","3TKXBROM5TWR181JXBYSOI8FGFVJIU","","null","<img src=""img/flower3.png"" style=""width:200px; border:14px solid green;"">","null","","","","","","","","",""
"","image-keyboard-response","28","56456","0.0-28.0","30LB5CDZNDW8GCN129HAVRSXLXOZ0E","A9S6EGIY10U0X","3TKXBROM5TWR181JXBYSOI8FGFVJIU","","779","img/flower6.png","75","781","2","1","3","2","1,0,0,1,1,0,1,0,1","0,0,1,1,0,1,0,1,1","2",""
"","html-keyboard-response","29","56769","0.0-29.0","30LB5CDZNDW8GCN129HAVRSXLXOZ0E","A9S6EGIY10U0X","3TKXBROM5TWR181JXBYSOI8FGFVJIU","","null","<img src=""img/flower6.png"" style=""width:200px; border:14px solid green;"">","null","","","","","","","","",""
"","image-keyboard-response","30","57213","0.0-30.0","30LB5CDZNDW8GCN129HAVRSXLXOZ0E","A9S6EGIY10U0X","3TKXBROM5TWR181JXBYSOI8FGFVJIU","","444","img/flower6.png","75","445","2","1","3","2","1,0,0,1,1,0,1,0,1","0,0,1,1,0,1,0,1,1","2",""
"","html-keyboard-response","31","57529","0.0-31.0","30LB5CDZNDW8GCN129HAVRSXLXOZ0E","A9S6EGIY10U0X","3TKXBROM5TWR181JXBYSOI8FGFVJIU","","null","<img src=""img/flower6.png"" style=""width:200px; border:14px solid green;"">","null","","","","","","","","",""
"","image-keyboard-response","32","57945","0.0-32.0","30LB5CDZNDW8GCN129HAVRSXLXOZ0E","A9S6EGIY10U0X","3TKXBROM5TWR181JXBYSOI8FGFVJIU","","417","img/flower6.png","75","417","2","1","3","2","1,0,0,1,1,0,1,0,1","0,0,1,1,0,1,0,1,1","2",""
"","html-keyboard-response","33","58258","0.0-33.0","30LB5CDZNDW8GCN129HAVRSXLXOZ0E","A9S6EGIY10U0X","3TKXBROM5TWR181JXBYSOI8FGFVJIU","","null","<img src=""img/flower6.png"" style=""width:200px; border:14px solid green;"">","null","","","","","","","","",""
"","image-keyboard-response","34","58921","0.0-34.0","30LB5CDZNDW8GCN129HAVRSXLXOZ0E","A9S6EGIY10U0X","3TKXBROM5TWR181JXBYSOI8FGFVJIU","","662","img/flower3.png","76","663","3","1","1","2","1,0,0,1,1,0,1,0,1","0,0,1,1,0,1,0,1,1","2",""
"","html-keyboard-response","35","59234","0.0-35.0","30LB5CDZNDW8GCN129HAVRSXLXOZ0E","A9S6EGIY10U0X","3TKXBROM5TWR181JXBYSOI8FGFVJIU","","null","<img src=""img/flower3.png"" style=""width:200px; border:14px solid green;"">","null","","","","","","","","",""
"","image-keyboard-response","36","59862","0.0-36.0","30LB5CDZNDW8GCN129HAVRSXLXOZ0E","A9S6EGIY10U0X","3TKXBROM5TWR181JXBYSOI8FGFVJIU","","628","img/flower6.png","75","628","2","1","3","2","1,0,0,1,1,0,1,0,1","0,0,1,1,0,1,0,1,1","2",""
"","html-keyboard-response","37","60169","0.0-37.0","30LB5CDZNDW8GCN129HAVRSXLXOZ0E","A9S6EGIY10U0X","3TKXBROM5TWR181JXBYSOI8FGFVJIU","","null","<img src=""img/flower6.png"" style=""width:200px; border:14px solid green;"">","null","","","","","","","","",""
"","image-keyboard-response","38","60526","0.0-38.0","30LB5CDZNDW8GCN129HAVRSXLXOZ0E","A9S6EGIY10U0X","3TKXBROM5TWR181JXBYSOI8FGFVJIU","","356","img/flower6.png","75","357","2","1","3","2","1,0,0,1,1,0,1,0,1","0,0,1,1,0,1,0,1,1","2",""
"","html-keyboard-response","39","60833","0.0-39.0","30LB5CDZNDW8GCN129HAVRSXLXOZ0E","A9S6EGIY10U0X","3TKXBROM5TWR181JXBYSOI8FGFVJIU","","null","<img src=""img/flower6.png"" style=""width:200px; border:14px solid green;"">","null","","","","","","","","",""
"","image-keyboard-response","40","61207","0.0-40.0","30LB5CDZNDW8GCN129HAVRSXLXOZ0E","A9S6EGIY10U0X","3TKXBROM5TWR181JXBYSOI8FGFVJIU","","374","img/flower5.png","74","375","1","1","2","2","1,0,0,1,1,0,1,0,1","0,0,1,1,0,1,0,1,1","2",""
"","html-keyboard-response","41","61517","0.0-41.0","30LB5CDZNDW8GCN129HAVRSXLXOZ0E","A9S6EGIY10U0X","3TKXBROM5TWR181JXBYSOI8FGFVJIU","","null","<img src=""img/flower5.png"" style=""width:200px; border:14px solid green;"">","null","","","","","","","","",""
"","image-keyboard-response","42","62217","0.0-42.0","30LB5CDZNDW8GCN129HAVRSXLXOZ0E","A9S6EGIY10U0X","3TKXBROM5TWR181JXBYSOI8FGFVJIU","","700","img/flower6.png","75","700","2","1","3","2","1,0,0,1,1,0,1,0,1","0,0,1,1,0,1,0,1,1","2",""
"","html-keyboard-response","43","62526","0.0-43.0","30LB5CDZNDW8GCN129HAVRSXLXOZ0E","A9S6EGIY10U0X","3TKXBROM5TWR181JXBYSOI8FGFVJIU","","null","<img src=""img/flower6.png"" style=""width:200px; border:14px solid green;"">","null","","","","","","","","",""
"","image-keyboard-response","44","63176","0.0-44.0","30LB5CDZNDW8GCN129HAVRSXLXOZ0E","A9S6EGIY10U0X","3TKXBROM5TWR181JXBYSOI8FGFVJIU","","650","img/flower3.png","76","651","3","1","1","2","1,0,0,1,1,0,1,0,1","0,0,1,1,0,1,0,1,1","2",""
"","html-keyboard-response","45","63492","0.0-45.0","30LB5CDZNDW8GCN129HAVRSXLXOZ0E","A9S6EGIY10U0X","3TKXBROM5TWR181JXBYSOI8FGFVJIU","","null","<img src=""img/flower3.png"" style=""width:200px; border:14px solid green;"">","null","","","","","","","","",""
"","image-keyboard-response","46","64164","0.0-46.0","30LB5CDZNDW8GCN129HAVRSXLXOZ0E","A9S6EGIY10U0X","3TKXBROM5TWR181JXBYSOI8FGFVJIU","","671","img/flower5.png","74","673","1","1","2","2","1,0,0,1,1,0,1,0,1","0,0,1,1,0,1,0,1,1","2",""
"","html-keyboard-response","47","64473","0.0-47.0","30LB5CDZNDW8GCN129HAVRSXLXOZ0E","A9S6EGIY10U0X","3TKXBROM5TWR181JXBYSOI8FGFVJIU","","null","<img src=""img/flower5.png"" style=""width:200px; border:14px solid green;"">","null","","","","","","","","",""
"","image-keyboard-response","48","65493","0.0-48.0","30LB5CDZNDW8GCN129HAVRSXLXOZ0E","A9S6EGIY10U0X","3TKXBROM5TWR181JXBYSOI8FGFVJIU","","1017","img/flower3.png","76","1018","3","1","1","2","1,0,0,1,1,0,1,0,1","0,0,1,1,0,1,0,1,1","2",""
"","html-keyboard-response","49","65799","0.0-49.0","30LB5CDZNDW8GCN129HAVRSXLXOZ0E","A9S6EGIY10U0X","3TKXBROM5TWR181JXBYSOI8FGFVJIU","","null","<img src=""img/flower3.png"" style=""width:200px; border:14px solid green;"">","null","","","","","","","","",""
"","image-keyboard-response","50","66441","0.0-50.0","30LB5CDZNDW8GCN129HAVRSXLXOZ0E","A9S6EGIY10U0X","3TKXBROM5TWR181JXBYSOI8FGFVJIU","","641","img/flower5.png","74","641","1","1","2","2","1,0,0,1,1,0,1,0,1","0,0,1,1,0,1,0,1,1","2",""
"","html-keyboard-response","51","66752","0.0-51.0","30LB5CDZNDW8GCN129HAVRSXLXOZ0E","A9S6EGIY10U0X","3TKXBROM5TWR181JXBYSOI8FGFVJIU","","null","<img src=""img/flower5.png"" style=""width:200px; border:14px solid green;"">","null","","","","","","","","",""
"","image-keyboard-response","52","67202","0.0-52.0","30LB5CDZNDW8GCN129HAVRSXLXOZ0E","A9S6EGIY10U0X","3TKXBROM5TWR181JXBYSOI8FGFVJIU","","448","img/flower5.png","74","450","1","1","2","2","1,0,0,1,1,0,1,0,1","0,0,1,1,0,1,0,1,1","2",""
"","html-keyboard-response","53","67516","0.0-53.0","30LB5CDZNDW8GCN129HAVRSXLXOZ0E","A9S6EGIY10U0X","3TKXBROM5TWR181JXBYSOI8FGFVJIU","","null","<img src=""img/flower5.png"" style=""width:200px; border:14px solid green;"">","null","","","","","","","","",""
"","image-keyboard-response","54","67907","0.0-54.0","30LB5CDZNDW8GCN129HAVRSXLXOZ0E","A9S6EGIY10U0X","3TKXBROM5TWR181JXBYSOI8FGFVJIU","","390","img/flower5.png","74","390","1","1","2","2","1,0,0,1,1,0,1,0,1","0,0,1,1,0,1,0,1,1","2",""
"","html-keyboard-response","55","68213","0.0-55.0","30LB5CDZNDW8GCN129HAVRSXLXOZ0E","A9S6EGIY10U0X","3TKXBROM5TWR181JXBYSOI8FGFVJIU","","null","<img src=""img/flower5.png"" style=""width:200px; border:14px solid green;"">","null","","","","","","","","",""
"","image-keyboard-response","56","68820","0.0-56.0","30LB5CDZNDW8GCN129HAVRSXLXOZ0E","A9S6EGIY10U0X","3TKXBROM5TWR181JXBYSOI8FGFVJIU","","607","img/flower3.png","76","607","3","1","1","2","1,0,0,1,1,0,1,0,1","0,0,1,1,0,1,0,1,1","2",""
"","html-keyboard-response","57","69133","0.0-57.0","30LB5CDZNDW8GCN129HAVRSXLXOZ0E","A9S6EGIY10U0X","3TKXBROM5TWR181JXBYSOI8FGFVJIU","","null","<img src=""img/flower3.png"" style=""width:200px; border:14px solid green;"">","null","","","","","","","","",""
"","image-keyboard-response","58","69802","0.0-58.0","30LB5CDZNDW8GCN129HAVRSXLXOZ0E","A9S6EGIY10U0X","3TKXBROM5TWR181JXBYSOI8FGFVJIU","","668","img/flower5.png","74","668","1","1","2","2","1,0,0,1,1,0,1,0,1","0,0,1,1,0,1,0,1,1","2",""
"","html-keyboard-response","59","70118","0.0-59.0","30LB5CDZNDW8GCN129HAVRSXLXOZ0E","A9S6EGIY10U0X","3TKXBROM5TWR181JXBYSOI8FGFVJIU","","null","<img src=""img/flower5.png"" style=""width:200px; border:14px solid green;"">","null","","","","","","","","",""
"","image-keyboard-response","60","70795","0.0-60.0","30LB5CDZNDW8GCN129HAVRSXLXOZ0E","A9S6EGIY10U0X","3TKXBROM5TWR181JXBYSOI8FGFVJIU","","677","img/flower6.png","75","677","2","1","3","2","1,0,0,1,1,0,1,0,1","0,0,1,1,0,1,0,1,1","2",""
"","html-keyboard-response","61","71110","0.0-61.0","30LB5CDZNDW8GCN129HAVRSXLXOZ0E","A9S6EGIY10U0X","3TKXBROM5TWR181JXBYSOI8FGFVJIU","","null","<img src=""img/flower6.png"" style=""width:200px; border:14px solid green;"">","null","","","","","","","","",""
"","image-keyboard-response","62","71684","0.0-62.0","30LB5CDZNDW8GCN129HAVRSXLXOZ0E","A9S6EGIY10U0X","3TKXBROM5TWR181JXBYSOI8FGFVJIU","","573","img/flower5.png","74","574","1","1","2","2","1,0,0,1,1,0,1,0,1","0,0,1,1,0,1,0,1,1","2",""
"","html-keyboard-response","63","71996","0.0-63.0","30LB5CDZNDW8GCN129HAVRSXLXOZ0E","A9S6EGIY10U0X","3TKXBROM5TWR181JXBYSOI8FGFVJIU","","null","<img src=""img/flower5.png"" style=""width:200px; border:14px solid green;"">","null","","","","","","","","",""
"","image-keyboard-response","64","72486","0.0-64.0","30LB5CDZNDW8GCN129HAVRSXLXOZ0E","A9S6EGIY10U0X","3TKXBROM5TWR181JXBYSOI8FGFVJIU","","490","img/flower5.png","74","490","1","1","2","2","1,0,0,1,1,0,1,0,1","0,0,1,1,0,1,0,1,1","2",""
"","html-keyboard-response","65","72787","0.0-65.0","30LB5CDZNDW8GCN129HAVRSXLXOZ0E","A9S6EGIY10U0X","3TKXBROM5TWR181JXBYSOI8FGFVJIU","","null","<img src=""img/flower5.png"" style=""width:200px; border:14px solid green;"">","null","","","","","","","","",""
"","image-keyboard-response","66","73158","0.0-66.0","30LB5CDZNDW8GCN129HAVRSXLXOZ0E","A9S6EGIY10U0X","3TKXBROM5TWR181JXBYSOI8FGFVJIU","","369","img/flower5.png","74","370","1","1","2","2","1,0,0,1,1,0,1,0,1","0,0,1,1,0,1,0,1,1","2",""
"","html-keyboard-response","67","73467","0.0-67.0","30LB5CDZNDW8GCN129HAVRSXLXOZ0E","A9S6EGIY10U0X","3TKXBROM5TWR181JXBYSOI8FGFVJIU","","null","<img src=""img/flower5.png"" style=""width:200px; border:14px solid green;"">","null","","","","","","","","",""
"","image-keyboard-response","68","73977","0.0-68.0","30LB5CDZNDW8GCN129HAVRSXLXOZ0E","A9S6EGIY10U0X","3TKXBROM5TWR181JXBYSOI8FGFVJIU","","509","img/flower6.png","75","510","2","1","3","2","1,0,0,1,1,0,1,0,1","0,0,1,1,0,1,0,1,1","2",""
"","html-keyboard-response","69","74290","0.0-69.0","30LB5CDZNDW8GCN129HAVRSXLXOZ0E","A9S6EGIY10U0X","3TKXBROM5TWR181JXBYSOI8FGFVJIU","","null","<img src=""img/flower6.png"" style=""width:200px; border:14px solid green;"">","null","","","","","","","","",""
"","image-keyboard-response","70","74736","0.0-70.0","30LB5CDZNDW8GCN129HAVRSXLXOZ0E","A9S6EGIY10U0X","3TKXBROM5TWR181JXBYSOI8FGFVJIU","","444","img/flower5.png","75","445","2","0","2","2","1,0,0,1,1,0,1,0,1","0,0,1,1,0,1,0,1,1","2",""
"","html-keyboard-response","71","75050","0.0-71.0","30LB5CDZNDW8GCN129HAVRSXLXOZ0E","A9S6EGIY10U0X","3TKXBROM5TWR181JXBYSOI8FGFVJIU","","null","<img src=""img/flower5.png"" style=""width:200px;border:14px solid red;"">","null","","","","","","","","",""
"","image-keyboard-response","72","75697","0.0-72.0","30LB5CDZNDW8GCN129HAVRSXLXOZ0E","A9S6EGIY10U0X","3TKXBROM5TWR181JXBYSOI8FGFVJIU","","645","img/flower6.png","75","645","2","1","3","2","1,0,0,1,1,0,1,0,1","0,0,1,1,0,1,0,1,1","2",""
"","html-keyboard-response","73","76004","0.0-73.0","30LB5CDZNDW8GCN129HAVRSXLXOZ0E","A9S6EGIY10U0X","3TKXBROM5TWR181JXBYSOI8FGFVJIU","","null","<img src=""img/flower6.png"" style=""width:200px; border:14px solid green;"">","null","","","","","","","","",""
"","image-keyboard-response","74","76423","0.0-74.0","30LB5CDZNDW8GCN129HAVRSXLXOZ0E","A9S6EGIY10U0X","3TKXBROM5TWR181JXBYSOI8FGFVJIU","","418","img/flower6.png","75","420","2","1","3","2","1,0,0,1,1,0,1,0,1","0,0,1,1,0,1,0,1,1","2",""
"","html-keyboard-response","75","76737","0.0-75.0","30LB5CDZNDW8GCN129HAVRSXLXOZ0E","A9S6EGIY10U0X","3TKXBROM5TWR181JXBYSOI8FGFVJIU","","null","<img src=""img/flower6.png"" style=""width:200px; border:14px solid green;"">","null","","","","","","","","",""
"","image-keyboard-response","76","77229","0.0-76.0","30LB5CDZNDW8GCN129HAVRSXLXOZ0E","A9S6EGIY10U0X","3TKXBROM5TWR181JXBYSOI8FGFVJIU","","490","img/flower5.png","74","492","1","1","2","2","1,0,0,1,1,0,1,0,1","0,0,1,1,0,1,0,1,1","2",""
"","html-keyboard-response","77","77541","0.0-77.0","30LB5CDZNDW8GCN129HAVRSXLXOZ0E","A9S6EGIY10U0X","3TKXBROM5TWR181JXBYSOI8FGFVJIU","","null","<img src=""img/flower5.png"" style=""width:200px; border:14px solid green;"">","null","","","","","","","","",""
"","image-keyboard-response","78","77986","0.0-78.0","30LB5CDZNDW8GCN129HAVRSXLXOZ0E","A9S6EGIY10U0X","3TKXBROM5TWR181JXBYSOI8FGFVJIU","","443","img/flower5.png","74","445","1","1","2","2","1,0,0,1,1,0,1,0,1","0,0,1,1,0,1,0,1,1","2",""
"","html-keyboard-response","79","78299","0.0-79.0","30LB5CDZNDW8GCN129HAVRSXLXOZ0E","A9S6EGIY10U0X","3TKXBROM5TWR181JXBYSOI8FGFVJIU","","null","<img src=""img/flower5.png"" style=""width:200px; border:14px solid green;"">","null","","","","","","","","",""
"","image-keyboard-response","80","78684","0.0-80.0","30LB5CDZNDW8GCN129HAVRSXLXOZ0E","A9S6EGIY10U0X","3TKXBROM5TWR181JXBYSOI8FGFVJIU","","385","img/flower5.png","74","386","1","1","2","2","1,0,0,1,1,0,1,0,1","0,0,1,1,0,1,0,1,1","2",""
"","html-keyboard-response","81","78995","0.0-81.0","30LB5CDZNDW8GCN129HAVRSXLXOZ0E","A9S6EGIY10U0X","3TKXBROM5TWR181JXBYSOI8FGFVJIU","","null","<img src=""img/flower5.png"" style=""width:200px; border:14px solid green;"">","null","","","","","","","","",""
"","image-keyboard-response","82","79579","0.0-82.0","30LB5CDZNDW8GCN129HAVRSXLXOZ0E","A9S6EGIY10U0X","3TKXBROM5TWR181JXBYSOI8FGFVJIU","","583","img/flower6.png","75","583","2","1","3","2","1,0,0,1,1,0,1,0,1","0,0,1,1,0,1,0,1,1","2",""
"","html-keyboard-response","83","79882","0.0-83.0","30LB5CDZNDW8GCN129HAVRSXLXOZ0E","A9S6EGIY10U0X","3TKXBROM5TWR181JXBYSOI8FGFVJIU","","null","<img src=""img/flower6.png"" style=""width:200px; border:14px solid green;"">","null","","","","","","","","",""
"","image-keyboard-response","84","80316","0.0-84.0","30LB5CDZNDW8GCN129HAVRSXLXOZ0E","A9S6EGIY10U0X","3TKXBROM5TWR181JXBYSOI8FGFVJIU","","432","img/flower3.png","76","434","3","1","1","2","1,0,0,1,1,0,1,0,1","0,0,1,1,0,1,0,1,1","2",""
"","html-keyboard-response","85","80628","0.0-85.0","30LB5CDZNDW8GCN129HAVRSXLXOZ0E","A9S6EGIY10U0X","3TKXBROM5TWR181JXBYSOI8FGFVJIU","","null","<img src=""img/flower3.png"" style=""width:200px; border:14px solid green;"">","null","","","","","","","","",""
"","image-keyboard-response","86","81119","0.0-86.0","30LB5CDZNDW8GCN129HAVRSXLXOZ0E","A9S6EGIY10U0X","3TKXBROM5TWR181JXBYSOI8FGFVJIU","","491","img/flower5.png","74","492","1","1","2","2","1,0,0,1,1,0,1,0,1","0,0,1,1,0,1,0,1,1","2",""
"","html-keyboard-response","87","81421","0.0-87.0","30LB5CDZNDW8GCN129HAVRSXLXOZ0E","A9S6EGIY10U0X","3TKXBROM5TWR181JXBYSOI8FGFVJIU","","null","<img src=""img/flower5.png"" style=""width:200px; border:14px solid green;"">","null","","","","","","","","",""
"","image-keyboard-response","88","81784","0.0-88.0","30LB5CDZNDW8GCN129HAVRSXLXOZ0E","A9S6EGIY10U0X","3TKXBROM5TWR181JXBYSOI8FGFVJIU","","362","img/flower3.png","76","362","3","1","1","2","1,0,0,1,1,0,1,0,1","0,0,1,1,0,1,0,1,1","2",""
"","html-keyboard-response","89","82085","0.0-89.0","30LB5CDZNDW8GCN129HAVRSXLXOZ0E","A9S6EGIY10U0X","3TKXBROM5TWR181JXBYSOI8FGFVJIU","","null","<img src=""img/flower3.png"" style=""width:200px; border:14px solid green;"">","null","","","","","","","","",""
"","image-keyboard-response","90","82455","0.0-90.0","30LB5CDZNDW8GCN129HAVRSXLXOZ0E","A9S6EGIY10U0X","3TKXBROM5TWR181JXBYSOI8FGFVJIU","","369","img/flower3.png","76","369","3","1","1","2","1,0,0,1,1,0,1,0,1","0,0,1,1,0,1,0,1,1","2",""
"","html-keyboard-response","91","82767","0.0-91.0","30LB5CDZNDW8GCN129HAVRSXLXOZ0E","A9S6EGIY10U0X","3TKXBROM5TWR181JXBYSOI8FGFVJIU","","null","<img src=""img/flower3.png"" style=""width:200px; border:14px solid green;"">","null","","","","","","","","",""
"","image-keyboard-response","92","83134","0.0-92.0","30LB5CDZNDW8GCN129HAVRSXLXOZ0E","A9S6EGIY10U0X","3TKXBROM5TWR181JXBYSOI8FGFVJIU","","367","img/flower3.png","76","367","3","1","1","2","1,0,0,1,1,0,1,0,1","0,0,1,1,0,1,0,1,1","2",""
"","html-keyboard-response","93","83448","0.0-93.0","30LB5CDZNDW8GCN129HAVRSXLXOZ0E","A9S6EGIY10U0X","3TKXBROM5TWR181JXBYSOI8FGFVJIU","","null","<img src=""img/flower3.png"" style=""width:200px; border:14px solid green;"">","null","","","","","","","","",""
"","image-keyboard-response","94","83985","0.0-94.0","30LB5CDZNDW8GCN129HAVRSXLXOZ0E","A9S6EGIY10U0X","3TKXBROM5TWR181JXBYSOI8FGFVJIU","","536","img/flower6.png","75","537","2","1","3","2","1,0,0,1,1,0,1,0,1","0,0,1,1,0,1,0,1,1","2",""
"","html-keyboard-response","95","84288","0.0-95.0","30LB5CDZNDW8GCN129HAVRSXLXOZ0E","A9S6EGIY10U0X","3TKXBROM5TWR181JXBYSOI8FGFVJIU","","null","<img src=""img/flower6.png"" style=""width:200px; border:14px solid green;"">","null","","","","","","","","",""
"","image-keyboard-response","96","84778","0.0-96.0","30LB5CDZNDW8GCN129HAVRSXLXOZ0E","A9S6EGIY10U0X","3TKXBROM5TWR181JXBYSOI8FGFVJIU","","490","img/flower5.png","74","490","1","1","2","2","1,0,0,1,1,0,1,0,1","0,0,1,1,0,1,0,1,1","2",""
"","html-keyboard-response","97","85081","0.0-97.0","30LB5CDZNDW8GCN129HAVRSXLXOZ0E","A9S6EGIY10U0X","3TKXBROM5TWR181JXBYSOI8FGFVJIU","","null","<img src=""img/flower5.png"" style=""width:200px; border:14px solid green;"">","null","","","","","","","","",""
"","image-keyboard-response","98","85685","0.0-98.0","30LB5CDZNDW8GCN129HAVRSXLXOZ0E","A9S6EGIY10U0X","3TKXBROM5TWR181JXBYSOI8FGFVJIU","","602","img/flower3.png","76","603","3","1","1","2","1,0,0,1,1,0,1,0,1","0,0,1,1,0,1,0,1,1","2",""
"","html-keyboard-response","99","86001","0.0-99.0","30LB5CDZNDW8GCN129HAVRSXLXOZ0E","A9S6EGIY10U0X","3TKXBROM5TWR181JXBYSOI8FGFVJIU","","null","<img src=""img/flower3.png"" style=""width:200px; border:14px solid green;"">","null","","","","","","","","",""
"","image-keyboard-response","100","86569","0.0-100.0","30LB5CDZNDW8GCN129HAVRSXLXOZ0E","A9S6EGIY10U0X","3TKXBROM5TWR181JXBYSOI8FGFVJIU","","566","img/flower5.png","74","568","1","1","2","2","1,0,0,1,1,0,1,0,1","0,0,1,1,0,1,0,1,1","2",""
"","html-keyboard-response","101","86875","0.0-101.0","30LB5CDZNDW8GCN129HAVRSXLXOZ0E","A9S6EGIY10U0X","3TKXBROM5TWR181JXBYSOI8FGFVJIU","","null","<img src=""img/flower5.png"" style=""width:200px; border:14px solid green;"">","null","","","","","","","","",""
"","image-keyboard-response","102","87832","0.0-102.0","30LB5CDZNDW8GCN129HAVRSXLXOZ0E","A9S6EGIY10U0X","3TKXBROM5TWR181JXBYSOI8FGFVJIU","","955","img/flower6.png","75","956","2","1","3","2","1,0,0,1,1,0,1,0,1","0,0,1,1,0,1,0,1,1","2",""
"","html-keyboard-response","103","88141","0.0-103.0","30LB5CDZNDW8GCN129HAVRSXLXOZ0E","A9S6EGIY10U0X","3TKXBROM5TWR181JXBYSOI8FGFVJIU","","null","<img src=""img/flower6.png"" style=""width:200px; border:14px solid green;"">","null","","","","","","","","",""
"","image-keyboard-response","104","88715","0.0-104.0","30LB5CDZNDW8GCN129HAVRSXLXOZ0E","A9S6EGIY10U0X","3TKXBROM5TWR181JXBYSOI8FGFVJIU","","574","img/flower5.png","74","575","1","1","2","2","1,0,0,1,1,0,1,0,1","0,0,1,1,0,1,0,1,1","2",""
"","html-keyboard-response","105","89031","0.0-105.0","30LB5CDZNDW8GCN129HAVRSXLXOZ0E","A9S6EGIY10U0X","3TKXBROM5TWR181JXBYSOI8FGFVJIU","","null","<img src=""img/flower5.png"" style=""width:200px; border:14px solid green;"">","null","","","","","","","","",""
"","image-keyboard-response","106","89541","0.0-106.0","30LB5CDZNDW8GCN129HAVRSXLXOZ0E","A9S6EGIY10U0X","3TKXBROM5TWR181JXBYSOI8FGFVJIU","","508","img/flower3.png","76","509","3","1","1","2","1,0,0,1,1,0,1,0,1","0,0,1,1,0,1,0,1,1","2",""
"","html-keyboard-response","107","89853","0.0-107.0","30LB5CDZNDW8GCN129HAVRSXLXOZ0E","A9S6EGIY10U0X","3TKXBROM5TWR181JXBYSOI8FGFVJIU","","null","<img src=""img/flower3.png"" style=""width:200px; border:14px solid green;"">","null","","","","","","","","",""
"","image-keyboard-response","108","90519","0.0-108.0","30LB5CDZNDW8GCN129HAVRSXLXOZ0E","A9S6EGIY10U0X","3TKXBROM5TWR181JXBYSOI8FGFVJIU","","664","img/flower6.png","75","665","2","1","3","2","1,0,0,1,1,0,1,0,1","0,0,1,1,0,1,0,1,1","2",""
"","html-keyboard-response","109","90831","0.0-109.0","30LB5CDZNDW8GCN129HAVRSXLXOZ0E","A9S6EGIY10U0X","3TKXBROM5TWR181JXBYSOI8FGFVJIU","","null","<img src=""img/flower6.png"" style=""width:200px; border:14px solid green;"">","null","","","","","","","","",""
"","image-keyboard-response","110","91269","0.0-110.0","30LB5CDZNDW8GCN129HAVRSXLXOZ0E","A9S6EGIY10U0X","3TKXBROM5TWR181JXBYSOI8FGFVJIU","","436","img/flower6.png","75","437","2","1","3","2","1,0,0,1,1,0,1,0,1","0,0,1,1,0,1,0,1,1","2",""
"","html-keyboard-response","111","91578","0.0-111.0","30LB5CDZNDW8GCN129HAVRSXLXOZ0E","A9S6EGIY10U0X","3TKXBROM5TWR181JXBYSOI8FGFVJIU","","null","<img src=""img/flower6.png"" style=""width:200px; border:14px solid green;"">","null","","","","","","","","",""
"","image-keyboard-response","112","91950","0.0-112.0","30LB5CDZNDW8GCN129HAVRSXLXOZ0E","A9S6EGIY10U0X","3TKXBROM5TWR181JXBYSOI8FGFVJIU","","369","img/flower6.png","75","371","2","1","3","2","1,0,0,1,1,0,1,0,1","0,0,1,1,0,1,0,1,1","2",""
"","html-keyboard-response","113","92262","0.0-113.0","30LB5CDZNDW8GCN129HAVRSXLXOZ0E","A9S6EGIY10U0X","3TKXBROM5TWR181JXBYSOI8FGFVJIU","","null","<img src=""img/flower6.png"" style=""width:200px; border:14px solid green;"">","null","","","","","","","","",""
"","image-keyboard-response","114","92702","0.0-114.0","30LB5CDZNDW8GCN129HAVRSXLXOZ0E","A9S6EGIY10U0X","3TKXBROM5TWR181JXBYSOI8FGFVJIU","","440","img/flower5.png","74","440","1","1","2","2","1,0,0,1,1,0,1,0,1","0,0,1,1,0,1,0,1,1","2",""
"","html-keyboard-response","115","93016","0.0-115.0","30LB5CDZNDW8GCN129HAVRSXLXOZ0E","A9S6EGIY10U0X","3TKXBROM5TWR181JXBYSOI8FGFVJIU","","null","<img src=""img/flower5.png"" style=""width:200px; border:14px solid green;"">","null","","","","","","","","",""
"","image-keyboard-response","116","93375","0.0-116.0","30LB5CDZNDW8GCN129HAVRSXLXOZ0E","A9S6EGIY10U0X","3TKXBROM5TWR181JXBYSOI8FGFVJIU","","358","img/flower3.png","76","359","3","1","1","2","1,0,0,1,1,0,1,0,1","0,0,1,1,0,1,0,1,1","2",""
"","html-keyboard-response","117","93677","0.0-117.0","30LB5CDZNDW8GCN129HAVRSXLXOZ0E","A9S6EGIY10U0X","3TKXBROM5TWR181JXBYSOI8FGFVJIU","","null","<img src=""img/flower3.png"" style=""width:200px; border:14px solid green;"">","null","","","","","","","","",""
"","image-keyboard-response","118","94057","0.0-118.0","30LB5CDZNDW8GCN129HAVRSXLXOZ0E","A9S6EGIY10U0X","3TKXBROM5TWR181JXBYSOI8FGFVJIU","","380","img/flower3.png","76","380","3","1","1","2","1,0,0,1,1,0,1,0,1","0,0,1,1,0,1,0,1,1","2",""
"","html-keyboard-response","119","94373","0.0-119.0","30LB5CDZNDW8GCN129HAVRSXLXOZ0E","A9S6EGIY10U0X","3TKXBROM5TWR181JXBYSOI8FGFVJIU","","null","<img src=""img/flower3.png"" style=""width:200px; border:14px solid green;"">","null","","","","","","","","",""
"","image-keyboard-response","120","94700","0.0-120.0","30LB5CDZNDW8GCN129HAVRSXLXOZ0E","A9S6EGIY10U0X","3TKXBROM5TWR181JXBYSOI8FGFVJIU","","325","img/flower3.png","76","326","3","1","1","2","1,0,0,1,1,0,1,0,1","0,0,1,1,0,1,0,1,1","2",""
"","html-keyboard-response","121","95004","0.0-121.0","30LB5CDZNDW8GCN129HAVRSXLXOZ0E","A9S6EGIY10U0X","3TKXBROM5TWR181JXBYSOI8FGFVJIU","","null","<img src=""img/flower3.png"" style=""width:200px; border:14px solid green;"">","null","","","","","","","","",""
"","image-keyboard-response","122","95453","0.0-122.0","30LB5CDZNDW8GCN129HAVRSXLXOZ0E","A9S6EGIY10U0X","3TKXBROM5TWR181JXBYSOI8FGFVJIU","","448","img/flower5.png","74","448","1","1","2","2","1,0,0,1,1,0,1,0,1","0,0,1,1,0,1,0,1,1","2",""
"","html-keyboard-response","123","95765","0.0-123.0","30LB5CDZNDW8GCN129HAVRSXLXOZ0E","A9S6EGIY10U0X","3TKXBROM5TWR181JXBYSOI8FGFVJIU","","null","<img src=""img/flower5.png"" style=""width:200px; border:14px solid green;"">","null","","","","","","","","",""
"","image-keyboard-response","124","96272","0.0-124.0","30LB5CDZNDW8GCN129HAVRSXLXOZ0E","A9S6EGIY10U0X","3TKXBROM5TWR181JXBYSOI8FGFVJIU","","507","img/flower6.png","75","508","2","1","3","2","1,0,0,1,1,0,1,0,1","0,0,1,1,0,1,0,1,1","2",""
"","html-keyboard-response","125","96588","0.0-125.0","30LB5CDZNDW8GCN129HAVRSXLXOZ0E","A9S6EGIY10U0X","3TKXBROM5TWR181JXBYSOI8FGFVJIU","","null","<img src=""img/flower6.png"" style=""width:200px; border:14px solid green;"">","null","","","","","","","","",""
"","image-keyboard-response","126","97135","0.0-126.0","30LB5CDZNDW8GCN129HAVRSXLXOZ0E","A9S6EGIY10U0X","3TKXBROM5TWR181JXBYSOI8FGFVJIU","","547","img/flower3.png","76","547","3","1","1","2","1,0,0,1,1,0,1,0,1","0,0,1,1,0,1,0,1,1","2",""
"","html-keyboard-response","127","97436","0.0-127.0","30LB5CDZNDW8GCN129HAVRSXLXOZ0E","A9S6EGIY10U0X","3TKXBROM5TWR181JXBYSOI8FGFVJIU","","null","<img src=""img/flower3.png"" style=""width:200px; border:14px solid green;"">","null","","","","","","","","",""
"","image-keyboard-response","128","98099","0.0-128.0","30LB5CDZNDW8GCN129HAVRSXLXOZ0E","A9S6EGIY10U0X","3TKXBROM5TWR181JXBYSOI8FGFVJIU","","663","img/flower6.png","75","663","2","1","3","2","1,0,0,1,1,0,1,0,1","0,0,1,1,0,1,0,1,1","2",""
"","html-keyboard-response","129","98407","0.0-129.0","30LB5CDZNDW8GCN129HAVRSXLXOZ0E","A9S6EGIY10U0X","3TKXBROM5TWR181JXBYSOI8FGFVJIU","","null","<img src=""img/flower6.png"" style=""width:200px; border:14px solid green;"">","null","","","","","","","","",""
"","image-keyboard-response","130","98899","0.0-130.0","30LB5CDZNDW8GCN129HAVRSXLXOZ0E","A9S6EGIY10U0X","3TKXBROM5TWR181JXBYSOI8FGFVJIU","","490","img/flower6.png","75","491","2","1","3","2","1,0,0,1,1,0,1,0,1","0,0,1,1,0,1,0,1,1","2",""
"","html-keyboard-response","131","99211","0.0-131.0","30LB5CDZNDW8GCN129HAVRSXLXOZ0E","A9S6EGIY10U0X","3TKXBROM5TWR181JXBYSOI8FGFVJIU","","null","<img src=""img/flower6.png"" style=""width:200px; border:14px solid green;"">","null","","","","","","","","",""
"","image-keyboard-response","132","99717","0.0-132.0","30LB5CDZNDW8GCN129HAVRSXLXOZ0E","A9S6EGIY10U0X","3TKXBROM5TWR181JXBYSOI8FGFVJIU","","505","img/flower3.png","74","505","1","0","1","2","1,0,0,1,1,0,1,0,1","0,0,1,1,0,1,0,1,1","2",""
"","html-keyboard-response","133","100032","0.0-133.0","30LB5CDZNDW8GCN129HAVRSXLXOZ0E","A9S6EGIY10U0X","3TKXBROM5TWR181JXBYSOI8FGFVJIU","","null","<img src=""img/flower3.png"" style=""width:200px;border:14px solid red;"">","null","","","","","","","","",""
"","image-keyboard-response","134","100806","0.0-134.0","30LB5CDZNDW8GCN129HAVRSXLXOZ0E","A9S6EGIY10U0X","3TKXBROM5TWR181JXBYSOI8FGFVJIU","","772","img/flower3.png","76","774","3","1","1","2","1,0,0,1,1,0,1,0,1","0,0,1,1,0,1,0,1,1","2",""
"","html-keyboard-response","135","101109","0.0-135.0","30LB5CDZNDW8GCN129HAVRSXLXOZ0E","A9S6EGIY10U0X","3TKXBROM5TWR181JXBYSOI8FGFVJIU","","null","<img src=""img/flower3.png"" style=""width:200px; border:14px solid green;"">","null","","","","","","","","",""
"","image-keyboard-response","136","101519","0.0-136.0","30LB5CDZNDW8GCN129HAVRSXLXOZ0E","A9S6EGIY10U0X","3TKXBROM5TWR181JXBYSOI8FGFVJIU","","409","img/flower3.png","76","411","3","1","1","2","1,0,0,1,1,0,1,0,1","0,0,1,1,0,1,0,1,1","2",""
"","html-keyboard-response","137","101826","0.0-137.0","30LB5CDZNDW8GCN129HAVRSXLXOZ0E","A9S6EGIY10U0X","3TKXBROM5TWR181JXBYSOI8FGFVJIU","","null","<img src=""img/flower3.png"" style=""width:200px; border:14px solid green;"">","null","","","","","","","","",""
"","image-keyboard-response","138","102396","0.0-138.0","30LB5CDZNDW8GCN129HAVRSXLXOZ0E","A9S6EGIY10U0X","3TKXBROM5TWR181JXBYSOI8FGFVJIU","","569","img/flower6.png","75","569","2","1","3","2","1,0,0,1,1,0,1,0,1","0,0,1,1,0,1,0,1,1","2",""
"","html-keyboard-response","139","102708","0.0-139.0","30LB5CDZNDW8GCN129HAVRSXLXOZ0E","A9S6EGIY10U0X","3TKXBROM5TWR181JXBYSOI8FGFVJIU","","null","<img src=""img/flower6.png"" style=""width:200px; border:14px solid green;"">","null","","","","","","","","",""
"","image-keyboard-response","140","103074","0.0-140.0","30LB5CDZNDW8GCN129HAVRSXLXOZ0E","A9S6EGIY10U0X","3TKXBROM5TWR181JXBYSOI8FGFVJIU","","364","img/flower6.png","75","364","2","1","3","2","1,0,0,1,1,0,1,0,1","0,0,1,1,0,1,0,1,1","2",""
"","html-keyboard-response","141","103374","0.0-141.0","30LB5CDZNDW8GCN129HAVRSXLXOZ0E","A9S6EGIY10U0X","3TKXBROM5TWR181JXBYSOI8FGFVJIU","","null","<img src=""img/flower6.png"" style=""width:200px; border:14px solid green;"">","null","","","","","","","","",""
"","image-keyboard-response","142","103743","0.0-142.0","30LB5CDZNDW8GCN129HAVRSXLXOZ0E","A9S6EGIY10U0X","3TKXBROM5TWR181JXBYSOI8FGFVJIU","","368","img/flower6.png","75","368","2","1","3","2","1,0,0,1,1,0,1,0,1","0,0,1,1,0,1,0,1,1","2",""
"","html-keyboard-response","143","104056","0.0-143.0","30LB5CDZNDW8GCN129HAVRSXLXOZ0E","A9S6EGIY10U0X","3TKXBROM5TWR181JXBYSOI8FGFVJIU","","null","<img src=""img/flower6.png"" style=""width:200px; border:14px solid green;"">","null","","","","","","","","",""
"","image-keyboard-response","144","104659","0.0-144.0","30LB5CDZNDW8GCN129HAVRSXLXOZ0E","A9S6EGIY10U0X","3TKXBROM5TWR181JXBYSOI8FGFVJIU","","603","img/flower3.png","76","604","3","1","1","2","1,0,0,1,1,0,1,0,1","0,0,1,1,0,1,0,1,1","2",""
"","html-keyboard-response","145","104971","0.0-145.0","30LB5CDZNDW8GCN129HAVRSXLXOZ0E","A9S6EGIY10U0X","3TKXBROM5TWR181JXBYSOI8FGFVJIU","","null","<img src=""img/flower3.png"" style=""width:200px; border:14px solid green;"">","null","","","","","","","","",""
"","image-keyboard-response","146","105569","0.0-146.0","30LB5CDZNDW8GCN129HAVRSXLXOZ0E","A9S6EGIY10U0X","3TKXBROM5TWR181JXBYSOI8FGFVJIU","","598","img/flower6.png","75","599","2","1","3","2","1,0,0,1,1,0,1,0,1","0,0,1,1,0,1,0,1,1","2",""
"","html-keyboard-response","147","105877","0.0-147.0","30LB5CDZNDW8GCN129HAVRSXLXOZ0E","A9S6EGIY10U0X","3TKXBROM5TWR181JXBYSOI8FGFVJIU","","null","<img src=""img/flower6.png"" style=""width:200px; border:14px solid green;"">","null","","","","","","","","",""
"","image-keyboard-response","148","106342","0.0-148.0","30LB5CDZNDW8GCN129HAVRSXLXOZ0E","A9S6EGIY10U0X","3TKXBROM5TWR181JXBYSOI8FGFVJIU","","463","img/flower3.png","76","464","3","1","1","2","1,0,0,1,1,0,1,0,1","0,0,1,1,0,1,0,1,1","2",""
"","html-keyboard-response","149","106653","0.0-149.0","30LB5CDZNDW8GCN129HAVRSXLXOZ0E","A9S6EGIY10U0X","3TKXBROM5TWR181JXBYSOI8FGFVJIU","","null","<img src=""img/flower3.png"" style=""width:200px; border:14px solid green;"">","null","","","","","","","","",""
"","image-keyboard-response","150","107059","0.0-150.0","30LB5CDZNDW8GCN129HAVRSXLXOZ0E","A9S6EGIY10U0X","3TKXBROM5TWR181JXBYSOI8FGFVJIU","","404","img/flower5.png","74","405","1","1","2","2","1,0,0,1,1,0,1,0,1","0,0,1,1,0,1,0,1,1","2",""
"","html-keyboard-response","151","107366","0.0-151.0","30LB5CDZNDW8GCN129HAVRSXLXOZ0E","A9S6EGIY10U0X","3TKXBROM5TWR181JXBYSOI8FGFVJIU","","null","<img src=""img/flower5.png"" style=""width:200px; border:14px solid green;"">","null","","","","","","","","",""
"","image-keyboard-response","152","107910","0.0-152.0","30LB5CDZNDW8GCN129HAVRSXLXOZ0E","A9S6EGIY10U0X","3TKXBROM5TWR181JXBYSOI8FGFVJIU","","543","img/flower5.png","74","543","1","1","2","2","1,0,0,1,1,0,1,0,1","0,0,1,1,0,1,0,1,1","2",""
"","html-keyboard-response","153","108219","0.0-153.0","30LB5CDZNDW8GCN129HAVRSXLXOZ0E","A9S6EGIY10U0X","3TKXBROM5TWR181JXBYSOI8FGFVJIU","","null","<img src=""img/flower5.png"" style=""width:200px; border:14px solid green;"">","null","","","","","","","","",""
"","image-keyboard-response","154","108657","0.0-154.0","30LB5CDZNDW8GCN129HAVRSXLXOZ0E","A9S6EGIY10U0X","3TKXBROM5TWR181JXBYSOI8FGFVJIU","","437","img/flower5.png","74","437","1","1","2","2","1,0,0,1,1,0,1,0,1","0,0,1,1,0,1,0,1,1","2",""
"","html-keyboard-response","155","108970","0.0-155.0","30LB5CDZNDW8GCN129HAVRSXLXOZ0E","A9S6EGIY10U0X","3TKXBROM5TWR181JXBYSOI8FGFVJIU","","null","<img src=""img/flower5.png"" style=""width:200px; border:14px solid green;"">","null","","","","","","","","",""
"","image-keyboard-response","156","109452","0.0-156.0","30LB5CDZNDW8GCN129HAVRSXLXOZ0E","A9S6EGIY10U0X","3TKXBROM5TWR181JXBYSOI8FGFVJIU","","480","img/flower3.png","76","481","3","1","1","2","1,0,0,1,1,0,1,0,1","0,0,1,1,0,1,0,1,1","2",""
"","html-keyboard-response","157","109762","0.0-157.0","30LB5CDZNDW8GCN129HAVRSXLXOZ0E","A9S6EGIY10U0X","3TKXBROM5TWR181JXBYSOI8FGFVJIU","","null","<img src=""img/flower3.png"" style=""width:200px; border:14px solid green;"">","null","","","","","","","","",""
"","image-keyboard-response","158","110352","0.0-158.0","30LB5CDZNDW8GCN129HAVRSXLXOZ0E","A9S6EGIY10U0X","3TKXBROM5TWR181JXBYSOI8FGFVJIU","","589","img/flower5.png","74","590","1","1","2","2","1,0,0,1,1,0,1,0,1","0,0,1,1,0,1,0,1,1","2",""
"","html-keyboard-response","159","110657","0.0-159.0","30LB5CDZNDW8GCN129HAVRSXLXOZ0E","A9S6EGIY10U0X","3TKXBROM5TWR181JXBYSOI8FGFVJIU","","null","<img src=""img/flower5.png"" style=""width:200px; border:14px solid green;"">","null","","","","","","","","",""
"","image-keyboard-response","160","111139","0.0-160.0","30LB5CDZNDW8GCN129HAVRSXLXOZ0E","A9S6EGIY10U0X","3TKXBROM5TWR181JXBYSOI8FGFVJIU","","481","img/flower5.png","74","483","1","1","2","2","1,0,0,1,1,0,1,0,1","0,0,1,1,0,1,0,1,1","2",""
"","html-keyboard-response","161","111450","0.0-161.0","30LB5CDZNDW8GCN129HAVRSXLXOZ0E","A9S6EGIY10U0X","3TKXBROM5TWR181JXBYSOI8FGFVJIU","","null","<img src=""img/flower5.png"" style=""width:200px; border:14px solid green;"">","null","","","","","","","","",""
"","image-keyboard-response","162","112049","0.0-162.0","30LB5CDZNDW8GCN129HAVRSXLXOZ0E","A9S6EGIY10U0X","3TKXBROM5TWR181JXBYSOI8FGFVJIU","","598","img/flower3.png","76","598","3","1","1","2","1,0,0,1,1,0,1,0,1","0,0,1,1,0,1,0,1,1","2",""
"","html-keyboard-response","163","112356","0.0-163.0","30LB5CDZNDW8GCN129HAVRSXLXOZ0E","A9S6EGIY10U0X","3TKXBROM5TWR181JXBYSOI8FGFVJIU","","null","<img src=""img/flower3.png"" style=""width:200px; border:14px solid green;"">","null","","","","","","","","",""
"","image-keyboard-response","164","112759","0.0-164.0","30LB5CDZNDW8GCN129HAVRSXLXOZ0E","A9S6EGIY10U0X","3TKXBROM5TWR181JXBYSOI8FGFVJIU","","402","img/flower3.png","76","404","3","1","1","2","1,0,0,1,1,0,1,0,1","0,0,1,1,0,1,0,1,1","2",""
"","html-keyboard-response","165","113069","0.0-165.0","30LB5CDZNDW8GCN129HAVRSXLXOZ0E","A9S6EGIY10U0X","3TKXBROM5TWR181JXBYSOI8FGFVJIU","","null","<img src=""img/flower3.png"" style=""width:200px; border:14px solid green;"">","null","","","","","","","","",""
"","image-keyboard-response","166","113579","0.0-166.0","30LB5CDZNDW8GCN129HAVRSXLXOZ0E","A9S6EGIY10U0X","3TKXBROM5TWR181JXBYSOI8FGFVJIU","","510","img/flower5.png","74","510","1","1","2","2","1,0,0,1,1,0,1,0,1","0,0,1,1,0,1,0,1,1","2",""
"","html-keyboard-response","167","113891","0.0-167.0","30LB5CDZNDW8GCN129HAVRSXLXOZ0E","A9S6EGIY10U0X","3TKXBROM5TWR181JXBYSOI8FGFVJIU","","null","<img src=""img/flower5.png"" style=""width:200px; border:14px solid green;"">","null","","","","","","","","",""
"","image-keyboard-response","168","114394","0.0-168.0","30LB5CDZNDW8GCN129HAVRSXLXOZ0E","A9S6EGIY10U0X","3TKXBROM5TWR181JXBYSOI8FGFVJIU","","500","img/flower6.png","75","501","2","1","3","2","1,0,0,1,1,0,1,0,1","0,0,1,1,0,1,0,1,1","2",""
"","html-keyboard-response","169","114705","0.0-169.0","30LB5CDZNDW8GCN129HAVRSXLXOZ0E","A9S6EGIY10U0X","3TKXBROM5TWR181JXBYSOI8FGFVJIU","","null","<img src=""img/flower6.png"" style=""width:200px; border:14px solid green;"">","null","","","","","","","","",""
"","image-keyboard-response","170","115347","0.0-170.0","30LB5CDZNDW8GCN129HAVRSXLXOZ0E","A9S6EGIY10U0X","3TKXBROM5TWR181JXBYSOI8FGFVJIU","","642","img/flower5.png","74","643","1","1","2","2","1,0,0,1,1,0,1,0,1","0,0,1,1,0,1,0,1,1","2",""
"","html-keyboard-response","171","115655","0.0-171.0","30LB5CDZNDW8GCN129HAVRSXLXOZ0E","A9S6EGIY10U0X","3TKXBROM5TWR181JXBYSOI8FGFVJIU","","null","<img src=""img/flower5.png"" style=""width:200px; border:14px solid green;"">","null","","","","","","","","",""
"","image-keyboard-response","172","116482","0.0-172.0","30LB5CDZNDW8GCN129HAVRSXLXOZ0E","A9S6EGIY10U0X","3TKXBROM5TWR181JXBYSOI8FGFVJIU","","825","img/flower6.png","75","826","2","1","3","2","1,0,0,1,1,0,1,0,1","0,0,1,1,0,1,0,1,1","2",""
"","html-keyboard-response","173","116792","0.0-173.0","30LB5CDZNDW8GCN129HAVRSXLXOZ0E","A9S6EGIY10U0X","3TKXBROM5TWR181JXBYSOI8FGFVJIU","","null","<img src=""img/flower6.png"" style=""width:200px; border:14px solid green;"">","null","","","","","","","","",""
"","image-keyboard-response","174","117309","0.0-174.0","30LB5CDZNDW8GCN129HAVRSXLXOZ0E","A9S6EGIY10U0X","3TKXBROM5TWR181JXBYSOI8FGFVJIU","","517","img/flower3.png","76","517","3","1","1","2","1,0,0,1,1,0,1,0,1","0,0,1,1,0,1,0,1,1","2",""
"","html-keyboard-response","175","117611","0.0-175.0","30LB5CDZNDW8GCN129HAVRSXLXOZ0E","A9S6EGIY10U0X","3TKXBROM5TWR181JXBYSOI8FGFVJIU","","null","<img src=""img/flower3.png"" style=""width:200px; border:14px solid green;"">","null","","","","","","","","",""
"","image-keyboard-response","176","118240","0.0-176.0","30LB5CDZNDW8GCN129HAVRSXLXOZ0E","A9S6EGIY10U0X","3TKXBROM5TWR181JXBYSOI8FGFVJIU","","628","img/flower6.png","75","630","2","1","3","2","1,0,0,1,1,0,1,0,1","0,0,1,1,0,1,0,1,1","2",""
"","html-keyboard-response","177","118548","0.0-177.0","30LB5CDZNDW8GCN129HAVRSXLXOZ0E","A9S6EGIY10U0X","3TKXBROM5TWR181JXBYSOI8FGFVJIU","","null","<img src=""img/flower6.png"" style=""width:200px; border:14px solid green;"">","null","","","","","","","","",""
"","image-keyboard-response","178","119031","0.0-178.0","30LB5CDZNDW8GCN129HAVRSXLXOZ0E","A9S6EGIY10U0X","3TKXBROM5TWR181JXBYSOI8FGFVJIU","","482","img/flower3.png","76","483","3","1","1","2","1,0,0,1,1,0,1,0,1","0,0,1,1,0,1,0,1,1","2",""
"","html-keyboard-response","179","119341","0.0-179.0","30LB5CDZNDW8GCN129HAVRSXLXOZ0E","A9S6EGIY10U0X","3TKXBROM5TWR181JXBYSOI8FGFVJIU","","null","<img src=""img/flower3.png"" style=""width:200px; border:14px solid green;"">","null","","","","","","","","",""
"","image-keyboard-response","180","119741","0.0-180.0","30LB5CDZNDW8GCN129HAVRSXLXOZ0E","A9S6EGIY10U0X","3TKXBROM5TWR181JXBYSOI8FGFVJIU","","399","img/flower3.png","76","400","3","1","1","2","1,0,0,1,1,0,1,0,1","0,0,1,1,0,1,0,1,1","2",""
"","html-keyboard-response","181","120050","0.0-181.0","30LB5CDZNDW8GCN129HAVRSXLXOZ0E","A9S6EGIY10U0X","3TKXBROM5TWR181JXBYSOI8FGFVJIU","","null","<img src=""img/flower3.png"" style=""width:200px; border:14px solid green;"">","null","","","","","","","","",""
"","image-keyboard-response","182","121323","0.0-182.0","30LB5CDZNDW8GCN129HAVRSXLXOZ0E","A9S6EGIY10U0X","3TKXBROM5TWR181JXBYSOI8FGFVJIU","","1272","img/flower4.png","75","1272","2","0","3","1","1,0.333,0.333,0.333,1,0.333,0.333,0.333,1","1,0.333,0.333,0.333,1,0.333,0.333,0.333,1","1",""
"","html-keyboard-response","183","121632","0.0-183.0","30LB5CDZNDW8GCN129HAVRSXLXOZ0E","A9S6EGIY10U0X","3TKXBROM5TWR181JXBYSOI8FGFVJIU","","null","<img src=""img/flower4.png"" style=""width:200px;border:14px solid red;"">","null","","","","","","","","",""
"","image-keyboard-response","184","122582","0.0-184.0","30LB5CDZNDW8GCN129HAVRSXLXOZ0E","A9S6EGIY10U0X","3TKXBROM5TWR181JXBYSOI8FGFVJIU","","949","img/flower1.png","74","950","1","1","1","1","1,0.333,0.333,0.333,1,0.333,0.333,0.333,1","1,0.333,0.333,0.333,1,0.333,0.333,0.333,1","1",""
"","html-keyboard-response","185","122884","0.0-185.0","30LB5CDZNDW8GCN129HAVRSXLXOZ0E","A9S6EGIY10U0X","3TKXBROM5TWR181JXBYSOI8FGFVJIU","","null","<img src=""img/flower1.png"" style=""width:200px; border:14px solid green;"">","null","","","","","","","","",""
"","image-keyboard-response","186","123346","0.0-186.0","30LB5CDZNDW8GCN129HAVRSXLXOZ0E","A9S6EGIY10U0X","3TKXBROM5TWR181JXBYSOI8FGFVJIU","","462","img/flower1.png","74","462","1","1","1","1","1,0.333,0.333,0.333,1,0.333,0.333,0.333,1","1,0.333,0.333,0.333,1,0.333,0.333,0.333,1","1",""
"","html-keyboard-response","187","123647","0.0-187.0","30LB5CDZNDW8GCN129HAVRSXLXOZ0E","A9S6EGIY10U0X","3TKXBROM5TWR181JXBYSOI8FGFVJIU","","null","<img src=""img/flower1.png"" style=""width:200px; border:14px solid green;"">","null","","","","","","","","",""
"","image-keyboard-response","188","124202","0.0-188.0","30LB5CDZNDW8GCN129HAVRSXLXOZ0E","A9S6EGIY10U0X","3TKXBROM5TWR181JXBYSOI8FGFVJIU","","555","img/flower4.png","76","555","3","1","3","1","1,0.333,0.333,0.333,1,0.333,0.333,0.333,1","1,0.333,0.333,0.333,1,0.333,0.333,0.333,1","1",""
"","html-keyboard-response","189","124518","0.0-189.0","30LB5CDZNDW8GCN129HAVRSXLXOZ0E","A9S6EGIY10U0X","3TKXBROM5TWR181JXBYSOI8FGFVJIU","","null","<img src=""img/flower4.png"" style=""width:200px; border:14px solid green;"">","null","","","","","","","","",""
"","image-keyboard-response","190","125207","0.0-190.0","30LB5CDZNDW8GCN129HAVRSXLXOZ0E","A9S6EGIY10U0X","3TKXBROM5TWR181JXBYSOI8FGFVJIU","","688","img/flower1.png","74","690","1","1","1","1","1,0.333,0.333,0.333,1,0.333,0.333,0.333,1","1,0.333,0.333,0.333,1,0.333,0.333,0.333,1","1",""
"","html-keyboard-response","191","125514","0.0-191.0","30LB5CDZNDW8GCN129HAVRSXLXOZ0E","A9S6EGIY10U0X","3TKXBROM5TWR181JXBYSOI8FGFVJIU","","null","<img src=""img/flower1.png"" style=""width:200px; border:14px solid green;"">","null","","","","","","","","",""
"","image-keyboard-response","192","126223","0.0-192.0","30LB5CDZNDW8GCN129HAVRSXLXOZ0E","A9S6EGIY10U0X","3TKXBROM5TWR181JXBYSOI8FGFVJIU","","709","img/flower2.png","75","709","2","1","2","1","1,0.333,0.333,0.333,1,0.333,0.333,0.333,1","1,0.333,0.333,0.333,1,0.333,0.333,0.333,1","1",""
"","html-keyboard-response","193","126526","0.0-193.0","30LB5CDZNDW8GCN129HAVRSXLXOZ0E","A9S6EGIY10U0X","3TKXBROM5TWR181JXBYSOI8FGFVJIU","","null","<img src=""img/flower2.png"" style=""width:200px; border:14px solid green;"">","null","","","","","","","","",""
"","image-keyboard-response","194","127382","0.0-194.0","30LB5CDZNDW8GCN129HAVRSXLXOZ0E","A9S6EGIY10U0X","3TKXBROM5TWR181JXBYSOI8FGFVJIU","","855","img/flower1.png","74","856","1","1","1","1","1,0.333,0.333,0.333,1,0.333,0.333,0.333,1","1,0.333,0.333,0.333,1,0.333,0.333,0.333,1","1",""
"","html-keyboard-response","195","127684","0.0-195.0","30LB5CDZNDW8GCN129HAVRSXLXOZ0E","A9S6EGIY10U0X","3TKXBROM5TWR181JXBYSOI8FGFVJIU","","null","<img src=""img/flower1.png"" style=""width:200px; border:14px solid green;"">","null","","","","","","","","",""
"","image-keyboard-response","196","128119","0.0-196.0","30LB5CDZNDW8GCN129HAVRSXLXOZ0E","A9S6EGIY10U0X","3TKXBROM5TWR181JXBYSOI8FGFVJIU","","436","img/flower1.png","74","436","1","1","1","1","1,0.333,0.333,0.333,1,0.333,0.333,0.333,1","1,0.333,0.333,0.333,1,0.333,0.333,0.333,1","1",""
"","html-keyboard-response","197","128427","0.0-197.0","30LB5CDZNDW8GCN129HAVRSXLXOZ0E","A9S6EGIY10U0X","3TKXBROM5TWR181JXBYSOI8FGFVJIU","","null","<img src=""img/flower1.png"" style=""width:200px; border:14px solid green;"">","null","","","","","","","","",""
"","image-keyboard-response","198","128842","0.0-198.0","30LB5CDZNDW8GCN129HAVRSXLXOZ0E","A9S6EGIY10U0X","3TKXBROM5TWR181JXBYSOI8FGFVJIU","","413","img/flower1.png","74","414","1","1","1","1","1,0.333,0.333,0.333,1,0.333,0.333,0.333,1","1,0.333,0.333,0.333,1,0.333,0.333,0.333,1","1",""
"","html-keyboard-response","199","129157","0.0-199.0","30LB5CDZNDW8GCN129HAVRSXLXOZ0E","A9S6EGIY10U0X","3TKXBROM5TWR181JXBYSOI8FGFVJIU","","null","<img src=""img/flower1.png"" style=""width:200px; border:14px solid green;"">","null","","","","","","","","",""
"","image-keyboard-response","200","129724","0.0-200.0","30LB5CDZNDW8GCN129HAVRSXLXOZ0E","A9S6EGIY10U0X","3TKXBROM5TWR181JXBYSOI8FGFVJIU","","565","img/flower4.png","76","567","3","1","3","1","1,0.333,0.333,0.333,1,0.333,0.333,0.333,1","1,0.333,0.333,0.333,1,0.333,0.333,0.333,1","1",""
"","html-keyboard-response","201","130030","0.0-201.0","30LB5CDZNDW8GCN129HAVRSXLXOZ0E","A9S6EGIY10U0X","3TKXBROM5TWR181JXBYSOI8FGFVJIU","","null","<img src=""img/flower4.png"" style=""width:200px; border:14px solid green;"">","null","","","","","","","","",""
"","image-keyboard-response","202","130795","0.0-202.0","30LB5CDZNDW8GCN129HAVRSXLXOZ0E","A9S6EGIY10U0X","3TKXBROM5TWR181JXBYSOI8FGFVJIU","","765","img/flower2.png","75","767","2","1","2","1","1,0.333,0.333,0.333,1,0.333,0.333,0.333,1","1,0.333,0.333,0.333,1,0.333,0.333,0.333,1","1",""
"","html-keyboard-response","203","131107","0.0-203.0","30LB5CDZNDW8GCN129HAVRSXLXOZ0E","A9S6EGIY10U0X","3TKXBROM5TWR181JXBYSOI8FGFVJIU","","null","<img src=""img/flower2.png"" style=""width:200px; border:14px solid green;"">","null","","","","","","","","",""
"","image-keyboard-response","204","131502","0.0-204.0","30LB5CDZNDW8GCN129HAVRSXLXOZ0E","A9S6EGIY10U0X","3TKXBROM5TWR181JXBYSOI8FGFVJIU","","394","img/flower2.png","75","395","2","1","2","1","1,0.333,0.333,0.333,1,0.333,0.333,0.333,1","1,0.333,0.333,0.333,1,0.333,0.333,0.333,1","1",""
"","html-keyboard-response","205","131802","0.0-205.0","30LB5CDZNDW8GCN129HAVRSXLXOZ0E","A9S6EGIY10U0X","3TKXBROM5TWR181JXBYSOI8FGFVJIU","","null","<img src=""img/flower2.png"" style=""width:200px; border:14px solid green;"">","null","","","","","","","","",""
"","image-keyboard-response","206","132855","0.0-206.0","30LB5CDZNDW8GCN129HAVRSXLXOZ0E","A9S6EGIY10U0X","3TKXBROM5TWR181JXBYSOI8FGFVJIU","","1051","img/flower4.png","76","1052","3","1","3","1","1,0.333,0.333,0.333,1,0.333,0.333,0.333,1","1,0.333,0.333,0.333,1,0.333,0.333,0.333,1","1",""
"","html-keyboard-response","207","133170","0.0-207.0","30LB5CDZNDW8GCN129HAVRSXLXOZ0E","A9S6EGIY10U0X","3TKXBROM5TWR181JXBYSOI8FGFVJIU","","null","<img src=""img/flower4.png"" style=""width:200px; border:14px solid green;"">","null","","","","","","","","",""
"","image-keyboard-response","208","133736","0.0-208.0","30LB5CDZNDW8GCN129HAVRSXLXOZ0E","A9S6EGIY10U0X","3TKXBROM5TWR181JXBYSOI8FGFVJIU","","564","img/flower1.png","74","564","1","1","1","1","1,0.333,0.333,0.333,1,0.333,0.333,0.333,1","1,0.333,0.333,0.333,1,0.333,0.333,0.333,1","1",""
"","html-keyboard-response","209","134040","0.0-209.0","30LB5CDZNDW8GCN129HAVRSXLXOZ0E","A9S6EGIY10U0X","3TKXBROM5TWR181JXBYSOI8FGFVJIU","","null","<img src=""img/flower1.png"" style=""width:200px; border:14px solid green;"">","null","","","","","","","","",""
"","image-keyboard-response","210","134963","0.0-210.0","30LB5CDZNDW8GCN129HAVRSXLXOZ0E","A9S6EGIY10U0X","3TKXBROM5TWR181JXBYSOI8FGFVJIU","","923","img/flower4.png","76","923","3","1","3","1","1,0.333,0.333,0.333,1,0.333,0.333,0.333,1","1,0.333,0.333,0.333,1,0.333,0.333,0.333,1","1",""
"","html-keyboard-response","211","135276","0.0-211.0","30LB5CDZNDW8GCN129HAVRSXLXOZ0E","A9S6EGIY10U0X","3TKXBROM5TWR181JXBYSOI8FGFVJIU","","null","<img src=""img/flower4.png"" style=""width:200px; border:14px solid green;"">","null","","","","","","","","",""
"","image-keyboard-response","212","135650","0.0-212.0","30LB5CDZNDW8GCN129HAVRSXLXOZ0E","A9S6EGIY10U0X","3TKXBROM5TWR181JXBYSOI8FGFVJIU","","373","img/flower4.png","76","375","3","1","3","1","1,0.333,0.333,0.333,1,0.333,0.333,0.333,1","1,0.333,0.333,0.333,1,0.333,0.333,0.333,1","1",""
"","html-keyboard-response","213","135959","0.0-213.0","30LB5CDZNDW8GCN129HAVRSXLXOZ0E","A9S6EGIY10U0X","3TKXBROM5TWR181JXBYSOI8FGFVJIU","","null","<img src=""img/flower4.png"" style=""width:200px; border:14px solid green;"">","null","","","","","","","","",""
"","image-keyboard-response","214","136300","0.0-214.0","30LB5CDZNDW8GCN129HAVRSXLXOZ0E","A9S6EGIY10U0X","3TKXBROM5TWR181JXBYSOI8FGFVJIU","","340","img/flower4.png","76","341","3","1","3","1","1,0.333,0.333,0.333,1,0.333,0.333,0.333,1","1,0.333,0.333,0.333,1,0.333,0.333,0.333,1","1",""
"","html-keyboard-response","215","136608","0.0-215.0","30LB5CDZNDW8GCN129HAVRSXLXOZ0E","A9S6EGIY10U0X","3TKXBROM5TWR181JXBYSOI8FGFVJIU","","null","<img src=""img/flower4.png"" style=""width:200px; border:14px solid green;"">","null","","","","","","","","",""
"","image-keyboard-response","216","136937","0.0-216.0","30LB5CDZNDW8GCN129HAVRSXLXOZ0E","A9S6EGIY10U0X","3TKXBROM5TWR181JXBYSOI8FGFVJIU","","327","img/flower4.png","76","329","3","1","3","1","1,0.333,0.333,0.333,1,0.333,0.333,0.333,1","1,0.333,0.333,0.333,1,0.333,0.333,0.333,1","1",""
"","html-keyboard-response","217","137241","0.0-217.0","30LB5CDZNDW8GCN129HAVRSXLXOZ0E","A9S6EGIY10U0X","3TKXBROM5TWR181JXBYSOI8FGFVJIU","","null","<img src=""img/flower4.png"" style=""width:200px; border:14px solid green;"">","null","","","","","","","","",""
"","image-keyboard-response","218","137770","0.0-218.0","30LB5CDZNDW8GCN129HAVRSXLXOZ0E","A9S6EGIY10U0X","3TKXBROM5TWR181JXBYSOI8FGFVJIU","","527","img/flower1.png","75","527","2","1","1","1","1,0.333,0.333,0.333,1,0.333,0.333,0.333,1","1,0.333,0.333,0.333,1,0.333,0.333,0.333,1","1",""
"","html-keyboard-response","219","138085","0.0-219.0","30LB5CDZNDW8GCN129HAVRSXLXOZ0E","A9S6EGIY10U0X","3TKXBROM5TWR181JXBYSOI8FGFVJIU","","null","<img src=""img/flower1.png"" style=""width:200px; border:14px solid green;"">","null","","","","","","","","",""
"","image-keyboard-response","220","138709","0.0-220.0","30LB5CDZNDW8GCN129HAVRSXLXOZ0E","A9S6EGIY10U0X","3TKXBROM5TWR181JXBYSOI8FGFVJIU","","623","img/flower1.png","74","625","1","1","1","1","1,0.333,0.333,0.333,1,0.333,0.333,0.333,1","1,0.333,0.333,0.333,1,0.333,0.333,0.333,1","1",""
"","html-keyboard-response","221","139017","0.0-221.0","30LB5CDZNDW8GCN129HAVRSXLXOZ0E","A9S6EGIY10U0X","3TKXBROM5TWR181JXBYSOI8FGFVJIU","","null","<img src=""img/flower1.png"" style=""width:200px; border:14px solid green;"">","null","","","","","","","","",""
"","image-keyboard-response","222","139564","0.0-222.0","30LB5CDZNDW8GCN129HAVRSXLXOZ0E","A9S6EGIY10U0X","3TKXBROM5TWR181JXBYSOI8FGFVJIU","","546","img/flower1.png","74","547","1","1","1","1","1,0.333,0.333,0.333,1,0.333,0.333,0.333,1","1,0.333,0.333,0.333,1,0.333,0.333,0.333,1","1",""
"","html-keyboard-response","223","139873","0.0-223.0","30LB5CDZNDW8GCN129HAVRSXLXOZ0E","A9S6EGIY10U0X","3TKXBROM5TWR181JXBYSOI8FGFVJIU","","null","<img src=""img/flower1.png"" style=""width:200px; border:14px solid green;"">","null","","","","","","","","",""
"","image-keyboard-response","224","140662","0.0-224.0","30LB5CDZNDW8GCN129HAVRSXLXOZ0E","A9S6EGIY10U0X","3TKXBROM5TWR181JXBYSOI8FGFVJIU","","788","img/flower4.png","76","789","3","1","3","1","1,0.333,0.333,0.333,1,0.333,0.333,0.333,1","1,0.333,0.333,0.333,1,0.333,0.333,0.333,1","1",""
"","html-keyboard-response","225","140968","0.0-225.0","30LB5CDZNDW8GCN129HAVRSXLXOZ0E","A9S6EGIY10U0X","3TKXBROM5TWR181JXBYSOI8FGFVJIU","","null","<img src=""img/flower4.png"" style=""width:200px; border:14px solid green;"">","null","","","","","","","","",""
"","image-keyboard-response","226","141363","0.0-226.0","30LB5CDZNDW8GCN129HAVRSXLXOZ0E","A9S6EGIY10U0X","3TKXBROM5TWR181JXBYSOI8FGFVJIU","","394","img/flower4.png","76","396","3","1","3","1","1,0.333,0.333,0.333,1,0.333,0.333,0.333,1","1,0.333,0.333,0.333,1,0.333,0.333,0.333,1","1",""
"","html-keyboard-response","227","141679","0.0-227.0","30LB5CDZNDW8GCN129HAVRSXLXOZ0E","A9S6EGIY10U0X","3TKXBROM5TWR181JXBYSOI8FGFVJIU","","null","<img src=""img/flower4.png"" style=""width:200px; border:14px solid green;"">","null","","","","","","","","",""
"","image-keyboard-response","228","142257","0.0-228.0","30LB5CDZNDW8GCN129HAVRSXLXOZ0E","A9S6EGIY10U0X","3TKXBROM5TWR181JXBYSOI8FGFVJIU","","576","img/flower2.png","75","577","2","1","2","1","1,0.333,0.333,0.333,1,0.333,0.333,0.333,1","1,0.333,0.333,0.333,1,0.333,0.333,0.333,1","1",""
"","html-keyboard-response","229","142570","0.0-229.0","30LB5CDZNDW8GCN129HAVRSXLXOZ0E","A9S6EGIY10U0X","3TKXBROM5TWR181JXBYSOI8FGFVJIU","","null","<img src=""img/flower2.png"" style=""width:200px; border:14px solid green;"">","null","","","","","","","","",""
"","image-keyboard-response","230","142987","0.0-230.0","30LB5CDZNDW8GCN129HAVRSXLXOZ0E","A9S6EGIY10U0X","3TKXBROM5TWR181JXBYSOI8FGFVJIU","","415","img/flower2.png","75","417","2","1","2","1","1,0.333,0.333,0.333,1,0.333,0.333,0.333,1","1,0.333,0.333,0.333,1,0.333,0.333,0.333,1","1",""
"","html-keyboard-response","231","143298","0.0-231.0","30LB5CDZNDW8GCN129HAVRSXLXOZ0E","A9S6EGIY10U0X","3TKXBROM5TWR181JXBYSOI8FGFVJIU","","null","<img src=""img/flower2.png"" style=""width:200px; border:14px solid green;"">","null","","","","","","","","",""
"","image-keyboard-response","232","143633","0.0-232.0","30LB5CDZNDW8GCN129HAVRSXLXOZ0E","A9S6EGIY10U0X","3TKXBROM5TWR181JXBYSOI8FGFVJIU","","333","img/flower2.png","75","334","2","1","2","1","1,0.333,0.333,0.333,1,0.333,0.333,0.333,1","1,0.333,0.333,0.333,1,0.333,0.333,0.333,1","1",""
"","html-keyboard-response","233","143948","0.0-233.0","30LB5CDZNDW8GCN129HAVRSXLXOZ0E","A9S6EGIY10U0X","3TKXBROM5TWR181JXBYSOI8FGFVJIU","","null","<img src=""img/flower2.png"" style=""width:200px; border:14px solid green;"">","null","","","","","","","","",""
"","image-keyboard-response","234","144277","0.0-234.0","30LB5CDZNDW8GCN129HAVRSXLXOZ0E","A9S6EGIY10U0X","3TKXBROM5TWR181JXBYSOI8FGFVJIU","","327","img/flower2.png","75","328","2","1","2","1","1,0.333,0.333,0.333,1,0.333,0.333,0.333,1","1,0.333,0.333,0.333,1,0.333,0.333,0.333,1","1",""
"","html-keyboard-response","235","144583","0.0-235.0","30LB5CDZNDW8GCN129HAVRSXLXOZ0E","A9S6EGIY10U0X","3TKXBROM5TWR181JXBYSOI8FGFVJIU","","null","<img src=""img/flower2.png"" style=""width:200px; border:14px solid green;"">","null","","","","","","","","",""
"","image-keyboard-response","236","145089","0.0-236.0","30LB5CDZNDW8GCN129HAVRSXLXOZ0E","A9S6EGIY10U0X","3TKXBROM5TWR181JXBYSOI8FGFVJIU","","505","img/flower1.png","74","506","1","1","1","1","1,0.333,0.333,0.333,1,0.333,0.333,0.333,1","1,0.333,0.333,0.333,1,0.333,0.333,0.333,1","1",""
"","html-keyboard-response","237","145405","0.0-237.0","30LB5CDZNDW8GCN129HAVRSXLXOZ0E","A9S6EGIY10U0X","3TKXBROM5TWR181JXBYSOI8FGFVJIU","","null","<img src=""img/flower1.png"" style=""width:200px; border:14px solid green;"">","null","","","","","","","","",""
"","image-keyboard-response","238","146043","0.0-238.0","30LB5CDZNDW8GCN129HAVRSXLXOZ0E","A9S6EGIY10U0X","3TKXBROM5TWR181JXBYSOI8FGFVJIU","","636","img/flower4.png","76","638","3","1","3","1","1,0.333,0.333,0.333,1,0.333,0.333,0.333,1","1,0.333,0.333,0.333,1,0.333,0.333,0.333,1","1",""
"","html-keyboard-response","239","146357","0.0-239.0","30LB5CDZNDW8GCN129HAVRSXLXOZ0E","A9S6EGIY10U0X","3TKXBROM5TWR181JXBYSOI8FGFVJIU","","null","<img src=""img/flower4.png"" style=""width:200px; border:14px solid green;"">","null","","","","","","","","",""
"","image-keyboard-response","240","146942","0.0-240.0","30LB5CDZNDW8GCN129HAVRSXLXOZ0E","A9S6EGIY10U0X","3TKXBROM5TWR181JXBYSOI8FGFVJIU","","584","img/flower2.png","75","584","2","1","2","1","1,0.333,0.333,0.333,1,0.333,0.333,0.333,1","1,0.333,0.333,0.333,1,0.333,0.333,0.333,1","1",""
"","html-keyboard-response","241","147246","0.0-241.0","30LB5CDZNDW8GCN129HAVRSXLXOZ0E","A9S6EGIY10U0X","3TKXBROM5TWR181JXBYSOI8FGFVJIU","","null","<img src=""img/flower2.png"" style=""width:200px; border:14px solid green;"">","null","","","","","","","","",""
"","image-keyboard-response","242","147966","0.0-242.0","30LB5CDZNDW8GCN129HAVRSXLXOZ0E","A9S6EGIY10U0X","3TKXBROM5TWR181JXBYSOI8FGFVJIU","","718","img/flower4.png","76","719","3","1","3","1","1,0.333,0.333,0.333,1,0.333,0.333,0.333,1","1,0.333,0.333,0.333,1,0.333,0.333,0.333,1","1",""
"","html-keyboard-response","243","148271","0.0-243.0","30LB5CDZNDW8GCN129HAVRSXLXOZ0E","A9S6EGIY10U0X","3TKXBROM5TWR181JXBYSOI8FGFVJIU","","null","<img src=""img/flower4.png"" style=""width:200px; border:14px solid green;"">","null","","","","","","","","",""
"","image-keyboard-response","244","148606","0.0-244.0","30LB5CDZNDW8GCN129HAVRSXLXOZ0E","A9S6EGIY10U0X","3TKXBROM5TWR181JXBYSOI8FGFVJIU","","334","img/flower4.png","76","335","3","1","3","1","1,0.333,0.333,0.333,1,0.333,0.333,0.333,1","1,0.333,0.333,0.333,1,0.333,0.333,0.333,1","1",""
"","html-keyboard-response","245","148920","0.0-245.0","30LB5CDZNDW8GCN129HAVRSXLXOZ0E","A9S6EGIY10U0X","3TKXBROM5TWR181JXBYSOI8FGFVJIU","","null","<img src=""img/flower4.png"" style=""width:200px; border:14px solid green;"">","null","","","","","","","","",""
"","image-keyboard-response","246","149425","0.0-246.0","30LB5CDZNDW8GCN129HAVRSXLXOZ0E","A9S6EGIY10U0X","3TKXBROM5TWR181JXBYSOI8FGFVJIU","","503","img/flower2.png","75","504","2","1","2","1","1,0.333,0.333,0.333,1,0.333,0.333,0.333,1","1,0.333,0.333,0.333,1,0.333,0.333,0.333,1","1",""
"","html-keyboard-response","247","149730","0.0-247.0","30LB5CDZNDW8GCN129HAVRSXLXOZ0E","A9S6EGIY10U0X","3TKXBROM5TWR181JXBYSOI8FGFVJIU","","null","<img src=""img/flower2.png"" style=""width:200px; border:14px solid green;"">","null","","","","","","","","",""
"","image-keyboard-response","248","150273","0.0-248.0","30LB5CDZNDW8GCN129HAVRSXLXOZ0E","A9S6EGIY10U0X","3TKXBROM5TWR181JXBYSOI8FGFVJIU","","542","img/flower1.png","74","543","1","1","1","1","1,0.333,0.333,0.333,1,0.333,0.333,0.333,1","1,0.333,0.333,0.333,1,0.333,0.333,0.333,1","1",""
"","html-keyboard-response","249","150584","0.0-249.0","30LB5CDZNDW8GCN129HAVRSXLXOZ0E","A9S6EGIY10U0X","3TKXBROM5TWR181JXBYSOI8FGFVJIU","","null","<img src=""img/flower1.png"" style=""width:200px; border:14px solid green;"">","null","","","","","","","","",""
"","image-keyboard-response","250","151163","0.0-250.0","30LB5CDZNDW8GCN129HAVRSXLXOZ0E","A9S6EGIY10U0X","3TKXBROM5TWR181JXBYSOI8FGFVJIU","","576","img/flower2.png","76","578","3","0","2","1","1,0.333,0.333,0.333,1,0.333,0.333,0.333,1","1,0.333,0.333,0.333,1,0.333,0.333,0.333,1","1",""
"","html-keyboard-response","251","151469","0.0-251.0","30LB5CDZNDW8GCN129HAVRSXLXOZ0E","A9S6EGIY10U0X","3TKXBROM5TWR181JXBYSOI8FGFVJIU","","null","<img src=""img/flower2.png"" style=""width:200px;border:14px solid red;"">","null","","","","","","","","",""
"","image-keyboard-response","252","153482","0.0-252.0","30LB5CDZNDW8GCN129HAVRSXLXOZ0E","A9S6EGIY10U0X","3TKXBROM5TWR181JXBYSOI8FGFVJIU","","","img/flower4.png","","2012","-1","0","3","1","1,0.333,0.333,0.333,1,0.333,0.333,0.333,1","1,0.333,0.333,0.333,1,0.333,0.333,0.333,1","1",""
"","html-keyboard-response","253","153798","0.0-253.0","30LB5CDZNDW8GCN129HAVRSXLXOZ0E","A9S6EGIY10U0X","3TKXBROM5TWR181JXBYSOI8FGFVJIU","","null","<img src=""img/flower4.png"" style=""width:200px;border:14px solid red;"">","null","","","","","","","","",""
"","image-keyboard-response","254","154524","0.0-254.0","30LB5CDZNDW8GCN129HAVRSXLXOZ0E","A9S6EGIY10U0X","3TKXBROM5TWR181JXBYSOI8FGFVJIU","","724","img/flower1.png","74","725","1","1","1","1","1,0.333,0.333,0.333,1,0.333,0.333,0.333,1","1,0.333,0.333,0.333,1,0.333,0.333,0.333,1","1",""
"","html-keyboard-response","255","154839","0.0-255.0","30LB5CDZNDW8GCN129HAVRSXLXOZ0E","A9S6EGIY10U0X","3TKXBROM5TWR181JXBYSOI8FGFVJIU","","null","<img src=""img/flower1.png"" style=""width:200px; border:14px solid green;"">","null","","","","","","","","",""
"","image-keyboard-response","256","155583","0.0-256.0","30LB5CDZNDW8GCN129HAVRSXLXOZ0E","A9S6EGIY10U0X","3TKXBROM5TWR181JXBYSOI8FGFVJIU","","743","img/flower2.png","75","744","2","1","2","1","1,0.333,0.333,0.333,1,0.333,0.333,0.333,1","1,0.333,0.333,0.333,1,0.333,0.333,0.333,1","1",""
"","html-keyboard-response","257","155895","0.0-257.0","30LB5CDZNDW8GCN129HAVRSXLXOZ0E","A9S6EGIY10U0X","3TKXBROM5TWR181JXBYSOI8FGFVJIU","","null","<img src=""img/flower2.png"" style=""width:200px; border:14px solid green;"">","null","","","","","","","","",""
"","image-keyboard-response","258","156444","0.0-258.0","30LB5CDZNDW8GCN129HAVRSXLXOZ0E","A9S6EGIY10U0X","3TKXBROM5TWR181JXBYSOI8FGFVJIU","","548","img/flower1.png","74","548","1","1","1","1","1,0.333,0.333,0.333,1,0.333,0.333,0.333,1","1,0.333,0.333,0.333,1,0.333,0.333,0.333,1","1",""
"","html-keyboard-response","259","156751","0.0-259.0","30LB5CDZNDW8GCN129HAVRSXLXOZ0E","A9S6EGIY10U0X","3TKXBROM5TWR181JXBYSOI8FGFVJIU","","null","<img src=""img/flower1.png"" style=""width:200px; border:14px solid green;"">","null","","","","","","","","",""
"","image-keyboard-response","260","157135","0.0-260.0","30LB5CDZNDW8GCN129HAVRSXLXOZ0E","A9S6EGIY10U0X","3TKXBROM5TWR181JXBYSOI8FGFVJIU","","382","img/flower1.png","74","383","1","1","1","1","1,0.333,0.333,0.333,1,0.333,0.333,0.333,1","1,0.333,0.333,0.333,1,0.333,0.333,0.333,1","1",""
"","html-keyboard-response","261","157447","0.0-261.0","30LB5CDZNDW8GCN129HAVRSXLXOZ0E","A9S6EGIY10U0X","3TKXBROM5TWR181JXBYSOI8FGFVJIU","","null","<img src=""img/flower1.png"" style=""width:200px; border:14px solid green;"">","null","","","","","","","","",""
"","image-keyboard-response","262","157865","0.0-262.0","30LB5CDZNDW8GCN129HAVRSXLXOZ0E","A9S6EGIY10U0X","3TKXBROM5TWR181JXBYSOI8FGFVJIU","","418","img/flower2.png","75","419","2","1","2","1","1,0.333,0.333,0.333,1,0.333,0.333,0.333,1","1,0.333,0.333,0.333,1,0.333,0.333,0.333,1","1",""
"","html-keyboard-response","263","158177","0.0-263.0","30LB5CDZNDW8GCN129HAVRSXLXOZ0E","A9S6EGIY10U0X","3TKXBROM5TWR181JXBYSOI8FGFVJIU","","null","<img src=""img/flower2.png"" style=""width:200px; border:14px solid green;"">","null","","","","","","","","",""
"","image-keyboard-response","264","158652","0.0-264.0","30LB5CDZNDW8GCN129HAVRSXLXOZ0E","A9S6EGIY10U0X","3TKXBROM5TWR181JXBYSOI8FGFVJIU","","473","img/flower1.png","74","475","1","1","1","1","1,0.333,0.333,0.333,1,0.333,0.333,0.333,1","1,0.333,0.333,0.333,1,0.333,0.333,0.333,1","1",""
"","html-keyboard-response","265","158954","0.0-265.0","30LB5CDZNDW8GCN129HAVRSXLXOZ0E","A9S6EGIY10U0X","3TKXBROM5TWR181JXBYSOI8FGFVJIU","","null","<img src=""img/flower1.png"" style=""width:200px; border:14px solid green;"">","null","","","","","","","","",""
"","image-keyboard-response","266","159316","0.0-266.0","30LB5CDZNDW8GCN129HAVRSXLXOZ0E","A9S6EGIY10U0X","3TKXBROM5TWR181JXBYSOI8FGFVJIU","","361","img/flower1.png","74","362","1","1","1","1","1,0.333,0.333,0.333,1,0.333,0.333,0.333,1","1,0.333,0.333,0.333,1,0.333,0.333,0.333,1","1",""
"","html-keyboard-response","267","159620","0.0-267.0","30LB5CDZNDW8GCN129HAVRSXLXOZ0E","A9S6EGIY10U0X","3TKXBROM5TWR181JXBYSOI8FGFVJIU","","null","<img src=""img/flower1.png"" style=""width:200px; border:14px solid green;"">","null","","","","","","","","",""
"","image-keyboard-response","268","160165","0.0-268.0","30LB5CDZNDW8GCN129HAVRSXLXOZ0E","A9S6EGIY10U0X","3TKXBROM5TWR181JXBYSOI8FGFVJIU","","544","img/flower4.png","76","544","3","1","3","1","1,0.333,0.333,0.333,1,0.333,0.333,0.333,1","1,0.333,0.333,0.333,1,0.333,0.333,0.333,1","1",""
"","html-keyboard-response","269","160477","0.0-269.0","30LB5CDZNDW8GCN129HAVRSXLXOZ0E","A9S6EGIY10U0X","3TKXBROM5TWR181JXBYSOI8FGFVJIU","","null","<img src=""img/flower4.png"" style=""width:200px; border:14px solid green;"">","null","","","","","","","","",""
"","image-keyboard-response","270","160810","0.0-270.0","30LB5CDZNDW8GCN129HAVRSXLXOZ0E","A9S6EGIY10U0X","3TKXBROM5TWR181JXBYSOI8FGFVJIU","","332","img/flower4.png","76","332","3","1","3","1","1,0.333,0.333,0.333,1,0.333,0.333,0.333,1","1,0.333,0.333,0.333,1,0.333,0.333,0.333,1","1",""
"","html-keyboard-response","271","161127","0.0-271.0","30LB5CDZNDW8GCN129HAVRSXLXOZ0E","A9S6EGIY10U0X","3TKXBROM5TWR181JXBYSOI8FGFVJIU","","null","<img src=""img/flower4.png"" style=""width:200px; border:14px solid green;"">","null","","","","","","","","",""
"","image-keyboard-response","272","161750","0.0-272.0","30LB5CDZNDW8GCN129HAVRSXLXOZ0E","A9S6EGIY10U0X","3TKXBROM5TWR181JXBYSOI8FGFVJIU","","623","img/flower1.png","74","624","1","1","1","1","1,0.333,0.333,0.333,1,0.333,0.333,0.333,1","1,0.333,0.333,0.333,1,0.333,0.333,0.333,1","1",""
"","html-keyboard-response","273","162062","0.0-273.0","30LB5CDZNDW8GCN129HAVRSXLXOZ0E","A9S6EGIY10U0X","3TKXBROM5TWR181JXBYSOI8FGFVJIU","","null","<img src=""img/flower1.png"" style=""width:200px; border:14px solid green;"">","null","","","","","","","","",""
"","image-keyboard-response","274","162925","0.0-274.0","30LB5CDZNDW8GCN129HAVRSXLXOZ0E","A9S6EGIY10U0X","3TKXBROM5TWR181JXBYSOI8FGFVJIU","","862","img/flower2.png","75","862","2","1","2","1","1,0.333,0.333,0.333,1,0.333,0.333,0.333,1","1,0.333,0.333,0.333,1,0.333,0.333,0.333,1","1",""
"","html-keyboard-response","275","163236","0.0-275.0","30LB5CDZNDW8GCN129HAVRSXLXOZ0E","A9S6EGIY10U0X","3TKXBROM5TWR181JXBYSOI8FGFVJIU","","null","<img src=""img/flower2.png"" style=""width:200px; border:14px solid green;"">","null","","","","","","","","",""
"","image-keyboard-response","276","163592","0.0-276.0","30LB5CDZNDW8GCN129HAVRSXLXOZ0E","A9S6EGIY10U0X","3TKXBROM5TWR181JXBYSOI8FGFVJIU","","355","img/flower2.png","75","357","2","1","2","1","1,0.333,0.333,0.333,1,0.333,0.333,0.333,1","1,0.333,0.333,0.333,1,0.333,0.333,0.333,1","1",""
"","html-keyboard-response","277","163896","0.0-277.0","30LB5CDZNDW8GCN129HAVRSXLXOZ0E","A9S6EGIY10U0X","3TKXBROM5TWR181JXBYSOI8FGFVJIU","","null","<img src=""img/flower2.png"" style=""width:200px; border:14px solid green;"">","null","","","","","","","","",""
"","image-keyboard-response","278","164250","0.0-278.0","30LB5CDZNDW8GCN129HAVRSXLXOZ0E","A9S6EGIY10U0X","3TKXBROM5TWR181JXBYSOI8FGFVJIU","","352","img/flower2.png","75","353","2","1","2","1","1,0.333,0.333,0.333,1,0.333,0.333,0.333,1","1,0.333,0.333,0.333,1,0.333,0.333,0.333,1","1",""
"","html-keyboard-response","279","164562","0.0-279.0","30LB5CDZNDW8GCN129HAVRSXLXOZ0E","A9S6EGIY10U0X","3TKXBROM5TWR181JXBYSOI8FGFVJIU","","null","<img src=""img/flower2.png"" style=""width:200px; border:14px solid green;"">","null","","","","","","","","",""
"","image-keyboard-response","280","164968","0.0-280.0","30LB5CDZNDW8GCN129HAVRSXLXOZ0E","A9S6EGIY10U0X","3TKXBROM5TWR181JXBYSOI8FGFVJIU","","405","img/flower4.png","76","405","3","1","3","1","1,0.333,0.333,0.333,1,0.333,0.333,0.333,1","1,0.333,0.333,0.333,1,0.333,0.333,0.333,1","1",""
"","html-keyboard-response","281","165269","0.0-281.0","30LB5CDZNDW8GCN129HAVRSXLXOZ0E","A9S6EGIY10U0X","3TKXBROM5TWR181JXBYSOI8FGFVJIU","","null","<img src=""img/flower4.png"" style=""width:200px; border:14px solid green;"">","null","","","","","","","","",""
"","image-keyboard-response","282","165575","0.0-282.0","30LB5CDZNDW8GCN129HAVRSXLXOZ0E","A9S6EGIY10U0X","3TKXBROM5TWR181JXBYSOI8FGFVJIU","","304","img/flower4.png","76","305","3","1","3","1","1,0.333,0.333,0.333,1,0.333,0.333,0.333,1","1,0.333,0.333,0.333,1,0.333,0.333,0.333,1","1",""
"","html-keyboard-response","283","165888","0.0-283.0","30LB5CDZNDW8GCN129HAVRSXLXOZ0E","A9S6EGIY10U0X","3TKXBROM5TWR181JXBYSOI8FGFVJIU","","null","<img src=""img/flower4.png"" style=""width:200px; border:14px solid green;"">","null","","","","","","","","",""
"","image-keyboard-response","284","166324","0.0-284.0","30LB5CDZNDW8GCN129HAVRSXLXOZ0E","A9S6EGIY10U0X","3TKXBROM5TWR181JXBYSOI8FGFVJIU","","435","img/flower2.png","75","436","2","1","2","1","1,0.333,0.333,0.333,1,0.333,0.333,0.333,1","1,0.333,0.333,0.333,1,0.333,0.333,0.333,1","1",""
"","html-keyboard-response","285","166630","0.0-285.0","30LB5CDZNDW8GCN129HAVRSXLXOZ0E","A9S6EGIY10U0X","3TKXBROM5TWR181JXBYSOI8FGFVJIU","","null","<img src=""img/flower2.png"" style=""width:200px; border:14px solid green;"">","null","","","","","","","","",""
"","image-keyboard-response","286","166959","0.0-286.0","30LB5CDZNDW8GCN129HAVRSXLXOZ0E","A9S6EGIY10U0X","3TKXBROM5TWR181JXBYSOI8FGFVJIU","","328","img/flower4.png","76","328","3","1","3","1","1,0.333,0.333,0.333,1,0.333,0.333,0.333,1","1,0.333,0.333,0.333,1,0.333,0.333,0.333,1","1",""
"","html-keyboard-response","287","167265","0.0-287.0","30LB5CDZNDW8GCN129HAVRSXLXOZ0E","A9S6EGIY10U0X","3TKXBROM5TWR181JXBYSOI8FGFVJIU","","null","<img src=""img/flower4.png"" style=""width:200px; border:14px solid green;"">","null","","","","","","","","",""
"","image-keyboard-response","288","167622","0.0-288.0","30LB5CDZNDW8GCN129HAVRSXLXOZ0E","A9S6EGIY10U0X","3TKXBROM5TWR181JXBYSOI8FGFVJIU","","356","img/flower1.png","75","357","2","1","1","1","1,0.333,0.333,0.333,1,0.333,0.333,0.333,1","1,0.333,0.333,0.333,1,0.333,0.333,0.333,1","1",""
"","html-keyboard-response","289","167935","0.0-289.0","30LB5CDZNDW8GCN129HAVRSXLXOZ0E","A9S6EGIY10U0X","3TKXBROM5TWR181JXBYSOI8FGFVJIU","","null","<img src=""img/flower1.png"" style=""width:200px; border:14px solid green;"">","null","","","","","","","","",""
"","image-keyboard-response","290","168379","0.0-290.0","30LB5CDZNDW8GCN129HAVRSXLXOZ0E","A9S6EGIY10U0X","3TKXBROM5TWR181JXBYSOI8FGFVJIU","","443","img/flower1.png","74","443","1","1","1","1","1,0.333,0.333,0.333,1,0.333,0.333,0.333,1","1,0.333,0.333,0.333,1,0.333,0.333,0.333,1","1",""
"","html-keyboard-response","291","168692","0.0-291.0","30LB5CDZNDW8GCN129HAVRSXLXOZ0E","A9S6EGIY10U0X","3TKXBROM5TWR181JXBYSOI8FGFVJIU","","null","<img src=""img/flower1.png"" style=""width:200px; border:14px solid green;"">","null","","","","","","","","",""
"","image-keyboard-response","292","169065","0.0-292.0","30LB5CDZNDW8GCN129HAVRSXLXOZ0E","A9S6EGIY10U0X","3TKXBROM5TWR181JXBYSOI8FGFVJIU","","372","img/flower1.png","74","373","1","1","1","1","1,0.333,0.333,0.333,1,0.333,0.333,0.333,1","1,0.333,0.333,0.333,1,0.333,0.333,0.333,1","1",""
"","html-keyboard-response","293","169368","0.0-293.0","30LB5CDZNDW8GCN129HAVRSXLXOZ0E","A9S6EGIY10U0X","3TKXBROM5TWR181JXBYSOI8FGFVJIU","","null","<img src=""img/flower1.png"" style=""width:200px; border:14px solid green;"">","null","","","","","","","","",""
"","image-keyboard-response","294","170238","0.0-294.0","30LB5CDZNDW8GCN129HAVRSXLXOZ0E","A9S6EGIY10U0X","3TKXBROM5TWR181JXBYSOI8FGFVJIU","","870","img/flower2.png","75","870","2","1","2","1","1,0.333,0.333,0.333,1,0.333,0.333,0.333,1","1,0.333,0.333,0.333,1,0.333,0.333,0.333,1","1",""
"","html-keyboard-response","295","170541","0.0-295.0","30LB5CDZNDW8GCN129HAVRSXLXOZ0E","A9S6EGIY10U0X","3TKXBROM5TWR181JXBYSOI8FGFVJIU","","null","<img src=""img/flower2.png"" style=""width:200px; border:14px solid green;"">","null","","","","","","","","",""
"","image-keyboard-response","296","171136","0.0-296.0","30LB5CDZNDW8GCN129HAVRSXLXOZ0E","A9S6EGIY10U0X","3TKXBROM5TWR181JXBYSOI8FGFVJIU","","596","img/flower4.png","76","596","3","1","3","1","1,0.333,0.333,0.333,1,0.333,0.333,0.333,1","1,0.333,0.333,0.333,1,0.333,0.333,0.333,1","1",""
"","html-keyboard-response","297","171446","0.0-297.0","30LB5CDZNDW8GCN129HAVRSXLXOZ0E","A9S6EGIY10U0X","3TKXBROM5TWR181JXBYSOI8FGFVJIU","","null","<img src=""img/flower4.png"" style=""width:200px; border:14px solid green;"">","null","","","","","","","","",""
"","image-keyboard-response","298","172021","0.0-298.0","30LB5CDZNDW8GCN129HAVRSXLXOZ0E","A9S6EGIY10U0X","3TKXBROM5TWR181JXBYSOI8FGFVJIU","","573","img/flower2.png","75","574","2","1","2","1","1,0.333,0.333,0.333,1,0.333,0.333,0.333,1","1,0.333,0.333,0.333,1,0.333,0.333,0.333,1","1",""
"","html-keyboard-response","299","172331","0.0-299.0","30LB5CDZNDW8GCN129HAVRSXLXOZ0E","A9S6EGIY10U0X","3TKXBROM5TWR181JXBYSOI8FGFVJIU","","null","<img src=""img/flower2.png"" style=""width:200px; border:14px solid green;"">","null","","","","","","","","",""
"","image-keyboard-response","300","172724","0.0-300.0","30LB5CDZNDW8GCN129HAVRSXLXOZ0E","A9S6EGIY10U0X","3TKXBROM5TWR181JXBYSOI8FGFVJIU","","392","img/flower2.png","75","393","2","1","2","1","1,0.333,0.333,0.333,1,0.333,0.333,0.333,1","1,0.333,0.333,0.333,1,0.333,0.333,0.333,1","1",""
"","html-keyboard-response","301","173031","0.0-301.0","30LB5CDZNDW8GCN129HAVRSXLXOZ0E","A9S6EGIY10U0X","3TKXBROM5TWR181JXBYSOI8FGFVJIU","","null","<img src=""img/flower2.png"" style=""width:200px; border:14px solid green;"">","null","","","","","","","","",""
"","image-keyboard-response","302","173344","0.0-302.0","30LB5CDZNDW8GCN129HAVRSXLXOZ0E","A9S6EGIY10U0X","3TKXBROM5TWR181JXBYSOI8FGFVJIU","","311","img/flower2.png","75","312","2","1","2","1","1,0.333,0.333,0.333,1,0.333,0.333,0.333,1","1,0.333,0.333,0.333,1,0.333,0.333,0.333,1","1",""
"","html-keyboard-response","303","173650","0.0-303.0","30LB5CDZNDW8GCN129HAVRSXLXOZ0E","A9S6EGIY10U0X","3TKXBROM5TWR181JXBYSOI8FGFVJIU","","null","<img src=""img/flower2.png"" style=""width:200px; border:14px solid green;"">","null","","","","","","","","",""
"","image-keyboard-response","304","174367","0.0-304.0","30LB5CDZNDW8GCN129HAVRSXLXOZ0E","A9S6EGIY10U0X","3TKXBROM5TWR181JXBYSOI8FGFVJIU","","715","img/flower1.png","74","716","1","1","1","1","1,0.333,0.333,0.333,1,0.333,0.333,0.333,1","1,0.333,0.333,0.333,1,0.333,0.333,0.333,1","1",""
"","html-keyboard-response","305","174684","0.0-305.0","30LB5CDZNDW8GCN129HAVRSXLXOZ0E","A9S6EGIY10U0X","3TKXBROM5TWR181JXBYSOI8FGFVJIU","","null","<img src=""img/flower1.png"" style=""width:200px; border:14px solid green;"">","null","","","","","","","","",""
"","image-keyboard-response","306","175179","0.0-306.0","30LB5CDZNDW8GCN129HAVRSXLXOZ0E","A9S6EGIY10U0X","3TKXBROM5TWR181JXBYSOI8FGFVJIU","","493","img/flower2.png","75","494","2","1","2","1","1,0.333,0.333,0.333,1,0.333,0.333,0.333,1","1,0.333,0.333,0.333,1,0.333,0.333,0.333,1","1",""
"","html-keyboard-response","307","175491","0.0-307.0","30LB5CDZNDW8GCN129HAVRSXLXOZ0E","A9S6EGIY10U0X","3TKXBROM5TWR181JXBYSOI8FGFVJIU","","null","<img src=""img/flower2.png"" style=""width:200px; border:14px solid green;"">","null","","","","","","","","",""
"","image-keyboard-response","308","175976","0.0-308.0","30LB5CDZNDW8GCN129HAVRSXLXOZ0E","A9S6EGIY10U0X","3TKXBROM5TWR181JXBYSOI8FGFVJIU","","484","img/flower4.png","76","486","3","1","3","1","1,0.333,0.333,0.333,1,0.333,0.333,0.333,1","1,0.333,0.333,0.333,1,0.333,0.333,0.333,1","1",""
"","html-keyboard-response","309","176283","0.0-309.0","30LB5CDZNDW8GCN129HAVRSXLXOZ0E","A9S6EGIY10U0X","3TKXBROM5TWR181JXBYSOI8FGFVJIU","","null","<img src=""img/flower4.png"" style=""width:200px; border:14px solid green;"">","null","","","","","","","","",""
"","image-keyboard-response","310","176955","0.0-310.0","30LB5CDZNDW8GCN129HAVRSXLXOZ0E","A9S6EGIY10U0X","3TKXBROM5TWR181JXBYSOI8FGFVJIU","","670","img/flower1.png","74","670","1","1","1","1","1,0.333,0.333,0.333,1,0.333,0.333,0.333,1","1,0.333,0.333,0.333,1,0.333,0.333,0.333,1","1",""
"","html-keyboard-response","311","177266","0.0-311.0","30LB5CDZNDW8GCN129HAVRSXLXOZ0E","A9S6EGIY10U0X","3TKXBROM5TWR181JXBYSOI8FGFVJIU","","null","<img src=""img/flower1.png"" style=""width:200px; border:14px solid green;"">","null","","","","","","","","",""
"","image-keyboard-response","312","178185","0.0-312.0","30LB5CDZNDW8GCN129HAVRSXLXOZ0E","A9S6EGIY10U0X","3TKXBROM5TWR181JXBYSOI8FGFVJIU","","918","img/flower2.png","75","920","2","1","2","1","1,0.333,0.333,0.333,1,0.333,0.333,0.333,1","1,0.333,0.333,0.333,1,0.333,0.333,0.333,1","1",""
"","html-keyboard-response","313","178501","0.0-313.0","30LB5CDZNDW8GCN129HAVRSXLXOZ0E","A9S6EGIY10U0X","3TKXBROM5TWR181JXBYSOI8FGFVJIU","","null","<img src=""img/flower2.png"" style=""width:200px; border:14px solid green;"">","null","","","","","","","","",""
"","image-keyboard-response","314","179379","0.0-314.0","30LB5CDZNDW8GCN129HAVRSXLXOZ0E","A9S6EGIY10U0X","3TKXBROM5TWR181JXBYSOI8FGFVJIU","","878","img/flower1.png","74","878","1","1","1","1","1,0.333,0.333,0.333,1,0.333,0.333,0.333,1","1,0.333,0.333,0.333,1,0.333,0.333,0.333,1","1",""
"","html-keyboard-response","315","179689","0.0-315.0","30LB5CDZNDW8GCN129HAVRSXLXOZ0E","A9S6EGIY10U0X","3TKXBROM5TWR181JXBYSOI8FGFVJIU","","null","<img src=""img/flower1.png"" style=""width:200px; border:14px solid green;"">","null","","","","","","","","",""
"","image-keyboard-response","316","180022","0.0-316.0","30LB5CDZNDW8GCN129HAVRSXLXOZ0E","A9S6EGIY10U0X","3TKXBROM5TWR181JXBYSOI8FGFVJIU","","333","img/flower1.png","74","333","1","1","1","1","1,0.333,0.333,0.333,1,0.333,0.333,0.333,1","1,0.333,0.333,0.333,1,0.333,0.333,0.333,1","1",""
"","html-keyboard-response","317","180326","0.0-317.0","30LB5CDZNDW8GCN129HAVRSXLXOZ0E","A9S6EGIY10U0X","3TKXBROM5TWR181JXBYSOI8FGFVJIU","","null","<img src=""img/flower1.png"" style=""width:200px; border:14px solid green;"">","null","","","","","","","","",""
"","image-keyboard-response","318","180618","0.0-318.0","30LB5CDZNDW8GCN129HAVRSXLXOZ0E","A9S6EGIY10U0X","3TKXBROM5TWR181JXBYSOI8FGFVJIU","","292","img/flower4.png","76","293","3","1","3","1","1,0.333,0.333,0.333,1,0.333,0.333,0.333,1","1,0.333,0.333,0.333,1,0.333,0.333,0.333,1","1",""
"","html-keyboard-response","319","180925","0.0-319.0","30LB5CDZNDW8GCN129HAVRSXLXOZ0E","A9S6EGIY10U0X","3TKXBROM5TWR181JXBYSOI8FGFVJIU","","null","<img src=""img/flower4.png"" style=""width:200px; border:14px solid green;"">","null","","","","","","","","",""
"","image-keyboard-response","320","181547","0.0-320.0","30LB5CDZNDW8GCN129HAVRSXLXOZ0E","A9S6EGIY10U0X","3TKXBROM5TWR181JXBYSOI8FGFVJIU","","622","img/flower2.png","75","622","2","1","2","1","1,0.333,0.333,0.333,1,0.333,0.333,0.333,1","1,0.333,0.333,0.333,1,0.333,0.333,0.333,1","1",""
"","html-keyboard-response","321","181857","0.0-321.0","30LB5CDZNDW8GCN129HAVRSXLXOZ0E","A9S6EGIY10U0X","3TKXBROM5TWR181JXBYSOI8FGFVJIU","","null","<img src=""img/flower2.png"" style=""width:200px; border:14px solid green;"">","null","","","","","","","","",""
"","image-keyboard-response","322","182511","0.0-322.0","30LB5CDZNDW8GCN129HAVRSXLXOZ0E","A9S6EGIY10U0X","3TKXBROM5TWR181JXBYSOI8FGFVJIU","","653","img/flower4.png","76","654","3","1","3","1","1,0.333,0.333,0.333,1,0.333,0.333,0.333,1","1,0.333,0.333,0.333,1,0.333,0.333,0.333,1","1",""
"","html-keyboard-response","323","182824","0.0-323.0","30LB5CDZNDW8GCN129HAVRSXLXOZ0E","A9S6EGIY10U0X","3TKXBROM5TWR181JXBYSOI8FGFVJIU","","null","<img src=""img/flower4.png"" style=""width:200px; border:14px solid green;"">","null","","","","","","","","",""
"","image-keyboard-response","324","183196","0.0-324.0","30LB5CDZNDW8GCN129HAVRSXLXOZ0E","A9S6EGIY10U0X","3TKXBROM5TWR181JXBYSOI8FGFVJIU","","371","img/flower4.png","76","371","3","1","3","1","1,0.333,0.333,0.333,1,0.333,0.333,0.333,1","1,0.333,0.333,0.333,1,0.333,0.333,0.333,1","1",""
"","html-keyboard-response","325","183504","0.0-325.0","30LB5CDZNDW8GCN129HAVRSXLXOZ0E","A9S6EGIY10U0X","3TKXBROM5TWR181JXBYSOI8FGFVJIU","","null","<img src=""img/flower4.png"" style=""width:200px; border:14px solid green;"">","null","","","","","","","","",""
"","image-keyboard-response","326","183832","0.0-326.0","30LB5CDZNDW8GCN129HAVRSXLXOZ0E","A9S6EGIY10U0X","3TKXBROM5TWR181JXBYSOI8FGFVJIU","","326","img/flower4.png","76","326","3","1","3","1","1,0.333,0.333,0.333,1,0.333,0.333,0.333,1","1,0.333,0.333,0.333,1,0.333,0.333,0.333,1","1",""
"","html-keyboard-response","327","184137","0.0-327.0","30LB5CDZNDW8GCN129HAVRSXLXOZ0E","A9S6EGIY10U0X","3TKXBROM5TWR181JXBYSOI8FGFVJIU","","null","<img src=""img/flower4.png"" style=""width:200px; border:14px solid green;"">","null","","","","","","","","",""
"","image-keyboard-response","328","184421","0.0-328.0","30LB5CDZNDW8GCN129HAVRSXLXOZ0E","A9S6EGIY10U0X","3TKXBROM5TWR181JXBYSOI8FGFVJIU","","283","img/flower4.png","76","283","3","1","3","1","1,0.333,0.333,0.333,1,0.333,0.333,0.333,1","1,0.333,0.333,0.333,1,0.333,0.333,0.333,1","1",""
"","html-keyboard-response","329","184723","0.0-329.0","30LB5CDZNDW8GCN129HAVRSXLXOZ0E","A9S6EGIY10U0X","3TKXBROM5TWR181JXBYSOI8FGFVJIU","","null","<img src=""img/flower4.png"" style=""width:200px; border:14px solid green;"">","null","","","","","","","","",""
"","image-keyboard-response","330","184993","0.0-330.0","30LB5CDZNDW8GCN129HAVRSXLXOZ0E","A9S6EGIY10U0X","3TKXBROM5TWR181JXBYSOI8FGFVJIU","","269","img/flower4.png","76","270","3","1","3","1","1,0.333,0.333,0.333,1,0.333,0.333,0.333,1","1,0.333,0.333,0.333,1,0.333,0.333,0.333,1","1",""
"","html-keyboard-response","331","185309","0.0-331.0","30LB5CDZNDW8GCN129HAVRSXLXOZ0E","A9S6EGIY10U0X","3TKXBROM5TWR181JXBYSOI8FGFVJIU","","null","<img src=""img/flower4.png"" style=""width:200px; border:14px solid green;"">","null","","","","","","","","",""
"","image-keyboard-response","332","185842","0.0-332.0","30LB5CDZNDW8GCN129HAVRSXLXOZ0E","A9S6EGIY10U0X","3TKXBROM5TWR181JXBYSOI8FGFVJIU","","532","img/flower2.png","74","533","1","0","2","1","1,0.333,0.333,0.333,1,0.333,0.333,0.333,1","1,0.333,0.333,0.333,1,0.333,0.333,0.333,1","1",""
"","html-keyboard-response","333","186150","0.0-333.0","30LB5CDZNDW8GCN129HAVRSXLXOZ0E","A9S6EGIY10U0X","3TKXBROM5TWR181JXBYSOI8FGFVJIU","","null","<img src=""img/flower2.png"" style=""width:200px;border:14px solid red;"">","null","","","","","","","","",""
"","image-keyboard-response","334","186764","0.0-334.0","30LB5CDZNDW8GCN129HAVRSXLXOZ0E","A9S6EGIY10U0X","3TKXBROM5TWR181JXBYSOI8FGFVJIU","","613","img/flower1.png","74","613","1","1","1","1","1,0.333,0.333,0.333,1,0.333,0.333,0.333,1","1,0.333,0.333,0.333,1,0.333,0.333,0.333,1","1",""
"","html-keyboard-response","335","187071","0.0-335.0","30LB5CDZNDW8GCN129HAVRSXLXOZ0E","A9S6EGIY10U0X","3TKXBROM5TWR181JXBYSOI8FGFVJIU","","null","<img src=""img/flower1.png"" style=""width:200px; border:14px solid green;"">","null","","","","","","","","",""
"","image-keyboard-response","336","187739","0.0-336.0","30LB5CDZNDW8GCN129HAVRSXLXOZ0E","A9S6EGIY10U0X","3TKXBROM5TWR181JXBYSOI8FGFVJIU","","668","img/flower4.png","76","668","3","1","3","1","1,0.333,0.333,0.333,1,0.333,0.333,0.333,1","1,0.333,0.333,0.333,1,0.333,0.333,0.333,1","1",""
"","html-keyboard-response","337","188049","0.0-337.0","30LB5CDZNDW8GCN129HAVRSXLXOZ0E","A9S6EGIY10U0X","3TKXBROM5TWR181JXBYSOI8FGFVJIU","","null","<img src=""img/flower4.png"" style=""width:200px; border:14px solid green;"">","null","","","","","","","","",""
"","image-keyboard-response","338","188438","0.0-338.0","30LB5CDZNDW8GCN129HAVRSXLXOZ0E","A9S6EGIY10U0X","3TKXBROM5TWR181JXBYSOI8FGFVJIU","","389","img/flower1.png","75","390","2","0","1","1","1,0.333,0.333,0.333,1,0.333,0.333,0.333,1","1,0.333,0.333,0.333,1,0.333,0.333,0.333,1","1",""
"","html-keyboard-response","339","188748","0.0-339.0","30LB5CDZNDW8GCN129HAVRSXLXOZ0E","A9S6EGIY10U0X","3TKXBROM5TWR181JXBYSOI8FGFVJIU","","null","<img src=""img/flower1.png"" style=""width:200px;border:14px solid red;"">","null","","","","","","","","",""
"","image-keyboard-response","340","189469","0.0-340.0","30LB5CDZNDW8GCN129HAVRSXLXOZ0E","A9S6EGIY10U0X","3TKXBROM5TWR181JXBYSOI8FGFVJIU","","720","img/flower2.png","75","720","2","1","2","1","1,0.333,0.333,0.333,1,0.333,0.333,0.333,1","1,0.333,0.333,0.333,1,0.333,0.333,0.333,1","1",""
"","html-keyboard-response","341","189779","0.0-341.0","30LB5CDZNDW8GCN129HAVRSXLXOZ0E","A9S6EGIY10U0X","3TKXBROM5TWR181JXBYSOI8FGFVJIU","","null","<img src=""img/flower2.png"" style=""width:200px; border:14px solid green;"">","null","","","","","","","","",""
"","image-keyboard-response","342","190393","0.0-342.0","30LB5CDZNDW8GCN129HAVRSXLXOZ0E","A9S6EGIY10U0X","3TKXBROM5TWR181JXBYSOI8FGFVJIU","","612","img/flower1.png","74","613","1","1","1","1","1,0.333,0.333,0.333,1,0.333,0.333,0.333,1","1,0.333,0.333,0.333,1,0.333,0.333,0.333,1","1",""
"","html-keyboard-response","343","190695","0.0-343.0","30LB5CDZNDW8GCN129HAVRSXLXOZ0E","A9S6EGIY10U0X","3TKXBROM5TWR181JXBYSOI8FGFVJIU","","null","<img src=""img/flower1.png"" style=""width:200px; border:14px solid green;"">","null","","","","","","","","",""
"","image-keyboard-response","344","191235","0.0-344.0","30LB5CDZNDW8GCN129HAVRSXLXOZ0E","A9S6EGIY10U0X","3TKXBROM5TWR181JXBYSOI8FGFVJIU","","538","img/flower2.png","75","539","2","1","2","1","1,0.333,0.333,0.333,1,0.333,0.333,0.333,1","1,0.333,0.333,0.333,1,0.333,0.333,0.333,1","1",""
"","html-keyboard-response","345","191548","0.0-345.0","30LB5CDZNDW8GCN129HAVRSXLXOZ0E","A9S6EGIY10U0X","3TKXBROM5TWR181JXBYSOI8FGFVJIU","","null","<img src=""img/flower2.png"" style=""width:200px; border:14px solid green;"">","null","","","","","","","","",""
"","image-keyboard-response","346","191929","0.0-346.0","30LB5CDZNDW8GCN129HAVRSXLXOZ0E","A9S6EGIY10U0X","3TKXBROM5TWR181JXBYSOI8FGFVJIU","","381","img/flower2.png","75","382","2","1","2","1","1,0.333,0.333,0.333,1,0.333,0.333,0.333,1","1,0.333,0.333,0.333,1,0.333,0.333,0.333,1","1",""
"","html-keyboard-response","347","192231","0.0-347.0","30LB5CDZNDW8GCN129HAVRSXLXOZ0E","A9S6EGIY10U0X","3TKXBROM5TWR181JXBYSOI8FGFVJIU","","null","<img src=""img/flower2.png"" style=""width:200px; border:14px solid green;"">","null","","","","","","","","",""
"","image-keyboard-response","348","192584","0.0-348.0","30LB5CDZNDW8GCN129HAVRSXLXOZ0E","A9S6EGIY10U0X","3TKXBROM5TWR181JXBYSOI8FGFVJIU","","352","img/flower2.png","75","353","2","1","2","1","1,0.333,0.333,0.333,1,0.333,0.333,0.333,1","1,0.333,0.333,0.333,1,0.333,0.333,0.333,1","1",""
"","html-keyboard-response","349","192898","0.0-349.0","30LB5CDZNDW8GCN129HAVRSXLXOZ0E","A9S6EGIY10U0X","3TKXBROM5TWR181JXBYSOI8FGFVJIU","","null","<img src=""img/flower2.png"" style=""width:200px; border:14px solid green;"">","null","","","","","","","","",""
"","image-keyboard-response","350","193744","0.0-350.0","30LB5CDZNDW8GCN129HAVRSXLXOZ0E","A9S6EGIY10U0X","3TKXBROM5TWR181JXBYSOI8FGFVJIU","","845","img/flower1.png","74","846","1","1","1","1","1,0.333,0.333,0.333,1,0.333,0.333,0.333,1","1,0.333,0.333,0.333,1,0.333,0.333,0.333,1","1",""
"","html-keyboard-response","351","194055","0.0-351.0","30LB5CDZNDW8GCN129HAVRSXLXOZ0E","A9S6EGIY10U0X","3TKXBROM5TWR181JXBYSOI8FGFVJIU","","null","<img src=""img/flower1.png"" style=""width:200px; border:14px solid green;"">","null","","","","","","","","",""
"","image-keyboard-response","352","194405","0.0-352.0","30LB5CDZNDW8GCN129HAVRSXLXOZ0E","A9S6EGIY10U0X","3TKXBROM5TWR181JXBYSOI8FGFVJIU","","349","img/flower1.png","74","349","1","1","1","1","1,0.333,0.333,0.333,1,0.333,0.333,0.333,1","1,0.333,0.333,0.333,1,0.333,0.333,0.333,1","1",""
"","html-keyboard-response","353","194719","0.0-353.0","30LB5CDZNDW8GCN129HAVRSXLXOZ0E","A9S6EGIY10U0X","3TKXBROM5TWR181JXBYSOI8FGFVJIU","","null","<img src=""img/flower1.png"" style=""width:200px; border:14px solid green;"">","null","","","","","","","","",""
"","image-keyboard-response","354","195195","0.0-354.0","30LB5CDZNDW8GCN129HAVRSXLXOZ0E","A9S6EGIY10U0X","3TKXBROM5TWR181JXBYSOI8FGFVJIU","","472","img/flower2.png","75","473","2","1","2","1","1,0.333,0.333,0.333,1,0.333,0.333,0.333,1","1,0.333,0.333,0.333,1,0.333,0.333,0.333,1","1",""
"","html-keyboard-response","355","195501","0.0-355.0","30LB5CDZNDW8GCN129HAVRSXLXOZ0E","A9S6EGIY10U0X","3TKXBROM5TWR181JXBYSOI8FGFVJIU","","null","<img src=""img/flower2.png"" style=""width:200px; border:14px solid green;"">","null","","","","","","","","",""
"","image-keyboard-response","356","195996","0.0-356.0","30LB5CDZNDW8GCN129HAVRSXLXOZ0E","A9S6EGIY10U0X","3TKXBROM5TWR181JXBYSOI8FGFVJIU","","495","img/flower4.png","76","495","3","1","3","1","1,0.333,0.333,0.333,1,0.333,0.333,0.333,1","1,0.333,0.333,0.333,1,0.333,0.333,0.333,1","1",""
"","html-keyboard-response","357","196307","0.0-357.0","30LB5CDZNDW8GCN129HAVRSXLXOZ0E","A9S6EGIY10U0X","3TKXBROM5TWR181JXBYSOI8FGFVJIU","","null","<img src=""img/flower4.png"" style=""width:200px; border:14px solid green;"">","null","","","","","","","","",""
"","image-keyboard-response","358","196623","0.0-358.0","30LB5CDZNDW8GCN129HAVRSXLXOZ0E","A9S6EGIY10U0X","3TKXBROM5TWR181JXBYSOI8FGFVJIU","","315","img/flower4.png","76","316","3","1","3","1","1,0.333,0.333,0.333,1,0.333,0.333,0.333,1","1,0.333,0.333,0.333,1,0.333,0.333,0.333,1","1",""
"","html-keyboard-response","359","196939","0.0-359.0","30LB5CDZNDW8GCN129HAVRSXLXOZ0E","A9S6EGIY10U0X","3TKXBROM5TWR181JXBYSOI8FGFVJIU","","null","<img src=""img/flower4.png"" style=""width:200px; border:14px solid green;"">","null","","","","","","","","",""
"","image-keyboard-response","360","197640","0.0-360.0","30LB5CDZNDW8GCN129HAVRSXLXOZ0E","A9S6EGIY10U0X","3TKXBROM5TWR181JXBYSOI8FGFVJIU","","699","img/flower2.png","75","700","2","1","2","1","1,0.333,0.333,0.333,1,0.333,0.333,0.333,1","1,0.333,0.333,0.333,1,0.333,0.333,0.333,1","1",""
"","html-keyboard-response","361","197952","0.0-361.0","30LB5CDZNDW8GCN129HAVRSXLXOZ0E","A9S6EGIY10U0X","3TKXBROM5TWR181JXBYSOI8FGFVJIU","","null","<img src=""img/flower2.png"" style=""width:200px; border:14px solid green;"">","null","","","","","","","","",""
"","html-keyboard-response","362","201846","0.0-362.0","30LB5CDZNDW8GCN129HAVRSXLXOZ0E","A9S6EGIY10U0X","3TKXBROM5TWR181JXBYSOI8FGFVJIU","","","","","","","","","","","","",""
"","instructions","363","204980","0.0-363.0","30LB5CDZNDW8GCN129HAVRSXLXOZ0E","A9S6EGIY10U0X","3TKXBROM5TWR181JXBYSOI8FGFVJIU","[{""page_index"":0,""viewing_time"":3135}]","3135","","","","","","","","","","",""
"","survey-text","364","218671","0.0-364.0","30LB5CDZNDW8GCN129HAVRSXLXOZ0E","A9S6EGIY10U0X","3TKXBROM5TWR181JXBYSOI8FGFVJIU","","13689","","","","","","","","","","","{""Q0"":""A9S6EGIY10U0X""}"
