"rt","url","trial_type","trial_index","time_elapsed","internal_node_id","assignmentID","mturkID","hitID","success","view_history","stimulus","key_press","reactionTime","a","r","s","reward_cond","responses"
"25807.20000000298","consent.html","external-html","0","25934","0.0-0.0","3SPJ033422PFDSEISVPXZPYRA04JY0","ABX5OQLR6UNBC","3S829FDFT2NBOHQMM1CIOU0HZYXDXL","","","","","","","","","",""
"","","fullscreen","1","28736","0.0-1.0","3SPJ033422PFDSEISVPXZPYRA04JY0","ABX5OQLR6UNBC","3S829FDFT2NBOHQMM1CIOU0HZYXDXL","true","","","","","","","","",""
"90467.70000000298","","instructions","2","119206","0.0-2.0","3SPJ033422PFDSEISVPXZPYRA04JY0","ABX5OQLR6UNBC","3S829FDFT2NBOHQMM1CIOU0HZYXDXL","","[{""page_index"":0,""viewing_time"":4083.10000000149},{""page_index"":1,""viewing_time"":7528},{""page_index"":2,""viewing_time"":6136},{""page_index"":3,""viewing_time"":9568},{""page_index"":4,""viewing_time"":39984.10000000149},{""page_index"":5,""viewing_time"":15959.89999999851},{""page_index"":6,""viewing_time"":7208}]","","","","","","","",""
"19895.30000000447","","instructions","3","139102","0.0-3.0","3SPJ033422PFDSEISVPXZPYRA04JY0","ABX5OQLR6UNBC","3S829FDFT2NBOHQMM1CIOU0HZYXDXL","","[{""page_index"":0,""viewing_time"":19895.10000000149}]","","","","","","","",""
"1401.3000000044703","","image-keyboard-response","4","140504","0.0-4.0","3SPJ033422PFDSEISVPXZPYRA04JY0","ABX5OQLR6UNBC","3S829FDFT2NBOHQMM1CIOU0HZYXDXL","","","img/flower6.png","76","1402.7000000029802","3","1","3","",""
"null","","html-keyboard-response","5","140815","0.0-5.0","3SPJ033422PFDSEISVPXZPYRA04JY0","ABX5OQLR6UNBC","3S829FDFT2NBOHQMM1CIOU0HZYXDXL","","","<img src=""img/flower6.png"" style=""width:200px; border:14px solid green;"">","null","","","","","",""
"893.5","","image-keyboard-response","6","141709","0.0-6.0","3SPJ033422PFDSEISVPXZPYRA04JY0","ABX5OQLR6UNBC","3S829FDFT2NBOHQMM1CIOU0HZYXDXL","","","img/flower4.png","74","893.8999999985099","1","0","1","",""
"null","","html-keyboard-response","7","142019","0.0-7.0","3SPJ033422PFDSEISVPXZPYRA04JY0","ABX5OQLR6UNBC","3S829FDFT2NBOHQMM1CIOU0HZYXDXL","","","<img src=""img/flower4.png"" style=""width:200px;border:14px solid red;"">","null","","","","","",""
"2080.60000000149","","image-keyboard-response","8","144101","0.0-8.0","3SPJ033422PFDSEISVPXZPYRA04JY0","ABX5OQLR6UNBC","3S829FDFT2NBOHQMM1CIOU0HZYXDXL","","","img/flower4.png","75","2081.6999999955297","2","1","1","",""
"null","","html-keyboard-response","9","144416","0.0-9.0","3SPJ033422PFDSEISVPXZPYRA04JY0","ABX5OQLR6UNBC","3S829FDFT2NBOHQMM1CIOU0HZYXDXL","","","<img src=""img/flower4.png"" style=""width:200px; border:14px solid green;"">","null","","","","","",""
"1085.3999999985099","","image-keyboard-response","10","145502","0.0-10.0","3SPJ033422PFDSEISVPXZPYRA04JY0","ABX5OQLR6UNBC","3S829FDFT2NBOHQMM1CIOU0HZYXDXL","","","img/flower6.png","76","1086.2999999970198","3","1","3","",""
"null","","html-keyboard-response","11","145820","0.0-11.0","3SPJ033422PFDSEISVPXZPYRA04JY0","ABX5OQLR6UNBC","3S829FDFT2NBOHQMM1CIOU0HZYXDXL","","","<img src=""img/flower6.png"" style=""width:200px; border:14px solid green;"">","null","","","","","",""
"1520.7000000029802","","image-keyboard-response","12","147343","0.0-12.0","3SPJ033422PFDSEISVPXZPYRA04JY0","ABX5OQLR6UNBC","3S829FDFT2NBOHQMM1CIOU0HZYXDXL","","","img/flower6.png","76","1522.2000000029802","3","1","3","",""
"null","","html-keyboard-response","13","147648","0.0-13.0","3SPJ033422PFDSEISVPXZPYRA04JY0","ABX5OQLR6UNBC","3S829FDFT2NBOHQMM1CIOU0HZYXDXL","","","<img src=""img/flower6.png"" style=""width:200px; border:14px solid green;"">","null","","","","","",""
"1965","","image-keyboard-response","14","149615","0.0-14.0","3SPJ033422PFDSEISVPXZPYRA04JY0","ABX5OQLR6UNBC","3S829FDFT2NBOHQMM1CIOU0HZYXDXL","","","img/flower5.png","75","1966.5","2","0","2","",""
"null","","html-keyboard-response","15","149918","0.0-15.0","3SPJ033422PFDSEISVPXZPYRA04JY0","ABX5OQLR6UNBC","3S829FDFT2NBOHQMM1CIOU0HZYXDXL","","","<img src=""img/flower5.png"" style=""width:200px;border:14px solid red;"">","null","","","","","",""
"679","","image-keyboard-response","16","150598","0.0-16.0","3SPJ033422PFDSEISVPXZPYRA04JY0","ABX5OQLR6UNBC","3S829FDFT2NBOHQMM1CIOU0HZYXDXL","","","img/flower5.png","74","680.6000000014901","1","0","2","",""
"null","","html-keyboard-response","17","150902","0.0-17.0","3SPJ033422PFDSEISVPXZPYRA04JY0","ABX5OQLR6UNBC","3S829FDFT2NBOHQMM1CIOU0HZYXDXL","","","<img src=""img/flower5.png"" style=""width:200px;border:14px solid red;"">","null","","","","","",""
"3758.7000000029802","","image-keyboard-response","18","154662","0.0-18.0","3SPJ033422PFDSEISVPXZPYRA04JY0","ABX5OQLR6UNBC","3S829FDFT2NBOHQMM1CIOU0HZYXDXL","","","img/flower4.png","74","3760.3000000044703","1","0","1","",""
"null","","html-keyboard-response","19","154967","0.0-19.0","3SPJ033422PFDSEISVPXZPYRA04JY0","ABX5OQLR6UNBC","3S829FDFT2NBOHQMM1CIOU0HZYXDXL","","","<img src=""img/flower4.png"" style=""width:200px;border:14px solid red;"">","null","","","","","",""
"1158","","image-keyboard-response","20","156126","0.0-20.0","3SPJ033422PFDSEISVPXZPYRA04JY0","ABX5OQLR6UNBC","3S829FDFT2NBOHQMM1CIOU0HZYXDXL","","","img/flower5.png","75","1159.2999999970198","2","1","2","",""
"null","","html-keyboard-response","21","156437","0.0-21.0","3SPJ033422PFDSEISVPXZPYRA04JY0","ABX5OQLR6UNBC","3S829FDFT2NBOHQMM1CIOU0HZYXDXL","","","<img src=""img/flower5.png"" style=""width:200px; border:14px solid green;"">","null","","","","","",""
"1384.3000000044703","","image-keyboard-response","22","157823","0.0-22.0","3SPJ033422PFDSEISVPXZPYRA04JY0","ABX5OQLR6UNBC","3S829FDFT2NBOHQMM1CIOU0HZYXDXL","","","img/flower4.png","74","1385.2000000029802","1","1","1","",""
"null","","html-keyboard-response","23","158132","0.0-23.0","3SPJ033422PFDSEISVPXZPYRA04JY0","ABX5OQLR6UNBC","3S829FDFT2NBOHQMM1CIOU0HZYXDXL","","","<img src=""img/flower4.png"" style=""width:200px; border:14px solid green;"">","null","","","","","",""
"1224.2000000029802","","image-keyboard-response","24","159358","0.0-24.0","3SPJ033422PFDSEISVPXZPYRA04JY0","ABX5OQLR6UNBC","3S829FDFT2NBOHQMM1CIOU0HZYXDXL","","","img/flower4.png","74","1225.5","1","1","1","",""
"null","","html-keyboard-response","25","159664","0.0-25.0","3SPJ033422PFDSEISVPXZPYRA04JY0","ABX5OQLR6UNBC","3S829FDFT2NBOHQMM1CIOU0HZYXDXL","","","<img src=""img/flower4.png"" style=""width:200px; border:14px solid green;"">","null","","","","","",""
"902.2999999970198","","image-keyboard-response","26","160567","0.0-26.0","3SPJ033422PFDSEISVPXZPYRA04JY0","ABX5OQLR6UNBC","3S829FDFT2NBOHQMM1CIOU0HZYXDXL","","","img/flower5.png","75","902.8999999985099","2","1","2","",""
"null","","html-keyboard-response","27","160883","0.0-27.0","3SPJ033422PFDSEISVPXZPYRA04JY0","ABX5OQLR6UNBC","3S829FDFT2NBOHQMM1CIOU0HZYXDXL","","","<img src=""img/flower5.png"" style=""width:200px; border:14px solid green;"">","null","","","","","",""
"872.5999999940395","","image-keyboard-response","28","161757","0.0-28.0","3SPJ033422PFDSEISVPXZPYRA04JY0","ABX5OQLR6UNBC","3S829FDFT2NBOHQMM1CIOU0HZYXDXL","","","img/flower5.png","75","873.6999999955297","2","0","2","",""
"null","","html-keyboard-response","29","162067","0.0-29.0","3SPJ033422PFDSEISVPXZPYRA04JY0","ABX5OQLR6UNBC","3S829FDFT2NBOHQMM1CIOU0HZYXDXL","","","<img src=""img/flower5.png"" style=""width:200px;border:14px solid red;"">","null","","","","","",""
"914.1000000014901","","image-keyboard-response","30","162982","0.0-30.0","3SPJ033422PFDSEISVPXZPYRA04JY0","ABX5OQLR6UNBC","3S829FDFT2NBOHQMM1CIOU0HZYXDXL","","","img/flower5.png","75","915.3999999985099","2","1","2","",""
"null","","html-keyboard-response","31","163285","0.0-31.0","3SPJ033422PFDSEISVPXZPYRA04JY0","ABX5OQLR6UNBC","3S829FDFT2NBOHQMM1CIOU0HZYXDXL","","","<img src=""img/flower5.png"" style=""width:200px; border:14px solid green;"">","null","","","","","",""
"735.4000000059605","","image-keyboard-response","32","164022","0.0-32.0","3SPJ033422PFDSEISVPXZPYRA04JY0","ABX5OQLR6UNBC","3S829FDFT2NBOHQMM1CIOU0HZYXDXL","","","img/flower6.png","76","736.7000000029802","3","1","3","",""
"null","","html-keyboard-response","33","164334","0.0-33.0","3SPJ033422PFDSEISVPXZPYRA04JY0","ABX5OQLR6UNBC","3S829FDFT2NBOHQMM1CIOU0HZYXDXL","","","<img src=""img/flower6.png"" style=""width:200px; border:14px solid green;"">","null","","","","","",""
"927.1000000014901","","image-keyboard-response","34","165262","0.0-34.0","3SPJ033422PFDSEISVPXZPYRA04JY0","ABX5OQLR6UNBC","3S829FDFT2NBOHQMM1CIOU0HZYXDXL","","","img/flower4.png","74","928.5","1","1","1","",""
"null","","html-keyboard-response","35","165566","0.0-35.0","3SPJ033422PFDSEISVPXZPYRA04JY0","ABX5OQLR6UNBC","3S829FDFT2NBOHQMM1CIOU0HZYXDXL","","","<img src=""img/flower4.png"" style=""width:200px; border:14px solid green;"">","null","","","","","",""
"862","","image-keyboard-response","36","166415","0.0-36.0","3SPJ033422PFDSEISVPXZPYRA04JY0","ABX5OQLR6UNBC","3S829FDFT2NBOHQMM1CIOU0HZYXDXL","","","img/flower6.png","76","863.1000000014901","3","1","3","",""
"null","","html-keyboard-response","37","166718","0.0-37.0","3SPJ033422PFDSEISVPXZPYRA04JY0","ABX5OQLR6UNBC","3S829FDFT2NBOHQMM1CIOU0HZYXDXL","","","<img src=""img/flower6.png"" style=""width:200px; border:14px solid green;"">","null","","","","","",""
"920","","image-keyboard-response","38","167640","0.0-38.0","3SPJ033422PFDSEISVPXZPYRA04JY0","ABX5OQLR6UNBC","3S829FDFT2NBOHQMM1CIOU0HZYXDXL","","","img/flower4.png","74","921.3999999985099","1","1","1","",""
"null","","html-keyboard-response","39","167952","0.0-39.0","3SPJ033422PFDSEISVPXZPYRA04JY0","ABX5OQLR6UNBC","3S829FDFT2NBOHQMM1CIOU0HZYXDXL","","","<img src=""img/flower4.png"" style=""width:200px; border:14px solid green;"">","null","","","","","",""
"694.1000000014901","","image-keyboard-response","40","168648","0.0-40.0","3SPJ033422PFDSEISVPXZPYRA04JY0","ABX5OQLR6UNBC","3S829FDFT2NBOHQMM1CIOU0HZYXDXL","","","img/flower5.png","75","695.3999999985099","2","0","2","",""
"null","","html-keyboard-response","41","168951","0.0-41.0","3SPJ033422PFDSEISVPXZPYRA04JY0","ABX5OQLR6UNBC","3S829FDFT2NBOHQMM1CIOU0HZYXDXL","","","<img src=""img/flower5.png"" style=""width:200px;border:14px solid red;"">","null","","","","","",""
"1014.2000000029802","","image-keyboard-response","42","169967","0.0-42.0","3SPJ033422PFDSEISVPXZPYRA04JY0","ABX5OQLR6UNBC","3S829FDFT2NBOHQMM1CIOU0HZYXDXL","","","img/flower4.png","74","1015.5","1","1","1","",""
"null","","html-keyboard-response","43","170269","0.0-43.0","3SPJ033422PFDSEISVPXZPYRA04JY0","ABX5OQLR6UNBC","3S829FDFT2NBOHQMM1CIOU0HZYXDXL","","","<img src=""img/flower4.png"" style=""width:200px; border:14px solid green;"">","null","","","","","",""
"641.2000000029802","","image-keyboard-response","44","170912","0.0-44.0","3SPJ033422PFDSEISVPXZPYRA04JY0","ABX5OQLR6UNBC","3S829FDFT2NBOHQMM1CIOU0HZYXDXL","","","img/flower5.png","75","642.3999999985099","2","1","2","",""
"null","","html-keyboard-response","45","171218","0.0-45.0","3SPJ033422PFDSEISVPXZPYRA04JY0","ABX5OQLR6UNBC","3S829FDFT2NBOHQMM1CIOU0HZYXDXL","","","<img src=""img/flower5.png"" style=""width:200px; border:14px solid green;"">","null","","","","","",""
"811.9000000059605","","image-keyboard-response","46","172032","0.0-46.0","3SPJ033422PFDSEISVPXZPYRA04JY0","ABX5OQLR6UNBC","3S829FDFT2NBOHQMM1CIOU0HZYXDXL","","","img/flower4.png","74","813.2000000029802","1","0","1","",""
"null","","html-keyboard-response","47","172340","0.0-47.0","3SPJ033422PFDSEISVPXZPYRA04JY0","ABX5OQLR6UNBC","3S829FDFT2NBOHQMM1CIOU0HZYXDXL","","","<img src=""img/flower4.png"" style=""width:200px;border:14px solid red;"">","null","","","","","",""
"858.5","","image-keyboard-response","48","173200","0.0-48.0","3SPJ033422PFDSEISVPXZPYRA04JY0","ABX5OQLR6UNBC","3S829FDFT2NBOHQMM1CIOU0HZYXDXL","","","img/flower6.png","76","859.8999999985099","3","1","3","",""
"null","","html-keyboard-response","49","173503","0.0-49.0","3SPJ033422PFDSEISVPXZPYRA04JY0","ABX5OQLR6UNBC","3S829FDFT2NBOHQMM1CIOU0HZYXDXL","","","<img src=""img/flower6.png"" style=""width:200px; border:14px solid green;"">","null","","","","","",""
"893.8999999985099","","image-keyboard-response","50","174399","0.0-50.0","3SPJ033422PFDSEISVPXZPYRA04JY0","ABX5OQLR6UNBC","3S829FDFT2NBOHQMM1CIOU0HZYXDXL","","","img/flower6.png","76","895.2000000029802","3","1","3","",""
"null","","html-keyboard-response","51","174702","0.0-51.0","3SPJ033422PFDSEISVPXZPYRA04JY0","ABX5OQLR6UNBC","3S829FDFT2NBOHQMM1CIOU0HZYXDXL","","","<img src=""img/flower6.png"" style=""width:200px; border:14px solid green;"">","null","","","","","",""
"672.8999999985099","","image-keyboard-response","52","175376","0.0-52.0","3SPJ033422PFDSEISVPXZPYRA04JY0","ABX5OQLR6UNBC","3S829FDFT2NBOHQMM1CIOU0HZYXDXL","","","img/flower6.png","76","674","3","1","3","",""
"null","","html-keyboard-response","53","175681","0.0-53.0","3SPJ033422PFDSEISVPXZPYRA04JY0","ABX5OQLR6UNBC","3S829FDFT2NBOHQMM1CIOU0HZYXDXL","","","<img src=""img/flower6.png"" style=""width:200px; border:14px solid green;"">","null","","","","","",""
"1028.7999999970198","","image-keyboard-response","54","176712","0.0-54.0","3SPJ033422PFDSEISVPXZPYRA04JY0","ABX5OQLR6UNBC","3S829FDFT2NBOHQMM1CIOU0HZYXDXL","","","img/flower5.png","75","1030.2999999970198","2","1","2","",""
"null","","html-keyboard-response","55","177019","0.0-55.0","3SPJ033422PFDSEISVPXZPYRA04JY0","ABX5OQLR6UNBC","3S829FDFT2NBOHQMM1CIOU0HZYXDXL","","","<img src=""img/flower5.png"" style=""width:200px; border:14px solid green;"">","null","","","","","",""
"835.3000000044703","","image-keyboard-response","56","177856","0.0-56.0","3SPJ033422PFDSEISVPXZPYRA04JY0","ABX5OQLR6UNBC","3S829FDFT2NBOHQMM1CIOU0HZYXDXL","","","img/flower5.png","75","836.7000000029802","2","1","2","",""
"null","","html-keyboard-response","57","178170","0.0-57.0","3SPJ033422PFDSEISVPXZPYRA04JY0","ABX5OQLR6UNBC","3S829FDFT2NBOHQMM1CIOU0HZYXDXL","","","<img src=""img/flower5.png"" style=""width:200px; border:14px solid green;"">","null","","","","","",""
"940.3999999985099","","image-keyboard-response","58","179112","0.0-58.0","3SPJ033422PFDSEISVPXZPYRA04JY0","ABX5OQLR6UNBC","3S829FDFT2NBOHQMM1CIOU0HZYXDXL","","","img/flower4.png","74","941.8000000044703","1","1","1","",""
"null","","html-keyboard-response","59","179425","0.0-59.0","3SPJ033422PFDSEISVPXZPYRA04JY0","ABX5OQLR6UNBC","3S829FDFT2NBOHQMM1CIOU0HZYXDXL","","","<img src=""img/flower4.png"" style=""width:200px; border:14px solid green;"">","null","","","","","",""
"822.2000000029802","","image-keyboard-response","60","180248","0.0-60.0","3SPJ033422PFDSEISVPXZPYRA04JY0","ABX5OQLR6UNBC","3S829FDFT2NBOHQMM1CIOU0HZYXDXL","","","img/flower6.png","76","822.8999999985099","3","1","3","",""
"null","","html-keyboard-response","61","180552","0.0-61.0","3SPJ033422PFDSEISVPXZPYRA04JY0","ABX5OQLR6UNBC","3S829FDFT2NBOHQMM1CIOU0HZYXDXL","","","<img src=""img/flower6.png"" style=""width:200px; border:14px solid green;"">","null","","","","","",""
"654.7999999970198","","image-keyboard-response","62","181208","0.0-62.0","3SPJ033422PFDSEISVPXZPYRA04JY0","ABX5OQLR6UNBC","3S829FDFT2NBOHQMM1CIOU0HZYXDXL","","","img/flower6.png","76","656.2999999970198","3","1","3","",""
"null","","html-keyboard-response","63","181519","0.0-63.0","3SPJ033422PFDSEISVPXZPYRA04JY0","ABX5OQLR6UNBC","3S829FDFT2NBOHQMM1CIOU0HZYXDXL","","","<img src=""img/flower6.png"" style=""width:200px; border:14px solid green;"">","null","","","","","",""
"27718.90000000596","","instructions","64","209239","0.0-64.0","3SPJ033422PFDSEISVPXZPYRA04JY0","ABX5OQLR6UNBC","3S829FDFT2NBOHQMM1CIOU0HZYXDXL","","[{""page_index"":0,""viewing_time"":7534.80000000447},{""page_index"":1,""viewing_time"":20184}]","","","","","","","",""
"1424","","image-keyboard-response","65","210664","0.0-65.0","3SPJ033422PFDSEISVPXZPYRA04JY0","ABX5OQLR6UNBC","3S829FDFT2NBOHQMM1CIOU0HZYXDXL","","","img/flower4.png","74","1424.8999999985099","1","1","1","",""
"null","","html-keyboard-response","66","210969","0.0-66.0","3SPJ033422PFDSEISVPXZPYRA04JY0","ABX5OQLR6UNBC","3S829FDFT2NBOHQMM1CIOU0HZYXDXL","","","<img src=""img/flower4.png"" style=""width:200px; border:14px solid green;"">","null","","","","","",""
"1285.7000000029802","","image-keyboard-response","67","212256","0.0-67.0","3SPJ033422PFDSEISVPXZPYRA04JY0","ABX5OQLR6UNBC","3S829FDFT2NBOHQMM1CIOU0HZYXDXL","","","img/flower5.png","75","1286.8000000044703","2","1","2","",""
"null","","html-keyboard-response","68","212575","0.0-68.0","3SPJ033422PFDSEISVPXZPYRA04JY0","ABX5OQLR6UNBC","3S829FDFT2NBOHQMM1CIOU0HZYXDXL","","","<img src=""img/flower5.png"" style=""width:200px; border:14px solid green;"">","null","","","","","",""
"695","","image-keyboard-response","69","213272","0.0-69.0","3SPJ033422PFDSEISVPXZPYRA04JY0","ABX5OQLR6UNBC","3S829FDFT2NBOHQMM1CIOU0HZYXDXL","","","img/flower6.png","76","696.3000000044703","3","1","3","",""
"null","","html-keyboard-response","70","213587","0.0-70.0","3SPJ033422PFDSEISVPXZPYRA04JY0","ABX5OQLR6UNBC","3S829FDFT2NBOHQMM1CIOU0HZYXDXL","","","<img src=""img/flower6.png"" style=""width:200px; border:14px solid green;"">","null","","","","","",""
"763.2999999970198","","image-keyboard-response","71","214352","0.0-71.0","3SPJ033422PFDSEISVPXZPYRA04JY0","ABX5OQLR6UNBC","3S829FDFT2NBOHQMM1CIOU0HZYXDXL","","","img/flower4.png","74","764.6000000014901","1","0","1","",""
"null","","html-keyboard-response","72","214654","0.0-72.0","3SPJ033422PFDSEISVPXZPYRA04JY0","ABX5OQLR6UNBC","3S829FDFT2NBOHQMM1CIOU0HZYXDXL","","","<img src=""img/flower4.png"" style=""width:200px;border:14px solid red;"">","null","","","","","",""
"623.6999999955297","","image-keyboard-response","73","215279","0.0-73.0","3SPJ033422PFDSEISVPXZPYRA04JY0","ABX5OQLR6UNBC","3S829FDFT2NBOHQMM1CIOU0HZYXDXL","","","img/flower5.png","75","624.7999999970198","2","1","2","",""
"null","","html-keyboard-response","74","215587","0.0-74.0","3SPJ033422PFDSEISVPXZPYRA04JY0","ABX5OQLR6UNBC","3S829FDFT2NBOHQMM1CIOU0HZYXDXL","","","<img src=""img/flower5.png"" style=""width:200px; border:14px solid green;"">","null","","","","","",""
"866.5","","image-keyboard-response","75","216455","0.0-75.0","3SPJ033422PFDSEISVPXZPYRA04JY0","ABX5OQLR6UNBC","3S829FDFT2NBOHQMM1CIOU0HZYXDXL","","","img/flower4.png","74","867.6000000014901","1","0","1","",""
"null","","html-keyboard-response","76","216771","0.0-76.0","3SPJ033422PFDSEISVPXZPYRA04JY0","ABX5OQLR6UNBC","3S829FDFT2NBOHQMM1CIOU0HZYXDXL","","","<img src=""img/flower4.png"" style=""width:200px;border:14px solid red;"">","null","","","","","",""
"803.4000000059605","","image-keyboard-response","77","217576","0.0-77.0","3SPJ033422PFDSEISVPXZPYRA04JY0","ABX5OQLR6UNBC","3S829FDFT2NBOHQMM1CIOU0HZYXDXL","","","img/flower5.png","75","804.9000000059605","2","1","2","",""
"null","","html-keyboard-response","78","217887","0.0-78.0","3SPJ033422PFDSEISVPXZPYRA04JY0","ABX5OQLR6UNBC","3S829FDFT2NBOHQMM1CIOU0HZYXDXL","","","<img src=""img/flower5.png"" style=""width:200px; border:14px solid green;"">","null","","","","","",""
"623.3000000044703","","image-keyboard-response","79","218512","0.0-79.0","3SPJ033422PFDSEISVPXZPYRA04JY0","ABX5OQLR6UNBC","3S829FDFT2NBOHQMM1CIOU0HZYXDXL","","","img/flower4.png","74","624.8000000044703","1","1","1","",""
"null","","html-keyboard-response","80","218820","0.0-80.0","3SPJ033422PFDSEISVPXZPYRA04JY0","ABX5OQLR6UNBC","3S829FDFT2NBOHQMM1CIOU0HZYXDXL","","","<img src=""img/flower4.png"" style=""width:200px; border:14px solid green;"">","null","","","","","",""
"706.2999999970198","","image-keyboard-response","81","219528","0.0-81.0","3SPJ033422PFDSEISVPXZPYRA04JY0","ABX5OQLR6UNBC","3S829FDFT2NBOHQMM1CIOU0HZYXDXL","","","img/flower6.png","76","707.6000000014901","3","1","3","",""
"null","","html-keyboard-response","82","219840","0.0-82.0","3SPJ033422PFDSEISVPXZPYRA04JY0","ABX5OQLR6UNBC","3S829FDFT2NBOHQMM1CIOU0HZYXDXL","","","<img src=""img/flower6.png"" style=""width:200px; border:14px solid green;"">","null","","","","","",""
"709.8999999985099","","image-keyboard-response","83","220551","0.0-83.0","3SPJ033422PFDSEISVPXZPYRA04JY0","ABX5OQLR6UNBC","3S829FDFT2NBOHQMM1CIOU0HZYXDXL","","","img/flower5.png","75","711","2","1","2","",""
"null","","html-keyboard-response","84","220854","0.0-84.0","3SPJ033422PFDSEISVPXZPYRA04JY0","ABX5OQLR6UNBC","3S829FDFT2NBOHQMM1CIOU0HZYXDXL","","","<img src=""img/flower5.png"" style=""width:200px; border:14px solid green;"">","null","","","","","",""
"728.6999999955297","","image-keyboard-response","85","221584","0.0-85.0","3SPJ033422PFDSEISVPXZPYRA04JY0","ABX5OQLR6UNBC","3S829FDFT2NBOHQMM1CIOU0HZYXDXL","","","img/flower6.png","76","730.1000000014901","3","1","3","",""
"null","","html-keyboard-response","86","221887","0.0-86.0","3SPJ033422PFDSEISVPXZPYRA04JY0","ABX5OQLR6UNBC","3S829FDFT2NBOHQMM1CIOU0HZYXDXL","","","<img src=""img/flower6.png"" style=""width:200px; border:14px solid green;"">","null","","","","","",""
"727.0999999940395","","image-keyboard-response","87","222616","0.0-87.0","3SPJ033422PFDSEISVPXZPYRA04JY0","ABX5OQLR6UNBC","3S829FDFT2NBOHQMM1CIOU0HZYXDXL","","","img/flower4.png","74","728.4000000059605","1","1","1","",""
"null","","html-keyboard-response","88","222920","0.0-88.0","3SPJ033422PFDSEISVPXZPYRA04JY0","ABX5OQLR6UNBC","3S829FDFT2NBOHQMM1CIOU0HZYXDXL","","","<img src=""img/flower4.png"" style=""width:200px; border:14px solid green;"">","null","","","","","",""
"790.7000000029802","","image-keyboard-response","89","223712","0.0-89.0","3SPJ033422PFDSEISVPXZPYRA04JY0","ABX5OQLR6UNBC","3S829FDFT2NBOHQMM1CIOU0HZYXDXL","","","img/flower6.png","76","792.1000000014901","3","0","3","",""
"null","","html-keyboard-response","90","224020","0.0-90.0","3SPJ033422PFDSEISVPXZPYRA04JY0","ABX5OQLR6UNBC","3S829FDFT2NBOHQMM1CIOU0HZYXDXL","","","<img src=""img/flower6.png"" style=""width:200px;border:14px solid red;"">","null","","","","","",""
"825.5999999940395","","image-keyboard-response","91","224847","0.0-91.0","3SPJ033422PFDSEISVPXZPYRA04JY0","ABX5OQLR6UNBC","3S829FDFT2NBOHQMM1CIOU0HZYXDXL","","","img/flower5.png","75","826.6000000014901","2","0","2","",""
"null","","html-keyboard-response","92","225148","0.0-92.0","3SPJ033422PFDSEISVPXZPYRA04JY0","ABX5OQLR6UNBC","3S829FDFT2NBOHQMM1CIOU0HZYXDXL","","","<img src=""img/flower5.png"" style=""width:200px;border:14px solid red;"">","null","","","","","",""
"1033.1999999955297","","image-keyboard-response","93","226183","0.0-93.0","3SPJ033422PFDSEISVPXZPYRA04JY0","ABX5OQLR6UNBC","3S829FDFT2NBOHQMM1CIOU0HZYXDXL","","","img/flower6.png","76","1034.2999999970198","3","1","3","",""
"null","","html-keyboard-response","94","226509","0.0-94.0","3SPJ033422PFDSEISVPXZPYRA04JY0","ABX5OQLR6UNBC","3S829FDFT2NBOHQMM1CIOU0HZYXDXL","","","<img src=""img/flower6.png"" style=""width:200px; border:14px solid green;"">","null","","","","","",""
"713","","image-keyboard-response","95","227222","0.0-95.0","3SPJ033422PFDSEISVPXZPYRA04JY0","ABX5OQLR6UNBC","3S829FDFT2NBOHQMM1CIOU0HZYXDXL","","","img/flower6.png","76","713.6000000014901","3","0","3","",""
"null","","html-keyboard-response","96","227535","0.0-96.0","3SPJ033422PFDSEISVPXZPYRA04JY0","ABX5OQLR6UNBC","3S829FDFT2NBOHQMM1CIOU0HZYXDXL","","","<img src=""img/flower6.png"" style=""width:200px;border:14px solid red;"">","null","","","","","",""
"1125.4000000059605","","image-keyboard-response","97","228663","0.0-97.0","3SPJ033422PFDSEISVPXZPYRA04JY0","ABX5OQLR6UNBC","3S829FDFT2NBOHQMM1CIOU0HZYXDXL","","","img/flower5.png","75","1126.9000000059605","2","1","2","",""
"null","","html-keyboard-response","98","228968","0.0-98.0","3SPJ033422PFDSEISVPXZPYRA04JY0","ABX5OQLR6UNBC","3S829FDFT2NBOHQMM1CIOU0HZYXDXL","","","<img src=""img/flower5.png"" style=""width:200px; border:14px solid green;"">","null","","","","","",""
"653.3999999985099","","image-keyboard-response","99","229623","0.0-99.0","3SPJ033422PFDSEISVPXZPYRA04JY0","ABX5OQLR6UNBC","3S829FDFT2NBOHQMM1CIOU0HZYXDXL","","","img/flower5.png","75","655","2","1","2","",""
"null","","html-keyboard-response","100","229935","0.0-100.0","3SPJ033422PFDSEISVPXZPYRA04JY0","ABX5OQLR6UNBC","3S829FDFT2NBOHQMM1CIOU0HZYXDXL","","","<img src=""img/flower5.png"" style=""width:200px; border:14px solid green;"">","null","","","","","",""
"549.7999999970198","","image-keyboard-response","101","230487","0.0-101.0","3SPJ033422PFDSEISVPXZPYRA04JY0","ABX5OQLR6UNBC","3S829FDFT2NBOHQMM1CIOU0HZYXDXL","","","img/flower5.png","75","551.1000000014901","2","1","2","",""
"null","","html-keyboard-response","102","230801","0.0-102.0","3SPJ033422PFDSEISVPXZPYRA04JY0","ABX5OQLR6UNBC","3S829FDFT2NBOHQMM1CIOU0HZYXDXL","","","<img src=""img/flower5.png"" style=""width:200px; border:14px solid green;"">","null","","","","","",""
"835.3000000044703","","image-keyboard-response","103","231638","0.0-103.0","3SPJ033422PFDSEISVPXZPYRA04JY0","ABX5OQLR6UNBC","3S829FDFT2NBOHQMM1CIOU0HZYXDXL","","","img/flower6.png","76","836.8999999985099","3","1","3","",""
"null","","html-keyboard-response","104","231951","0.0-104.0","3SPJ033422PFDSEISVPXZPYRA04JY0","ABX5OQLR6UNBC","3S829FDFT2NBOHQMM1CIOU0HZYXDXL","","","<img src=""img/flower6.png"" style=""width:200px; border:14px solid green;"">","null","","","","","",""
"669.3000000044703","","image-keyboard-response","105","232623","0.0-105.0","3SPJ033422PFDSEISVPXZPYRA04JY0","ABX5OQLR6UNBC","3S829FDFT2NBOHQMM1CIOU0HZYXDXL","","","img/flower4.png","74","670.8000000044703","1","1","1","",""
"null","","html-keyboard-response","106","232935","0.0-106.0","3SPJ033422PFDSEISVPXZPYRA04JY0","ABX5OQLR6UNBC","3S829FDFT2NBOHQMM1CIOU0HZYXDXL","","","<img src=""img/flower4.png"" style=""width:200px; border:14px solid green;"">","null","","","","","",""
"1126.2000000029802","","image-keyboard-response","107","234063","0.0-107.0","3SPJ033422PFDSEISVPXZPYRA04JY0","ABX5OQLR6UNBC","3S829FDFT2NBOHQMM1CIOU0HZYXDXL","","","img/flower5.png","75","1127.6000000014901","2","1","2","",""
"null","","html-keyboard-response","108","234368","0.0-108.0","3SPJ033422PFDSEISVPXZPYRA04JY0","ABX5OQLR6UNBC","3S829FDFT2NBOHQMM1CIOU0HZYXDXL","","","<img src=""img/flower5.png"" style=""width:200px; border:14px solid green;"">","null","","","","","",""
"717.0999999940395","","image-keyboard-response","109","235087","0.0-109.0","3SPJ033422PFDSEISVPXZPYRA04JY0","ABX5OQLR6UNBC","3S829FDFT2NBOHQMM1CIOU0HZYXDXL","","","img/flower6.png","76","718.4000000059605","3","0","3","",""
"null","","html-keyboard-response","110","235401","0.0-110.0","3SPJ033422PFDSEISVPXZPYRA04JY0","ABX5OQLR6UNBC","3S829FDFT2NBOHQMM1CIOU0HZYXDXL","","","<img src=""img/flower6.png"" style=""width:200px;border:14px solid red;"">","null","","","","","",""
"820.6000000014901","","image-keyboard-response","111","236222","0.0-111.0","3SPJ033422PFDSEISVPXZPYRA04JY0","ABX5OQLR6UNBC","3S829FDFT2NBOHQMM1CIOU0HZYXDXL","","","img/flower5.png","75","821.2999999970198","2","1","2","",""
"null","","html-keyboard-response","112","236536","0.0-112.0","3SPJ033422PFDSEISVPXZPYRA04JY0","ABX5OQLR6UNBC","3S829FDFT2NBOHQMM1CIOU0HZYXDXL","","","<img src=""img/flower5.png"" style=""width:200px; border:14px solid green;"">","null","","","","","",""
"595.6999999955297","","image-keyboard-response","113","237134","0.0-113.0","3SPJ033422PFDSEISVPXZPYRA04JY0","ABX5OQLR6UNBC","3S829FDFT2NBOHQMM1CIOU0HZYXDXL","","","img/flower4.png","74","596.8999999985099","1","1","1","",""
"null","","html-keyboard-response","114","237436","0.0-114.0","3SPJ033422PFDSEISVPXZPYRA04JY0","ABX5OQLR6UNBC","3S829FDFT2NBOHQMM1CIOU0HZYXDXL","","","<img src=""img/flower4.png"" style=""width:200px; border:14px solid green;"">","null","","","","","",""
"656.6999999955297","","image-keyboard-response","115","238095","0.0-115.0","3SPJ033422PFDSEISVPXZPYRA04JY0","ABX5OQLR6UNBC","3S829FDFT2NBOHQMM1CIOU0HZYXDXL","","","img/flower4.png","74","658.1000000014901","1","1","1","",""
"null","","html-keyboard-response","116","238400","0.0-116.0","3SPJ033422PFDSEISVPXZPYRA04JY0","ABX5OQLR6UNBC","3S829FDFT2NBOHQMM1CIOU0HZYXDXL","","","<img src=""img/flower4.png"" style=""width:200px; border:14px solid green;"">","null","","","","","",""
"636.8999999985099","","image-keyboard-response","117","239038","0.0-117.0","3SPJ033422PFDSEISVPXZPYRA04JY0","ABX5OQLR6UNBC","3S829FDFT2NBOHQMM1CIOU0HZYXDXL","","","img/flower6.png","76","637.6000000014901","3","1","3","",""
"null","","html-keyboard-response","118","239351","0.0-118.0","3SPJ033422PFDSEISVPXZPYRA04JY0","ABX5OQLR6UNBC","3S829FDFT2NBOHQMM1CIOU0HZYXDXL","","","<img src=""img/flower6.png"" style=""width:200px; border:14px solid green;"">","null","","","","","",""
"573.3999999985099","","image-keyboard-response","119","239925","0.0-119.0","3SPJ033422PFDSEISVPXZPYRA04JY0","ABX5OQLR6UNBC","3S829FDFT2NBOHQMM1CIOU0HZYXDXL","","","img/flower6.png","76","573.7999999970198","3","1","3","",""
"null","","html-keyboard-response","120","240235","0.0-120.0","3SPJ033422PFDSEISVPXZPYRA04JY0","ABX5OQLR6UNBC","3S829FDFT2NBOHQMM1CIOU0HZYXDXL","","","<img src=""img/flower6.png"" style=""width:200px; border:14px solid green;"">","null","","","","","",""
"866.1999999955297","","image-keyboard-response","121","241103","0.0-121.0","3SPJ033422PFDSEISVPXZPYRA04JY0","ABX5OQLR6UNBC","3S829FDFT2NBOHQMM1CIOU0HZYXDXL","","","img/flower4.png","75","867.3999999985099","2","1","1","",""
"null","","html-keyboard-response","122","241418","0.0-122.0","3SPJ033422PFDSEISVPXZPYRA04JY0","ABX5OQLR6UNBC","3S829FDFT2NBOHQMM1CIOU0HZYXDXL","","","<img src=""img/flower4.png"" style=""width:200px; border:14px solid green;"">","null","","","","","",""
"499.59999999403954","","image-keyboard-response","123","241919","0.0-123.0","3SPJ033422PFDSEISVPXZPYRA04JY0","ABX5OQLR6UNBC","3S829FDFT2NBOHQMM1CIOU0HZYXDXL","","","img/flower4.png","74","500.30000000447035","1","0","1","",""
"null","","html-keyboard-response","124","242236","0.0-124.0","3SPJ033422PFDSEISVPXZPYRA04JY0","ABX5OQLR6UNBC","3S829FDFT2NBOHQMM1CIOU0HZYXDXL","","","<img src=""img/flower4.png"" style=""width:200px;border:14px solid red;"">","null","","","","","",""
"2785.4000000059605","","instructions","125","245022","0.0-125.0","3SPJ033422PFDSEISVPXZPYRA04JY0","ABX5OQLR6UNBC","3S829FDFT2NBOHQMM1CIOU0HZYXDXL","","[{""page_index"":0,""viewing_time"":2785.3000000044703}]","","","","","","","",""
"1247.9000000059605","","image-keyboard-response","126","246270","0.0-126.0","3SPJ033422PFDSEISVPXZPYRA04JY0","ABX5OQLR6UNBC","3S829FDFT2NBOHQMM1CIOU0HZYXDXL","","","img/flower8.png","74","1249","1","1","1","0.8,0.8,0.2,0.2,0.8,0.8,0.8,0.2,0.8",""
"null","","html-keyboard-response","127","246585","0.0-127.0","3SPJ033422PFDSEISVPXZPYRA04JY0","ABX5OQLR6UNBC","3S829FDFT2NBOHQMM1CIOU0HZYXDXL","","","<img src=""img/flower8.png"" style=""width:200px; border:14px solid green;"">","null","","","","","",""
"660.8000000044703","","image-keyboard-response","128","247246","0.0-128.0","3SPJ033422PFDSEISVPXZPYRA04JY0","ABX5OQLR6UNBC","3S829FDFT2NBOHQMM1CIOU0HZYXDXL","","","img/flower6.png","75","661.5","2","0","2","0.8,0.8,0.2,0.2,0.8,0.8,0.8,0.2,0.8",""
"null","","html-keyboard-response","129","247551","0.0-129.0","3SPJ033422PFDSEISVPXZPYRA04JY0","ABX5OQLR6UNBC","3S829FDFT2NBOHQMM1CIOU0HZYXDXL","","","<img src=""img/flower6.png"" style=""width:200px;border:14px solid red;"">","null","","","","","",""
"885.4000000059605","","image-keyboard-response","130","248439","0.0-130.0","3SPJ033422PFDSEISVPXZPYRA04JY0","ABX5OQLR6UNBC","3S829FDFT2NBOHQMM1CIOU0HZYXDXL","","","img/flower7.png","76","886.7000000029802","3","1","3","0.8,0.8,0.2,0.2,0.8,0.8,0.8,0.2,0.8",""
"null","","html-keyboard-response","131","248747","0.0-131.0","3SPJ033422PFDSEISVPXZPYRA04JY0","ABX5OQLR6UNBC","3S829FDFT2NBOHQMM1CIOU0HZYXDXL","","","<img src=""img/flower7.png"" style=""width:200px; border:14px solid green;"">","null","","","","","",""
"680.3999999985099","","image-keyboard-response","132","249429","0.0-132.0","3SPJ033422PFDSEISVPXZPYRA04JY0","ABX5OQLR6UNBC","3S829FDFT2NBOHQMM1CIOU0HZYXDXL","","","img/flower8.png","76","681.5999999940395","3","1","1","0.8,0.8,0.2,0.2,0.8,0.8,0.8,0.2,0.8",""
"null","","html-keyboard-response","133","249745","0.0-133.0","3SPJ033422PFDSEISVPXZPYRA04JY0","ABX5OQLR6UNBC","3S829FDFT2NBOHQMM1CIOU0HZYXDXL","","","<img src=""img/flower8.png"" style=""width:200px; border:14px solid green;"">","null","","","","","",""
"627.6000000014901","","image-keyboard-response","134","250374","0.0-134.0","3SPJ033422PFDSEISVPXZPYRA04JY0","ABX5OQLR6UNBC","3S829FDFT2NBOHQMM1CIOU0HZYXDXL","","","img/flower7.png","76","628.7000000029802","3","1","3","0.8,0.8,0.2,0.2,0.8,0.8,0.8,0.2,0.8",""
"null","","html-keyboard-response","135","250686","0.0-135.0","3SPJ033422PFDSEISVPXZPYRA04JY0","ABX5OQLR6UNBC","3S829FDFT2NBOHQMM1CIOU0HZYXDXL","","","<img src=""img/flower7.png"" style=""width:200px; border:14px solid green;"">","null","","","","","",""
"654.6000000014901","","image-keyboard-response","136","251342","0.0-136.0","3SPJ033422PFDSEISVPXZPYRA04JY0","ABX5OQLR6UNBC","3S829FDFT2NBOHQMM1CIOU0HZYXDXL","","","img/flower8.png","76","655.6999999955297","3","0","1","0.8,0.8,0.2,0.2,0.8,0.8,0.8,0.2,0.8",""
"null","","html-keyboard-response","137","251651","0.0-137.0","3SPJ033422PFDSEISVPXZPYRA04JY0","ABX5OQLR6UNBC","3S829FDFT2NBOHQMM1CIOU0HZYXDXL","","","<img src=""img/flower8.png"" style=""width:200px;border:14px solid red;"">","null","","","","","",""
"794.0999999940395","","image-keyboard-response","138","252447","0.0-138.0","3SPJ033422PFDSEISVPXZPYRA04JY0","ABX5OQLR6UNBC","3S829FDFT2NBOHQMM1CIOU0HZYXDXL","","","img/flower7.png","75","795.3000000044703","2","0","3","0.8,0.8,0.2,0.2,0.8,0.8,0.8,0.2,0.8",""
"null","","html-keyboard-response","139","252752","0.0-139.0","3SPJ033422PFDSEISVPXZPYRA04JY0","ABX5OQLR6UNBC","3S829FDFT2NBOHQMM1CIOU0HZYXDXL","","","<img src=""img/flower7.png"" style=""width:200px;border:14px solid red;"">","null","","","","","",""
"517.2999999970198","","image-keyboard-response","140","253271","0.0-140.0","3SPJ033422PFDSEISVPXZPYRA04JY0","ABX5OQLR6UNBC","3S829FDFT2NBOHQMM1CIOU0HZYXDXL","","","img/flower8.png","74","518.7000000029802","1","1","1","0.8,0.8,0.2,0.2,0.8,0.8,0.8,0.2,0.8",""
"null","","html-keyboard-response","141","253586","0.0-141.0","3SPJ033422PFDSEISVPXZPYRA04JY0","ABX5OQLR6UNBC","3S829FDFT2NBOHQMM1CIOU0HZYXDXL","","","<img src=""img/flower8.png"" style=""width:200px; border:14px solid green;"">","null","","","","","",""
"627","","image-keyboard-response","142","254215","0.0-142.0","3SPJ033422PFDSEISVPXZPYRA04JY0","ABX5OQLR6UNBC","3S829FDFT2NBOHQMM1CIOU0HZYXDXL","","","img/flower8.png","74","628.3000000044703","1","1","1","0.8,0.8,0.2,0.2,0.8,0.8,0.8,0.2,0.8",""
"null","","html-keyboard-response","143","254518","0.0-143.0","3SPJ033422PFDSEISVPXZPYRA04JY0","ABX5OQLR6UNBC","3S829FDFT2NBOHQMM1CIOU0HZYXDXL","","","<img src=""img/flower8.png"" style=""width:200px; border:14px solid green;"">","null","","","","","",""
"646.2999999970198","","image-keyboard-response","144","255167","0.0-144.0","3SPJ033422PFDSEISVPXZPYRA04JY0","ABX5OQLR6UNBC","3S829FDFT2NBOHQMM1CIOU0HZYXDXL","","","img/flower8.png","74","647.8000000044703","1","1","1","0.8,0.8,0.2,0.2,0.8,0.8,0.8,0.2,0.8",""
"null","","html-keyboard-response","145","255480","0.0-145.0","3SPJ033422PFDSEISVPXZPYRA04JY0","ABX5OQLR6UNBC","3S829FDFT2NBOHQMM1CIOU0HZYXDXL","","","<img src=""img/flower8.png"" style=""width:200px; border:14px solid green;"">","null","","","","","",""
"549.2999999970198","","image-keyboard-response","146","256031","0.0-146.0","3SPJ033422PFDSEISVPXZPYRA04JY0","ABX5OQLR6UNBC","3S829FDFT2NBOHQMM1CIOU0HZYXDXL","","","img/flower8.png","74","550.5","1","1","1","0.8,0.8,0.2,0.2,0.8,0.8,0.8,0.2,0.8",""
"null","","html-keyboard-response","147","256335","0.0-147.0","3SPJ033422PFDSEISVPXZPYRA04JY0","ABX5OQLR6UNBC","3S829FDFT2NBOHQMM1CIOU0HZYXDXL","","","<img src=""img/flower8.png"" style=""width:200px; border:14px solid green;"">","null","","","","","",""
"997.8999999985099","","image-keyboard-response","148","257335","0.0-148.0","3SPJ033422PFDSEISVPXZPYRA04JY0","ABX5OQLR6UNBC","3S829FDFT2NBOHQMM1CIOU0HZYXDXL","","","img/flower6.png","76","999.3000000044703","3","1","2","0.8,0.8,0.2,0.2,0.8,0.8,0.8,0.2,0.8",""
"null","","html-keyboard-response","149","257651","0.0-149.0","3SPJ033422PFDSEISVPXZPYRA04JY0","ABX5OQLR6UNBC","3S829FDFT2NBOHQMM1CIOU0HZYXDXL","","","<img src=""img/flower6.png"" style=""width:200px; border:14px solid green;"">","null","","","","","",""
"577.2000000029802","","image-keyboard-response","150","258230","0.0-150.0","3SPJ033422PFDSEISVPXZPYRA04JY0","ABX5OQLR6UNBC","3S829FDFT2NBOHQMM1CIOU0HZYXDXL","","","img/flower6.png","76","578.3999999985099","3","1","2","0.8,0.8,0.2,0.2,0.8,0.8,0.8,0.2,0.8",""
"null","","html-keyboard-response","151","258536","0.0-151.0","3SPJ033422PFDSEISVPXZPYRA04JY0","ABX5OQLR6UNBC","3S829FDFT2NBOHQMM1CIOU0HZYXDXL","","","<img src=""img/flower6.png"" style=""width:200px; border:14px solid green;"">","null","","","","","",""
"692.8000000044703","","image-keyboard-response","152","259231","0.0-152.0","3SPJ033422PFDSEISVPXZPYRA04JY0","ABX5OQLR6UNBC","3S829FDFT2NBOHQMM1CIOU0HZYXDXL","","","img/flower6.png","76","694.2000000029802","3","1","2","0.8,0.8,0.2,0.2,0.8,0.8,0.8,0.2,0.8",""
"null","","html-keyboard-response","153","259535","0.0-153.0","3SPJ033422PFDSEISVPXZPYRA04JY0","ABX5OQLR6UNBC","3S829FDFT2NBOHQMM1CIOU0HZYXDXL","","","<img src=""img/flower6.png"" style=""width:200px; border:14px solid green;"">","null","","","","","",""
"789.6999999955297","","image-keyboard-response","154","260327","0.0-154.0","3SPJ033422PFDSEISVPXZPYRA04JY0","ABX5OQLR6UNBC","3S829FDFT2NBOHQMM1CIOU0HZYXDXL","","","img/flower8.png","74","791","1","0","1","0.8,0.8,0.2,0.2,0.8,0.8,0.8,0.2,0.8",""
"null","","html-keyboard-response","155","260641","0.0-155.0","3SPJ033422PFDSEISVPXZPYRA04JY0","ABX5OQLR6UNBC","3S829FDFT2NBOHQMM1CIOU0HZYXDXL","","","<img src=""img/flower8.png"" style=""width:200px;border:14px solid red;"">","null","","","","","",""
"555.8000000044703","","image-keyboard-response","156","261199","0.0-156.0","3SPJ033422PFDSEISVPXZPYRA04JY0","ABX5OQLR6UNBC","3S829FDFT2NBOHQMM1CIOU0HZYXDXL","","","img/flower8.png","74","557.2000000029802","1","1","1","0.8,0.8,0.2,0.2,0.8,0.8,0.8,0.2,0.8",""
"null","","html-keyboard-response","157","261503","0.0-157.0","3SPJ033422PFDSEISVPXZPYRA04JY0","ABX5OQLR6UNBC","3S829FDFT2NBOHQMM1CIOU0HZYXDXL","","","<img src=""img/flower8.png"" style=""width:200px; border:14px solid green;"">","null","","","","","",""
"821.8000000044703","","image-keyboard-response","158","262326","0.0-158.0","3SPJ033422PFDSEISVPXZPYRA04JY0","ABX5OQLR6UNBC","3S829FDFT2NBOHQMM1CIOU0HZYXDXL","","","img/flower6.png","76","823.1000000014901","3","1","2","0.8,0.8,0.2,0.2,0.8,0.8,0.8,0.2,0.8",""
"null","","html-keyboard-response","159","262635","0.0-159.0","3SPJ033422PFDSEISVPXZPYRA04JY0","ABX5OQLR6UNBC","3S829FDFT2NBOHQMM1CIOU0HZYXDXL","","","<img src=""img/flower6.png"" style=""width:200px; border:14px solid green;"">","null","","","","","",""
"656.7000000029802","","image-keyboard-response","160","263294","0.0-160.0","3SPJ033422PFDSEISVPXZPYRA04JY0","ABX5OQLR6UNBC","3S829FDFT2NBOHQMM1CIOU0HZYXDXL","","","img/flower6.png","76","657.8000000044703","3","0","2","0.8,0.8,0.2,0.2,0.8,0.8,0.8,0.2,0.8",""
"null","","html-keyboard-response","161","263603","0.0-161.0","3SPJ033422PFDSEISVPXZPYRA04JY0","ABX5OQLR6UNBC","3S829FDFT2NBOHQMM1CIOU0HZYXDXL","","","<img src=""img/flower6.png"" style=""width:200px;border:14px solid red;"">","null","","","","","",""
"1122.0999999940395","","image-keyboard-response","162","264727","0.0-162.0","3SPJ033422PFDSEISVPXZPYRA04JY0","ABX5OQLR6UNBC","3S829FDFT2NBOHQMM1CIOU0HZYXDXL","","","img/flower8.png","75","1123.5","2","0","1","0.8,0.8,0.2,0.2,0.8,0.8,0.8,0.2,0.8",""
"null","","html-keyboard-response","163","265036","0.0-163.0","3SPJ033422PFDSEISVPXZPYRA04JY0","ABX5OQLR6UNBC","3S829FDFT2NBOHQMM1CIOU0HZYXDXL","","","<img src=""img/flower8.png"" style=""width:200px;border:14px solid red;"">","null","","","","","",""
"1048.6999999955297","","image-keyboard-response","164","266087","0.0-164.0","3SPJ033422PFDSEISVPXZPYRA04JY0","ABX5OQLR6UNBC","3S829FDFT2NBOHQMM1CIOU0HZYXDXL","","","img/flower6.png","76","1050.1000000014901","3","1","2","0.8,0.8,0.2,0.2,0.8,0.8,0.8,0.2,0.8",""
"null","","html-keyboard-response","165","266402","0.0-165.0","3SPJ033422PFDSEISVPXZPYRA04JY0","ABX5OQLR6UNBC","3S829FDFT2NBOHQMM1CIOU0HZYXDXL","","","<img src=""img/flower6.png"" style=""width:200px; border:14px solid green;"">","null","","","","","",""
"1107","","image-keyboard-response","166","267510","0.0-166.0","3SPJ033422PFDSEISVPXZPYRA04JY0","ABX5OQLR6UNBC","3S829FDFT2NBOHQMM1CIOU0HZYXDXL","","","img/flower7.png","75","1107.6000000014901","2","0","3","0.8,0.8,0.2,0.2,0.8,0.8,0.8,0.2,0.8",""
"null","","html-keyboard-response","167","267822","0.0-167.0","3SPJ033422PFDSEISVPXZPYRA04JY0","ABX5OQLR6UNBC","3S829FDFT2NBOHQMM1CIOU0HZYXDXL","","","<img src=""img/flower7.png"" style=""width:200px;border:14px solid red;"">","null","","","","","",""
"814.7000000029802","","image-keyboard-response","168","268639","0.0-168.0","3SPJ033422PFDSEISVPXZPYRA04JY0","ABX5OQLR6UNBC","3S829FDFT2NBOHQMM1CIOU0HZYXDXL","","","img/flower8.png","74","816.1999999955297","1","1","1","0.8,0.8,0.2,0.2,0.8,0.8,0.8,0.2,0.8",""
"null","","html-keyboard-response","169","268953","0.0-169.0","3SPJ033422PFDSEISVPXZPYRA04JY0","ABX5OQLR6UNBC","3S829FDFT2NBOHQMM1CIOU0HZYXDXL","","","<img src=""img/flower8.png"" style=""width:200px; border:14px solid green;"">","null","","","","","",""
"588","","image-keyboard-response","170","269543","0.0-170.0","3SPJ033422PFDSEISVPXZPYRA04JY0","ABX5OQLR6UNBC","3S829FDFT2NBOHQMM1CIOU0HZYXDXL","","","img/flower8.png","74","589.3000000044703","1","1","1","0.8,0.8,0.2,0.2,0.8,0.8,0.8,0.2,0.8",""
"null","","html-keyboard-response","171","269855","0.0-171.0","3SPJ033422PFDSEISVPXZPYRA04JY0","ABX5OQLR6UNBC","3S829FDFT2NBOHQMM1CIOU0HZYXDXL","","","<img src=""img/flower8.png"" style=""width:200px; border:14px solid green;"">","null","","","","","",""
"678.6000000014901","","image-keyboard-response","172","270534","0.0-172.0","3SPJ033422PFDSEISVPXZPYRA04JY0","ABX5OQLR6UNBC","3S829FDFT2NBOHQMM1CIOU0HZYXDXL","","","img/flower6.png","76","679.5","3","1","2","0.8,0.8,0.2,0.2,0.8,0.8,0.8,0.2,0.8",""
"null","","html-keyboard-response","173","270838","0.0-173.0","3SPJ033422PFDSEISVPXZPYRA04JY0","ABX5OQLR6UNBC","3S829FDFT2NBOHQMM1CIOU0HZYXDXL","","","<img src=""img/flower6.png"" style=""width:200px; border:14px solid green;"">","null","","","","","",""
"815.1000000014901","","image-keyboard-response","174","271655","0.0-174.0","3SPJ033422PFDSEISVPXZPYRA04JY0","ABX5OQLR6UNBC","3S829FDFT2NBOHQMM1CIOU0HZYXDXL","","","img/flower8.png","74","816.5","1","1","1","0.8,0.8,0.2,0.2,0.8,0.8,0.8,0.2,0.8",""
"null","","html-keyboard-response","175","271969","0.0-175.0","3SPJ033422PFDSEISVPXZPYRA04JY0","ABX5OQLR6UNBC","3S829FDFT2NBOHQMM1CIOU0HZYXDXL","","","<img src=""img/flower8.png"" style=""width:200px; border:14px solid green;"">","null","","","","","",""
"906.8999999985099","","image-keyboard-response","176","272878","0.0-176.0","3SPJ033422PFDSEISVPXZPYRA04JY0","ABX5OQLR6UNBC","3S829FDFT2NBOHQMM1CIOU0HZYXDXL","","","img/flower7.png","75","908.1000000014901","2","1","3","0.8,0.8,0.2,0.2,0.8,0.8,0.8,0.2,0.8",""
"null","","html-keyboard-response","177","273186","0.0-177.0","3SPJ033422PFDSEISVPXZPYRA04JY0","ABX5OQLR6UNBC","3S829FDFT2NBOHQMM1CIOU0HZYXDXL","","","<img src=""img/flower7.png"" style=""width:200px; border:14px solid green;"">","null","","","","","",""
"562.4000000059605","","image-keyboard-response","178","273750","0.0-178.0","3SPJ033422PFDSEISVPXZPYRA04JY0","ABX5OQLR6UNBC","3S829FDFT2NBOHQMM1CIOU0HZYXDXL","","","img/flower7.png","75","563.9000000059605","2","1","3","0.8,0.8,0.2,0.2,0.8,0.8,0.8,0.2,0.8",""
"null","","html-keyboard-response","179","274054","0.0-179.0","3SPJ033422PFDSEISVPXZPYRA04JY0","ABX5OQLR6UNBC","3S829FDFT2NBOHQMM1CIOU0HZYXDXL","","","<img src=""img/flower7.png"" style=""width:200px; border:14px solid green;"">","null","","","","","",""
"622.7999999970198","","image-keyboard-response","180","274679","0.0-180.0","3SPJ033422PFDSEISVPXZPYRA04JY0","ABX5OQLR6UNBC","3S829FDFT2NBOHQMM1CIOU0HZYXDXL","","","img/flower6.png","76","624.1000000014901","3","1","2","0.8,0.8,0.2,0.2,0.8,0.8,0.8,0.2,0.8",""
"null","","html-keyboard-response","181","274986","0.0-181.0","3SPJ033422PFDSEISVPXZPYRA04JY0","ABX5OQLR6UNBC","3S829FDFT2NBOHQMM1CIOU0HZYXDXL","","","<img src=""img/flower6.png"" style=""width:200px; border:14px solid green;"">","null","","","","","",""
"890.5","","image-keyboard-response","182","275879","0.0-182.0","3SPJ033422PFDSEISVPXZPYRA04JY0","ABX5OQLR6UNBC","3S829FDFT2NBOHQMM1CIOU0HZYXDXL","","","img/flower7.png","75","891.9000000059605","2","0","3","0.8,0.8,0.2,0.2,0.8,0.8,0.8,0.2,0.8",""
"null","","html-keyboard-response","183","276186","0.0-183.0","3SPJ033422PFDSEISVPXZPYRA04JY0","ABX5OQLR6UNBC","3S829FDFT2NBOHQMM1CIOU0HZYXDXL","","","<img src=""img/flower7.png"" style=""width:200px;border:14px solid red;"">","null","","","","","",""
"554.5","","image-keyboard-response","184","276743","0.0-184.0","3SPJ033422PFDSEISVPXZPYRA04JY0","ABX5OQLR6UNBC","3S829FDFT2NBOHQMM1CIOU0HZYXDXL","","","img/flower7.png","75","555.8000000044703","2","0","3","0.8,0.8,0.2,0.2,0.8,0.8,0.8,0.2,0.8",""
"null","","html-keyboard-response","185","277053","0.0-185.0","3SPJ033422PFDSEISVPXZPYRA04JY0","ABX5OQLR6UNBC","3S829FDFT2NBOHQMM1CIOU0HZYXDXL","","","<img src=""img/flower7.png"" style=""width:200px;border:14px solid red;"">","null","","","","","",""
"527.6999999955297","","image-keyboard-response","186","277583","0.0-186.0","3SPJ033422PFDSEISVPXZPYRA04JY0","ABX5OQLR6UNBC","3S829FDFT2NBOHQMM1CIOU0HZYXDXL","","","img/flower7.png","75","529.1000000014901","2","0","3","0.8,0.8,0.2,0.2,0.8,0.8,0.8,0.2,0.8",""
"null","","html-keyboard-response","187","277887","0.0-187.0","3SPJ033422PFDSEISVPXZPYRA04JY0","ABX5OQLR6UNBC","3S829FDFT2NBOHQMM1CIOU0HZYXDXL","","","<img src=""img/flower7.png"" style=""width:200px;border:14px solid red;"">","null","","","","","",""
"669.3999999985099","","image-keyboard-response","188","278558","0.0-188.0","3SPJ033422PFDSEISVPXZPYRA04JY0","ABX5OQLR6UNBC","3S829FDFT2NBOHQMM1CIOU0HZYXDXL","","","img/flower7.png","75","670.5","2","0","3","0.8,0.8,0.2,0.2,0.8,0.8,0.8,0.2,0.8",""
"null","","html-keyboard-response","189","278870","0.0-189.0","3SPJ033422PFDSEISVPXZPYRA04JY0","ABX5OQLR6UNBC","3S829FDFT2NBOHQMM1CIOU0HZYXDXL","","","<img src=""img/flower7.png"" style=""width:200px;border:14px solid red;"">","null","","","","","",""
"583.2999999970198","","image-keyboard-response","190","279455","0.0-190.0","3SPJ033422PFDSEISVPXZPYRA04JY0","ABX5OQLR6UNBC","3S829FDFT2NBOHQMM1CIOU0HZYXDXL","","","img/flower7.png","75","584.7999999970198","2","0","3","0.8,0.8,0.2,0.2,0.8,0.8,0.8,0.2,0.8",""
"null","","html-keyboard-response","191","279760","0.0-191.0","3SPJ033422PFDSEISVPXZPYRA04JY0","ABX5OQLR6UNBC","3S829FDFT2NBOHQMM1CIOU0HZYXDXL","","","<img src=""img/flower7.png"" style=""width:200px;border:14px solid red;"">","null","","","","","",""
"781","","image-keyboard-response","192","280543","0.0-192.0","3SPJ033422PFDSEISVPXZPYRA04JY0","ABX5OQLR6UNBC","3S829FDFT2NBOHQMM1CIOU0HZYXDXL","","","img/flower8.png","74","782.5","1","1","1","0.8,0.8,0.2,0.2,0.8,0.8,0.8,0.2,0.8",""
"null","","html-keyboard-response","193","280853","0.0-193.0","3SPJ033422PFDSEISVPXZPYRA04JY0","ABX5OQLR6UNBC","3S829FDFT2NBOHQMM1CIOU0HZYXDXL","","","<img src=""img/flower8.png"" style=""width:200px; border:14px solid green;"">","null","","","","","",""
"542.6000000014901","","image-keyboard-response","194","281398","0.0-194.0","3SPJ033422PFDSEISVPXZPYRA04JY0","ABX5OQLR6UNBC","3S829FDFT2NBOHQMM1CIOU0HZYXDXL","","","img/flower8.png","74","543.8000000044703","1","1","1","0.8,0.8,0.2,0.2,0.8,0.8,0.8,0.2,0.8",""
"null","","html-keyboard-response","195","281714","0.0-195.0","3SPJ033422PFDSEISVPXZPYRA04JY0","ABX5OQLR6UNBC","3S829FDFT2NBOHQMM1CIOU0HZYXDXL","","","<img src=""img/flower8.png"" style=""width:200px; border:14px solid green;"">","null","","","","","",""
"1180","","image-keyboard-response","196","282895","0.0-196.0","3SPJ033422PFDSEISVPXZPYRA04JY0","ABX5OQLR6UNBC","3S829FDFT2NBOHQMM1CIOU0HZYXDXL","","","img/flower7.png","74","1180.7000000029802","1","1","3","0.8,0.8,0.2,0.2,0.8,0.8,0.8,0.2,0.8",""
"null","","html-keyboard-response","197","283203","0.0-197.0","3SPJ033422PFDSEISVPXZPYRA04JY0","ABX5OQLR6UNBC","3S829FDFT2NBOHQMM1CIOU0HZYXDXL","","","<img src=""img/flower7.png"" style=""width:200px; border:14px solid green;"">","null","","","","","",""
"490.20000000298023","","image-keyboard-response","198","283694","0.0-198.0","3SPJ033422PFDSEISVPXZPYRA04JY0","ABX5OQLR6UNBC","3S829FDFT2NBOHQMM1CIOU0HZYXDXL","","","img/flower7.png","74","491.6000000014901","1","1","3","0.8,0.8,0.2,0.2,0.8,0.8,0.8,0.2,0.8",""
"null","","html-keyboard-response","199","284003","0.0-199.0","3SPJ033422PFDSEISVPXZPYRA04JY0","ABX5OQLR6UNBC","3S829FDFT2NBOHQMM1CIOU0HZYXDXL","","","<img src=""img/flower7.png"" style=""width:200px; border:14px solid green;"">","null","","","","","",""
"490.1000000014901","","image-keyboard-response","200","284494","0.0-200.0","3SPJ033422PFDSEISVPXZPYRA04JY0","ABX5OQLR6UNBC","3S829FDFT2NBOHQMM1CIOU0HZYXDXL","","","img/flower7.png","74","491.5","1","1","3","0.8,0.8,0.2,0.2,0.8,0.8,0.8,0.2,0.8",""
"null","","html-keyboard-response","201","284805","0.0-201.0","3SPJ033422PFDSEISVPXZPYRA04JY0","ABX5OQLR6UNBC","3S829FDFT2NBOHQMM1CIOU0HZYXDXL","","","<img src=""img/flower7.png"" style=""width:200px; border:14px solid green;"">","null","","","","","",""
"752.5","","image-keyboard-response","202","285559","0.0-202.0","3SPJ033422PFDSEISVPXZPYRA04JY0","ABX5OQLR6UNBC","3S829FDFT2NBOHQMM1CIOU0HZYXDXL","","","img/flower6.png","76","753.2999999970198","3","0","2","0.8,0.8,0.2,0.2,0.8,0.8,0.8,0.2,0.8",""
"null","","html-keyboard-response","203","285870","0.0-203.0","3SPJ033422PFDSEISVPXZPYRA04JY0","ABX5OQLR6UNBC","3S829FDFT2NBOHQMM1CIOU0HZYXDXL","","","<img src=""img/flower6.png"" style=""width:200px;border:14px solid red;"">","null","","","","","",""
"917.1999999955297","","image-keyboard-response","204","286780","0.0-204.0","3SPJ033422PFDSEISVPXZPYRA04JY0","ABX5OQLR6UNBC","3S829FDFT2NBOHQMM1CIOU0HZYXDXL","","","img/flower8.png","74","918.3999999985099","1","0","1","0.8,0.8,0.2,0.2,0.8,0.8,0.8,0.2,0.8",""
"null","","html-keyboard-response","205","287092","0.0-205.0","3SPJ033422PFDSEISVPXZPYRA04JY0","ABX5OQLR6UNBC","3S829FDFT2NBOHQMM1CIOU0HZYXDXL","","","<img src=""img/flower8.png"" style=""width:200px;border:14px solid red;"">","null","","","","","",""
"1207.1000000014901","","image-keyboard-response","206","288300","0.0-206.0","3SPJ033422PFDSEISVPXZPYRA04JY0","ABX5OQLR6UNBC","3S829FDFT2NBOHQMM1CIOU0HZYXDXL","","","img/flower7.png","74","1207.9000000059605","1","1","3","0.8,0.8,0.2,0.2,0.8,0.8,0.8,0.2,0.8",""
"null","","html-keyboard-response","207","288608","0.0-207.0","3SPJ033422PFDSEISVPXZPYRA04JY0","ABX5OQLR6UNBC","3S829FDFT2NBOHQMM1CIOU0HZYXDXL","","","<img src=""img/flower7.png"" style=""width:200px; border:14px solid green;"">","null","","","","","",""
"761.2999999970198","","image-keyboard-response","208","289371","0.0-208.0","3SPJ033422PFDSEISVPXZPYRA04JY0","ABX5OQLR6UNBC","3S829FDFT2NBOHQMM1CIOU0HZYXDXL","","","img/flower8.png","74","762.6000000014901","1","1","1","0.8,0.8,0.2,0.2,0.8,0.8,0.8,0.2,0.8",""
"null","","html-keyboard-response","209","289674","0.0-209.0","3SPJ033422PFDSEISVPXZPYRA04JY0","ABX5OQLR6UNBC","3S829FDFT2NBOHQMM1CIOU0HZYXDXL","","","<img src=""img/flower8.png"" style=""width:200px; border:14px solid green;"">","null","","","","","",""
"871.2999999970198","","image-keyboard-response","210","290546","0.0-210.0","3SPJ033422PFDSEISVPXZPYRA04JY0","ABX5OQLR6UNBC","3S829FDFT2NBOHQMM1CIOU0HZYXDXL","","","img/flower7.png","74","872.3999999985099","1","1","3","0.8,0.8,0.2,0.2,0.8,0.8,0.8,0.2,0.8",""
"null","","html-keyboard-response","211","290858","0.0-211.0","3SPJ033422PFDSEISVPXZPYRA04JY0","ABX5OQLR6UNBC","3S829FDFT2NBOHQMM1CIOU0HZYXDXL","","","<img src=""img/flower7.png"" style=""width:200px; border:14px solid green;"">","null","","","","","",""
"519.3999999985099","","image-keyboard-response","212","291380","0.0-212.0","3SPJ033422PFDSEISVPXZPYRA04JY0","ABX5OQLR6UNBC","3S829FDFT2NBOHQMM1CIOU0HZYXDXL","","","img/flower7.png","74","520.7000000029802","1","1","3","0.8,0.8,0.2,0.2,0.8,0.8,0.8,0.2,0.8",""
"null","","html-keyboard-response","213","291687","0.0-213.0","3SPJ033422PFDSEISVPXZPYRA04JY0","ABX5OQLR6UNBC","3S829FDFT2NBOHQMM1CIOU0HZYXDXL","","","<img src=""img/flower7.png"" style=""width:200px; border:14px solid green;"">","null","","","","","",""
"770.5","","image-keyboard-response","214","292459","0.0-214.0","3SPJ033422PFDSEISVPXZPYRA04JY0","ABX5OQLR6UNBC","3S829FDFT2NBOHQMM1CIOU0HZYXDXL","","","img/flower8.png","74","771.6000000014901","1","0","1","0.8,0.8,0.2,0.2,0.8,0.8,0.8,0.2,0.8",""
"null","","html-keyboard-response","215","292761","0.0-215.0","3SPJ033422PFDSEISVPXZPYRA04JY0","ABX5OQLR6UNBC","3S829FDFT2NBOHQMM1CIOU0HZYXDXL","","","<img src=""img/flower8.png"" style=""width:200px;border:14px solid red;"">","null","","","","","",""
"449.29999999701977","","image-keyboard-response","216","293212","0.0-216.0","3SPJ033422PFDSEISVPXZPYRA04JY0","ABX5OQLR6UNBC","3S829FDFT2NBOHQMM1CIOU0HZYXDXL","","","img/flower8.png","74","450.6000000014901","1","1","1","0.8,0.8,0.2,0.2,0.8,0.8,0.8,0.2,0.8",""
"null","","html-keyboard-response","217","293525","0.0-217.0","3SPJ033422PFDSEISVPXZPYRA04JY0","ABX5OQLR6UNBC","3S829FDFT2NBOHQMM1CIOU0HZYXDXL","","","<img src=""img/flower8.png"" style=""width:200px; border:14px solid green;"">","null","","","","","",""
"756.5999999940395","","image-keyboard-response","218","294284","0.0-218.0","3SPJ033422PFDSEISVPXZPYRA04JY0","ABX5OQLR6UNBC","3S829FDFT2NBOHQMM1CIOU0HZYXDXL","","","img/flower6.png","76","758","3","1","2","0.8,0.8,0.2,0.2,0.8,0.8,0.8,0.2,0.8",""
"null","","html-keyboard-response","219","294592","0.0-219.0","3SPJ033422PFDSEISVPXZPYRA04JY0","ABX5OQLR6UNBC","3S829FDFT2NBOHQMM1CIOU0HZYXDXL","","","<img src=""img/flower6.png"" style=""width:200px; border:14px solid green;"">","null","","","","","",""
"793.1000000014901","","image-keyboard-response","220","295387","0.0-220.0","3SPJ033422PFDSEISVPXZPYRA04JY0","ABX5OQLR6UNBC","3S829FDFT2NBOHQMM1CIOU0HZYXDXL","","","img/flower8.png","74","794.2000000029802","1","1","1","0.8,0.8,0.2,0.2,0.8,0.8,0.8,0.2,0.8",""
"null","","html-keyboard-response","221","295703","0.0-221.0","3SPJ033422PFDSEISVPXZPYRA04JY0","ABX5OQLR6UNBC","3S829FDFT2NBOHQMM1CIOU0HZYXDXL","","","<img src=""img/flower8.png"" style=""width:200px; border:14px solid green;"">","null","","","","","",""
"1139.2999999970198","","image-keyboard-response","222","296844","0.0-222.0","3SPJ033422PFDSEISVPXZPYRA04JY0","ABX5OQLR6UNBC","3S829FDFT2NBOHQMM1CIOU0HZYXDXL","","","img/flower7.png","74","1140.5","1","1","3","0.8,0.8,0.2,0.2,0.8,0.8,0.8,0.2,0.8",""
"null","","html-keyboard-response","223","297159","0.0-223.0","3SPJ033422PFDSEISVPXZPYRA04JY0","ABX5OQLR6UNBC","3S829FDFT2NBOHQMM1CIOU0HZYXDXL","","","<img src=""img/flower7.png"" style=""width:200px; border:14px solid green;"">","null","","","","","",""
"883.2999999970198","","image-keyboard-response","224","298044","0.0-224.0","3SPJ033422PFDSEISVPXZPYRA04JY0","ABX5OQLR6UNBC","3S829FDFT2NBOHQMM1CIOU0HZYXDXL","","","img/flower6.png","76","884.7000000029802","3","0","2","0.8,0.8,0.2,0.2,0.8,0.8,0.8,0.2,0.8",""
"null","","html-keyboard-response","225","298358","0.0-225.0","3SPJ033422PFDSEISVPXZPYRA04JY0","ABX5OQLR6UNBC","3S829FDFT2NBOHQMM1CIOU0HZYXDXL","","","<img src=""img/flower6.png"" style=""width:200px;border:14px solid red;"">","null","","","","","",""
"891.5","","image-keyboard-response","226","299252","0.0-226.0","3SPJ033422PFDSEISVPXZPYRA04JY0","ABX5OQLR6UNBC","3S829FDFT2NBOHQMM1CIOU0HZYXDXL","","","img/flower8.png","74","892.8000000044703","1","1","1","0.8,0.8,0.2,0.2,0.8,0.8,0.8,0.2,0.8",""
"null","","html-keyboard-response","227","299568","0.0-227.0","3SPJ033422PFDSEISVPXZPYRA04JY0","ABX5OQLR6UNBC","3S829FDFT2NBOHQMM1CIOU0HZYXDXL","","","<img src=""img/flower8.png"" style=""width:200px; border:14px solid green;"">","null","","","","","",""
"665.6999999955297","","image-keyboard-response","228","300236","0.0-228.0","3SPJ033422PFDSEISVPXZPYRA04JY0","ABX5OQLR6UNBC","3S829FDFT2NBOHQMM1CIOU0HZYXDXL","","","img/flower6.png","76","667","3","1","2","0.8,0.8,0.2,0.2,0.8,0.8,0.8,0.2,0.8",""
"null","","html-keyboard-response","229","300542","0.0-229.0","3SPJ033422PFDSEISVPXZPYRA04JY0","ABX5OQLR6UNBC","3S829FDFT2NBOHQMM1CIOU0HZYXDXL","","","<img src=""img/flower6.png"" style=""width:200px; border:14px solid green;"">","null","","","","","",""
"523.1000000014901","","image-keyboard-response","230","301067","0.0-230.0","3SPJ033422PFDSEISVPXZPYRA04JY0","ABX5OQLR6UNBC","3S829FDFT2NBOHQMM1CIOU0HZYXDXL","","","img/flower6.png","76","524.2000000029802","3","1","2","0.8,0.8,0.2,0.2,0.8,0.8,0.8,0.2,0.8",""
"null","","html-keyboard-response","231","301376","0.0-231.0","3SPJ033422PFDSEISVPXZPYRA04JY0","ABX5OQLR6UNBC","3S829FDFT2NBOHQMM1CIOU0HZYXDXL","","","<img src=""img/flower6.png"" style=""width:200px; border:14px solid green;"">","null","","","","","",""
"1002.3999999985099","","image-keyboard-response","232","302380","0.0-232.0","3SPJ033422PFDSEISVPXZPYRA04JY0","ABX5OQLR6UNBC","3S829FDFT2NBOHQMM1CIOU0HZYXDXL","","","img/flower7.png","74","1003.7000000029802","1","1","3","0.8,0.8,0.2,0.2,0.8,0.8,0.8,0.2,0.8",""
"null","","html-keyboard-response","233","302692","0.0-233.0","3SPJ033422PFDSEISVPXZPYRA04JY0","ABX5OQLR6UNBC","3S829FDFT2NBOHQMM1CIOU0HZYXDXL","","","<img src=""img/flower7.png"" style=""width:200px; border:14px solid green;"">","null","","","","","",""
"773.2000000029802","","image-keyboard-response","234","303467","0.0-234.0","3SPJ033422PFDSEISVPXZPYRA04JY0","ABX5OQLR6UNBC","3S829FDFT2NBOHQMM1CIOU0HZYXDXL","","","img/flower6.png","76","774.2000000029802","3","1","2","0.8,0.8,0.2,0.2,0.8,0.8,0.8,0.2,0.8",""
"null","","html-keyboard-response","235","303782","0.0-235.0","3SPJ033422PFDSEISVPXZPYRA04JY0","ABX5OQLR6UNBC","3S829FDFT2NBOHQMM1CIOU0HZYXDXL","","","<img src=""img/flower6.png"" style=""width:200px; border:14px solid green;"">","null","","","","","",""
"547.8999999985099","","image-keyboard-response","236","304332","0.0-236.0","3SPJ033422PFDSEISVPXZPYRA04JY0","ABX5OQLR6UNBC","3S829FDFT2NBOHQMM1CIOU0HZYXDXL","","","img/flower6.png","76","549.3999999985099","3","0","2","0.8,0.8,0.2,0.2,0.8,0.8,0.8,0.2,0.8",""
"null","","html-keyboard-response","237","304643","0.0-237.0","3SPJ033422PFDSEISVPXZPYRA04JY0","ABX5OQLR6UNBC","3S829FDFT2NBOHQMM1CIOU0HZYXDXL","","","<img src=""img/flower6.png"" style=""width:200px;border:14px solid red;"">","null","","","","","",""
"847","","image-keyboard-response","238","305492","0.0-238.0","3SPJ033422PFDSEISVPXZPYRA04JY0","ABX5OQLR6UNBC","3S829FDFT2NBOHQMM1CIOU0HZYXDXL","","","img/flower7.png","74","848.4000000059605","1","0","3","0.8,0.8,0.2,0.2,0.8,0.8,0.8,0.2,0.8",""
"null","","html-keyboard-response","239","305799","0.0-239.0","3SPJ033422PFDSEISVPXZPYRA04JY0","ABX5OQLR6UNBC","3S829FDFT2NBOHQMM1CIOU0HZYXDXL","","","<img src=""img/flower7.png"" style=""width:200px;border:14px solid red;"">","null","","","","","",""
"1171","","image-keyboard-response","240","306972","0.0-240.0","3SPJ033422PFDSEISVPXZPYRA04JY0","ABX5OQLR6UNBC","3S829FDFT2NBOHQMM1CIOU0HZYXDXL","","","img/flower6.png","76","1172.2999999970198","3","0","2","0.8,0.8,0.2,0.2,0.8,0.8,0.8,0.2,0.8",""
"null","","html-keyboard-response","241","307275","0.0-241.0","3SPJ033422PFDSEISVPXZPYRA04JY0","ABX5OQLR6UNBC","3S829FDFT2NBOHQMM1CIOU0HZYXDXL","","","<img src=""img/flower6.png"" style=""width:200px;border:14px solid red;"">","null","","","","","",""
"965.7000000029802","","image-keyboard-response","242","308243","0.0-242.0","3SPJ033422PFDSEISVPXZPYRA04JY0","ABX5OQLR6UNBC","3S829FDFT2NBOHQMM1CIOU0HZYXDXL","","","img/flower7.png","74","966.8000000044703","1","1","3","0.8,0.8,0.2,0.2,0.8,0.8,0.8,0.2,0.8",""
"null","","html-keyboard-response","243","308547","0.0-243.0","3SPJ033422PFDSEISVPXZPYRA04JY0","ABX5OQLR6UNBC","3S829FDFT2NBOHQMM1CIOU0HZYXDXL","","","<img src=""img/flower7.png"" style=""width:200px; border:14px solid green;"">","null","","","","","",""
"1894.2999999970198","","image-keyboard-response","244","310442","0.0-244.0","3SPJ033422PFDSEISVPXZPYRA04JY0","ABX5OQLR6UNBC","3S829FDFT2NBOHQMM1CIOU0HZYXDXL","","","img/flower8.png","74","1895.2999999970198","1","1","1","0.8,0.8,0.2,0.2,0.8,0.8,0.8,0.2,0.8",""
"null","","html-keyboard-response","245","310744","0.0-245.0","3SPJ033422PFDSEISVPXZPYRA04JY0","ABX5OQLR6UNBC","3S829FDFT2NBOHQMM1CIOU0HZYXDXL","","","<img src=""img/flower8.png"" style=""width:200px; border:14px solid green;"">","null","","","","","",""
"1001.3999999985099","","image-keyboard-response","246","311748","0.0-246.0","3SPJ033422PFDSEISVPXZPYRA04JY0","ABX5OQLR6UNBC","3S829FDFT2NBOHQMM1CIOU0HZYXDXL","","","img/flower6.png","76","1002.8999999985099","3","1","2","0.8,0.8,0.2,0.2,0.8,0.8,0.8,0.2,0.8",""
"null","","html-keyboard-response","247","312060","0.0-247.0","3SPJ033422PFDSEISVPXZPYRA04JY0","ABX5OQLR6UNBC","3S829FDFT2NBOHQMM1CIOU0HZYXDXL","","","<img src=""img/flower6.png"" style=""width:200px; border:14px solid green;"">","null","","","","","",""
"911.1000000014901","","image-keyboard-response","248","312972","0.0-248.0","3SPJ033422PFDSEISVPXZPYRA04JY0","ABX5OQLR6UNBC","3S829FDFT2NBOHQMM1CIOU0HZYXDXL","","","img/flower7.png","74","912","1","1","3","0.8,0.8,0.2,0.2,0.8,0.8,0.8,0.2,0.8",""
"null","","html-keyboard-response","249","313276","0.0-249.0","3SPJ033422PFDSEISVPXZPYRA04JY0","ABX5OQLR6UNBC","3S829FDFT2NBOHQMM1CIOU0HZYXDXL","","","<img src=""img/flower7.png"" style=""width:200px; border:14px solid green;"">","null","","","","","",""
"678.6999999955297","","image-keyboard-response","250","313956","0.0-250.0","3SPJ033422PFDSEISVPXZPYRA04JY0","ABX5OQLR6UNBC","3S829FDFT2NBOHQMM1CIOU0HZYXDXL","","","img/flower6.png","76","680.1000000014901","3","0","2","0.8,0.8,0.2,0.2,0.8,0.8,0.8,0.2,0.8",""
"null","","html-keyboard-response","251","314260","0.0-251.0","3SPJ033422PFDSEISVPXZPYRA04JY0","ABX5OQLR6UNBC","3S829FDFT2NBOHQMM1CIOU0HZYXDXL","","","<img src=""img/flower6.png"" style=""width:200px;border:14px solid red;"">","null","","","","","",""
"444.8999999985099","","image-keyboard-response","252","314706","0.0-252.0","3SPJ033422PFDSEISVPXZPYRA04JY0","ABX5OQLR6UNBC","3S829FDFT2NBOHQMM1CIOU0HZYXDXL","","","img/flower6.png","76","445.8999999985099","3","0","2","0.8,0.8,0.2,0.2,0.8,0.8,0.8,0.2,0.8",""
"null","","html-keyboard-response","253","315009","0.0-253.0","3SPJ033422PFDSEISVPXZPYRA04JY0","ABX5OQLR6UNBC","3S829FDFT2NBOHQMM1CIOU0HZYXDXL","","","<img src=""img/flower6.png"" style=""width:200px;border:14px solid red;"">","null","","","","","",""
"713.1000000014901","","image-keyboard-response","254","315723","0.0-254.0","3SPJ033422PFDSEISVPXZPYRA04JY0","ABX5OQLR6UNBC","3S829FDFT2NBOHQMM1CIOU0HZYXDXL","","","img/flower8.png","74","713.5","1","1","1","0.8,0.8,0.2,0.2,0.8,0.8,0.8,0.2,0.8",""
"null","","html-keyboard-response","255","316026","0.0-255.0","3SPJ033422PFDSEISVPXZPYRA04JY0","ABX5OQLR6UNBC","3S829FDFT2NBOHQMM1CIOU0HZYXDXL","","","<img src=""img/flower8.png"" style=""width:200px; border:14px solid green;"">","null","","","","","",""
"583.4000000059605","","image-keyboard-response","256","316611","0.0-256.0","3SPJ033422PFDSEISVPXZPYRA04JY0","ABX5OQLR6UNBC","3S829FDFT2NBOHQMM1CIOU0HZYXDXL","","","img/flower8.png","74","584.8000000044703","1","1","1","0.8,0.8,0.2,0.2,0.8,0.8,0.8,0.2,0.8",""
"null","","html-keyboard-response","257","316914","0.0-257.0","3SPJ033422PFDSEISVPXZPYRA04JY0","ABX5OQLR6UNBC","3S829FDFT2NBOHQMM1CIOU0HZYXDXL","","","<img src=""img/flower8.png"" style=""width:200px; border:14px solid green;"">","null","","","","","",""
"519","","image-keyboard-response","258","317434","0.0-258.0","3SPJ033422PFDSEISVPXZPYRA04JY0","ABX5OQLR6UNBC","3S829FDFT2NBOHQMM1CIOU0HZYXDXL","","","img/flower8.png","74","520.2000000029802","1","1","1","0.8,0.8,0.2,0.2,0.8,0.8,0.8,0.2,0.8",""
"null","","html-keyboard-response","259","317737","0.0-259.0","3SPJ033422PFDSEISVPXZPYRA04JY0","ABX5OQLR6UNBC","3S829FDFT2NBOHQMM1CIOU0HZYXDXL","","","<img src=""img/flower8.png"" style=""width:200px; border:14px solid green;"">","null","","","","","",""
"807.6000000014901","","image-keyboard-response","260","318546","0.0-260.0","3SPJ033422PFDSEISVPXZPYRA04JY0","ABX5OQLR6UNBC","3S829FDFT2NBOHQMM1CIOU0HZYXDXL","","","img/flower6.png","76","808.6000000014901","3","1","2","0.8,0.8,0.2,0.2,0.8,0.8,0.8,0.2,0.8",""
"null","","html-keyboard-response","261","318860","0.0-261.0","3SPJ033422PFDSEISVPXZPYRA04JY0","ABX5OQLR6UNBC","3S829FDFT2NBOHQMM1CIOU0HZYXDXL","","","<img src=""img/flower6.png"" style=""width:200px; border:14px solid green;"">","null","","","","","",""
"1278.1000000014901","","image-keyboard-response","262","320140","0.0-262.0","3SPJ033422PFDSEISVPXZPYRA04JY0","ABX5OQLR6UNBC","3S829FDFT2NBOHQMM1CIOU0HZYXDXL","","","img/flower7.png","74","1279.5","1","1","3","0.8,0.8,0.2,0.2,0.8,0.8,0.8,0.2,0.8",""
"null","","html-keyboard-response","263","320455","0.0-263.0","3SPJ033422PFDSEISVPXZPYRA04JY0","ABX5OQLR6UNBC","3S829FDFT2NBOHQMM1CIOU0HZYXDXL","","","<img src=""img/flower7.png"" style=""width:200px; border:14px solid green;"">","null","","","","","",""
"772.1000000014901","","image-keyboard-response","264","321228","0.0-264.0","3SPJ033422PFDSEISVPXZPYRA04JY0","ABX5OQLR6UNBC","3S829FDFT2NBOHQMM1CIOU0HZYXDXL","","","img/flower8.png","74","773.2000000029802","1","0","1","0.8,0.8,0.2,0.2,0.8,0.8,0.8,0.2,0.8",""
"null","","html-keyboard-response","265","321543","0.0-265.0","3SPJ033422PFDSEISVPXZPYRA04JY0","ABX5OQLR6UNBC","3S829FDFT2NBOHQMM1CIOU0HZYXDXL","","","<img src=""img/flower8.png"" style=""width:200px;border:14px solid red;"">","null","","","","","",""
"763.5999999940395","","image-keyboard-response","266","322308","0.0-266.0","3SPJ033422PFDSEISVPXZPYRA04JY0","ABX5OQLR6UNBC","3S829FDFT2NBOHQMM1CIOU0HZYXDXL","","","img/flower6.png","76","764.3999999985099","3","1","2","0.8,0.8,0.2,0.2,0.8,0.8,0.8,0.2,0.8",""
"null","","html-keyboard-response","267","322611","0.0-267.0","3SPJ033422PFDSEISVPXZPYRA04JY0","ABX5OQLR6UNBC","3S829FDFT2NBOHQMM1CIOU0HZYXDXL","","","<img src=""img/flower6.png"" style=""width:200px; border:14px solid green;"">","null","","","","","",""
"862.7999999970198","","image-keyboard-response","268","323476","0.0-268.0","3SPJ033422PFDSEISVPXZPYRA04JY0","ABX5OQLR6UNBC","3S829FDFT2NBOHQMM1CIOU0HZYXDXL","","","img/flower7.png","74","864.2999999970198","1","1","3","0.8,0.8,0.2,0.2,0.8,0.8,0.8,0.2,0.8",""
"null","","html-keyboard-response","269","323781","0.0-269.0","3SPJ033422PFDSEISVPXZPYRA04JY0","ABX5OQLR6UNBC","3S829FDFT2NBOHQMM1CIOU0HZYXDXL","","","<img src=""img/flower7.png"" style=""width:200px; border:14px solid green;"">","null","","","","","",""
"844.9000000059605","","image-keyboard-response","270","324628","0.0-270.0","3SPJ033422PFDSEISVPXZPYRA04JY0","ABX5OQLR6UNBC","3S829FDFT2NBOHQMM1CIOU0HZYXDXL","","","img/flower8.png","74","846.3000000044703","1","1","1","0.8,0.8,0.2,0.2,0.8,0.8,0.8,0.2,0.8",""
"null","","html-keyboard-response","271","324943","0.0-271.0","3SPJ033422PFDSEISVPXZPYRA04JY0","ABX5OQLR6UNBC","3S829FDFT2NBOHQMM1CIOU0HZYXDXL","","","<img src=""img/flower8.png"" style=""width:200px; border:14px solid green;"">","null","","","","","",""
"602.5","","image-keyboard-response","272","325548","0.0-272.0","3SPJ033422PFDSEISVPXZPYRA04JY0","ABX5OQLR6UNBC","3S829FDFT2NBOHQMM1CIOU0HZYXDXL","","","img/flower8.png","74","603.9000000059605","1","1","1","0.8,0.8,0.2,0.2,0.8,0.8,0.8,0.2,0.8",""
"null","","html-keyboard-response","273","325861","0.0-273.0","3SPJ033422PFDSEISVPXZPYRA04JY0","ABX5OQLR6UNBC","3S829FDFT2NBOHQMM1CIOU0HZYXDXL","","","<img src=""img/flower8.png"" style=""width:200px; border:14px solid green;"">","null","","","","","",""
"773.2999999970198","","image-keyboard-response","274","326636","0.0-274.0","3SPJ033422PFDSEISVPXZPYRA04JY0","ABX5OQLR6UNBC","3S829FDFT2NBOHQMM1CIOU0HZYXDXL","","","img/flower7.png","74","774.6999999955297","1","1","3","0.8,0.8,0.2,0.2,0.8,0.8,0.8,0.2,0.8",""
"null","","html-keyboard-response","275","326943","0.0-275.0","3SPJ033422PFDSEISVPXZPYRA04JY0","ABX5OQLR6UNBC","3S829FDFT2NBOHQMM1CIOU0HZYXDXL","","","<img src=""img/flower7.png"" style=""width:200px; border:14px solid green;"">","null","","","","","",""
"507.29999999701977","","image-keyboard-response","276","327452","0.0-276.0","3SPJ033422PFDSEISVPXZPYRA04JY0","ABX5OQLR6UNBC","3S829FDFT2NBOHQMM1CIOU0HZYXDXL","","","img/flower7.png","74","508.6000000014901","1","0","3","0.8,0.8,0.2,0.2,0.8,0.8,0.8,0.2,0.8",""
"null","","html-keyboard-response","277","327767","0.0-277.0","3SPJ033422PFDSEISVPXZPYRA04JY0","ABX5OQLR6UNBC","3S829FDFT2NBOHQMM1CIOU0HZYXDXL","","","<img src=""img/flower7.png"" style=""width:200px;border:14px solid red;"">","null","","","","","",""
"690.5","","image-keyboard-response","278","328459","0.0-278.0","3SPJ033422PFDSEISVPXZPYRA04JY0","ABX5OQLR6UNBC","3S829FDFT2NBOHQMM1CIOU0HZYXDXL","","","img/flower6.png","76","691.5999999940395","3","1","2","0.8,0.8,0.2,0.2,0.8,0.8,0.8,0.2,0.8",""
"null","","html-keyboard-response","279","328761","0.0-279.0","3SPJ033422PFDSEISVPXZPYRA04JY0","ABX5OQLR6UNBC","3S829FDFT2NBOHQMM1CIOU0HZYXDXL","","","<img src=""img/flower6.png"" style=""width:200px; border:14px solid green;"">","null","","","","","",""
"529.1999999955297","","image-keyboard-response","280","329292","0.0-280.0","3SPJ033422PFDSEISVPXZPYRA04JY0","ABX5OQLR6UNBC","3S829FDFT2NBOHQMM1CIOU0HZYXDXL","","","img/flower6.png","76","530","3","1","2","0.8,0.8,0.2,0.2,0.8,0.8,0.8,0.2,0.8",""
"null","","html-keyboard-response","281","329608","0.0-281.0","3SPJ033422PFDSEISVPXZPYRA04JY0","ABX5OQLR6UNBC","3S829FDFT2NBOHQMM1CIOU0HZYXDXL","","","<img src=""img/flower6.png"" style=""width:200px; border:14px solid green;"">","null","","","","","",""
"601.5","","image-keyboard-response","282","330212","0.0-282.0","3SPJ033422PFDSEISVPXZPYRA04JY0","ABX5OQLR6UNBC","3S829FDFT2NBOHQMM1CIOU0HZYXDXL","","","img/flower7.png","74","602.9000000059605","1","1","3","0.8,0.8,0.2,0.2,0.8,0.8,0.8,0.2,0.8",""
"null","","html-keyboard-response","283","330526","0.0-283.0","3SPJ033422PFDSEISVPXZPYRA04JY0","ABX5OQLR6UNBC","3S829FDFT2NBOHQMM1CIOU0HZYXDXL","","","<img src=""img/flower7.png"" style=""width:200px; border:14px solid green;"">","null","","","","","",""
"443.69999999552965","","image-keyboard-response","284","330972","0.0-284.0","3SPJ033422PFDSEISVPXZPYRA04JY0","ABX5OQLR6UNBC","3S829FDFT2NBOHQMM1CIOU0HZYXDXL","","","img/flower7.png","74","445.09999999403954","1","1","3","0.8,0.8,0.2,0.2,0.8,0.8,0.8,0.2,0.8",""
"null","","html-keyboard-response","285","331276","0.0-285.0","3SPJ033422PFDSEISVPXZPYRA04JY0","ABX5OQLR6UNBC","3S829FDFT2NBOHQMM1CIOU0HZYXDXL","","","<img src=""img/flower7.png"" style=""width:200px; border:14px solid green;"">","null","","","","","",""
"749.5999999940395","","image-keyboard-response","286","332028","0.0-286.0","3SPJ033422PFDSEISVPXZPYRA04JY0","ABX5OQLR6UNBC","3S829FDFT2NBOHQMM1CIOU0HZYXDXL","","","img/flower6.png","76","751.0999999940395","3","1","2","0.8,0.8,0.2,0.2,0.8,0.8,0.8,0.2,0.8",""
"null","","html-keyboard-response","287","332344","0.0-287.0","3SPJ033422PFDSEISVPXZPYRA04JY0","ABX5OQLR6UNBC","3S829FDFT2NBOHQMM1CIOU0HZYXDXL","","","<img src=""img/flower6.png"" style=""width:200px; border:14px solid green;"">","null","","","","","",""
"690.3999999985099","","image-keyboard-response","288","333036","0.0-288.0","3SPJ033422PFDSEISVPXZPYRA04JY0","ABX5OQLR6UNBC","3S829FDFT2NBOHQMM1CIOU0HZYXDXL","","","img/flower8.png","74","691.8999999985099","1","1","1","0.8,0.8,0.2,0.2,0.8,0.8,0.8,0.2,0.8",""
"null","","html-keyboard-response","289","333343","0.0-289.0","3SPJ033422PFDSEISVPXZPYRA04JY0","ABX5OQLR6UNBC","3S829FDFT2NBOHQMM1CIOU0HZYXDXL","","","<img src=""img/flower8.png"" style=""width:200px; border:14px solid green;"">","null","","","","","",""
"794","","image-keyboard-response","290","334138","0.0-290.0","3SPJ033422PFDSEISVPXZPYRA04JY0","ABX5OQLR6UNBC","3S829FDFT2NBOHQMM1CIOU0HZYXDXL","","","img/flower6.png","76","795","3","0","2","0.8,0.8,0.2,0.2,0.8,0.8,0.8,0.2,0.8",""
"null","","html-keyboard-response","291","334443","0.0-291.0","3SPJ033422PFDSEISVPXZPYRA04JY0","ABX5OQLR6UNBC","3S829FDFT2NBOHQMM1CIOU0HZYXDXL","","","<img src=""img/flower6.png"" style=""width:200px;border:14px solid red;"">","null","","","","","",""
"711.2000000029802","","image-keyboard-response","292","335155","0.0-292.0","3SPJ033422PFDSEISVPXZPYRA04JY0","ABX5OQLR6UNBC","3S829FDFT2NBOHQMM1CIOU0HZYXDXL","","","img/flower8.png","74","711.7999999970198","1","1","1","0.8,0.8,0.2,0.2,0.8,0.8,0.8,0.2,0.8",""
"null","","html-keyboard-response","293","335459","0.0-293.0","3SPJ033422PFDSEISVPXZPYRA04JY0","ABX5OQLR6UNBC","3S829FDFT2NBOHQMM1CIOU0HZYXDXL","","","<img src=""img/flower8.png"" style=""width:200px; border:14px solid green;"">","null","","","","","",""
"783.1999999955297","","image-keyboard-response","294","336244","0.0-294.0","3SPJ033422PFDSEISVPXZPYRA04JY0","ABX5OQLR6UNBC","3S829FDFT2NBOHQMM1CIOU0HZYXDXL","","","img/flower6.png","76","784","3","1","2","0.8,0.8,0.2,0.2,0.8,0.8,0.8,0.2,0.8",""
"null","","html-keyboard-response","295","336560","0.0-295.0","3SPJ033422PFDSEISVPXZPYRA04JY0","ABX5OQLR6UNBC","3S829FDFT2NBOHQMM1CIOU0HZYXDXL","","","<img src=""img/flower6.png"" style=""width:200px; border:14px solid green;"">","null","","","","","",""
"786.0999999940395","","image-keyboard-response","296","337348","0.0-296.0","3SPJ033422PFDSEISVPXZPYRA04JY0","ABX5OQLR6UNBC","3S829FDFT2NBOHQMM1CIOU0HZYXDXL","","","img/flower7.png","74","787.5999999940395","1","1","3","0.8,0.8,0.2,0.2,0.8,0.8,0.8,0.2,0.8",""
"null","","html-keyboard-response","297","337658","0.0-297.0","3SPJ033422PFDSEISVPXZPYRA04JY0","ABX5OQLR6UNBC","3S829FDFT2NBOHQMM1CIOU0HZYXDXL","","","<img src=""img/flower7.png"" style=""width:200px; border:14px solid green;"">","null","","","","","",""
"871.8999999985099","","image-keyboard-response","298","338532","0.0-298.0","3SPJ033422PFDSEISVPXZPYRA04JY0","ABX5OQLR6UNBC","3S829FDFT2NBOHQMM1CIOU0HZYXDXL","","","img/flower6.png","76","873.3999999985099","3","1","2","0.8,0.8,0.2,0.2,0.8,0.8,0.8,0.2,0.8",""
"null","","html-keyboard-response","299","338843","0.0-299.0","3SPJ033422PFDSEISVPXZPYRA04JY0","ABX5OQLR6UNBC","3S829FDFT2NBOHQMM1CIOU0HZYXDXL","","","<img src=""img/flower6.png"" style=""width:200px; border:14px solid green;"">","null","","","","","",""
"549.8999999985099","","image-keyboard-response","300","339395","0.0-300.0","3SPJ033422PFDSEISVPXZPYRA04JY0","ABX5OQLR6UNBC","3S829FDFT2NBOHQMM1CIOU0HZYXDXL","","","img/flower6.png","74","551.1000000014901","1","0","2","0.8,0.8,0.2,0.2,0.8,0.8,0.8,0.2,0.8",""
"null","","html-keyboard-response","301","339703","0.0-301.0","3SPJ033422PFDSEISVPXZPYRA04JY0","ABX5OQLR6UNBC","3S829FDFT2NBOHQMM1CIOU0HZYXDXL","","","<img src=""img/flower6.png"" style=""width:200px;border:14px solid red;"">","null","","","","","",""
"874.6000000014901","","image-keyboard-response","302","340579","0.0-302.0","3SPJ033422PFDSEISVPXZPYRA04JY0","ABX5OQLR6UNBC","3S829FDFT2NBOHQMM1CIOU0HZYXDXL","","","img/flower6.png","75","875.2000000029802","2","1","2","0.8,0.8,0.2,0.2,0.8,0.8,0.8,0.2,0.8",""
"null","","html-keyboard-response","303","340894","0.0-303.0","3SPJ033422PFDSEISVPXZPYRA04JY0","ABX5OQLR6UNBC","3S829FDFT2NBOHQMM1CIOU0HZYXDXL","","","<img src=""img/flower6.png"" style=""width:200px; border:14px solid green;"">","null","","","","","",""
"1778.5999999940395","","image-keyboard-response","304","342674","0.0-304.0","3SPJ033422PFDSEISVPXZPYRA04JY0","ABX5OQLR6UNBC","3S829FDFT2NBOHQMM1CIOU0HZYXDXL","","","img/flower7.png","74","1779.7000000029802","1","0","3","0.8,0.8,0.2,0.2,0.8,0.8,0.8,0.2,0.8",""
"null","","html-keyboard-response","305","342976","0.0-305.0","3SPJ033422PFDSEISVPXZPYRA04JY0","ABX5OQLR6UNBC","3S829FDFT2NBOHQMM1CIOU0HZYXDXL","","","<img src=""img/flower7.png"" style=""width:200px;border:14px solid red;"">","null","","","","","",""
"","","html-keyboard-response","306","346435","0.0-306.0","3SPJ033422PFDSEISVPXZPYRA04JY0","ABX5OQLR6UNBC","3S829FDFT2NBOHQMM1CIOU0HZYXDXL","","","","","","","","","",""
"1504.1000000014901","","image-keyboard-response","307","347950","0.0-307.0","3SPJ033422PFDSEISVPXZPYRA04JY0","ABX5OQLR6UNBC","3S829FDFT2NBOHQMM1CIOU0HZYXDXL","","","img/flower3.png","75","1505","2","0","3","0.8,0.2,0.2,0.2,0.8,0.2,0.2,0.2,0.8",""
"null","","html-keyboard-response","308","348253","0.0-308.0","3SPJ033422PFDSEISVPXZPYRA04JY0","ABX5OQLR6UNBC","3S829FDFT2NBOHQMM1CIOU0HZYXDXL","","","<img src=""img/flower3.png"" style=""width:200px;border:14px solid red;"">","null","","","","","",""
"397.69999999552965","","image-keyboard-response","309","348653","0.0-309.0","3SPJ033422PFDSEISVPXZPYRA04JY0","ABX5OQLR6UNBC","3S829FDFT2NBOHQMM1CIOU0HZYXDXL","","","img/flower2.png","76","398.70000000298023","3","1","2","0.8,0.2,0.2,0.2,0.8,0.2,0.2,0.2,0.8",""
"null","","html-keyboard-response","310","348969","0.0-310.0","3SPJ033422PFDSEISVPXZPYRA04JY0","ABX5OQLR6UNBC","3S829FDFT2NBOHQMM1CIOU0HZYXDXL","","","<img src=""img/flower2.png"" style=""width:200px; border:14px solid green;"">","null","","","","","",""
"978.2999999970198","","image-keyboard-response","311","349949","0.0-311.0","3SPJ033422PFDSEISVPXZPYRA04JY0","ABX5OQLR6UNBC","3S829FDFT2NBOHQMM1CIOU0HZYXDXL","","","img/flower3.png","74","979.4000000059605","1","1","3","0.8,0.2,0.2,0.2,0.8,0.2,0.2,0.2,0.8",""
"null","","html-keyboard-response","312","350254","0.0-312.0","3SPJ033422PFDSEISVPXZPYRA04JY0","ABX5OQLR6UNBC","3S829FDFT2NBOHQMM1CIOU0HZYXDXL","","","<img src=""img/flower3.png"" style=""width:200px; border:14px solid green;"">","null","","","","","",""
"1238.5","","image-keyboard-response","313","351494","0.0-313.0","3SPJ033422PFDSEISVPXZPYRA04JY0","ABX5OQLR6UNBC","3S829FDFT2NBOHQMM1CIOU0HZYXDXL","","","img/flower1.png","75","1239.7999999970198","2","0","1","0.8,0.2,0.2,0.2,0.8,0.2,0.2,0.2,0.8",""
"null","","html-keyboard-response","314","351809","0.0-314.0","3SPJ033422PFDSEISVPXZPYRA04JY0","ABX5OQLR6UNBC","3S829FDFT2NBOHQMM1CIOU0HZYXDXL","","","<img src=""img/flower1.png"" style=""width:200px;border:14px solid red;"">","null","","","","","",""
"1059.1000000014901","","image-keyboard-response","315","352870","0.0-315.0","3SPJ033422PFDSEISVPXZPYRA04JY0","ABX5OQLR6UNBC","3S829FDFT2NBOHQMM1CIOU0HZYXDXL","","","img/flower3.png","76","1060.5","3","1","3","0.8,0.2,0.2,0.2,0.8,0.2,0.2,0.2,0.8",""
"null","","html-keyboard-response","316","353173","0.0-316.0","3SPJ033422PFDSEISVPXZPYRA04JY0","ABX5OQLR6UNBC","3S829FDFT2NBOHQMM1CIOU0HZYXDXL","","","<img src=""img/flower3.png"" style=""width:200px; border:14px solid green;"">","null","","","","","",""
"599","","image-keyboard-response","317","353774","0.0-317.0","3SPJ033422PFDSEISVPXZPYRA04JY0","ABX5OQLR6UNBC","3S829FDFT2NBOHQMM1CIOU0HZYXDXL","","","img/flower3.png","76","600.3999999985099","3","1","3","0.8,0.2,0.2,0.2,0.8,0.2,0.2,0.2,0.8",""
"null","","html-keyboard-response","318","354087","0.0-318.0","3SPJ033422PFDSEISVPXZPYRA04JY0","ABX5OQLR6UNBC","3S829FDFT2NBOHQMM1CIOU0HZYXDXL","","","<img src=""img/flower3.png"" style=""width:200px; border:14px solid green;"">","null","","","","","",""
"693","","image-keyboard-response","319","354782","0.0-319.0","3SPJ033422PFDSEISVPXZPYRA04JY0","ABX5OQLR6UNBC","3S829FDFT2NBOHQMM1CIOU0HZYXDXL","","","img/flower2.png","74","694.5","1","0","2","0.8,0.2,0.2,0.2,0.8,0.2,0.2,0.2,0.8",""
"null","","html-keyboard-response","320","355087","0.0-320.0","3SPJ033422PFDSEISVPXZPYRA04JY0","ABX5OQLR6UNBC","3S829FDFT2NBOHQMM1CIOU0HZYXDXL","","","<img src=""img/flower2.png"" style=""width:200px;border:14px solid red;"">","null","","","","","",""
"493.19999999552965","","image-keyboard-response","321","355582","0.0-321.0","3SPJ033422PFDSEISVPXZPYRA04JY0","ABX5OQLR6UNBC","3S829FDFT2NBOHQMM1CIOU0HZYXDXL","","","img/flower2.png","74","494.40000000596046","1","0","2","0.8,0.2,0.2,0.2,0.8,0.2,0.2,0.2,0.8",""
"null","","html-keyboard-response","322","355887","0.0-322.0","3SPJ033422PFDSEISVPXZPYRA04JY0","ABX5OQLR6UNBC","3S829FDFT2NBOHQMM1CIOU0HZYXDXL","","","<img src=""img/flower2.png"" style=""width:200px;border:14px solid red;"">","null","","","","","",""
"516.5","","image-keyboard-response","323","356405","0.0-323.0","3SPJ033422PFDSEISVPXZPYRA04JY0","ABX5OQLR6UNBC","3S829FDFT2NBOHQMM1CIOU0HZYXDXL","","","img/flower2.png","74","517.6999999955297","1","1","2","0.8,0.2,0.2,0.2,0.8,0.2,0.2,0.2,0.8",""
"null","","html-keyboard-response","324","356710","0.0-324.0","3SPJ033422PFDSEISVPXZPYRA04JY0","ABX5OQLR6UNBC","3S829FDFT2NBOHQMM1CIOU0HZYXDXL","","","<img src=""img/flower2.png"" style=""width:200px; border:14px solid green;"">","null","","","","","",""
"1157.6999999955297","","image-keyboard-response","325","357870","0.0-325.0","3SPJ033422PFDSEISVPXZPYRA04JY0","ABX5OQLR6UNBC","3S829FDFT2NBOHQMM1CIOU0HZYXDXL","","","img/flower3.png","75","1159.0999999940395","2","0","3","0.8,0.2,0.2,0.2,0.8,0.2,0.2,0.2,0.8",""
"null","","html-keyboard-response","326","358173","0.0-326.0","3SPJ033422PFDSEISVPXZPYRA04JY0","ABX5OQLR6UNBC","3S829FDFT2NBOHQMM1CIOU0HZYXDXL","","","<img src=""img/flower3.png"" style=""width:200px;border:14px solid red;"">","null","","","","","",""
"1510.8999999985099","","image-keyboard-response","327","359686","0.0-327.0","3SPJ033422PFDSEISVPXZPYRA04JY0","ABX5OQLR6UNBC","3S829FDFT2NBOHQMM1CIOU0HZYXDXL","","","img/flower1.png","74","1512.2999999970198","1","1","1","0.8,0.2,0.2,0.2,0.8,0.2,0.2,0.2,0.8",""
"null","","html-keyboard-response","328","359988","0.0-328.0","3SPJ033422PFDSEISVPXZPYRA04JY0","ABX5OQLR6UNBC","3S829FDFT2NBOHQMM1CIOU0HZYXDXL","","","<img src=""img/flower1.png"" style=""width:200px; border:14px solid green;"">","null","","","","","",""
"943.6999999955297","","image-keyboard-response","329","360934","0.0-329.0","3SPJ033422PFDSEISVPXZPYRA04JY0","ABX5OQLR6UNBC","3S829FDFT2NBOHQMM1CIOU0HZYXDXL","","","img/flower2.png","75","945.0999999940395","2","1","2","0.8,0.2,0.2,0.2,0.8,0.2,0.2,0.2,0.8",""
"null","","html-keyboard-response","330","361239","0.0-330.0","3SPJ033422PFDSEISVPXZPYRA04JY0","ABX5OQLR6UNBC","3S829FDFT2NBOHQMM1CIOU0HZYXDXL","","","<img src=""img/flower2.png"" style=""width:200px; border:14px solid green;"">","null","","","","","",""
"1164.6000000014901","","image-keyboard-response","331","362405","0.0-331.0","3SPJ033422PFDSEISVPXZPYRA04JY0","ABX5OQLR6UNBC","3S829FDFT2NBOHQMM1CIOU0HZYXDXL","","","img/flower1.png","74","1165.8000000044703","1","0","1","0.8,0.2,0.2,0.2,0.8,0.2,0.2,0.2,0.8",""
"null","","html-keyboard-response","332","362721","0.0-332.0","3SPJ033422PFDSEISVPXZPYRA04JY0","ABX5OQLR6UNBC","3S829FDFT2NBOHQMM1CIOU0HZYXDXL","","","<img src=""img/flower1.png"" style=""width:200px;border:14px solid red;"">","null","","","","","",""
"531.6999999955297","","image-keyboard-response","333","363254","0.0-333.0","3SPJ033422PFDSEISVPXZPYRA04JY0","ABX5OQLR6UNBC","3S829FDFT2NBOHQMM1CIOU0HZYXDXL","","","img/flower1.png","76","533.1000000014901","3","0","1","0.8,0.2,0.2,0.2,0.8,0.2,0.2,0.2,0.8",""
"null","","html-keyboard-response","334","363556","0.0-334.0","3SPJ033422PFDSEISVPXZPYRA04JY0","ABX5OQLR6UNBC","3S829FDFT2NBOHQMM1CIOU0HZYXDXL","","","<img src=""img/flower1.png"" style=""width:200px;border:14px solid red;"">","null","","","","","",""
"951.7999999970198","","image-keyboard-response","335","364510","0.0-335.0","3SPJ033422PFDSEISVPXZPYRA04JY0","ABX5OQLR6UNBC","3S829FDFT2NBOHQMM1CIOU0HZYXDXL","","","img/flower2.png","75","953.0999999940395","2","1","2","0.8,0.2,0.2,0.2,0.8,0.2,0.2,0.2,0.8",""
"null","","html-keyboard-response","336","364821","0.0-336.0","3SPJ033422PFDSEISVPXZPYRA04JY0","ABX5OQLR6UNBC","3S829FDFT2NBOHQMM1CIOU0HZYXDXL","","","<img src=""img/flower2.png"" style=""width:200px; border:14px solid green;"">","null","","","","","",""
"1039.1999999955297","","image-keyboard-response","337","365862","0.0-337.0","3SPJ033422PFDSEISVPXZPYRA04JY0","ABX5OQLR6UNBC","3S829FDFT2NBOHQMM1CIOU0HZYXDXL","","","img/flower1.png","74","1040.6999999955297","1","0","1","0.8,0.2,0.2,0.2,0.8,0.2,0.2,0.2,0.8",""
"null","","html-keyboard-response","338","366171","0.0-338.0","3SPJ033422PFDSEISVPXZPYRA04JY0","ABX5OQLR6UNBC","3S829FDFT2NBOHQMM1CIOU0HZYXDXL","","","<img src=""img/flower1.png"" style=""width:200px;border:14px solid red;"">","null","","","","","",""
"1113.4000000059605","","image-keyboard-response","339","367286","0.0-339.0","3SPJ033422PFDSEISVPXZPYRA04JY0","ABX5OQLR6UNBC","3S829FDFT2NBOHQMM1CIOU0HZYXDXL","","","img/flower3.png","74","1114.8000000044703","1","0","3","0.8,0.2,0.2,0.2,0.8,0.2,0.2,0.2,0.8",""
"null","","html-keyboard-response","340","367604","0.0-340.0","3SPJ033422PFDSEISVPXZPYRA04JY0","ABX5OQLR6UNBC","3S829FDFT2NBOHQMM1CIOU0HZYXDXL","","","<img src=""img/flower3.png"" style=""width:200px;border:14px solid red;"">","null","","","","","",""
"976.5999999940395","","image-keyboard-response","341","368582","0.0-341.0","3SPJ033422PFDSEISVPXZPYRA04JY0","ABX5OQLR6UNBC","3S829FDFT2NBOHQMM1CIOU0HZYXDXL","","","img/flower2.png","75","977.6999999955297","2","1","2","0.8,0.2,0.2,0.2,0.8,0.2,0.2,0.2,0.8",""
"null","","html-keyboard-response","342","368887","0.0-342.0","3SPJ033422PFDSEISVPXZPYRA04JY0","ABX5OQLR6UNBC","3S829FDFT2NBOHQMM1CIOU0HZYXDXL","","","<img src=""img/flower2.png"" style=""width:200px; border:14px solid green;"">","null","","","","","",""
"604.7999999970198","","image-keyboard-response","343","369494","0.0-343.0","3SPJ033422PFDSEISVPXZPYRA04JY0","ABX5OQLR6UNBC","3S829FDFT2NBOHQMM1CIOU0HZYXDXL","","","img/flower2.png","75","606.1999999955297","2","1","2","0.8,0.2,0.2,0.2,0.8,0.2,0.2,0.2,0.8",""
"null","","html-keyboard-response","344","369808","0.0-344.0","3SPJ033422PFDSEISVPXZPYRA04JY0","ABX5OQLR6UNBC","3S829FDFT2NBOHQMM1CIOU0HZYXDXL","","","<img src=""img/flower2.png"" style=""width:200px; border:14px solid green;"">","null","","","","","",""
"1059.7000000029802","","image-keyboard-response","345","370869","0.0-345.0","3SPJ033422PFDSEISVPXZPYRA04JY0","ABX5OQLR6UNBC","3S829FDFT2NBOHQMM1CIOU0HZYXDXL","","","img/flower3.png","75","1060.4000000059605","2","0","3","0.8,0.2,0.2,0.2,0.8,0.2,0.2,0.2,0.8",""
"null","","html-keyboard-response","346","371171","0.0-346.0","3SPJ033422PFDSEISVPXZPYRA04JY0","ABX5OQLR6UNBC","3S829FDFT2NBOHQMM1CIOU0HZYXDXL","","","<img src=""img/flower3.png"" style=""width:200px;border:14px solid red;"">","null","","","","","",""
"1049.2999999970198","","image-keyboard-response","347","372222","0.0-347.0","3SPJ033422PFDSEISVPXZPYRA04JY0","ABX5OQLR6UNBC","3S829FDFT2NBOHQMM1CIOU0HZYXDXL","","","img/flower2.png","75","1050.6999999955297","2","1","2","0.8,0.2,0.2,0.2,0.8,0.2,0.2,0.2,0.8",""
"null","","html-keyboard-response","348","372538","0.0-348.0","3SPJ033422PFDSEISVPXZPYRA04JY0","ABX5OQLR6UNBC","3S829FDFT2NBOHQMM1CIOU0HZYXDXL","","","<img src=""img/flower2.png"" style=""width:200px; border:14px solid green;"">","null","","","","","",""
"467.1000000014901","","image-keyboard-response","349","373006","0.0-349.0","3SPJ033422PFDSEISVPXZPYRA04JY0","ABX5OQLR6UNBC","3S829FDFT2NBOHQMM1CIOU0HZYXDXL","","","img/flower2.png","75","467.8999999985099","2","1","2","0.8,0.2,0.2,0.2,0.8,0.2,0.2,0.2,0.8",""
"null","","html-keyboard-response","350","373322","0.0-350.0","3SPJ033422PFDSEISVPXZPYRA04JY0","ABX5OQLR6UNBC","3S829FDFT2NBOHQMM1CIOU0HZYXDXL","","","<img src=""img/flower2.png"" style=""width:200px; border:14px solid green;"">","null","","","","","",""
"914.6000000014901","","image-keyboard-response","351","374238","0.0-351.0","3SPJ033422PFDSEISVPXZPYRA04JY0","ABX5OQLR6UNBC","3S829FDFT2NBOHQMM1CIOU0HZYXDXL","","","img/flower1.png","76","916.1000000014901","3","0","1","0.8,0.2,0.2,0.2,0.8,0.2,0.2,0.2,0.8",""
"null","","html-keyboard-response","352","374545","0.0-352.0","3SPJ033422PFDSEISVPXZPYRA04JY0","ABX5OQLR6UNBC","3S829FDFT2NBOHQMM1CIOU0HZYXDXL","","","<img src=""img/flower1.png"" style=""width:200px;border:14px solid red;"">","null","","","","","",""
"834.7999999970198","","image-keyboard-response","353","375382","0.0-353.0","3SPJ033422PFDSEISVPXZPYRA04JY0","ABX5OQLR6UNBC","3S829FDFT2NBOHQMM1CIOU0HZYXDXL","","","img/flower3.png","75","836","2","0","3","0.8,0.2,0.2,0.2,0.8,0.2,0.2,0.2,0.8",""
"null","","html-keyboard-response","354","375685","0.0-354.0","3SPJ033422PFDSEISVPXZPYRA04JY0","ABX5OQLR6UNBC","3S829FDFT2NBOHQMM1CIOU0HZYXDXL","","","<img src=""img/flower3.png"" style=""width:200px;border:14px solid red;"">","null","","","","","",""
"703.5","","image-keyboard-response","355","376389","0.0-355.0","3SPJ033422PFDSEISVPXZPYRA04JY0","ABX5OQLR6UNBC","3S829FDFT2NBOHQMM1CIOU0HZYXDXL","","","img/flower2.png","75","703.9000000059605","2","1","2","0.8,0.2,0.2,0.2,0.8,0.2,0.2,0.2,0.8",""
"null","","html-keyboard-response","356","376704","0.0-356.0","3SPJ033422PFDSEISVPXZPYRA04JY0","ABX5OQLR6UNBC","3S829FDFT2NBOHQMM1CIOU0HZYXDXL","","","<img src=""img/flower2.png"" style=""width:200px; border:14px solid green;"">","null","","","","","",""
"515.5","","image-keyboard-response","357","377222","0.0-357.0","3SPJ033422PFDSEISVPXZPYRA04JY0","ABX5OQLR6UNBC","3S829FDFT2NBOHQMM1CIOU0HZYXDXL","","","img/flower1.png","74","517","1","1","1","0.8,0.2,0.2,0.2,0.8,0.2,0.2,0.2,0.8",""
"null","","html-keyboard-response","358","377538","0.0-358.0","3SPJ033422PFDSEISVPXZPYRA04JY0","ABX5OQLR6UNBC","3S829FDFT2NBOHQMM1CIOU0HZYXDXL","","","<img src=""img/flower1.png"" style=""width:200px; border:14px solid green;"">","null","","","","","",""
"562.6999999955297","","image-keyboard-response","359","378102","0.0-359.0","3SPJ033422PFDSEISVPXZPYRA04JY0","ABX5OQLR6UNBC","3S829FDFT2NBOHQMM1CIOU0HZYXDXL","","","img/flower1.png","74","564","1","0","1","0.8,0.2,0.2,0.2,0.8,0.2,0.2,0.2,0.8",""
"null","","html-keyboard-response","360","378405","0.0-360.0","3SPJ033422PFDSEISVPXZPYRA04JY0","ABX5OQLR6UNBC","3S829FDFT2NBOHQMM1CIOU0HZYXDXL","","","<img src=""img/flower1.png"" style=""width:200px;border:14px solid red;"">","null","","","","","",""
"599.6999999955297","","image-keyboard-response","361","379006","0.0-361.0","3SPJ033422PFDSEISVPXZPYRA04JY0","ABX5OQLR6UNBC","3S829FDFT2NBOHQMM1CIOU0HZYXDXL","","","img/flower2.png","75","600.6000000014901","2","1","2","0.8,0.2,0.2,0.2,0.8,0.2,0.2,0.2,0.8",""
"null","","html-keyboard-response","362","379321","0.0-362.0","3SPJ033422PFDSEISVPXZPYRA04JY0","ABX5OQLR6UNBC","3S829FDFT2NBOHQMM1CIOU0HZYXDXL","","","<img src=""img/flower2.png"" style=""width:200px; border:14px solid green;"">","null","","","","","",""
"1147.6000000014901","","image-keyboard-response","363","380471","0.0-363.0","3SPJ033422PFDSEISVPXZPYRA04JY0","ABX5OQLR6UNBC","3S829FDFT2NBOHQMM1CIOU0HZYXDXL","","","img/flower3.png","76","1149.1000000014901","3","1","3","0.8,0.2,0.2,0.2,0.8,0.2,0.2,0.2,0.8",""
"null","","html-keyboard-response","364","380777","0.0-364.0","3SPJ033422PFDSEISVPXZPYRA04JY0","ABX5OQLR6UNBC","3S829FDFT2NBOHQMM1CIOU0HZYXDXL","","","<img src=""img/flower3.png"" style=""width:200px; border:14px solid green;"">","null","","","","","",""
"1027.1999999955297","","image-keyboard-response","365","381806","0.0-365.0","3SPJ033422PFDSEISVPXZPYRA04JY0","ABX5OQLR6UNBC","3S829FDFT2NBOHQMM1CIOU0HZYXDXL","","","img/flower2.png","75","1028.6999999955297","2","0","2","0.8,0.2,0.2,0.2,0.8,0.2,0.2,0.2,0.8",""
"null","","html-keyboard-response","366","382122","0.0-366.0","3SPJ033422PFDSEISVPXZPYRA04JY0","ABX5OQLR6UNBC","3S829FDFT2NBOHQMM1CIOU0HZYXDXL","","","<img src=""img/flower2.png"" style=""width:200px;border:14px solid red;"">","null","","","","","",""
"450.29999999701977","","image-keyboard-response","367","382574","0.0-367.0","3SPJ033422PFDSEISVPXZPYRA04JY0","ABX5OQLR6UNBC","3S829FDFT2NBOHQMM1CIOU0HZYXDXL","","","img/flower2.png","75","451.79999999701977","2","1","2","0.8,0.2,0.2,0.2,0.8,0.2,0.2,0.2,0.8",""
"null","","html-keyboard-response","368","382889","0.0-368.0","3SPJ033422PFDSEISVPXZPYRA04JY0","ABX5OQLR6UNBC","3S829FDFT2NBOHQMM1CIOU0HZYXDXL","","","<img src=""img/flower2.png"" style=""width:200px; border:14px solid green;"">","null","","","","","",""
"810.8999999985099","","image-keyboard-response","369","383702","0.0-369.0","3SPJ033422PFDSEISVPXZPYRA04JY0","ABX5OQLR6UNBC","3S829FDFT2NBOHQMM1CIOU0HZYXDXL","","","img/flower3.png","74","812.2999999970198","1","1","3","0.8,0.2,0.2,0.2,0.8,0.2,0.2,0.2,0.8",""
"null","","html-keyboard-response","370","384006","0.0-370.0","3SPJ033422PFDSEISVPXZPYRA04JY0","ABX5OQLR6UNBC","3S829FDFT2NBOHQMM1CIOU0HZYXDXL","","","<img src=""img/flower3.png"" style=""width:200px; border:14px solid green;"">","null","","","","","",""
"965.8999999985099","","image-keyboard-response","371","384974","0.0-371.0","3SPJ033422PFDSEISVPXZPYRA04JY0","ABX5OQLR6UNBC","3S829FDFT2NBOHQMM1CIOU0HZYXDXL","","","img/flower2.png","75","967.1999999955297","2","1","2","0.8,0.2,0.2,0.2,0.8,0.2,0.2,0.2,0.8",""
"null","","html-keyboard-response","372","385289","0.0-372.0","3SPJ033422PFDSEISVPXZPYRA04JY0","ABX5OQLR6UNBC","3S829FDFT2NBOHQMM1CIOU0HZYXDXL","","","<img src=""img/flower2.png"" style=""width:200px; border:14px solid green;"">","null","","","","","",""
"427.29999999701977","","image-keyboard-response","373","385718","0.0-373.0","3SPJ033422PFDSEISVPXZPYRA04JY0","ABX5OQLR6UNBC","3S829FDFT2NBOHQMM1CIOU0HZYXDXL","","","img/flower2.png","75","428.8999999985099","2","1","2","0.8,0.2,0.2,0.2,0.8,0.2,0.2,0.2,0.8",""
"null","","html-keyboard-response","374","386023","0.0-374.0","3SPJ033422PFDSEISVPXZPYRA04JY0","ABX5OQLR6UNBC","3S829FDFT2NBOHQMM1CIOU0HZYXDXL","","","<img src=""img/flower2.png"" style=""width:200px; border:14px solid green;"">","null","","","","","",""
"444.70000000298023","","image-keyboard-response","375","386469","0.0-375.0","3SPJ033422PFDSEISVPXZPYRA04JY0","ABX5OQLR6UNBC","3S829FDFT2NBOHQMM1CIOU0HZYXDXL","","","img/flower2.png","75","445.79999999701977","2","1","2","0.8,0.2,0.2,0.2,0.8,0.2,0.2,0.2,0.8",""
"null","","html-keyboard-response","376","386771","0.0-376.0","3SPJ033422PFDSEISVPXZPYRA04JY0","ABX5OQLR6UNBC","3S829FDFT2NBOHQMM1CIOU0HZYXDXL","","","<img src=""img/flower2.png"" style=""width:200px; border:14px solid green;"">","null","","","","","",""
"1024.3999999985099","","image-keyboard-response","377","387797","0.0-377.0","3SPJ033422PFDSEISVPXZPYRA04JY0","ABX5OQLR6UNBC","3S829FDFT2NBOHQMM1CIOU0HZYXDXL","","","img/flower1.png","76","1025.7999999970198","3","0","1","0.8,0.2,0.2,0.2,0.8,0.2,0.2,0.2,0.8",""
"null","","html-keyboard-response","378","388105","0.0-378.0","3SPJ033422PFDSEISVPXZPYRA04JY0","ABX5OQLR6UNBC","3S829FDFT2NBOHQMM1CIOU0HZYXDXL","","","<img src=""img/flower1.png"" style=""width:200px;border:14px solid red;"">","null","","","","","",""
"803.7000000029802","","image-keyboard-response","379","388910","0.0-379.0","3SPJ033422PFDSEISVPXZPYRA04JY0","ABX5OQLR6UNBC","3S829FDFT2NBOHQMM1CIOU0HZYXDXL","","","img/flower3.png","75","805.2000000029802","2","1","3","0.8,0.2,0.2,0.2,0.8,0.2,0.2,0.2,0.8",""
"null","","html-keyboard-response","380","389222","0.0-380.0","3SPJ033422PFDSEISVPXZPYRA04JY0","ABX5OQLR6UNBC","3S829FDFT2NBOHQMM1CIOU0HZYXDXL","","","<img src=""img/flower3.png"" style=""width:200px; border:14px solid green;"">","null","","","","","",""
"430.1000000014901","","image-keyboard-response","381","389654","0.0-381.0","3SPJ033422PFDSEISVPXZPYRA04JY0","ABX5OQLR6UNBC","3S829FDFT2NBOHQMM1CIOU0HZYXDXL","","","img/flower3.png","75","431.6000000014901","2","0","3","0.8,0.2,0.2,0.2,0.8,0.2,0.2,0.2,0.8",""
"null","","html-keyboard-response","382","389972","0.0-382.0","3SPJ033422PFDSEISVPXZPYRA04JY0","ABX5OQLR6UNBC","3S829FDFT2NBOHQMM1CIOU0HZYXDXL","","","<img src=""img/flower3.png"" style=""width:200px;border:14px solid red;"">","null","","","","","",""
"632.7000000029802","","image-keyboard-response","383","390605","0.0-383.0","3SPJ033422PFDSEISVPXZPYRA04JY0","ABX5OQLR6UNBC","3S829FDFT2NBOHQMM1CIOU0HZYXDXL","","","img/flower2.png","75","633","2","0","2","0.8,0.2,0.2,0.2,0.8,0.2,0.2,0.2,0.8",""
"null","","html-keyboard-response","384","390907","0.0-384.0","3SPJ033422PFDSEISVPXZPYRA04JY0","ABX5OQLR6UNBC","3S829FDFT2NBOHQMM1CIOU0HZYXDXL","","","<img src=""img/flower2.png"" style=""width:200px;border:14px solid red;"">","null","","","","","",""
"816.5999999940395","","image-keyboard-response","385","391726","0.0-385.0","3SPJ033422PFDSEISVPXZPYRA04JY0","ABX5OQLR6UNBC","3S829FDFT2NBOHQMM1CIOU0HZYXDXL","","","img/flower1.png","74","818.1000000014901","1","1","1","0.8,0.2,0.2,0.2,0.8,0.2,0.2,0.2,0.8",""
"null","","html-keyboard-response","386","392038","0.0-386.0","3SPJ033422PFDSEISVPXZPYRA04JY0","ABX5OQLR6UNBC","3S829FDFT2NBOHQMM1CIOU0HZYXDXL","","","<img src=""img/flower1.png"" style=""width:200px; border:14px solid green;"">","null","","","","","",""
"684.8999999985099","","image-keyboard-response","387","392725","0.0-387.0","3SPJ033422PFDSEISVPXZPYRA04JY0","ABX5OQLR6UNBC","3S829FDFT2NBOHQMM1CIOU0HZYXDXL","","","img/flower3.png","74","686","1","0","3","0.8,0.2,0.2,0.2,0.8,0.2,0.2,0.2,0.8",""
"null","","html-keyboard-response","388","393041","0.0-388.0","3SPJ033422PFDSEISVPXZPYRA04JY0","ABX5OQLR6UNBC","3S829FDFT2NBOHQMM1CIOU0HZYXDXL","","","<img src=""img/flower3.png"" style=""width:200px;border:14px solid red;"">","null","","","","","",""
"651.8999999985099","","image-keyboard-response","389","393694","0.0-389.0","3SPJ033422PFDSEISVPXZPYRA04JY0","ABX5OQLR6UNBC","3S829FDFT2NBOHQMM1CIOU0HZYXDXL","","","img/flower1.png","75","652.7999999970198","2","0","1","0.8,0.2,0.2,0.2,0.8,0.2,0.2,0.2,0.8",""
"null","","html-keyboard-response","390","394005","0.0-390.0","3SPJ033422PFDSEISVPXZPYRA04JY0","ABX5OQLR6UNBC","3S829FDFT2NBOHQMM1CIOU0HZYXDXL","","","<img src=""img/flower1.png"" style=""width:200px;border:14px solid red;"">","null","","","","","",""
"1575.3999999985099","","image-keyboard-response","391","395582","0.0-391.0","3SPJ033422PFDSEISVPXZPYRA04JY0","ABX5OQLR6UNBC","3S829FDFT2NBOHQMM1CIOU0HZYXDXL","","","img/flower2.png","75","1576.8999999985099","2","1","2","0.8,0.2,0.2,0.2,0.8,0.2,0.2,0.2,0.8",""
"null","","html-keyboard-response","392","395888","0.0-392.0","3SPJ033422PFDSEISVPXZPYRA04JY0","ABX5OQLR6UNBC","3S829FDFT2NBOHQMM1CIOU0HZYXDXL","","","<img src=""img/flower2.png"" style=""width:200px; border:14px solid green;"">","null","","","","","",""
"909.1000000014901","","image-keyboard-response","393","396798","0.0-393.0","3SPJ033422PFDSEISVPXZPYRA04JY0","ABX5OQLR6UNBC","3S829FDFT2NBOHQMM1CIOU0HZYXDXL","","","img/flower3.png","74","909.8999999985099","1","1","3","0.8,0.2,0.2,0.2,0.8,0.2,0.2,0.2,0.8",""
"null","","html-keyboard-response","394","397105","0.0-394.0","3SPJ033422PFDSEISVPXZPYRA04JY0","ABX5OQLR6UNBC","3S829FDFT2NBOHQMM1CIOU0HZYXDXL","","","<img src=""img/flower3.png"" style=""width:200px; border:14px solid green;"">","null","","","","","",""
"907.6999999955297","","image-keyboard-response","395","398014","0.0-395.0","3SPJ033422PFDSEISVPXZPYRA04JY0","ABX5OQLR6UNBC","3S829FDFT2NBOHQMM1CIOU0HZYXDXL","","","img/flower2.png","75","909.6000000014901","2","1","2","0.8,0.2,0.2,0.2,0.8,0.2,0.2,0.2,0.8",""
"null","","html-keyboard-response","396","398322","0.0-396.0","3SPJ033422PFDSEISVPXZPYRA04JY0","ABX5OQLR6UNBC","3S829FDFT2NBOHQMM1CIOU0HZYXDXL","","","<img src=""img/flower2.png"" style=""width:200px; border:14px solid green;"">","null","","","","","",""
"1009","","image-keyboard-response","397","399333","0.0-397.0","3SPJ033422PFDSEISVPXZPYRA04JY0","ABX5OQLR6UNBC","3S829FDFT2NBOHQMM1CIOU0HZYXDXL","","","img/flower1.png","74","1010","1","1","1","0.8,0.2,0.2,0.2,0.8,0.2,0.2,0.2,0.8",""
"null","","html-keyboard-response","398","399639","0.0-398.0","3SPJ033422PFDSEISVPXZPYRA04JY0","ABX5OQLR6UNBC","3S829FDFT2NBOHQMM1CIOU0HZYXDXL","","","<img src=""img/flower1.png"" style=""width:200px; border:14px solid green;"">","null","","","","","",""
"677.5","","image-keyboard-response","399","400318","0.0-399.0","3SPJ033422PFDSEISVPXZPYRA04JY0","ABX5OQLR6UNBC","3S829FDFT2NBOHQMM1CIOU0HZYXDXL","","","img/flower2.png","75","679","2","1","2","0.8,0.2,0.2,0.2,0.8,0.2,0.2,0.2,0.8",""
