"success","trial_type","trial_index","time_elapsed","internal_node_id","assignmentID","mturkID","hitID","view_history","rt","stimulus","key_press","reactionTime","a","r","s","cond","reward_cond","reward_cond_actual","reward_matrix_idx","responses"
"true","fullscreen","0","1895","0.0-0.0","3G2UL9A02E0KAD3AL358D89POC367A","ACAJFF4MF5S5X","3ECKRY5B1QIH1N6NFX1ECCW5ZDKIZQ","","","","","","","","","","","","",""
"","instructions","1","42816","0.0-1.0","3G2UL9A02E0KAD3AL358D89POC367A","ACAJFF4MF5S5X","3ECKRY5B1QIH1N6NFX1ECCW5ZDKIZQ","[{""page_index"":0,""viewing_time"":7502.29999999702},{""page_index"":1,""viewing_time"":4458.20000000298},{""page_index"":2,""viewing_time"":2080},{""page_index"":3,""viewing_time"":2313.7000000029802},{""page_index"":4,""viewing_time"":5865.69999999553},{""page_index"":5,""viewing_time"":7624.39999999851},{""page_index"":6,""viewing_time"":6031.9000000059605},{""page_index"":7,""viewing_time"":5043.5}]","40920.10000000149","","","","","","","","","","",""
"","image-keyboard-response","2","43972","0.0-2.0","3G2UL9A02E0KAD3AL358D89POC367A","ACAJFF4MF5S5X","3ECKRY5B1QIH1N6NFX1ECCW5ZDKIZQ","","1154.2999999970198","img/flower2.png","74","1155.8000000044703","1","1","2","2","1,0,0,1,1,0,1,0,1","1,0,0,1,1,0,1,0,1","1",""
"","html-keyboard-response","3","44275","0.0-3.0","3G2UL9A02E0KAD3AL358D89POC367A","ACAJFF4MF5S5X","3ECKRY5B1QIH1N6NFX1ECCW5ZDKIZQ","","null","<img src=""img/flower2.png"" style=""width:200px; border:14px solid green;"">","null","","","","","","","","",""
"","image-keyboard-response","4","44851","0.0-4.0","3G2UL9A02E0KAD3AL358D89POC367A","ACAJFF4MF5S5X","3ECKRY5B1QIH1N6NFX1ECCW5ZDKIZQ","","574.2999999970198","img/flower5.png","75","575.5","2","0","1","2","1,0,0,1,1,0,1,0,1","1,0,0,1,1,0,1,0,1","1",""
"","html-keyboard-response","5","45153","0.0-5.0","3G2UL9A02E0KAD3AL358D89POC367A","ACAJFF4MF5S5X","3ECKRY5B1QIH1N6NFX1ECCW5ZDKIZQ","","null","<img src=""img/flower5.png"" style=""width:200px;border:14px solid red;"">","null","","","","","","","","",""
"","image-keyboard-response","6","46236","0.0-6.0","3G2UL9A02E0KAD3AL358D89POC367A","ACAJFF4MF5S5X","3ECKRY5B1QIH1N6NFX1ECCW5ZDKIZQ","","1081.2000000029802","img/flower3.png","75","1082.3999999985099","2","0","3","2","1,0,0,1,1,0,1,0,1","1,0,0,1,1,0,1,0,1","1",""
"","html-keyboard-response","7","46538","0.0-7.0","3G2UL9A02E0KAD3AL358D89POC367A","ACAJFF4MF5S5X","3ECKRY5B1QIH1N6NFX1ECCW5ZDKIZQ","","null","<img src=""img/flower3.png"" style=""width:200px;border:14px solid red;"">","null","","","","","","","","",""
"","image-keyboard-response","8","47244","0.0-8.0","3G2UL9A02E0KAD3AL358D89POC367A","ACAJFF4MF5S5X","3ECKRY5B1QIH1N6NFX1ECCW5ZDKIZQ","","704.7999999970198","img/flower2.png","74","705.8999999985099","1","1","2","2","1,0,0,1,1,0,1,0,1","1,0,0,1,1,0,1,0,1","1",""
"","html-keyboard-response","9","47547","0.0-9.0","3G2UL9A02E0KAD3AL358D89POC367A","ACAJFF4MF5S5X","3ECKRY5B1QIH1N6NFX1ECCW5ZDKIZQ","","null","<img src=""img/flower2.png"" style=""width:200px; border:14px solid green;"">","null","","","","","","","","",""
"","image-keyboard-response","10","48222","0.0-10.0","3G2UL9A02E0KAD3AL358D89POC367A","ACAJFF4MF5S5X","3ECKRY5B1QIH1N6NFX1ECCW5ZDKIZQ","","674.1999999955297","img/flower3.png","76","675.5999999940395","3","1","3","2","1,0,0,1,1,0,1,0,1","1,0,0,1,1,0,1,0,1","1",""
"","html-keyboard-response","11","48525","0.0-11.0","3G2UL9A02E0KAD3AL358D89POC367A","ACAJFF4MF5S5X","3ECKRY5B1QIH1N6NFX1ECCW5ZDKIZQ","","null","<img src=""img/flower3.png"" style=""width:200px; border:14px solid green;"">","null","","","","","","","","",""
"","image-keyboard-response","12","49316","0.0-12.0","3G2UL9A02E0KAD3AL358D89POC367A","ACAJFF4MF5S5X","3ECKRY5B1QIH1N6NFX1ECCW5ZDKIZQ","","789.5","img/flower5.png","75","790.7000000029802","2","0","1","2","1,0,0,1,1,0,1,0,1","1,0,0,1,1,0,1,0,1","1",""
"","html-keyboard-response","13","49626","0.0-13.0","3G2UL9A02E0KAD3AL358D89POC367A","ACAJFF4MF5S5X","3ECKRY5B1QIH1N6NFX1ECCW5ZDKIZQ","","null","<img src=""img/flower5.png"" style=""width:200px;border:14px solid red;"">","null","","","","","","","","",""
"","image-keyboard-response","14","50387","0.0-14.0","3G2UL9A02E0KAD3AL358D89POC367A","ACAJFF4MF5S5X","3ECKRY5B1QIH1N6NFX1ECCW5ZDKIZQ","","760.1999999955297","img/flower3.png","74","761.2000000029802","1","1","3","2","1,0,0,1,1,0,1,0,1","1,0,0,1,1,0,1,0,1","1",""
"","html-keyboard-response","15","50689","0.0-15.0","3G2UL9A02E0KAD3AL358D89POC367A","ACAJFF4MF5S5X","3ECKRY5B1QIH1N6NFX1ECCW5ZDKIZQ","","null","<img src=""img/flower3.png"" style=""width:200px; border:14px solid green;"">","null","","","","","","","","",""
"","image-keyboard-response","16","51468","0.0-16.0","3G2UL9A02E0KAD3AL358D89POC367A","ACAJFF4MF5S5X","3ECKRY5B1QIH1N6NFX1ECCW5ZDKIZQ","","777","img/flower3.png","74","778.1999999955297","1","1","3","2","1,0,0,1,1,0,1,0,1","1,0,0,1,1,0,1,0,1","1",""
"","html-keyboard-response","17","51770","0.0-17.0","3G2UL9A02E0KAD3AL358D89POC367A","ACAJFF4MF5S5X","3ECKRY5B1QIH1N6NFX1ECCW5ZDKIZQ","","null","<img src=""img/flower3.png"" style=""width:200px; border:14px solid green;"">","null","","","","","","","","",""
"","image-keyboard-response","18","52171","0.0-18.0","3G2UL9A02E0KAD3AL358D89POC367A","ACAJFF4MF5S5X","3ECKRY5B1QIH1N6NFX1ECCW5ZDKIZQ","","400.1000000014901","img/flower3.png","74","401.19999999552965","1","1","3","2","1,0,0,1,1,0,1,0,1","1,0,0,1,1,0,1,0,1","1",""
"","html-keyboard-response","19","52473","0.0-19.0","3G2UL9A02E0KAD3AL358D89POC367A","ACAJFF4MF5S5X","3ECKRY5B1QIH1N6NFX1ECCW5ZDKIZQ","","null","<img src=""img/flower3.png"" style=""width:200px; border:14px solid green;"">","null","","","","","","","","",""
"","image-keyboard-response","20","53083","0.0-20.0","3G2UL9A02E0KAD3AL358D89POC367A","ACAJFF4MF5S5X","3ECKRY5B1QIH1N6NFX1ECCW5ZDKIZQ","","609.3000000044703","img/flower5.png","74","610.6000000014901","1","1","1","2","1,0,0,1,1,0,1,0,1","1,0,0,1,1,0,1,0,1","1",""
"","html-keyboard-response","21","53393","0.0-21.0","3G2UL9A02E0KAD3AL358D89POC367A","ACAJFF4MF5S5X","3ECKRY5B1QIH1N6NFX1ECCW5ZDKIZQ","","null","<img src=""img/flower5.png"" style=""width:200px; border:14px solid green;"">","null","","","","","","","","",""
"","image-keyboard-response","22","53964","0.0-22.0","3G2UL9A02E0KAD3AL358D89POC367A","ACAJFF4MF5S5X","3ECKRY5B1QIH1N6NFX1ECCW5ZDKIZQ","","568.8999999985099","img/flower3.png","74","570","1","1","3","2","1,0,0,1,1,0,1,0,1","1,0,0,1,1,0,1,0,1","1",""
"","html-keyboard-response","23","54265","0.0-23.0","3G2UL9A02E0KAD3AL358D89POC367A","ACAJFF4MF5S5X","3ECKRY5B1QIH1N6NFX1ECCW5ZDKIZQ","","null","<img src=""img/flower3.png"" style=""width:200px; border:14px solid green;"">","null","","","","","","","","",""
"","image-keyboard-response","24","56267","0.0-24.0","3G2UL9A02E0KAD3AL358D89POC367A","ACAJFF4MF5S5X","3ECKRY5B1QIH1N6NFX1ECCW5ZDKIZQ","","","img/flower3.png","","2001.2999999970198","-1","0","3","2","1,0,0,1,1,0,1,0,1","1,0,0,1,1,0,1,0,1","1",""
"","html-keyboard-response","25","56568","0.0-25.0","3G2UL9A02E0KAD3AL358D89POC367A","ACAJFF4MF5S5X","3ECKRY5B1QIH1N6NFX1ECCW5ZDKIZQ","","null","<img src=""img/flower3.png"" style=""width:200px;border:14px solid red;"">","null","","","","","","","","",""
"","image-keyboard-response","26","57123","0.0-26.0","3G2UL9A02E0KAD3AL358D89POC367A","ACAJFF4MF5S5X","3ECKRY5B1QIH1N6NFX1ECCW5ZDKIZQ","","553.8000000044703","img/flower5.png","74","554.8999999985099","1","1","1","2","1,0,0,1,1,0,1,0,1","1,0,0,1,1,0,1,0,1","1",""
"","html-keyboard-response","27","57425","0.0-27.0","3G2UL9A02E0KAD3AL358D89POC367A","ACAJFF4MF5S5X","3ECKRY5B1QIH1N6NFX1ECCW5ZDKIZQ","","null","<img src=""img/flower5.png"" style=""width:200px; border:14px solid green;"">","null","","","","","","","","",""
"","image-keyboard-response","28","57996","0.0-28.0","3G2UL9A02E0KAD3AL358D89POC367A","ACAJFF4MF5S5X","3ECKRY5B1QIH1N6NFX1ECCW5ZDKIZQ","","569.2000000029802","img/flower5.png","74","570.2999999970198","1","1","1","2","1,0,0,1,1,0,1,0,1","1,0,0,1,1,0,1,0,1","1",""
"","html-keyboard-response","29","58298","0.0-29.0","3G2UL9A02E0KAD3AL358D89POC367A","ACAJFF4MF5S5X","3ECKRY5B1QIH1N6NFX1ECCW5ZDKIZQ","","null","<img src=""img/flower5.png"" style=""width:200px; border:14px solid green;"">","null","","","","","","","","",""
"","image-keyboard-response","30","58798","0.0-30.0","3G2UL9A02E0KAD3AL358D89POC367A","ACAJFF4MF5S5X","3ECKRY5B1QIH1N6NFX1ECCW5ZDKIZQ","","499.3999999985099","img/flower3.png","74","500.40000000596046","1","1","3","2","1,0,0,1,1,0,1,0,1","1,0,0,1,1,0,1,0,1","1",""
"","html-keyboard-response","31","59100","0.0-31.0","3G2UL9A02E0KAD3AL358D89POC367A","ACAJFF4MF5S5X","3ECKRY5B1QIH1N6NFX1ECCW5ZDKIZQ","","null","<img src=""img/flower3.png"" style=""width:200px; border:14px solid green;"">","null","","","","","","","","",""
"","image-keyboard-response","32","59524","0.0-32.0","3G2UL9A02E0KAD3AL358D89POC367A","ACAJFF4MF5S5X","3ECKRY5B1QIH1N6NFX1ECCW5ZDKIZQ","","422.5","img/flower2.png","74","423.3999999985099","1","1","2","2","1,0,0,1,1,0,1,0,1","1,0,0,1,1,0,1,0,1","1",""
"","html-keyboard-response","33","59826","0.0-33.0","3G2UL9A02E0KAD3AL358D89POC367A","ACAJFF4MF5S5X","3ECKRY5B1QIH1N6NFX1ECCW5ZDKIZQ","","null","<img src=""img/flower2.png"" style=""width:200px; border:14px solid green;"">","null","","","","","","","","",""
"","image-keyboard-response","34","60252","0.0-34.0","3G2UL9A02E0KAD3AL358D89POC367A","ACAJFF4MF5S5X","3ECKRY5B1QIH1N6NFX1ECCW5ZDKIZQ","","423.70000000298023","img/flower3.png","74","424.79999999701977","1","1","3","2","1,0,0,1,1,0,1,0,1","1,0,0,1,1,0,1,0,1","1",""
"","html-keyboard-response","35","60555","0.0-35.0","3G2UL9A02E0KAD3AL358D89POC367A","ACAJFF4MF5S5X","3ECKRY5B1QIH1N6NFX1ECCW5ZDKIZQ","","null","<img src=""img/flower3.png"" style=""width:200px; border:14px solid green;"">","null","","","","","","","","",""
"","image-keyboard-response","36","61004","0.0-36.0","3G2UL9A02E0KAD3AL358D89POC367A","ACAJFF4MF5S5X","3ECKRY5B1QIH1N6NFX1ECCW5ZDKIZQ","","448.20000000298023","img/flower5.png","74","449.19999999552965","1","1","1","2","1,0,0,1,1,0,1,0,1","1,0,0,1,1,0,1,0,1","1",""
"","html-keyboard-response","37","61306","0.0-37.0","3G2UL9A02E0KAD3AL358D89POC367A","ACAJFF4MF5S5X","3ECKRY5B1QIH1N6NFX1ECCW5ZDKIZQ","","null","<img src=""img/flower5.png"" style=""width:200px; border:14px solid green;"">","null","","","","","","","","",""
"","image-keyboard-response","38","61661","0.0-38.0","3G2UL9A02E0KAD3AL358D89POC367A","ACAJFF4MF5S5X","3ECKRY5B1QIH1N6NFX1ECCW5ZDKIZQ","","353.40000000596046","img/flower5.png","74","354.5","1","1","1","2","1,0,0,1,1,0,1,0,1","1,0,0,1,1,0,1,0,1","1",""
"","html-keyboard-response","39","61963","0.0-39.0","3G2UL9A02E0KAD3AL358D89POC367A","ACAJFF4MF5S5X","3ECKRY5B1QIH1N6NFX1ECCW5ZDKIZQ","","null","<img src=""img/flower5.png"" style=""width:200px; border:14px solid green;"">","null","","","","","","","","",""
"","image-keyboard-response","40","62348","0.0-40.0","3G2UL9A02E0KAD3AL358D89POC367A","ACAJFF4MF5S5X","3ECKRY5B1QIH1N6NFX1ECCW5ZDKIZQ","","384.5","img/flower3.png","74","385.5","1","1","3","2","1,0,0,1,1,0,1,0,1","1,0,0,1,1,0,1,0,1","1",""
"","html-keyboard-response","41","62651","0.0-41.0","3G2UL9A02E0KAD3AL358D89POC367A","ACAJFF4MF5S5X","3ECKRY5B1QIH1N6NFX1ECCW5ZDKIZQ","","null","<img src=""img/flower3.png"" style=""width:200px; border:14px solid green;"">","null","","","","","","","","",""
"","image-keyboard-response","42","62956","0.0-42.0","3G2UL9A02E0KAD3AL358D89POC367A","ACAJFF4MF5S5X","3ECKRY5B1QIH1N6NFX1ECCW5ZDKIZQ","","304.3999999985099","img/flower5.png","74","305.5","1","1","1","2","1,0,0,1,1,0,1,0,1","1,0,0,1,1,0,1,0,1","1",""
"","html-keyboard-response","43","63263","0.0-43.0","3G2UL9A02E0KAD3AL358D89POC367A","ACAJFF4MF5S5X","3ECKRY5B1QIH1N6NFX1ECCW5ZDKIZQ","","null","<img src=""img/flower5.png"" style=""width:200px; border:14px solid green;"">","null","","","","","","","","",""
"","image-keyboard-response","44","63581","0.0-44.0","3G2UL9A02E0KAD3AL358D89POC367A","ACAJFF4MF5S5X","3ECKRY5B1QIH1N6NFX1ECCW5ZDKIZQ","","316.20000000298023","img/flower5.png","74","317.5","1","1","1","2","1,0,0,1,1,0,1,0,1","1,0,0,1,1,0,1,0,1","1",""
"","html-keyboard-response","45","63883","0.0-45.0","3G2UL9A02E0KAD3AL358D89POC367A","ACAJFF4MF5S5X","3ECKRY5B1QIH1N6NFX1ECCW5ZDKIZQ","","null","<img src=""img/flower5.png"" style=""width:200px; border:14px solid green;"">","null","","","","","","","","",""
"","image-keyboard-response","46","64044","0.0-46.0","3G2UL9A02E0KAD3AL358D89POC367A","ACAJFF4MF5S5X","3ECKRY5B1QIH1N6NFX1ECCW5ZDKIZQ","","160.20000000298023","img/flower5.png","74","161.29999999701977","1","1","1","2","1,0,0,1,1,0,1,0,1","1,0,0,1,1,0,1,0,1","1",""
"","html-keyboard-response","47","64346","0.0-47.0","3G2UL9A02E0KAD3AL358D89POC367A","ACAJFF4MF5S5X","3ECKRY5B1QIH1N6NFX1ECCW5ZDKIZQ","","null","<img src=""img/flower5.png"" style=""width:200px; border:14px solid green;"">","null","","","","","","","","",""
"","image-keyboard-response","48","64500","0.0-48.0","3G2UL9A02E0KAD3AL358D89POC367A","ACAJFF4MF5S5X","3ECKRY5B1QIH1N6NFX1ECCW5ZDKIZQ","","152.39999999850988","img/flower2.png","74","153.60000000149012","1","1","2","2","1,0,0,1,1,0,1,0,1","1,0,0,1,1,0,1,0,1","1",""
"","html-keyboard-response","49","64802","0.0-49.0","3G2UL9A02E0KAD3AL358D89POC367A","ACAJFF4MF5S5X","3ECKRY5B1QIH1N6NFX1ECCW5ZDKIZQ","","null","<img src=""img/flower2.png"" style=""width:200px; border:14px solid green;"">","null","","","","","","","","",""
"","image-keyboard-response","50","65020","0.0-50.0","3G2UL9A02E0KAD3AL358D89POC367A","ACAJFF4MF5S5X","3ECKRY5B1QIH1N6NFX1ECCW5ZDKIZQ","","217.20000000298023","img/flower5.png","74","218.20000000298023","1","1","1","2","1,0,0,1,1,0,1,0,1","1,0,0,1,1,0,1,0,1","1",""
"","html-keyboard-response","51","65323","0.0-51.0","3G2UL9A02E0KAD3AL358D89POC367A","ACAJFF4MF5S5X","3ECKRY5B1QIH1N6NFX1ECCW5ZDKIZQ","","null","<img src=""img/flower5.png"" style=""width:200px; border:14px solid green;"">","null","","","","","","","","",""
"","image-keyboard-response","52","65500","0.0-52.0","3G2UL9A02E0KAD3AL358D89POC367A","ACAJFF4MF5S5X","3ECKRY5B1QIH1N6NFX1ECCW5ZDKIZQ","","176.60000000149012","img/flower2.png","74","177.59999999403954","1","1","2","2","1,0,0,1,1,0,1,0,1","1,0,0,1,1,0,1,0,1","1",""
"","html-keyboard-response","53","65802","0.0-53.0","3G2UL9A02E0KAD3AL358D89POC367A","ACAJFF4MF5S5X","3ECKRY5B1QIH1N6NFX1ECCW5ZDKIZQ","","null","<img src=""img/flower2.png"" style=""width:200px; border:14px solid green;"">","null","","","","","","","","",""
"","image-keyboard-response","54","65941","0.0-54.0","3G2UL9A02E0KAD3AL358D89POC367A","ACAJFF4MF5S5X","3ECKRY5B1QIH1N6NFX1ECCW5ZDKIZQ","","137","img/flower2.png","74","138.20000000298023","1","1","2","2","1,0,0,1,1,0,1,0,1","1,0,0,1,1,0,1,0,1","1",""
"","html-keyboard-response","55","66243","0.0-55.0","3G2UL9A02E0KAD3AL358D89POC367A","ACAJFF4MF5S5X","3ECKRY5B1QIH1N6NFX1ECCW5ZDKIZQ","","null","<img src=""img/flower2.png"" style=""width:200px; border:14px solid green;"">","null","","","","","","","","",""
"","image-keyboard-response","56","66388","0.0-56.0","3G2UL9A02E0KAD3AL358D89POC367A","ACAJFF4MF5S5X","3ECKRY5B1QIH1N6NFX1ECCW5ZDKIZQ","","144.29999999701977","img/flower5.png","74","145.40000000596046","1","1","1","2","1,0,0,1,1,0,1,0,1","1,0,0,1,1,0,1,0,1","1",""
"","html-keyboard-response","57","66690","0.0-57.0","3G2UL9A02E0KAD3AL358D89POC367A","ACAJFF4MF5S5X","3ECKRY5B1QIH1N6NFX1ECCW5ZDKIZQ","","null","<img src=""img/flower5.png"" style=""width:200px; border:14px solid green;"">","null","","","","","","","","",""
"","image-keyboard-response","58","66940","0.0-58.0","3G2UL9A02E0KAD3AL358D89POC367A","ACAJFF4MF5S5X","3ECKRY5B1QIH1N6NFX1ECCW5ZDKIZQ","","248.5","img/flower3.png","74","249.39999999850988","1","1","3","2","1,0,0,1,1,0,1,0,1","1,0,0,1,1,0,1,0,1","1",""
"","html-keyboard-response","59","67242","0.0-59.0","3G2UL9A02E0KAD3AL358D89POC367A","ACAJFF4MF5S5X","3ECKRY5B1QIH1N6NFX1ECCW5ZDKIZQ","","null","<img src=""img/flower3.png"" style=""width:200px; border:14px solid green;"">","null","","","","","","","","",""
"","image-keyboard-response","60","67644","0.0-60.0","3G2UL9A02E0KAD3AL358D89POC367A","ACAJFF4MF5S5X","3ECKRY5B1QIH1N6NFX1ECCW5ZDKIZQ","","400.70000000298023","img/flower2.png","74","401.79999999701977","1","1","2","2","1,0,0,1,1,0,1,0,1","1,0,0,1,1,0,1,0,1","1",""
"","html-keyboard-response","61","67947","0.0-61.0","3G2UL9A02E0KAD3AL358D89POC367A","ACAJFF4MF5S5X","3ECKRY5B1QIH1N6NFX1ECCW5ZDKIZQ","","null","<img src=""img/flower2.png"" style=""width:200px; border:14px solid green;"">","null","","","","","","","","",""
"","image-keyboard-response","62","68211","0.0-62.0","3G2UL9A02E0KAD3AL358D89POC367A","ACAJFF4MF5S5X","3ECKRY5B1QIH1N6NFX1ECCW5ZDKIZQ","","263.30000000447035","img/flower5.png","74","264.19999999552965","1","1","1","2","1,0,0,1,1,0,1,0,1","1,0,0,1,1,0,1,0,1","1",""
"","html-keyboard-response","63","68512","0.0-63.0","3G2UL9A02E0KAD3AL358D89POC367A","ACAJFF4MF5S5X","3ECKRY5B1QIH1N6NFX1ECCW5ZDKIZQ","","null","<img src=""img/flower5.png"" style=""width:200px; border:14px solid green;"">","null","","","","","","","","",""
"","image-keyboard-response","64","68879","0.0-64.0","3G2UL9A02E0KAD3AL358D89POC367A","ACAJFF4MF5S5X","3ECKRY5B1QIH1N6NFX1ECCW5ZDKIZQ","","365.5","img/flower2.png","74","366.5","1","1","2","2","1,0,0,1,1,0,1,0,1","1,0,0,1,1,0,1,0,1","1",""
"","html-keyboard-response","65","69181","0.0-65.0","3G2UL9A02E0KAD3AL358D89POC367A","ACAJFF4MF5S5X","3ECKRY5B1QIH1N6NFX1ECCW5ZDKIZQ","","null","<img src=""img/flower2.png"" style=""width:200px; border:14px solid green;"">","null","","","","","","","","",""
"","image-keyboard-response","66","69436","0.0-66.0","3G2UL9A02E0KAD3AL358D89POC367A","ACAJFF4MF5S5X","3ECKRY5B1QIH1N6NFX1ECCW5ZDKIZQ","","253.5","img/flower2.png","74","254.5","1","1","2","2","1,0,0,1,1,0,1,0,1","1,0,0,1,1,0,1,0,1","1",""
"","html-keyboard-response","67","69739","0.0-67.0","3G2UL9A02E0KAD3AL358D89POC367A","ACAJFF4MF5S5X","3ECKRY5B1QIH1N6NFX1ECCW5ZDKIZQ","","null","<img src=""img/flower2.png"" style=""width:200px; border:14px solid green;"">","null","","","","","","","","",""
"","image-keyboard-response","68","69988","0.0-68.0","3G2UL9A02E0KAD3AL358D89POC367A","ACAJFF4MF5S5X","3ECKRY5B1QIH1N6NFX1ECCW5ZDKIZQ","","247.80000000447035","img/flower3.png","74","248.79999999701977","1","1","3","2","1,0,0,1,1,0,1,0,1","1,0,0,1,1,0,1,0,1","1",""
"","html-keyboard-response","69","70289","0.0-69.0","3G2UL9A02E0KAD3AL358D89POC367A","ACAJFF4MF5S5X","3ECKRY5B1QIH1N6NFX1ECCW5ZDKIZQ","","null","<img src=""img/flower3.png"" style=""width:200px; border:14px solid green;"">","null","","","","","","","","",""
"","image-keyboard-response","70","70676","0.0-70.0","3G2UL9A02E0KAD3AL358D89POC367A","ACAJFF4MF5S5X","3ECKRY5B1QIH1N6NFX1ECCW5ZDKIZQ","","385.30000000447035","img/flower5.png","74","386.29999999701977","1","1","1","2","1,0,0,1,1,0,1,0,1","1,0,0,1,1,0,1,0,1","1",""
"","html-keyboard-response","71","70978","0.0-71.0","3G2UL9A02E0KAD3AL358D89POC367A","ACAJFF4MF5S5X","3ECKRY5B1QIH1N6NFX1ECCW5ZDKIZQ","","null","<img src=""img/flower5.png"" style=""width:200px; border:14px solid green;"">","null","","","","","","","","",""
"","image-keyboard-response","72","71277","0.0-72.0","3G2UL9A02E0KAD3AL358D89POC367A","ACAJFF4MF5S5X","3ECKRY5B1QIH1N6NFX1ECCW5ZDKIZQ","","297.5","img/flower2.png","74","298.6000000014901","1","1","2","2","1,0,0,1,1,0,1,0,1","1,0,0,1,1,0,1,0,1","1",""
"","html-keyboard-response","73","71579","0.0-73.0","3G2UL9A02E0KAD3AL358D89POC367A","ACAJFF4MF5S5X","3ECKRY5B1QIH1N6NFX1ECCW5ZDKIZQ","","null","<img src=""img/flower2.png"" style=""width:200px; border:14px solid green;"">","null","","","","","","","","",""
"","image-keyboard-response","74","71764","0.0-74.0","3G2UL9A02E0KAD3AL358D89POC367A","ACAJFF4MF5S5X","3ECKRY5B1QIH1N6NFX1ECCW5ZDKIZQ","","184.29999999701977","img/flower3.png","74","185.30000000447035","1","1","3","2","1,0,0,1,1,0,1,0,1","1,0,0,1,1,0,1,0,1","1",""
"","html-keyboard-response","75","72066","0.0-75.0","3G2UL9A02E0KAD3AL358D89POC367A","ACAJFF4MF5S5X","3ECKRY5B1QIH1N6NFX1ECCW5ZDKIZQ","","null","<img src=""img/flower3.png"" style=""width:200px; border:14px solid green;"">","null","","","","","","","","",""
"","image-keyboard-response","76","72292","0.0-76.0","3G2UL9A02E0KAD3AL358D89POC367A","ACAJFF4MF5S5X","3ECKRY5B1QIH1N6NFX1ECCW5ZDKIZQ","","225.29999999701977","img/flower2.png","74","226.40000000596046","1","1","2","2","1,0,0,1,1,0,1,0,1","1,0,0,1,1,0,1,0,1","1",""
"","html-keyboard-response","77","72594","0.0-77.0","3G2UL9A02E0KAD3AL358D89POC367A","ACAJFF4MF5S5X","3ECKRY5B1QIH1N6NFX1ECCW5ZDKIZQ","","null","<img src=""img/flower2.png"" style=""width:200px; border:14px solid green;"">","null","","","","","","","","",""
"","image-keyboard-response","78","72764","0.0-78.0","3G2UL9A02E0KAD3AL358D89POC367A","ACAJFF4MF5S5X","3ECKRY5B1QIH1N6NFX1ECCW5ZDKIZQ","","169.29999999701977","img/flower5.png","74","170.30000000447035","1","1","1","2","1,0,0,1,1,0,1,0,1","1,0,0,1,1,0,1,0,1","1",""
"","html-keyboard-response","79","73066","0.0-79.0","3G2UL9A02E0KAD3AL358D89POC367A","ACAJFF4MF5S5X","3ECKRY5B1QIH1N6NFX1ECCW5ZDKIZQ","","null","<img src=""img/flower5.png"" style=""width:200px; border:14px solid green;"">","null","","","","","","","","",""
"","image-keyboard-response","80","73172","0.0-80.0","3G2UL9A02E0KAD3AL358D89POC367A","ACAJFF4MF5S5X","3ECKRY5B1QIH1N6NFX1ECCW5ZDKIZQ","","105","img/flower5.png","74","105.89999999850988","1","1","1","2","1,0,0,1,1,0,1,0,1","1,0,0,1,1,0,1,0,1","1",""
"","html-keyboard-response","81","73475","0.0-81.0","3G2UL9A02E0KAD3AL358D89POC367A","ACAJFF4MF5S5X","3ECKRY5B1QIH1N6NFX1ECCW5ZDKIZQ","","null","<img src=""img/flower5.png"" style=""width:200px; border:14px solid green;"">","null","","","","","","","","",""
"","image-keyboard-response","82","73708","0.0-82.0","3G2UL9A02E0KAD3AL358D89POC367A","ACAJFF4MF5S5X","3ECKRY5B1QIH1N6NFX1ECCW5ZDKIZQ","","232.29999999701977","img/flower5.png","74","233.29999999701977","1","1","1","2","1,0,0,1,1,0,1,0,1","1,0,0,1,1,0,1,0,1","1",""
"","html-keyboard-response","83","74011","0.0-83.0","3G2UL9A02E0KAD3AL358D89POC367A","ACAJFF4MF5S5X","3ECKRY5B1QIH1N6NFX1ECCW5ZDKIZQ","","null","<img src=""img/flower5.png"" style=""width:200px; border:14px solid green;"">","null","","","","","","","","",""
"","image-keyboard-response","84","74172","0.0-84.0","3G2UL9A02E0KAD3AL358D89POC367A","ACAJFF4MF5S5X","3ECKRY5B1QIH1N6NFX1ECCW5ZDKIZQ","","159.80000000447035","img/flower5.png","74","160.60000000149012","1","1","1","2","1,0,0,1,1,0,1,0,1","1,0,0,1,1,0,1,0,1","1",""
"","html-keyboard-response","85","74474","0.0-85.0","3G2UL9A02E0KAD3AL358D89POC367A","ACAJFF4MF5S5X","3ECKRY5B1QIH1N6NFX1ECCW5ZDKIZQ","","null","<img src=""img/flower5.png"" style=""width:200px; border:14px solid green;"">","null","","","","","","","","",""
"","image-keyboard-response","86","74620","0.0-86.0","3G2UL9A02E0KAD3AL358D89POC367A","ACAJFF4MF5S5X","3ECKRY5B1QIH1N6NFX1ECCW5ZDKIZQ","","145.20000000298023","img/flower2.png","74","146.20000000298023","1","1","2","2","1,0,0,1,1,0,1,0,1","1,0,0,1,1,0,1,0,1","1",""
"","html-keyboard-response","87","74922","0.0-87.0","3G2UL9A02E0KAD3AL358D89POC367A","ACAJFF4MF5S5X","3ECKRY5B1QIH1N6NFX1ECCW5ZDKIZQ","","null","<img src=""img/flower2.png"" style=""width:200px; border:14px solid green;"">","null","","","","","","","","",""
"","image-keyboard-response","88","75276","0.0-88.0","3G2UL9A02E0KAD3AL358D89POC367A","ACAJFF4MF5S5X","3ECKRY5B1QIH1N6NFX1ECCW5ZDKIZQ","","352.5","img/flower3.png","74","353.69999999552965","1","1","3","2","1,0,0,1,1,0,1,0,1","1,0,0,1,1,0,1,0,1","1",""
"","html-keyboard-response","89","75579","0.0-89.0","3G2UL9A02E0KAD3AL358D89POC367A","ACAJFF4MF5S5X","3ECKRY5B1QIH1N6NFX1ECCW5ZDKIZQ","","null","<img src=""img/flower3.png"" style=""width:200px; border:14px solid green;"">","null","","","","","","","","",""
"","image-keyboard-response","90","76988","0.0-90.0","3G2UL9A02E0KAD3AL358D89POC367A","ACAJFF4MF5S5X","3ECKRY5B1QIH1N6NFX1ECCW5ZDKIZQ","","1408.1999999955297","img/flower5.png","74","1409.2000000029802","1","1","1","2","1,0,0,1,1,0,1,0,1","1,0,0,1,1,0,1,0,1","1",""
"","html-keyboard-response","91","77290","0.0-91.0","3G2UL9A02E0KAD3AL358D89POC367A","ACAJFF4MF5S5X","3ECKRY5B1QIH1N6NFX1ECCW5ZDKIZQ","","null","<img src=""img/flower5.png"" style=""width:200px; border:14px solid green;"">","null","","","","","","","","",""
"","image-keyboard-response","92","79030","0.0-92.0","3G2UL9A02E0KAD3AL358D89POC367A","ACAJFF4MF5S5X","3ECKRY5B1QIH1N6NFX1ECCW5ZDKIZQ","","1739.2000000029802","img/flower3.png","74","1740.1999999955297","1","1","3","2","1,0,0,1,1,0,1,0,1","1,0,0,1,1,0,1,0,1","1",""
"","html-keyboard-response","93","79344","0.0-93.0","3G2UL9A02E0KAD3AL358D89POC367A","ACAJFF4MF5S5X","3ECKRY5B1QIH1N6NFX1ECCW5ZDKIZQ","","null","<img src=""img/flower3.png"" style=""width:200px; border:14px solid green;"">","null","","","","","","","","",""
"","image-keyboard-response","94","79636","0.0-94.0","3G2UL9A02E0KAD3AL358D89POC367A","ACAJFF4MF5S5X","3ECKRY5B1QIH1N6NFX1ECCW5ZDKIZQ","","291","img/flower3.png","74","292.09999999403954","1","1","3","2","1,0,0,1,1,0,1,0,1","1,0,0,1,1,0,1,0,1","1",""
"","html-keyboard-response","95","79938","0.0-95.0","3G2UL9A02E0KAD3AL358D89POC367A","ACAJFF4MF5S5X","3ECKRY5B1QIH1N6NFX1ECCW5ZDKIZQ","","null","<img src=""img/flower3.png"" style=""width:200px; border:14px solid green;"">","null","","","","","","","","",""
"","image-keyboard-response","96","80028","0.0-96.0","3G2UL9A02E0KAD3AL358D89POC367A","ACAJFF4MF5S5X","3ECKRY5B1QIH1N6NFX1ECCW5ZDKIZQ","","88.39999999850988","img/flower2.png","74","89.39999999850988","1","1","2","2","1,0,0,1,1,0,1,0,1","1,0,0,1,1,0,1,0,1","1",""
"","html-keyboard-response","97","80329","0.0-97.0","3G2UL9A02E0KAD3AL358D89POC367A","ACAJFF4MF5S5X","3ECKRY5B1QIH1N6NFX1ECCW5ZDKIZQ","","null","<img src=""img/flower2.png"" style=""width:200px; border:14px solid green;"">","null","","","","","","","","",""
"","image-keyboard-response","98","80716","0.0-98.0","3G2UL9A02E0KAD3AL358D89POC367A","ACAJFF4MF5S5X","3ECKRY5B1QIH1N6NFX1ECCW5ZDKIZQ","","385.70000000298023","img/flower3.png","74","386.6000000014901","1","1","3","2","1,0,0,1,1,0,1,0,1","1,0,0,1,1,0,1,0,1","1",""
"","html-keyboard-response","99","81017","0.0-99.0","3G2UL9A02E0KAD3AL358D89POC367A","ACAJFF4MF5S5X","3ECKRY5B1QIH1N6NFX1ECCW5ZDKIZQ","","null","<img src=""img/flower3.png"" style=""width:200px; border:14px solid green;"">","null","","","","","","","","",""
"","image-keyboard-response","100","81316","0.0-100.0","3G2UL9A02E0KAD3AL358D89POC367A","ACAJFF4MF5S5X","3ECKRY5B1QIH1N6NFX1ECCW5ZDKIZQ","","297.59999999403954","img/flower2.png","74","298.5","1","1","2","2","1,0,0,1,1,0,1,0,1","1,0,0,1,1,0,1,0,1","1",""
"","html-keyboard-response","101","81618","0.0-101.0","3G2UL9A02E0KAD3AL358D89POC367A","ACAJFF4MF5S5X","3ECKRY5B1QIH1N6NFX1ECCW5ZDKIZQ","","null","<img src=""img/flower2.png"" style=""width:200px; border:14px solid green;"">","null","","","","","","","","",""
"","image-keyboard-response","102","81836","0.0-102.0","3G2UL9A02E0KAD3AL358D89POC367A","ACAJFF4MF5S5X","3ECKRY5B1QIH1N6NFX1ECCW5ZDKIZQ","","216.79999999701977","img/flower3.png","74","217.70000000298023","1","1","3","2","1,0,0,1,1,0,1,0,1","1,0,0,1,1,0,1,0,1","1",""
"","html-keyboard-response","103","82139","0.0-103.0","3G2UL9A02E0KAD3AL358D89POC367A","ACAJFF4MF5S5X","3ECKRY5B1QIH1N6NFX1ECCW5ZDKIZQ","","null","<img src=""img/flower3.png"" style=""width:200px; border:14px solid green;"">","null","","","","","","","","",""
"","image-keyboard-response","104","82453","0.0-104.0","3G2UL9A02E0KAD3AL358D89POC367A","ACAJFF4MF5S5X","3ECKRY5B1QIH1N6NFX1ECCW5ZDKIZQ","","312.19999999552965","img/flower3.png","74","313.20000000298023","1","1","3","2","1,0,0,1,1,0,1,0,1","1,0,0,1,1,0,1,0,1","1",""
"","html-keyboard-response","105","82757","0.0-105.0","3G2UL9A02E0KAD3AL358D89POC367A","ACAJFF4MF5S5X","3ECKRY5B1QIH1N6NFX1ECCW5ZDKIZQ","","null","<img src=""img/flower3.png"" style=""width:200px; border:14px solid green;"">","null","","","","","","","","",""
"","image-keyboard-response","106","83076","0.0-106.0","3G2UL9A02E0KAD3AL358D89POC367A","ACAJFF4MF5S5X","3ECKRY5B1QIH1N6NFX1ECCW5ZDKIZQ","","317.6000000014901","img/flower5.png","74","318.6000000014901","1","1","1","2","1,0,0,1,1,0,1,0,1","1,0,0,1,1,0,1,0,1","1",""
"","html-keyboard-response","107","83379","0.0-107.0","3G2UL9A02E0KAD3AL358D89POC367A","ACAJFF4MF5S5X","3ECKRY5B1QIH1N6NFX1ECCW5ZDKIZQ","","null","<img src=""img/flower5.png"" style=""width:200px; border:14px solid green;"">","null","","","","","","","","",""
"","image-keyboard-response","108","83988","0.0-108.0","3G2UL9A02E0KAD3AL358D89POC367A","ACAJFF4MF5S5X","3ECKRY5B1QIH1N6NFX1ECCW5ZDKIZQ","","607.3999999985099","img/flower3.png","74","608.3999999985099","1","1","3","2","1,0,0,1,1,0,1,0,1","1,0,0,1,1,0,1,0,1","1",""
"","html-keyboard-response","109","84290","0.0-109.0","3G2UL9A02E0KAD3AL358D89POC367A","ACAJFF4MF5S5X","3ECKRY5B1QIH1N6NFX1ECCW5ZDKIZQ","","null","<img src=""img/flower3.png"" style=""width:200px; border:14px solid green;"">","null","","","","","","","","",""
"","image-keyboard-response","110","84677","0.0-110.0","3G2UL9A02E0KAD3AL358D89POC367A","ACAJFF4MF5S5X","3ECKRY5B1QIH1N6NFX1ECCW5ZDKIZQ","","385.29999999701977","img/flower5.png","74","386.30000000447035","1","1","1","2","1,0,0,1,1,0,1,0,1","1,0,0,1,1,0,1,0,1","1",""
"","html-keyboard-response","111","84979","0.0-111.0","3G2UL9A02E0KAD3AL358D89POC367A","ACAJFF4MF5S5X","3ECKRY5B1QIH1N6NFX1ECCW5ZDKIZQ","","null","<img src=""img/flower5.png"" style=""width:200px; border:14px solid green;"">","null","","","","","","","","",""
"","image-keyboard-response","112","85636","0.0-112.0","3G2UL9A02E0KAD3AL358D89POC367A","ACAJFF4MF5S5X","3ECKRY5B1QIH1N6NFX1ECCW5ZDKIZQ","","656.2000000029802","img/flower2.png","74","657.3999999985099","1","1","2","2","1,0,0,1,1,0,1,0,1","1,0,0,1,1,0,1,0,1","1",""
"","html-keyboard-response","113","85938","0.0-113.0","3G2UL9A02E0KAD3AL358D89POC367A","ACAJFF4MF5S5X","3ECKRY5B1QIH1N6NFX1ECCW5ZDKIZQ","","null","<img src=""img/flower2.png"" style=""width:200px; border:14px solid green;"">","null","","","","","","","","",""
"","image-keyboard-response","114","86220","0.0-114.0","3G2UL9A02E0KAD3AL358D89POC367A","ACAJFF4MF5S5X","3ECKRY5B1QIH1N6NFX1ECCW5ZDKIZQ","","280.79999999701977","img/flower3.png","74","281.90000000596046","1","1","3","2","1,0,0,1,1,0,1,0,1","1,0,0,1,1,0,1,0,1","1",""
"","html-keyboard-response","115","86523","0.0-115.0","3G2UL9A02E0KAD3AL358D89POC367A","ACAJFF4MF5S5X","3ECKRY5B1QIH1N6NFX1ECCW5ZDKIZQ","","null","<img src=""img/flower3.png"" style=""width:200px; border:14px solid green;"">","null","","","","","","","","",""
"","image-keyboard-response","116","87284","0.0-116.0","3G2UL9A02E0KAD3AL358D89POC367A","ACAJFF4MF5S5X","3ECKRY5B1QIH1N6NFX1ECCW5ZDKIZQ","","759.9000000059605","img/flower2.png","74","760.8999999985099","1","1","2","2","1,0,0,1,1,0,1,0,1","1,0,0,1,1,0,1,0,1","1",""
"","html-keyboard-response","117","87587","0.0-117.0","3G2UL9A02E0KAD3AL358D89POC367A","ACAJFF4MF5S5X","3ECKRY5B1QIH1N6NFX1ECCW5ZDKIZQ","","null","<img src=""img/flower2.png"" style=""width:200px; border:14px solid green;"">","null","","","","","","","","",""
"","image-keyboard-response","118","88860","0.0-118.0","3G2UL9A02E0KAD3AL358D89POC367A","ACAJFF4MF5S5X","3ECKRY5B1QIH1N6NFX1ECCW5ZDKIZQ","","1272.2000000029802","img/flower2.png","74","1273.1999999955297","1","1","2","2","1,0,0,1,1,0,1,0,1","1,0,0,1,1,0,1,0,1","1",""
"","html-keyboard-response","119","89162","0.0-119.0","3G2UL9A02E0KAD3AL358D89POC367A","ACAJFF4MF5S5X","3ECKRY5B1QIH1N6NFX1ECCW5ZDKIZQ","","null","<img src=""img/flower2.png"" style=""width:200px; border:14px solid green;"">","null","","","","","","","","",""
"","image-keyboard-response","120","89423","0.0-120.0","3G2UL9A02E0KAD3AL358D89POC367A","ACAJFF4MF5S5X","3ECKRY5B1QIH1N6NFX1ECCW5ZDKIZQ","","259.1000000014901","img/flower3.png","74","260.19999999552965","1","1","3","2","1,0,0,1,1,0,1,0,1","1,0,0,1,1,0,1,0,1","1",""
"","html-keyboard-response","121","89725","0.0-121.0","3G2UL9A02E0KAD3AL358D89POC367A","ACAJFF4MF5S5X","3ECKRY5B1QIH1N6NFX1ECCW5ZDKIZQ","","null","<img src=""img/flower3.png"" style=""width:200px; border:14px solid green;"">","null","","","","","","","","",""
"","image-keyboard-response","122","90692","0.0-122.0","3G2UL9A02E0KAD3AL358D89POC367A","ACAJFF4MF5S5X","3ECKRY5B1QIH1N6NFX1ECCW5ZDKIZQ","","965.9000000059605","img/flower3.png","74","967","1","1","3","2","1,0,0,1,1,0,1,0,1","1,0,0,1,1,0,1,0,1","1",""
"","html-keyboard-response","123","90994","0.0-123.0","3G2UL9A02E0KAD3AL358D89POC367A","ACAJFF4MF5S5X","3ECKRY5B1QIH1N6NFX1ECCW5ZDKIZQ","","null","<img src=""img/flower3.png"" style=""width:200px; border:14px solid green;"">","null","","","","","","","","",""
"","image-keyboard-response","124","91348","0.0-124.0","3G2UL9A02E0KAD3AL358D89POC367A","ACAJFF4MF5S5X","3ECKRY5B1QIH1N6NFX1ECCW5ZDKIZQ","","353","img/flower2.png","74","354","1","1","2","2","1,0,0,1,1,0,1,0,1","1,0,0,1,1,0,1,0,1","1",""
"","html-keyboard-response","125","91650","0.0-125.0","3G2UL9A02E0KAD3AL358D89POC367A","ACAJFF4MF5S5X","3ECKRY5B1QIH1N6NFX1ECCW5ZDKIZQ","","null","<img src=""img/flower2.png"" style=""width:200px; border:14px solid green;"">","null","","","","","","","","",""
"","image-keyboard-response","126","91756","0.0-126.0","3G2UL9A02E0KAD3AL358D89POC367A","ACAJFF4MF5S5X","3ECKRY5B1QIH1N6NFX1ECCW5ZDKIZQ","","105","img/flower2.png","74","106.09999999403954","1","1","2","2","1,0,0,1,1,0,1,0,1","1,0,0,1,1,0,1,0,1","1",""
"","html-keyboard-response","127","92058","0.0-127.0","3G2UL9A02E0KAD3AL358D89POC367A","ACAJFF4MF5S5X","3ECKRY5B1QIH1N6NFX1ECCW5ZDKIZQ","","null","<img src=""img/flower2.png"" style=""width:200px; border:14px solid green;"">","null","","","","","","","","",""
"","image-keyboard-response","128","92380","0.0-128.0","3G2UL9A02E0KAD3AL358D89POC367A","ACAJFF4MF5S5X","3ECKRY5B1QIH1N6NFX1ECCW5ZDKIZQ","","320.80000000447035","img/flower3.png","74","321.8999999985099","1","1","3","2","1,0,0,1,1,0,1,0,1","1,0,0,1,1,0,1,0,1","1",""
"","html-keyboard-response","129","92682","0.0-129.0","3G2UL9A02E0KAD3AL358D89POC367A","ACAJFF4MF5S5X","3ECKRY5B1QIH1N6NFX1ECCW5ZDKIZQ","","null","<img src=""img/flower3.png"" style=""width:200px; border:14px solid green;"">","null","","","","","","","","",""
"","image-keyboard-response","130","93044","0.0-130.0","3G2UL9A02E0KAD3AL358D89POC367A","ACAJFF4MF5S5X","3ECKRY5B1QIH1N6NFX1ECCW5ZDKIZQ","","361.5","img/flower5.png","74","362.5","1","1","1","2","1,0,0,1,1,0,1,0,1","1,0,0,1,1,0,1,0,1","1",""
"","html-keyboard-response","131","93346","0.0-131.0","3G2UL9A02E0KAD3AL358D89POC367A","ACAJFF4MF5S5X","3ECKRY5B1QIH1N6NFX1ECCW5ZDKIZQ","","null","<img src=""img/flower5.png"" style=""width:200px; border:14px solid green;"">","null","","","","","","","","",""
"","image-keyboard-response","132","93620","0.0-132.0","3G2UL9A02E0KAD3AL358D89POC367A","ACAJFF4MF5S5X","3ECKRY5B1QIH1N6NFX1ECCW5ZDKIZQ","","272.30000000447035","img/flower3.png","74","273.29999999701977","1","1","3","2","1,0,0,1,1,0,1,0,1","1,0,0,1,1,0,1,0,1","1",""
"","html-keyboard-response","133","93922","0.0-133.0","3G2UL9A02E0KAD3AL358D89POC367A","ACAJFF4MF5S5X","3ECKRY5B1QIH1N6NFX1ECCW5ZDKIZQ","","null","<img src=""img/flower3.png"" style=""width:200px; border:14px solid green;"">","null","","","","","","","","",""
"","image-keyboard-response","134","94132","0.0-134.0","3G2UL9A02E0KAD3AL358D89POC367A","ACAJFF4MF5S5X","3ECKRY5B1QIH1N6NFX1ECCW5ZDKIZQ","","209.09999999403954","img/flower2.png","74","210.10000000149012","1","1","2","2","1,0,0,1,1,0,1,0,1","1,0,0,1,1,0,1,0,1","1",""
"","html-keyboard-response","135","94435","0.0-135.0","3G2UL9A02E0KAD3AL358D89POC367A","ACAJFF4MF5S5X","3ECKRY5B1QIH1N6NFX1ECCW5ZDKIZQ","","null","<img src=""img/flower2.png"" style=""width:200px; border:14px solid green;"">","null","","","","","","","","",""
"","image-keyboard-response","136","94788","0.0-136.0","3G2UL9A02E0KAD3AL358D89POC367A","ACAJFF4MF5S5X","3ECKRY5B1QIH1N6NFX1ECCW5ZDKIZQ","","351.90000000596046","img/flower3.png","74","352.8999999985099","1","1","3","2","1,0,0,1,1,0,1,0,1","1,0,0,1,1,0,1,0,1","1",""
"","html-keyboard-response","137","95090","0.0-137.0","3G2UL9A02E0KAD3AL358D89POC367A","ACAJFF4MF5S5X","3ECKRY5B1QIH1N6NFX1ECCW5ZDKIZQ","","null","<img src=""img/flower3.png"" style=""width:200px; border:14px solid green;"">","null","","","","","","","","",""
"","image-keyboard-response","138","95484","0.0-138.0","3G2UL9A02E0KAD3AL358D89POC367A","ACAJFF4MF5S5X","3ECKRY5B1QIH1N6NFX1ECCW5ZDKIZQ","","392.59999999403954","img/flower5.png","74","393.6000000014901","1","1","1","2","1,0,0,1,1,0,1,0,1","1,0,0,1,1,0,1,0,1","1",""
"","html-keyboard-response","139","95797","0.0-139.0","3G2UL9A02E0KAD3AL358D89POC367A","ACAJFF4MF5S5X","3ECKRY5B1QIH1N6NFX1ECCW5ZDKIZQ","","null","<img src=""img/flower5.png"" style=""width:200px; border:14px solid green;"">","null","","","","","","","","",""
"","image-keyboard-response","140","96108","0.0-140.0","3G2UL9A02E0KAD3AL358D89POC367A","ACAJFF4MF5S5X","3ECKRY5B1QIH1N6NFX1ECCW5ZDKIZQ","","310.1000000014901","img/flower5.png","74","311.1000000014901","1","1","1","2","1,0,0,1,1,0,1,0,1","1,0,0,1,1,0,1,0,1","1",""
"","html-keyboard-response","141","96410","0.0-141.0","3G2UL9A02E0KAD3AL358D89POC367A","ACAJFF4MF5S5X","3ECKRY5B1QIH1N6NFX1ECCW5ZDKIZQ","","null","<img src=""img/flower5.png"" style=""width:200px; border:14px solid green;"">","null","","","","","","","","",""
"","image-keyboard-response","142","96893","0.0-142.0","3G2UL9A02E0KAD3AL358D89POC367A","ACAJFF4MF5S5X","3ECKRY5B1QIH1N6NFX1ECCW5ZDKIZQ","","481.5","img/flower3.png","74","482.3999999985099","1","1","3","2","1,0,0,1,1,0,1,0,1","1,0,0,1,1,0,1,0,1","1",""
"","html-keyboard-response","143","97194","0.0-143.0","3G2UL9A02E0KAD3AL358D89POC367A","ACAJFF4MF5S5X","3ECKRY5B1QIH1N6NFX1ECCW5ZDKIZQ","","null","<img src=""img/flower3.png"" style=""width:200px; border:14px solid green;"">","null","","","","","","","","",""
"","image-keyboard-response","144","97692","0.0-144.0","3G2UL9A02E0KAD3AL358D89POC367A","ACAJFF4MF5S5X","3ECKRY5B1QIH1N6NFX1ECCW5ZDKIZQ","","497.1000000014901","img/flower2.png","74","498.1000000014901","1","1","2","2","1,0,0,1,1,0,1,0,1","1,0,0,1,1,0,1,0,1","1",""
"","html-keyboard-response","145","97995","0.0-145.0","3G2UL9A02E0KAD3AL358D89POC367A","ACAJFF4MF5S5X","3ECKRY5B1QIH1N6NFX1ECCW5ZDKIZQ","","null","<img src=""img/flower2.png"" style=""width:200px; border:14px solid green;"">","null","","","","","","","","",""
"","image-keyboard-response","146","98212","0.0-146.0","3G2UL9A02E0KAD3AL358D89POC367A","ACAJFF4MF5S5X","3ECKRY5B1QIH1N6NFX1ECCW5ZDKIZQ","","216.20000000298023","img/flower5.png","74","217.19999999552965","1","1","1","2","1,0,0,1,1,0,1,0,1","1,0,0,1,1,0,1,0,1","1",""
"","html-keyboard-response","147","98514","0.0-147.0","3G2UL9A02E0KAD3AL358D89POC367A","ACAJFF4MF5S5X","3ECKRY5B1QIH1N6NFX1ECCW5ZDKIZQ","","null","<img src=""img/flower5.png"" style=""width:200px; border:14px solid green;"">","null","","","","","","","","",""
"","image-keyboard-response","148","98644","0.0-148.0","3G2UL9A02E0KAD3AL358D89POC367A","ACAJFF4MF5S5X","3ECKRY5B1QIH1N6NFX1ECCW5ZDKIZQ","","129.39999999850988","img/flower2.png","74","130.5","1","1","2","2","1,0,0,1,1,0,1,0,1","1,0,0,1,1,0,1,0,1","1",""
"","html-keyboard-response","149","98946","0.0-149.0","3G2UL9A02E0KAD3AL358D89POC367A","ACAJFF4MF5S5X","3ECKRY5B1QIH1N6NFX1ECCW5ZDKIZQ","","null","<img src=""img/flower2.png"" style=""width:200px; border:14px solid green;"">","null","","","","","","","","",""
"","image-keyboard-response","150","99372","0.0-150.0","3G2UL9A02E0KAD3AL358D89POC367A","ACAJFF4MF5S5X","3ECKRY5B1QIH1N6NFX1ECCW5ZDKIZQ","","425","img/flower2.png","74","426","1","1","2","2","1,0,0,1,1,0,1,0,1","1,0,0,1,1,0,1,0,1","1",""
"","html-keyboard-response","151","99674","0.0-151.0","3G2UL9A02E0KAD3AL358D89POC367A","ACAJFF4MF5S5X","3ECKRY5B1QIH1N6NFX1ECCW5ZDKIZQ","","null","<img src=""img/flower2.png"" style=""width:200px; border:14px solid green;"">","null","","","","","","","","",""
"","image-keyboard-response","152","99767","0.0-152.0","3G2UL9A02E0KAD3AL358D89POC367A","ACAJFF4MF5S5X","3ECKRY5B1QIH1N6NFX1ECCW5ZDKIZQ","","91.5","img/flower2.png","74","92.5","1","1","2","2","1,0,0,1,1,0,1,0,1","1,0,0,1,1,0,1,0,1","1",""
"","html-keyboard-response","153","100069","0.0-153.0","3G2UL9A02E0KAD3AL358D89POC367A","ACAJFF4MF5S5X","3ECKRY5B1QIH1N6NFX1ECCW5ZDKIZQ","","null","<img src=""img/flower2.png"" style=""width:200px; border:14px solid green;"">","null","","","","","","","","",""
"","image-keyboard-response","154","100308","0.0-154.0","3G2UL9A02E0KAD3AL358D89POC367A","ACAJFF4MF5S5X","3ECKRY5B1QIH1N6NFX1ECCW5ZDKIZQ","","237.5","img/flower2.png","74","238.59999999403954","1","1","2","2","1,0,0,1,1,0,1,0,1","1,0,0,1,1,0,1,0,1","1",""
"","html-keyboard-response","155","100610","0.0-155.0","3G2UL9A02E0KAD3AL358D89POC367A","ACAJFF4MF5S5X","3ECKRY5B1QIH1N6NFX1ECCW5ZDKIZQ","","null","<img src=""img/flower2.png"" style=""width:200px; border:14px solid green;"">","null","","","","","","","","",""
"","image-keyboard-response","156","101076","0.0-156.0","3G2UL9A02E0KAD3AL358D89POC367A","ACAJFF4MF5S5X","3ECKRY5B1QIH1N6NFX1ECCW5ZDKIZQ","","464.8999999985099","img/flower5.png","74","466","1","1","1","2","1,0,0,1,1,0,1,0,1","1,0,0,1,1,0,1,0,1","1",""
"","html-keyboard-response","157","101378","0.0-157.0","3G2UL9A02E0KAD3AL358D89POC367A","ACAJFF4MF5S5X","3ECKRY5B1QIH1N6NFX1ECCW5ZDKIZQ","","null","<img src=""img/flower5.png"" style=""width:200px; border:14px solid green;"">","null","","","","","","","","",""
"","image-keyboard-response","158","101965","0.0-158.0","3G2UL9A02E0KAD3AL358D89POC367A","ACAJFF4MF5S5X","3ECKRY5B1QIH1N6NFX1ECCW5ZDKIZQ","","585.8999999985099","img/flower5.png","74","586.8000000044703","1","1","1","2","1,0,0,1,1,0,1,0,1","1,0,0,1,1,0,1,0,1","1",""
"","html-keyboard-response","159","102266","0.0-159.0","3G2UL9A02E0KAD3AL358D89POC367A","ACAJFF4MF5S5X","3ECKRY5B1QIH1N6NFX1ECCW5ZDKIZQ","","null","<img src=""img/flower5.png"" style=""width:200px; border:14px solid green;"">","null","","","","","","","","",""
"","image-keyboard-response","160","102716","0.0-160.0","3G2UL9A02E0KAD3AL358D89POC367A","ACAJFF4MF5S5X","3ECKRY5B1QIH1N6NFX1ECCW5ZDKIZQ","","448.20000000298023","img/flower5.png","74","449.19999999552965","1","1","1","2","1,0,0,1,1,0,1,0,1","1,0,0,1,1,0,1,0,1","1",""
"","html-keyboard-response","161","103018","0.0-161.0","3G2UL9A02E0KAD3AL358D89POC367A","ACAJFF4MF5S5X","3ECKRY5B1QIH1N6NFX1ECCW5ZDKIZQ","","null","<img src=""img/flower5.png"" style=""width:200px; border:14px solid green;"">","null","","","","","","","","",""
"","image-keyboard-response","162","103196","0.0-162.0","3G2UL9A02E0KAD3AL358D89POC367A","ACAJFF4MF5S5X","3ECKRY5B1QIH1N6NFX1ECCW5ZDKIZQ","","176.60000000149012","img/flower3.png","74","177.60000000149012","1","1","3","2","1,0,0,1,1,0,1,0,1","1,0,0,1,1,0,1,0,1","1",""
"","html-keyboard-response","163","103499","0.0-163.0","3G2UL9A02E0KAD3AL358D89POC367A","ACAJFF4MF5S5X","3ECKRY5B1QIH1N6NFX1ECCW5ZDKIZQ","","null","<img src=""img/flower3.png"" style=""width:200px; border:14px solid green;"">","null","","","","","","","","",""
"","image-keyboard-response","164","103892","0.0-164.0","3G2UL9A02E0KAD3AL358D89POC367A","ACAJFF4MF5S5X","3ECKRY5B1QIH1N6NFX1ECCW5ZDKIZQ","","392.1000000014901","img/flower3.png","74","393.09999999403954","1","1","3","2","1,0,0,1,1,0,1,0,1","1,0,0,1,1,0,1,0,1","1",""
"","html-keyboard-response","165","104194","0.0-165.0","3G2UL9A02E0KAD3AL358D89POC367A","ACAJFF4MF5S5X","3ECKRY5B1QIH1N6NFX1ECCW5ZDKIZQ","","null","<img src=""img/flower3.png"" style=""width:200px; border:14px solid green;"">","null","","","","","","","","",""
"","image-keyboard-response","166","104884","0.0-166.0","3G2UL9A02E0KAD3AL358D89POC367A","ACAJFF4MF5S5X","3ECKRY5B1QIH1N6NFX1ECCW5ZDKIZQ","","689.2999999970198","img/flower3.png","74","690.3000000044703","1","1","3","2","1,0,0,1,1,0,1,0,1","1,0,0,1,1,0,1,0,1","1",""
"","html-keyboard-response","167","105187","0.0-167.0","3G2UL9A02E0KAD3AL358D89POC367A","ACAJFF4MF5S5X","3ECKRY5B1QIH1N6NFX1ECCW5ZDKIZQ","","null","<img src=""img/flower3.png"" style=""width:200px; border:14px solid green;"">","null","","","","","","","","",""
"","image-keyboard-response","168","105708","0.0-168.0","3G2UL9A02E0KAD3AL358D89POC367A","ACAJFF4MF5S5X","3ECKRY5B1QIH1N6NFX1ECCW5ZDKIZQ","","520.6000000014901","img/flower2.png","74","521.6999999955297","1","1","2","2","1,0,0,1,1,0,1,0,1","1,0,0,1,1,0,1,0,1","1",""
"","html-keyboard-response","169","106011","0.0-169.0","3G2UL9A02E0KAD3AL358D89POC367A","ACAJFF4MF5S5X","3ECKRY5B1QIH1N6NFX1ECCW5ZDKIZQ","","null","<img src=""img/flower2.png"" style=""width:200px; border:14px solid green;"">","null","","","","","","","","",""
"","image-keyboard-response","170","106070","0.0-170.0","3G2UL9A02E0KAD3AL358D89POC367A","ACAJFF4MF5S5X","3ECKRY5B1QIH1N6NFX1ECCW5ZDKIZQ","","58.20000000298023","img/flower2.png","74","59.29999999701977","1","1","2","2","1,0,0,1,1,0,1,0,1","1,0,0,1,1,0,1,0,1","1",""
"","html-keyboard-response","171","106373","0.0-171.0","3G2UL9A02E0KAD3AL358D89POC367A","ACAJFF4MF5S5X","3ECKRY5B1QIH1N6NFX1ECCW5ZDKIZQ","","null","<img src=""img/flower2.png"" style=""width:200px; border:14px solid green;"">","null","","","","","","","","",""
"","image-keyboard-response","172","106476","0.0-172.0","3G2UL9A02E0KAD3AL358D89POC367A","ACAJFF4MF5S5X","3ECKRY5B1QIH1N6NFX1ECCW5ZDKIZQ","","102","img/flower2.png","74","103","1","1","2","2","1,0,0,1,1,0,1,0,1","1,0,0,1,1,0,1,0,1","1",""
"","html-keyboard-response","173","106778","0.0-173.0","3G2UL9A02E0KAD3AL358D89POC367A","ACAJFF4MF5S5X","3ECKRY5B1QIH1N6NFX1ECCW5ZDKIZQ","","null","<img src=""img/flower2.png"" style=""width:200px; border:14px solid green;"">","null","","","","","","","","",""
"","image-keyboard-response","174","107131","0.0-174.0","3G2UL9A02E0KAD3AL358D89POC367A","ACAJFF4MF5S5X","3ECKRY5B1QIH1N6NFX1ECCW5ZDKIZQ","","352.5","img/flower5.png","74","353.3999999985099","1","1","1","2","1,0,0,1,1,0,1,0,1","1,0,0,1,1,0,1,0,1","1",""
"","html-keyboard-response","175","107434","0.0-175.0","3G2UL9A02E0KAD3AL358D89POC367A","ACAJFF4MF5S5X","3ECKRY5B1QIH1N6NFX1ECCW5ZDKIZQ","","null","<img src=""img/flower5.png"" style=""width:200px; border:14px solid green;"">","null","","","","","","","","",""
"","image-keyboard-response","176","107653","0.0-176.0","3G2UL9A02E0KAD3AL358D89POC367A","ACAJFF4MF5S5X","3ECKRY5B1QIH1N6NFX1ECCW5ZDKIZQ","","217.20000000298023","img/flower2.png","74","218.20000000298023","1","1","2","2","1,0,0,1,1,0,1,0,1","1,0,0,1,1,0,1,0,1","1",""
"","html-keyboard-response","177","107954","0.0-177.0","3G2UL9A02E0KAD3AL358D89POC367A","ACAJFF4MF5S5X","3ECKRY5B1QIH1N6NFX1ECCW5ZDKIZQ","","null","<img src=""img/flower2.png"" style=""width:200px; border:14px solid green;"">","null","","","","","","","","",""
"","image-keyboard-response","178","108252","0.0-178.0","3G2UL9A02E0KAD3AL358D89POC367A","ACAJFF4MF5S5X","3ECKRY5B1QIH1N6NFX1ECCW5ZDKIZQ","","296.6000000014901","img/flower5.png","74","297.6000000014901","1","1","1","2","1,0,0,1,1,0,1,0,1","1,0,0,1,1,0,1,0,1","1",""
"","html-keyboard-response","179","108554","0.0-179.0","3G2UL9A02E0KAD3AL358D89POC367A","ACAJFF4MF5S5X","3ECKRY5B1QIH1N6NFX1ECCW5ZDKIZQ","","null","<img src=""img/flower5.png"" style=""width:200px; border:14px solid green;"">","null","","","","","","","","",""
"","image-keyboard-response","180","108852","0.0-180.0","3G2UL9A02E0KAD3AL358D89POC367A","ACAJFF4MF5S5X","3ECKRY5B1QIH1N6NFX1ECCW5ZDKIZQ","","297.29999999701977","img/flower2.png","74","298.29999999701977","1","1","2","2","1,0,0,1,1,0,1,0,1","1,0,0,1,1,0,1,0,1","1",""
"","html-keyboard-response","181","109155","0.0-181.0","3G2UL9A02E0KAD3AL358D89POC367A","ACAJFF4MF5S5X","3ECKRY5B1QIH1N6NFX1ECCW5ZDKIZQ","","null","<img src=""img/flower2.png"" style=""width:200px; border:14px solid green;"">","null","","","","","","","","",""
"","image-keyboard-response","182","109484","0.0-182.0","3G2UL9A02E0KAD3AL358D89POC367A","ACAJFF4MF5S5X","3ECKRY5B1QIH1N6NFX1ECCW5ZDKIZQ","","328.6000000014901","img/flower1.png","74","329.5","1","0","3","1","1,0.333,0.333,0.333,1,0.333,0.333,0.333,1","1,0.333,0.333,0.333,1,0.333,0.333,0.333,1","1",""
"","html-keyboard-response","183","109787","0.0-183.0","3G2UL9A02E0KAD3AL358D89POC367A","ACAJFF4MF5S5X","3ECKRY5B1QIH1N6NFX1ECCW5ZDKIZQ","","null","<img src=""img/flower1.png"" style=""width:200px;border:14px solid red;"">","null","","","","","","","","",""
"","image-keyboard-response","184","110310","0.0-184.0","3G2UL9A02E0KAD3AL358D89POC367A","ACAJFF4MF5S5X","3ECKRY5B1QIH1N6NFX1ECCW5ZDKIZQ","","520.8999999985099","img/flower6.png","74","521.6999999955297","1","1","1","1","1,0.333,0.333,0.333,1,0.333,0.333,0.333,1","1,0.333,0.333,0.333,1,0.333,0.333,0.333,1","1",""
"","html-keyboard-response","185","110612","0.0-185.0","3G2UL9A02E0KAD3AL358D89POC367A","ACAJFF4MF5S5X","3ECKRY5B1QIH1N6NFX1ECCW5ZDKIZQ","","null","<img src=""img/flower6.png"" style=""width:200px; border:14px solid green;"">","null","","","","","","","","",""
"","image-keyboard-response","186","111564","0.0-186.0","3G2UL9A02E0KAD3AL358D89POC367A","ACAJFF4MF5S5X","3ECKRY5B1QIH1N6NFX1ECCW5ZDKIZQ","","950.7000000029802","img/flower4.png","75","951.6999999955297","2","1","2","1","1,0.333,0.333,0.333,1,0.333,0.333,0.333,1","1,0.333,0.333,0.333,1,0.333,0.333,0.333,1","1",""
"","html-keyboard-response","187","111866","0.0-187.0","3G2UL9A02E0KAD3AL358D89POC367A","ACAJFF4MF5S5X","3ECKRY5B1QIH1N6NFX1ECCW5ZDKIZQ","","null","<img src=""img/flower4.png"" style=""width:200px; border:14px solid green;"">","null","","","","","","","","",""
"","image-keyboard-response","188","112460","0.0-188.0","3G2UL9A02E0KAD3AL358D89POC367A","ACAJFF4MF5S5X","3ECKRY5B1QIH1N6NFX1ECCW5ZDKIZQ","","592.5","img/flower4.png","75","593.3000000044703","2","1","2","1","1,0.333,0.333,0.333,1,0.333,0.333,0.333,1","1,0.333,0.333,0.333,1,0.333,0.333,0.333,1","1",""
"","html-keyboard-response","189","112761","0.0-189.0","3G2UL9A02E0KAD3AL358D89POC367A","ACAJFF4MF5S5X","3ECKRY5B1QIH1N6NFX1ECCW5ZDKIZQ","","null","<img src=""img/flower4.png"" style=""width:200px; border:14px solid green;"">","null","","","","","","","","",""
"","image-keyboard-response","190","113580","0.0-190.0","3G2UL9A02E0KAD3AL358D89POC367A","ACAJFF4MF5S5X","3ECKRY5B1QIH1N6NFX1ECCW5ZDKIZQ","","817.5","img/flower1.png","76","818.5","3","1","3","1","1,0.333,0.333,0.333,1,0.333,0.333,0.333,1","1,0.333,0.333,0.333,1,0.333,0.333,0.333,1","1",""
"","html-keyboard-response","191","113882","0.0-191.0","3G2UL9A02E0KAD3AL358D89POC367A","ACAJFF4MF5S5X","3ECKRY5B1QIH1N6NFX1ECCW5ZDKIZQ","","null","<img src=""img/flower1.png"" style=""width:200px; border:14px solid green;"">","null","","","","","","","","",""
"","image-keyboard-response","192","114260","0.0-192.0","3G2UL9A02E0KAD3AL358D89POC367A","ACAJFF4MF5S5X","3ECKRY5B1QIH1N6NFX1ECCW5ZDKIZQ","","377.20000000298023","img/flower1.png","76","377.90000000596046","3","1","3","1","1,0.333,0.333,0.333,1,0.333,0.333,0.333,1","1,0.333,0.333,0.333,1,0.333,0.333,0.333,1","1",""
"","html-keyboard-response","193","114561","0.0-193.0","3G2UL9A02E0KAD3AL358D89POC367A","ACAJFF4MF5S5X","3ECKRY5B1QIH1N6NFX1ECCW5ZDKIZQ","","null","<img src=""img/flower1.png"" style=""width:200px; border:14px solid green;"">","null","","","","","","","","",""
"","image-keyboard-response","194","114996","0.0-194.0","3G2UL9A02E0KAD3AL358D89POC367A","ACAJFF4MF5S5X","3ECKRY5B1QIH1N6NFX1ECCW5ZDKIZQ","","433.79999999701977","img/flower4.png","76","434.8999999985099","3","0","2","1","1,0.333,0.333,0.333,1,0.333,0.333,0.333,1","1,0.333,0.333,0.333,1,0.333,0.333,0.333,1","1",""
"","html-keyboard-response","195","115298","0.0-195.0","3G2UL9A02E0KAD3AL358D89POC367A","ACAJFF4MF5S5X","3ECKRY5B1QIH1N6NFX1ECCW5ZDKIZQ","","null","<img src=""img/flower4.png"" style=""width:200px;border:14px solid red;"">","null","","","","","","","","",""
"","image-keyboard-response","196","116244","0.0-196.0","3G2UL9A02E0KAD3AL358D89POC367A","ACAJFF4MF5S5X","3ECKRY5B1QIH1N6NFX1ECCW5ZDKIZQ","","944.5999999940395","img/flower6.png","75","945.6000000014901","2","1","1","1","1,0.333,0.333,0.333,1,0.333,0.333,0.333,1","1,0.333,0.333,0.333,1,0.333,0.333,0.333,1","1",""
"","html-keyboard-response","197","116546","0.0-197.0","3G2UL9A02E0KAD3AL358D89POC367A","ACAJFF4MF5S5X","3ECKRY5B1QIH1N6NFX1ECCW5ZDKIZQ","","null","<img src=""img/flower6.png"" style=""width:200px; border:14px solid green;"">","null","","","","","","","","",""
"","image-keyboard-response","198","117204","0.0-198.0","3G2UL9A02E0KAD3AL358D89POC367A","ACAJFF4MF5S5X","3ECKRY5B1QIH1N6NFX1ECCW5ZDKIZQ","","657.2999999970198","img/flower1.png","76","658.3999999985099","3","1","3","1","1,0.333,0.333,0.333,1,0.333,0.333,0.333,1","1,0.333,0.333,0.333,1,0.333,0.333,0.333,1","1",""
"","html-keyboard-response","199","117507","0.0-199.0","3G2UL9A02E0KAD3AL358D89POC367A","ACAJFF4MF5S5X","3ECKRY5B1QIH1N6NFX1ECCW5ZDKIZQ","","null","<img src=""img/flower1.png"" style=""width:200px; border:14px solid green;"">","null","","","","","","","","",""
"","image-keyboard-response","200","117900","0.0-200.0","3G2UL9A02E0KAD3AL358D89POC367A","ACAJFF4MF5S5X","3ECKRY5B1QIH1N6NFX1ECCW5ZDKIZQ","","392","img/flower4.png","74","393.1000000014901","1","0","2","1","1,0.333,0.333,0.333,1,0.333,0.333,0.333,1","1,0.333,0.333,0.333,1,0.333,0.333,0.333,1","1",""
"","html-keyboard-response","201","118203","0.0-201.0","3G2UL9A02E0KAD3AL358D89POC367A","ACAJFF4MF5S5X","3ECKRY5B1QIH1N6NFX1ECCW5ZDKIZQ","","null","<img src=""img/flower4.png"" style=""width:200px;border:14px solid red;"">","null","","","","","","","","",""
"","image-keyboard-response","202","119236","0.0-202.0","3G2UL9A02E0KAD3AL358D89POC367A","ACAJFF4MF5S5X","3ECKRY5B1QIH1N6NFX1ECCW5ZDKIZQ","","1032.5","img/flower4.png","75","1033.3999999985099","2","1","2","1","1,0.333,0.333,0.333,1,0.333,0.333,0.333,1","1,0.333,0.333,0.333,1,0.333,0.333,0.333,1","1",""
"","html-keyboard-response","203","119538","0.0-203.0","3G2UL9A02E0KAD3AL358D89POC367A","ACAJFF4MF5S5X","3ECKRY5B1QIH1N6NFX1ECCW5ZDKIZQ","","null","<img src=""img/flower4.png"" style=""width:200px; border:14px solid green;"">","null","","","","","","","","",""
"","image-keyboard-response","204","120679","0.0-204.0","3G2UL9A02E0KAD3AL358D89POC367A","ACAJFF4MF5S5X","3ECKRY5B1QIH1N6NFX1ECCW5ZDKIZQ","","1139","img/flower6.png","75","1140","2","0","1","1","1,0.333,0.333,0.333,1,0.333,0.333,0.333,1","1,0.333,0.333,0.333,1,0.333,0.333,0.333,1","1",""
"","html-keyboard-response","205","120981","0.0-205.0","3G2UL9A02E0KAD3AL358D89POC367A","ACAJFF4MF5S5X","3ECKRY5B1QIH1N6NFX1ECCW5ZDKIZQ","","null","<img src=""img/flower6.png"" style=""width:200px;border:14px solid red;"">","null","","","","","","","","",""
"","image-keyboard-response","206","121636","0.0-206.0","3G2UL9A02E0KAD3AL358D89POC367A","ACAJFF4MF5S5X","3ECKRY5B1QIH1N6NFX1ECCW5ZDKIZQ","","653.3999999985099","img/flower1.png","75","654.5","2","0","3","1","1,0.333,0.333,0.333,1,0.333,0.333,0.333,1","1,0.333,0.333,0.333,1,0.333,0.333,0.333,1","1",""
"","html-keyboard-response","207","121938","0.0-207.0","3G2UL9A02E0KAD3AL358D89POC367A","ACAJFF4MF5S5X","3ECKRY5B1QIH1N6NFX1ECCW5ZDKIZQ","","null","<img src=""img/flower1.png"" style=""width:200px;border:14px solid red;"">","null","","","","","","","","",""
"","image-keyboard-response","208","122748","0.0-208.0","3G2UL9A02E0KAD3AL358D89POC367A","ACAJFF4MF5S5X","3ECKRY5B1QIH1N6NFX1ECCW5ZDKIZQ","","808.6999999955297","img/flower1.png","76","809.7000000029802","3","1","3","1","1,0.333,0.333,0.333,1,0.333,0.333,0.333,1","1,0.333,0.333,0.333,1,0.333,0.333,0.333,1","1",""
"","html-keyboard-response","209","123050","0.0-209.0","3G2UL9A02E0KAD3AL358D89POC367A","ACAJFF4MF5S5X","3ECKRY5B1QIH1N6NFX1ECCW5ZDKIZQ","","null","<img src=""img/flower1.png"" style=""width:200px; border:14px solid green;"">","null","","","","","","","","",""
"","image-keyboard-response","210","123955","0.0-210.0","3G2UL9A02E0KAD3AL358D89POC367A","ACAJFF4MF5S5X","3ECKRY5B1QIH1N6NFX1ECCW5ZDKIZQ","","903.5999999940395","img/flower4.png","75","904.6000000014901","2","1","2","1","1,0.333,0.333,0.333,1,0.333,0.333,0.333,1","1,0.333,0.333,0.333,1,0.333,0.333,0.333,1","1",""
"","html-keyboard-response","211","124257","0.0-211.0","3G2UL9A02E0KAD3AL358D89POC367A","ACAJFF4MF5S5X","3ECKRY5B1QIH1N6NFX1ECCW5ZDKIZQ","","null","<img src=""img/flower4.png"" style=""width:200px; border:14px solid green;"">","null","","","","","","","","",""
"","image-keyboard-response","212","124740","0.0-212.0","3G2UL9A02E0KAD3AL358D89POC367A","ACAJFF4MF5S5X","3ECKRY5B1QIH1N6NFX1ECCW5ZDKIZQ","","481.6000000014901","img/flower6.png","75","482.6000000014901","2","0","1","1","1,0.333,0.333,0.333,1,0.333,0.333,0.333,1","1,0.333,0.333,0.333,1,0.333,0.333,0.333,1","1",""
"","html-keyboard-response","213","125041","0.0-213.0","3G2UL9A02E0KAD3AL358D89POC367A","ACAJFF4MF5S5X","3ECKRY5B1QIH1N6NFX1ECCW5ZDKIZQ","","null","<img src=""img/flower6.png"" style=""width:200px;border:14px solid red;"">","null","","","","","","","","",""
"","image-keyboard-response","214","125724","0.0-214.0","3G2UL9A02E0KAD3AL358D89POC367A","ACAJFF4MF5S5X","3ECKRY5B1QIH1N6NFX1ECCW5ZDKIZQ","","682.2000000029802","img/flower1.png","76","683.2999999970198","3","1","3","1","1,0.333,0.333,0.333,1,0.333,0.333,0.333,1","1,0.333,0.333,0.333,1,0.333,0.333,0.333,1","1",""
"","html-keyboard-response","215","126026","0.0-215.0","3G2UL9A02E0KAD3AL358D89POC367A","ACAJFF4MF5S5X","3ECKRY5B1QIH1N6NFX1ECCW5ZDKIZQ","","null","<img src=""img/flower1.png"" style=""width:200px; border:14px solid green;"">","null","","","","","","","","",""
"","image-keyboard-response","216","126541","0.0-216.0","3G2UL9A02E0KAD3AL358D89POC367A","ACAJFF4MF5S5X","3ECKRY5B1QIH1N6NFX1ECCW5ZDKIZQ","","513.5","img/flower1.png","76","514.5","3","1","3","1","1,0.333,0.333,0.333,1,0.333,0.333,0.333,1","1,0.333,0.333,0.333,1,0.333,0.333,0.333,1","1",""
"","html-keyboard-response","217","126843","0.0-217.0","3G2UL9A02E0KAD3AL358D89POC367A","ACAJFF4MF5S5X","3ECKRY5B1QIH1N6NFX1ECCW5ZDKIZQ","","null","<img src=""img/flower1.png"" style=""width:200px; border:14px solid green;"">","null","","","","","","","","",""
"","image-keyboard-response","218","127468","0.0-218.0","3G2UL9A02E0KAD3AL358D89POC367A","ACAJFF4MF5S5X","3ECKRY5B1QIH1N6NFX1ECCW5ZDKIZQ","","623.3000000044703","img/flower4.png","75","624.3999999985099","2","1","2","1","1,0.333,0.333,0.333,1,0.333,0.333,0.333,1","1,0.333,0.333,0.333,1,0.333,0.333,0.333,1","1",""
"","html-keyboard-response","219","127771","0.0-219.0","3G2UL9A02E0KAD3AL358D89POC367A","ACAJFF4MF5S5X","3ECKRY5B1QIH1N6NFX1ECCW5ZDKIZQ","","null","<img src=""img/flower4.png"" style=""width:200px; border:14px solid green;"">","null","","","","","","","","",""
"","image-keyboard-response","220","128108","0.0-220.0","3G2UL9A02E0KAD3AL358D89POC367A","ACAJFF4MF5S5X","3ECKRY5B1QIH1N6NFX1ECCW5ZDKIZQ","","335.8999999985099","img/flower4.png","75","337","2","1","2","1","1,0.333,0.333,0.333,1,0.333,0.333,0.333,1","1,0.333,0.333,0.333,1,0.333,0.333,0.333,1","1",""
"","html-keyboard-response","221","128410","0.0-221.0","3G2UL9A02E0KAD3AL358D89POC367A","ACAJFF4MF5S5X","3ECKRY5B1QIH1N6NFX1ECCW5ZDKIZQ","","null","<img src=""img/flower4.png"" style=""width:200px; border:14px solid green;"">","null","","","","","","","","",""
"","image-keyboard-response","222","128844","0.0-222.0","3G2UL9A02E0KAD3AL358D89POC367A","ACAJFF4MF5S5X","3ECKRY5B1QIH1N6NFX1ECCW5ZDKIZQ","","432.30000000447035","img/flower1.png","74","433.29999999701977","1","0","3","1","1,0.333,0.333,0.333,1,0.333,0.333,0.333,1","1,0.333,0.333,0.333,1,0.333,0.333,0.333,1","1",""
"","html-keyboard-response","223","129146","0.0-223.0","3G2UL9A02E0KAD3AL358D89POC367A","ACAJFF4MF5S5X","3ECKRY5B1QIH1N6NFX1ECCW5ZDKIZQ","","null","<img src=""img/flower1.png"" style=""width:200px;border:14px solid red;"">","null","","","","","","","","",""
"","image-keyboard-response","224","130123","0.0-224.0","3G2UL9A02E0KAD3AL358D89POC367A","ACAJFF4MF5S5X","3ECKRY5B1QIH1N6NFX1ECCW5ZDKIZQ","","975.5","img/flower4.png","75","976.5","2","1","2","1","1,0.333,0.333,0.333,1,0.333,0.333,0.333,1","1,0.333,0.333,0.333,1,0.333,0.333,0.333,1","1",""
"","html-keyboard-response","225","130425","0.0-225.0","3G2UL9A02E0KAD3AL358D89POC367A","ACAJFF4MF5S5X","3ECKRY5B1QIH1N6NFX1ECCW5ZDKIZQ","","null","<img src=""img/flower4.png"" style=""width:200px; border:14px solid green;"">","null","","","","","","","","",""
"","image-keyboard-response","226","130815","0.0-226.0","3G2UL9A02E0KAD3AL358D89POC367A","ACAJFF4MF5S5X","3ECKRY5B1QIH1N6NFX1ECCW5ZDKIZQ","","388.6000000014901","img/flower4.png","75","389.5","2","1","2","1","1,0.333,0.333,0.333,1,0.333,0.333,0.333,1","1,0.333,0.333,0.333,1,0.333,0.333,0.333,1","1",""
"","html-keyboard-response","227","131117","0.0-227.0","3G2UL9A02E0KAD3AL358D89POC367A","ACAJFF4MF5S5X","3ECKRY5B1QIH1N6NFX1ECCW5ZDKIZQ","","null","<img src=""img/flower4.png"" style=""width:200px; border:14px solid green;"">","null","","","","","","","","",""
"","image-keyboard-response","228","131876","0.0-228.0","3G2UL9A02E0KAD3AL358D89POC367A","ACAJFF4MF5S5X","3ECKRY5B1QIH1N6NFX1ECCW5ZDKIZQ","","758.2000000029802","img/flower1.png","75","759.1999999955297","2","0","3","1","1,0.333,0.333,0.333,1,0.333,0.333,0.333,1","1,0.333,0.333,0.333,1,0.333,0.333,0.333,1","1",""
"","html-keyboard-response","229","132178","0.0-229.0","3G2UL9A02E0KAD3AL358D89POC367A","ACAJFF4MF5S5X","3ECKRY5B1QIH1N6NFX1ECCW5ZDKIZQ","","null","<img src=""img/flower1.png"" style=""width:200px;border:14px solid red;"">","null","","","","","","","","",""
"","image-keyboard-response","230","132804","0.0-230.0","3G2UL9A02E0KAD3AL358D89POC367A","ACAJFF4MF5S5X","3ECKRY5B1QIH1N6NFX1ECCW5ZDKIZQ","","624.4000000059605","img/flower4.png","75","625.7000000029802","2","1","2","1","1,0.333,0.333,0.333,1,0.333,0.333,0.333,1","1,0.333,0.333,0.333,1,0.333,0.333,0.333,1","1",""
"","html-keyboard-response","231","133105","0.0-231.0","3G2UL9A02E0KAD3AL358D89POC367A","ACAJFF4MF5S5X","3ECKRY5B1QIH1N6NFX1ECCW5ZDKIZQ","","null","<img src=""img/flower4.png"" style=""width:200px; border:14px solid green;"">","null","","","","","","","","",""
"","image-keyboard-response","232","133556","0.0-232.0","3G2UL9A02E0KAD3AL358D89POC367A","ACAJFF4MF5S5X","3ECKRY5B1QIH1N6NFX1ECCW5ZDKIZQ","","450.20000000298023","img/flower4.png","75","450.8999999985099","2","1","2","1","1,0.333,0.333,0.333,1,0.333,0.333,0.333,1","1,0.333,0.333,0.333,1,0.333,0.333,0.333,1","1",""
"","html-keyboard-response","233","133858","0.0-233.0","3G2UL9A02E0KAD3AL358D89POC367A","ACAJFF4MF5S5X","3ECKRY5B1QIH1N6NFX1ECCW5ZDKIZQ","","null","<img src=""img/flower4.png"" style=""width:200px; border:14px solid green;"">","null","","","","","","","","",""
"","image-keyboard-response","234","134364","0.0-234.0","3G2UL9A02E0KAD3AL358D89POC367A","ACAJFF4MF5S5X","3ECKRY5B1QIH1N6NFX1ECCW5ZDKIZQ","","504.40000000596046","img/flower4.png","75","505.5","2","1","2","1","1,0.333,0.333,0.333,1,0.333,0.333,0.333,1","1,0.333,0.333,0.333,1,0.333,0.333,0.333,1","1",""
"","html-keyboard-response","235","134666","0.0-235.0","3G2UL9A02E0KAD3AL358D89POC367A","ACAJFF4MF5S5X","3ECKRY5B1QIH1N6NFX1ECCW5ZDKIZQ","","null","<img src=""img/flower4.png"" style=""width:200px; border:14px solid green;"">","null","","","","","","","","",""
"","image-keyboard-response","236","135172","0.0-236.0","3G2UL9A02E0KAD3AL358D89POC367A","ACAJFF4MF5S5X","3ECKRY5B1QIH1N6NFX1ECCW5ZDKIZQ","","504.79999999701977","img/flower4.png","75","505.80000000447035","2","1","2","1","1,0.333,0.333,0.333,1,0.333,0.333,0.333,1","1,0.333,0.333,0.333,1,0.333,0.333,0.333,1","1",""
"","html-keyboard-response","237","135475","0.0-237.0","3G2UL9A02E0KAD3AL358D89POC367A","ACAJFF4MF5S5X","3ECKRY5B1QIH1N6NFX1ECCW5ZDKIZQ","","null","<img src=""img/flower4.png"" style=""width:200px; border:14px solid green;"">","null","","","","","","","","",""
"","image-keyboard-response","238","136292","0.0-238.0","3G2UL9A02E0KAD3AL358D89POC367A","ACAJFF4MF5S5X","3ECKRY5B1QIH1N6NFX1ECCW5ZDKIZQ","","816.2000000029802","img/flower6.png","74","817.1000000014901","1","1","1","1","1,0.333,0.333,0.333,1,0.333,0.333,0.333,1","1,0.333,0.333,0.333,1,0.333,0.333,0.333,1","1",""
"","html-keyboard-response","239","136593","0.0-239.0","3G2UL9A02E0KAD3AL358D89POC367A","ACAJFF4MF5S5X","3ECKRY5B1QIH1N6NFX1ECCW5ZDKIZQ","","null","<img src=""img/flower6.png"" style=""width:200px; border:14px solid green;"">","null","","","","","","","","",""
"","image-keyboard-response","240","137156","0.0-240.0","3G2UL9A02E0KAD3AL358D89POC367A","ACAJFF4MF5S5X","3ECKRY5B1QIH1N6NFX1ECCW5ZDKIZQ","","561.7000000029802","img/flower1.png","76","562.6999999955297","3","1","3","1","1,0.333,0.333,0.333,1,0.333,0.333,0.333,1","1,0.333,0.333,0.333,1,0.333,0.333,0.333,1","1",""
"","html-keyboard-response","241","137458","0.0-241.0","3G2UL9A02E0KAD3AL358D89POC367A","ACAJFF4MF5S5X","3ECKRY5B1QIH1N6NFX1ECCW5ZDKIZQ","","null","<img src=""img/flower1.png"" style=""width:200px; border:14px solid green;"">","null","","","","","","","","",""
"","image-keyboard-response","242","137916","0.0-242.0","3G2UL9A02E0KAD3AL358D89POC367A","ACAJFF4MF5S5X","3ECKRY5B1QIH1N6NFX1ECCW5ZDKIZQ","","456.69999999552965","img/flower1.png","76","457.70000000298023","3","1","3","1","1,0.333,0.333,0.333,1,0.333,0.333,0.333,1","1,0.333,0.333,0.333,1,0.333,0.333,0.333,1","1",""
"","html-keyboard-response","243","138218","0.0-243.0","3G2UL9A02E0KAD3AL358D89POC367A","ACAJFF4MF5S5X","3ECKRY5B1QIH1N6NFX1ECCW5ZDKIZQ","","null","<img src=""img/flower1.png"" style=""width:200px; border:14px solid green;"">","null","","","","","","","","",""
"","image-keyboard-response","244","138588","0.0-244.0","3G2UL9A02E0KAD3AL358D89POC367A","ACAJFF4MF5S5X","3ECKRY5B1QIH1N6NFX1ECCW5ZDKIZQ","","369.19999999552965","img/flower1.png","76","370.30000000447035","3","1","3","1","1,0.333,0.333,0.333,1,0.333,0.333,0.333,1","1,0.333,0.333,0.333,1,0.333,0.333,0.333,1","1",""
"","html-keyboard-response","245","138890","0.0-245.0","3G2UL9A02E0KAD3AL358D89POC367A","ACAJFF4MF5S5X","3ECKRY5B1QIH1N6NFX1ECCW5ZDKIZQ","","null","<img src=""img/flower1.png"" style=""width:200px; border:14px solid green;"">","null","","","","","","","","",""
"","image-keyboard-response","246","139523","0.0-246.0","3G2UL9A02E0KAD3AL358D89POC367A","ACAJFF4MF5S5X","3ECKRY5B1QIH1N6NFX1ECCW5ZDKIZQ","","632.6000000014901","img/flower6.png","74","633.6000000014901","1","1","1","1","1,0.333,0.333,0.333,1,0.333,0.333,0.333,1","1,0.333,0.333,0.333,1,0.333,0.333,0.333,1","1",""
"","html-keyboard-response","247","139825","0.0-247.0","3G2UL9A02E0KAD3AL358D89POC367A","ACAJFF4MF5S5X","3ECKRY5B1QIH1N6NFX1ECCW5ZDKIZQ","","null","<img src=""img/flower6.png"" style=""width:200px; border:14px solid green;"">","null","","","","","","","","",""
"","image-keyboard-response","248","140420","0.0-248.0","3G2UL9A02E0KAD3AL358D89POC367A","ACAJFF4MF5S5X","3ECKRY5B1QIH1N6NFX1ECCW5ZDKIZQ","","593.1999999955297","img/flower1.png","76","594.2000000029802","3","1","3","1","1,0.333,0.333,0.333,1,0.333,0.333,0.333,1","1,0.333,0.333,0.333,1,0.333,0.333,0.333,1","1",""
"","html-keyboard-response","249","140727","0.0-249.0","3G2UL9A02E0KAD3AL358D89POC367A","ACAJFF4MF5S5X","3ECKRY5B1QIH1N6NFX1ECCW5ZDKIZQ","","null","<img src=""img/flower1.png"" style=""width:200px; border:14px solid green;"">","null","","","","","","","","",""
"","image-keyboard-response","250","141247","0.0-250.0","3G2UL9A02E0KAD3AL358D89POC367A","ACAJFF4MF5S5X","3ECKRY5B1QIH1N6NFX1ECCW5ZDKIZQ","","518.6999999955297","img/flower6.png","74","519.7000000029802","1","1","1","1","1,0.333,0.333,0.333,1,0.333,0.333,0.333,1","1,0.333,0.333,0.333,1,0.333,0.333,0.333,1","1",""
"","html-keyboard-response","251","141548","0.0-251.0","3G2UL9A02E0KAD3AL358D89POC367A","ACAJFF4MF5S5X","3ECKRY5B1QIH1N6NFX1ECCW5ZDKIZQ","","null","<img src=""img/flower6.png"" style=""width:200px; border:14px solid green;"">","null","","","","","","","","",""
"","image-keyboard-response","252","142220","0.0-252.0","3G2UL9A02E0KAD3AL358D89POC367A","ACAJFF4MF5S5X","3ECKRY5B1QIH1N6NFX1ECCW5ZDKIZQ","","670.6000000014901","img/flower6.png","74","671.5999999940395","1","1","1","1","1,0.333,0.333,0.333,1,0.333,0.333,0.333,1","1,0.333,0.333,0.333,1,0.333,0.333,0.333,1","1",""
"","html-keyboard-response","253","142522","0.0-253.0","3G2UL9A02E0KAD3AL358D89POC367A","ACAJFF4MF5S5X","3ECKRY5B1QIH1N6NFX1ECCW5ZDKIZQ","","null","<img src=""img/flower6.png"" style=""width:200px; border:14px solid green;"">","null","","","","","","","","",""
"","image-keyboard-response","254","142956","0.0-254.0","3G2UL9A02E0KAD3AL358D89POC367A","ACAJFF4MF5S5X","3ECKRY5B1QIH1N6NFX1ECCW5ZDKIZQ","","433.1000000014901","img/flower6.png","74","434.1000000014901","1","1","1","1","1,0.333,0.333,0.333,1,0.333,0.333,0.333,1","1,0.333,0.333,0.333,1,0.333,0.333,0.333,1","1",""
"","html-keyboard-response","255","143258","0.0-255.0","3G2UL9A02E0KAD3AL358D89POC367A","ACAJFF4MF5S5X","3ECKRY5B1QIH1N6NFX1ECCW5ZDKIZQ","","null","<img src=""img/flower6.png"" style=""width:200px; border:14px solid green;"">","null","","","","","","","","",""
"","image-keyboard-response","256","143924","0.0-256.0","3G2UL9A02E0KAD3AL358D89POC367A","ACAJFF4MF5S5X","3ECKRY5B1QIH1N6NFX1ECCW5ZDKIZQ","","665.1000000014901","img/flower4.png","75","666","2","1","2","1","1,0.333,0.333,0.333,1,0.333,0.333,0.333,1","1,0.333,0.333,0.333,1,0.333,0.333,0.333,1","1",""
"","html-keyboard-response","257","144226","0.0-257.0","3G2UL9A02E0KAD3AL358D89POC367A","ACAJFF4MF5S5X","3ECKRY5B1QIH1N6NFX1ECCW5ZDKIZQ","","null","<img src=""img/flower4.png"" style=""width:200px; border:14px solid green;"">","null","","","","","","","","",""
"","image-keyboard-response","258","144628","0.0-258.0","3G2UL9A02E0KAD3AL358D89POC367A","ACAJFF4MF5S5X","3ECKRY5B1QIH1N6NFX1ECCW5ZDKIZQ","","400.5","img/flower4.png","75","401.3999999985099","2","1","2","1","1,0.333,0.333,0.333,1,0.333,0.333,0.333,1","1,0.333,0.333,0.333,1,0.333,0.333,0.333,1","1",""
"","html-keyboard-response","259","144932","0.0-259.0","3G2UL9A02E0KAD3AL358D89POC367A","ACAJFF4MF5S5X","3ECKRY5B1QIH1N6NFX1ECCW5ZDKIZQ","","null","<img src=""img/flower4.png"" style=""width:200px; border:14px solid green;"">","null","","","","","","","","",""
"","image-keyboard-response","260","145580","0.0-260.0","3G2UL9A02E0KAD3AL358D89POC367A","ACAJFF4MF5S5X","3ECKRY5B1QIH1N6NFX1ECCW5ZDKIZQ","","645.8999999985099","img/flower6.png","74","647","1","1","1","1","1,0.333,0.333,0.333,1,0.333,0.333,0.333,1","1,0.333,0.333,0.333,1,0.333,0.333,0.333,1","1",""
"","html-keyboard-response","261","145881","0.0-261.0","3G2UL9A02E0KAD3AL358D89POC367A","ACAJFF4MF5S5X","3ECKRY5B1QIH1N6NFX1ECCW5ZDKIZQ","","null","<img src=""img/flower6.png"" style=""width:200px; border:14px solid green;"">","null","","","","","","","","",""
"","image-keyboard-response","262","146460","0.0-262.0","3G2UL9A02E0KAD3AL358D89POC367A","ACAJFF4MF5S5X","3ECKRY5B1QIH1N6NFX1ECCW5ZDKIZQ","","576.8999999985099","img/flower4.png","75","577.8999999985099","2","1","2","1","1,0.333,0.333,0.333,1,0.333,0.333,0.333,1","1,0.333,0.333,0.333,1,0.333,0.333,0.333,1","1",""
"","html-keyboard-response","263","146762","0.0-263.0","3G2UL9A02E0KAD3AL358D89POC367A","ACAJFF4MF5S5X","3ECKRY5B1QIH1N6NFX1ECCW5ZDKIZQ","","null","<img src=""img/flower4.png"" style=""width:200px; border:14px solid green;"">","null","","","","","","","","",""
"","image-keyboard-response","264","147396","0.0-264.0","3G2UL9A02E0KAD3AL358D89POC367A","ACAJFF4MF5S5X","3ECKRY5B1QIH1N6NFX1ECCW5ZDKIZQ","","633.2999999970198","img/flower1.png","76","634.3999999985099","3","1","3","1","1,0.333,0.333,0.333,1,0.333,0.333,0.333,1","1,0.333,0.333,0.333,1,0.333,0.333,0.333,1","1",""
"","html-keyboard-response","265","147698","0.0-265.0","3G2UL9A02E0KAD3AL358D89POC367A","ACAJFF4MF5S5X","3ECKRY5B1QIH1N6NFX1ECCW5ZDKIZQ","","null","<img src=""img/flower1.png"" style=""width:200px; border:14px solid green;"">","null","","","","","","","","",""
"","image-keyboard-response","266","148052","0.0-266.0","3G2UL9A02E0KAD3AL358D89POC367A","ACAJFF4MF5S5X","3ECKRY5B1QIH1N6NFX1ECCW5ZDKIZQ","","352.29999999701977","img/flower1.png","76","353.29999999701977","3","1","3","1","1,0.333,0.333,0.333,1,0.333,0.333,0.333,1","1,0.333,0.333,0.333,1,0.333,0.333,0.333,1","1",""
"","html-keyboard-response","267","148354","0.0-267.0","3G2UL9A02E0KAD3AL358D89POC367A","ACAJFF4MF5S5X","3ECKRY5B1QIH1N6NFX1ECCW5ZDKIZQ","","null","<img src=""img/flower1.png"" style=""width:200px; border:14px solid green;"">","null","","","","","","","","",""
"","image-keyboard-response","268","149148","0.0-268.0","3G2UL9A02E0KAD3AL358D89POC367A","ACAJFF4MF5S5X","3ECKRY5B1QIH1N6NFX1ECCW5ZDKIZQ","","792.6000000014901","img/flower6.png","74","793.5","1","1","1","1","1,0.333,0.333,0.333,1,0.333,0.333,0.333,1","1,0.333,0.333,0.333,1,0.333,0.333,0.333,1","1",""
"","html-keyboard-response","269","149450","0.0-269.0","3G2UL9A02E0KAD3AL358D89POC367A","ACAJFF4MF5S5X","3ECKRY5B1QIH1N6NFX1ECCW5ZDKIZQ","","null","<img src=""img/flower6.png"" style=""width:200px; border:14px solid green;"">","null","","","","","","","","",""
"","image-keyboard-response","270","149780","0.0-270.0","3G2UL9A02E0KAD3AL358D89POC367A","ACAJFF4MF5S5X","3ECKRY5B1QIH1N6NFX1ECCW5ZDKIZQ","","329","img/flower6.png","74","330.1000000014901","1","1","1","1","1,0.333,0.333,0.333,1,0.333,0.333,0.333,1","1,0.333,0.333,0.333,1,0.333,0.333,0.333,1","1",""
"","html-keyboard-response","271","150082","0.0-271.0","3G2UL9A02E0KAD3AL358D89POC367A","ACAJFF4MF5S5X","3ECKRY5B1QIH1N6NFX1ECCW5ZDKIZQ","","null","<img src=""img/flower6.png"" style=""width:200px; border:14px solid green;"">","null","","","","","","","","",""
"","image-keyboard-response","272","150779","0.0-272.0","3G2UL9A02E0KAD3AL358D89POC367A","ACAJFF4MF5S5X","3ECKRY5B1QIH1N6NFX1ECCW5ZDKIZQ","","695.7999999970198","img/flower4.png","75","696.5","2","1","2","1","1,0.333,0.333,0.333,1,0.333,0.333,0.333,1","1,0.333,0.333,0.333,1,0.333,0.333,0.333,1","1",""
"","html-keyboard-response","273","151081","0.0-273.0","3G2UL9A02E0KAD3AL358D89POC367A","ACAJFF4MF5S5X","3ECKRY5B1QIH1N6NFX1ECCW5ZDKIZQ","","null","<img src=""img/flower4.png"" style=""width:200px; border:14px solid green;"">","null","","","","","","","","",""
"","image-keyboard-response","274","151662","0.0-274.0","3G2UL9A02E0KAD3AL358D89POC367A","ACAJFF4MF5S5X","3ECKRY5B1QIH1N6NFX1ECCW5ZDKIZQ","","580.5","img/flower6.png","74","581.5","1","1","1","1","1,0.333,0.333,0.333,1,0.333,0.333,0.333,1","1,0.333,0.333,0.333,1,0.333,0.333,0.333,1","1",""
"","html-keyboard-response","275","151964","0.0-275.0","3G2UL9A02E0KAD3AL358D89POC367A","ACAJFF4MF5S5X","3ECKRY5B1QIH1N6NFX1ECCW5ZDKIZQ","","null","<img src=""img/flower6.png"" style=""width:200px; border:14px solid green;"">","null","","","","","","","","",""
"","image-keyboard-response","276","152604","0.0-276.0","3G2UL9A02E0KAD3AL358D89POC367A","ACAJFF4MF5S5X","3ECKRY5B1QIH1N6NFX1ECCW5ZDKIZQ","","638.3000000044703","img/flower1.png","76","639.3999999985099","3","1","3","1","1,0.333,0.333,0.333,1,0.333,0.333,0.333,1","1,0.333,0.333,0.333,1,0.333,0.333,0.333,1","1",""
"","html-keyboard-response","277","152906","0.0-277.0","3G2UL9A02E0KAD3AL358D89POC367A","ACAJFF4MF5S5X","3ECKRY5B1QIH1N6NFX1ECCW5ZDKIZQ","","null","<img src=""img/flower1.png"" style=""width:200px; border:14px solid green;"">","null","","","","","","","","",""
"","image-keyboard-response","278","153556","0.0-278.0","3G2UL9A02E0KAD3AL358D89POC367A","ACAJFF4MF5S5X","3ECKRY5B1QIH1N6NFX1ECCW5ZDKIZQ","","648.2999999970198","img/flower6.png","75","649.2000000029802","2","0","1","1","1,0.333,0.333,0.333,1,0.333,0.333,0.333,1","1,0.333,0.333,0.333,1,0.333,0.333,0.333,1","1",""
"","html-keyboard-response","279","153858","0.0-279.0","3G2UL9A02E0KAD3AL358D89POC367A","ACAJFF4MF5S5X","3ECKRY5B1QIH1N6NFX1ECCW5ZDKIZQ","","null","<img src=""img/flower6.png"" style=""width:200px;border:14px solid red;"">","null","","","","","","","","",""
"","image-keyboard-response","280","154572","0.0-280.0","3G2UL9A02E0KAD3AL358D89POC367A","ACAJFF4MF5S5X","3ECKRY5B1QIH1N6NFX1ECCW5ZDKIZQ","","712.3000000044703","img/flower4.png","75","713.3999999985099","2","1","2","1","1,0.333,0.333,0.333,1,0.333,0.333,0.333,1","1,0.333,0.333,0.333,1,0.333,0.333,0.333,1","1",""
"","html-keyboard-response","281","154874","0.0-281.0","3G2UL9A02E0KAD3AL358D89POC367A","ACAJFF4MF5S5X","3ECKRY5B1QIH1N6NFX1ECCW5ZDKIZQ","","null","<img src=""img/flower4.png"" style=""width:200px; border:14px solid green;"">","null","","","","","","","","",""
"","image-keyboard-response","282","155404","0.0-282.0","3G2UL9A02E0KAD3AL358D89POC367A","ACAJFF4MF5S5X","3ECKRY5B1QIH1N6NFX1ECCW5ZDKIZQ","","529.1000000014901","img/flower6.png","74","530.1999999955297","1","1","1","1","1,0.333,0.333,0.333,1,0.333,0.333,0.333,1","1,0.333,0.333,0.333,1,0.333,0.333,0.333,1","1",""
"","html-keyboard-response","283","155706","0.0-283.0","3G2UL9A02E0KAD3AL358D89POC367A","ACAJFF4MF5S5X","3ECKRY5B1QIH1N6NFX1ECCW5ZDKIZQ","","null","<img src=""img/flower6.png"" style=""width:200px; border:14px solid green;"">","null","","","","","","","","",""
"","image-keyboard-response","284","156156","0.0-284.0","3G2UL9A02E0KAD3AL358D89POC367A","ACAJFF4MF5S5X","3ECKRY5B1QIH1N6NFX1ECCW5ZDKIZQ","","448.30000000447035","img/flower6.png","74","449.5","1","1","1","1","1,0.333,0.333,0.333,1,0.333,0.333,0.333,1","1,0.333,0.333,0.333,1,0.333,0.333,0.333,1","1",""
"","html-keyboard-response","285","156458","0.0-285.0","3G2UL9A02E0KAD3AL358D89POC367A","ACAJFF4MF5S5X","3ECKRY5B1QIH1N6NFX1ECCW5ZDKIZQ","","null","<img src=""img/flower6.png"" style=""width:200px; border:14px solid green;"">","null","","","","","","","","",""
"","image-keyboard-response","286","156852","0.0-286.0","3G2UL9A02E0KAD3AL358D89POC367A","ACAJFF4MF5S5X","3ECKRY5B1QIH1N6NFX1ECCW5ZDKIZQ","","393","img/flower6.png","74","393.90000000596046","1","1","1","1","1,0.333,0.333,0.333,1,0.333,0.333,0.333,1","1,0.333,0.333,0.333,1,0.333,0.333,0.333,1","1",""
"","html-keyboard-response","287","157154","0.0-287.0","3G2UL9A02E0KAD3AL358D89POC367A","ACAJFF4MF5S5X","3ECKRY5B1QIH1N6NFX1ECCW5ZDKIZQ","","null","<img src=""img/flower6.png"" style=""width:200px; border:14px solid green;"">","null","","","","","","","","",""
"","image-keyboard-response","288","157659","0.0-288.0","3G2UL9A02E0KAD3AL358D89POC367A","ACAJFF4MF5S5X","3ECKRY5B1QIH1N6NFX1ECCW5ZDKIZQ","","503.70000000298023","img/flower4.png","76","504.70000000298023","3","1","2","1","1,0.333,0.333,0.333,1,0.333,0.333,0.333,1","1,0.333,0.333,0.333,1,0.333,0.333,0.333,1","1",""
"","html-keyboard-response","289","157960","0.0-289.0","3G2UL9A02E0KAD3AL358D89POC367A","ACAJFF4MF5S5X","3ECKRY5B1QIH1N6NFX1ECCW5ZDKIZQ","","null","<img src=""img/flower4.png"" style=""width:200px; border:14px solid green;"">","null","","","","","","","","",""
"","image-keyboard-response","290","158708","0.0-290.0","3G2UL9A02E0KAD3AL358D89POC367A","ACAJFF4MF5S5X","3ECKRY5B1QIH1N6NFX1ECCW5ZDKIZQ","","747.2999999970198","img/flower1.png","76","748.1999999955297","3","1","3","1","1,0.333,0.333,0.333,1,0.333,0.333,0.333,1","1,0.333,0.333,0.333,1,0.333,0.333,0.333,1","1",""
"","html-keyboard-response","291","159010","0.0-291.0","3G2UL9A02E0KAD3AL358D89POC367A","ACAJFF4MF5S5X","3ECKRY5B1QIH1N6NFX1ECCW5ZDKIZQ","","null","<img src=""img/flower1.png"" style=""width:200px; border:14px solid green;"">","null","","","","","","","","",""
"","image-keyboard-response","292","159508","0.0-292.0","3G2UL9A02E0KAD3AL358D89POC367A","ACAJFF4MF5S5X","3ECKRY5B1QIH1N6NFX1ECCW5ZDKIZQ","","496.40000000596046","img/flower1.png","76","497.3999999985099","3","1","3","1","1,0.333,0.333,0.333,1,0.333,0.333,0.333,1","1,0.333,0.333,0.333,1,0.333,0.333,0.333,1","1",""
"","html-keyboard-response","293","159810","0.0-293.0","3G2UL9A02E0KAD3AL358D89POC367A","ACAJFF4MF5S5X","3ECKRY5B1QIH1N6NFX1ECCW5ZDKIZQ","","null","<img src=""img/flower1.png"" style=""width:200px; border:14px solid green;"">","null","","","","","","","","",""
"","image-keyboard-response","294","160244","0.0-294.0","3G2UL9A02E0KAD3AL358D89POC367A","ACAJFF4MF5S5X","3ECKRY5B1QIH1N6NFX1ECCW5ZDKIZQ","","432.8999999985099","img/flower1.png","76","434","3","1","3","1","1,0.333,0.333,0.333,1,0.333,0.333,0.333,1","1,0.333,0.333,0.333,1,0.333,0.333,0.333,1","1",""
"","html-keyboard-response","295","160559","0.0-295.0","3G2UL9A02E0KAD3AL358D89POC367A","ACAJFF4MF5S5X","3ECKRY5B1QIH1N6NFX1ECCW5ZDKIZQ","","null","<img src=""img/flower1.png"" style=""width:200px; border:14px solid green;"">","null","","","","","","","","",""
"","image-keyboard-response","296","161300","0.0-296.0","3G2UL9A02E0KAD3AL358D89POC367A","ACAJFF4MF5S5X","3ECKRY5B1QIH1N6NFX1ECCW5ZDKIZQ","","739","img/flower4.png","76","740.1999999955297","3","0","2","1","1,0.333,0.333,0.333,1,0.333,0.333,0.333,1","1,0.333,0.333,0.333,1,0.333,0.333,0.333,1","1",""
"","html-keyboard-response","297","161602","0.0-297.0","3G2UL9A02E0KAD3AL358D89POC367A","ACAJFF4MF5S5X","3ECKRY5B1QIH1N6NFX1ECCW5ZDKIZQ","","null","<img src=""img/flower4.png"" style=""width:200px;border:14px solid red;"">","null","","","","","","","","",""
"","image-keyboard-response","298","162063","0.0-298.0","3G2UL9A02E0KAD3AL358D89POC367A","ACAJFF4MF5S5X","3ECKRY5B1QIH1N6NFX1ECCW5ZDKIZQ","","459.3999999985099","img/flower4.png","75","460.30000000447035","2","1","2","1","1,0.333,0.333,0.333,1,0.333,0.333,0.333,1","1,0.333,0.333,0.333,1,0.333,0.333,0.333,1","1",""
"","html-keyboard-response","299","162365","0.0-299.0","3G2UL9A02E0KAD3AL358D89POC367A","ACAJFF4MF5S5X","3ECKRY5B1QIH1N6NFX1ECCW5ZDKIZQ","","null","<img src=""img/flower4.png"" style=""width:200px; border:14px solid green;"">","null","","","","","","","","",""
"","image-keyboard-response","300","163004","0.0-300.0","3G2UL9A02E0KAD3AL358D89POC367A","ACAJFF4MF5S5X","3ECKRY5B1QIH1N6NFX1ECCW5ZDKIZQ","","637.6000000014901","img/flower6.png","74","638.6000000014901","1","1","1","1","1,0.333,0.333,0.333,1,0.333,0.333,0.333,1","1,0.333,0.333,0.333,1,0.333,0.333,0.333,1","1",""
"","html-keyboard-response","301","163306","0.0-301.0","3G2UL9A02E0KAD3AL358D89POC367A","ACAJFF4MF5S5X","3ECKRY5B1QIH1N6NFX1ECCW5ZDKIZQ","","null","<img src=""img/flower6.png"" style=""width:200px; border:14px solid green;"">","null","","","","","","","","",""
"","image-keyboard-response","302","163836","0.0-302.0","3G2UL9A02E0KAD3AL358D89POC367A","ACAJFF4MF5S5X","3ECKRY5B1QIH1N6NFX1ECCW5ZDKIZQ","","528.6000000014901","img/flower6.png","74","529.7999999970198","1","1","1","1","1,0.333,0.333,0.333,1,0.333,0.333,0.333,1","1,0.333,0.333,0.333,1,0.333,0.333,0.333,1","1",""
"","html-keyboard-response","303","164138","0.0-303.0","3G2UL9A02E0KAD3AL358D89POC367A","ACAJFF4MF5S5X","3ECKRY5B1QIH1N6NFX1ECCW5ZDKIZQ","","null","<img src=""img/flower6.png"" style=""width:200px; border:14px solid green;"">","null","","","","","","","","",""
"","image-keyboard-response","304","164596","0.0-304.0","3G2UL9A02E0KAD3AL358D89POC367A","ACAJFF4MF5S5X","3ECKRY5B1QIH1N6NFX1ECCW5ZDKIZQ","","456.8999999985099","img/flower4.png","75","457.90000000596046","2","1","2","1","1,0.333,0.333,0.333,1,0.333,0.333,0.333,1","1,0.333,0.333,0.333,1,0.333,0.333,0.333,1","1",""
"","html-keyboard-response","305","164898","0.0-305.0","3G2UL9A02E0KAD3AL358D89POC367A","ACAJFF4MF5S5X","3ECKRY5B1QIH1N6NFX1ECCW5ZDKIZQ","","null","<img src=""img/flower4.png"" style=""width:200px; border:14px solid green;"">","null","","","","","","","","",""
"","image-keyboard-response","306","165396","0.0-306.0","3G2UL9A02E0KAD3AL358D89POC367A","ACAJFF4MF5S5X","3ECKRY5B1QIH1N6NFX1ECCW5ZDKIZQ","","496.09999999403954","img/flower6.png","74","497.20000000298023","1","1","1","1","1,0.333,0.333,0.333,1,0.333,0.333,0.333,1","1,0.333,0.333,0.333,1,0.333,0.333,0.333,1","1",""
"","html-keyboard-response","307","165698","0.0-307.0","3G2UL9A02E0KAD3AL358D89POC367A","ACAJFF4MF5S5X","3ECKRY5B1QIH1N6NFX1ECCW5ZDKIZQ","","null","<img src=""img/flower6.png"" style=""width:200px; border:14px solid green;"">","null","","","","","","","","",""
"","image-keyboard-response","308","166283","0.0-308.0","3G2UL9A02E0KAD3AL358D89POC367A","ACAJFF4MF5S5X","3ECKRY5B1QIH1N6NFX1ECCW5ZDKIZQ","","583.1000000014901","img/flower4.png","75","583.8999999985099","2","1","2","1","1,0.333,0.333,0.333,1,0.333,0.333,0.333,1","1,0.333,0.333,0.333,1,0.333,0.333,0.333,1","1",""
"","html-keyboard-response","309","166599","0.0-309.0","3G2UL9A02E0KAD3AL358D89POC367A","ACAJFF4MF5S5X","3ECKRY5B1QIH1N6NFX1ECCW5ZDKIZQ","","null","<img src=""img/flower4.png"" style=""width:200px; border:14px solid green;"">","null","","","","","","","","",""
"","image-keyboard-response","310","166980","0.0-310.0","3G2UL9A02E0KAD3AL358D89POC367A","ACAJFF4MF5S5X","3ECKRY5B1QIH1N6NFX1ECCW5ZDKIZQ","","377.5","img/flower4.png","75","378.6000000014901","2","1","2","1","1,0.333,0.333,0.333,1,0.333,0.333,0.333,1","1,0.333,0.333,0.333,1,0.333,0.333,0.333,1","1",""
"","html-keyboard-response","311","167281","0.0-311.0","3G2UL9A02E0KAD3AL358D89POC367A","ACAJFF4MF5S5X","3ECKRY5B1QIH1N6NFX1ECCW5ZDKIZQ","","null","<img src=""img/flower4.png"" style=""width:200px; border:14px solid green;"">","null","","","","","","","","",""
"","image-keyboard-response","312","167900","0.0-312.0","3G2UL9A02E0KAD3AL358D89POC367A","ACAJFF4MF5S5X","3ECKRY5B1QIH1N6NFX1ECCW5ZDKIZQ","","617.3000000044703","img/flower6.png","74","618.3999999985099","1","1","1","1","1,0.333,0.333,0.333,1,0.333,0.333,0.333,1","1,0.333,0.333,0.333,1,0.333,0.333,0.333,1","1",""
"","html-keyboard-response","313","168202","0.0-313.0","3G2UL9A02E0KAD3AL358D89POC367A","ACAJFF4MF5S5X","3ECKRY5B1QIH1N6NFX1ECCW5ZDKIZQ","","null","<img src=""img/flower6.png"" style=""width:200px; border:14px solid green;"">","null","","","","","","","","",""
"","image-keyboard-response","314","168764","0.0-314.0","3G2UL9A02E0KAD3AL358D89POC367A","ACAJFF4MF5S5X","3ECKRY5B1QIH1N6NFX1ECCW5ZDKIZQ","","561.1000000014901","img/flower4.png","74","562.1000000014901","1","0","2","1","1,0.333,0.333,0.333,1,0.333,0.333,0.333,1","1,0.333,0.333,0.333,1,0.333,0.333,0.333,1","1",""
"","html-keyboard-response","315","169066","0.0-315.0","3G2UL9A02E0KAD3AL358D89POC367A","ACAJFF4MF5S5X","3ECKRY5B1QIH1N6NFX1ECCW5ZDKIZQ","","null","<img src=""img/flower4.png"" style=""width:200px;border:14px solid red;"">","null","","","","","","","","",""
"","image-keyboard-response","316","169732","0.0-316.0","3G2UL9A02E0KAD3AL358D89POC367A","ACAJFF4MF5S5X","3ECKRY5B1QIH1N6NFX1ECCW5ZDKIZQ","","664.1000000014901","img/flower1.png","76","665.1999999955297","3","1","3","1","1,0.333,0.333,0.333,1,0.333,0.333,0.333,1","1,0.333,0.333,0.333,1,0.333,0.333,0.333,1","1",""
"","html-keyboard-response","317","170033","0.0-317.0","3G2UL9A02E0KAD3AL358D89POC367A","ACAJFF4MF5S5X","3ECKRY5B1QIH1N6NFX1ECCW5ZDKIZQ","","null","<img src=""img/flower1.png"" style=""width:200px; border:14px solid green;"">","null","","","","","","","","",""
"","image-keyboard-response","318","170436","0.0-318.0","3G2UL9A02E0KAD3AL358D89POC367A","ACAJFF4MF5S5X","3ECKRY5B1QIH1N6NFX1ECCW5ZDKIZQ","","401.3999999985099","img/flower1.png","76","402.5","3","1","3","1","1,0.333,0.333,0.333,1,0.333,0.333,0.333,1","1,0.333,0.333,0.333,1,0.333,0.333,0.333,1","1",""
"","html-keyboard-response","319","170738","0.0-319.0","3G2UL9A02E0KAD3AL358D89POC367A","ACAJFF4MF5S5X","3ECKRY5B1QIH1N6NFX1ECCW5ZDKIZQ","","null","<img src=""img/flower1.png"" style=""width:200px; border:14px solid green;"">","null","","","","","","","","",""
"","image-keyboard-response","320","171108","0.0-320.0","3G2UL9A02E0KAD3AL358D89POC367A","ACAJFF4MF5S5X","3ECKRY5B1QIH1N6NFX1ECCW5ZDKIZQ","","368.70000000298023","img/flower1.png","76","369.70000000298023","3","1","3","1","1,0.333,0.333,0.333,1,0.333,0.333,0.333,1","1,0.333,0.333,0.333,1,0.333,0.333,0.333,1","1",""
"","html-keyboard-response","321","171410","0.0-321.0","3G2UL9A02E0KAD3AL358D89POC367A","ACAJFF4MF5S5X","3ECKRY5B1QIH1N6NFX1ECCW5ZDKIZQ","","null","<img src=""img/flower1.png"" style=""width:200px; border:14px solid green;"">","null","","","","","","","","",""
"","image-keyboard-response","322","171868","0.0-322.0","3G2UL9A02E0KAD3AL358D89POC367A","ACAJFF4MF5S5X","3ECKRY5B1QIH1N6NFX1ECCW5ZDKIZQ","","456.6000000014901","img/flower4.png","75","457.6000000014901","2","1","2","1","1,0.333,0.333,0.333,1,0.333,0.333,0.333,1","1,0.333,0.333,0.333,1,0.333,0.333,0.333,1","1",""
"","html-keyboard-response","323","172170","0.0-323.0","3G2UL9A02E0KAD3AL358D89POC367A","ACAJFF4MF5S5X","3ECKRY5B1QIH1N6NFX1ECCW5ZDKIZQ","","null","<img src=""img/flower4.png"" style=""width:200px; border:14px solid green;"">","null","","","","","","","","",""
"","image-keyboard-response","324","172495","0.0-324.0","3G2UL9A02E0KAD3AL358D89POC367A","ACAJFF4MF5S5X","3ECKRY5B1QIH1N6NFX1ECCW5ZDKIZQ","","323.69999999552965","img/flower4.png","75","324.90000000596046","2","1","2","1","1,0.333,0.333,0.333,1,0.333,0.333,0.333,1","1,0.333,0.333,0.333,1,0.333,0.333,0.333,1","1",""
"","html-keyboard-response","325","172797","0.0-325.0","3G2UL9A02E0KAD3AL358D89POC367A","ACAJFF4MF5S5X","3ECKRY5B1QIH1N6NFX1ECCW5ZDKIZQ","","null","<img src=""img/flower4.png"" style=""width:200px; border:14px solid green;"">","null","","","","","","","","",""
"","image-keyboard-response","326","173211","0.0-326.0","3G2UL9A02E0KAD3AL358D89POC367A","ACAJFF4MF5S5X","3ECKRY5B1QIH1N6NFX1ECCW5ZDKIZQ","","413.70000000298023","img/flower6.png","74","414.69999999552965","1","1","1","1","1,0.333,0.333,0.333,1,0.333,0.333,0.333,1","1,0.333,0.333,0.333,1,0.333,0.333,0.333,1","1",""
"","html-keyboard-response","327","173514","0.0-327.0","3G2UL9A02E0KAD3AL358D89POC367A","ACAJFF4MF5S5X","3ECKRY5B1QIH1N6NFX1ECCW5ZDKIZQ","","null","<img src=""img/flower6.png"" style=""width:200px; border:14px solid green;"">","null","","","","","","","","",""
"","image-keyboard-response","328","173836","0.0-328.0","3G2UL9A02E0KAD3AL358D89POC367A","ACAJFF4MF5S5X","3ECKRY5B1QIH1N6NFX1ECCW5ZDKIZQ","","320.8999999985099","img/flower6.png","74","322.1000000014901","1","1","1","1","1,0.333,0.333,0.333,1,0.333,0.333,0.333,1","1,0.333,0.333,0.333,1,0.333,0.333,0.333,1","1",""
"","html-keyboard-response","329","174138","0.0-329.0","3G2UL9A02E0KAD3AL358D89POC367A","ACAJFF4MF5S5X","3ECKRY5B1QIH1N6NFX1ECCW5ZDKIZQ","","null","<img src=""img/flower6.png"" style=""width:200px; border:14px solid green;"">","null","","","","","","","","",""
"","image-keyboard-response","330","174804","0.0-330.0","3G2UL9A02E0KAD3AL358D89POC367A","ACAJFF4MF5S5X","3ECKRY5B1QIH1N6NFX1ECCW5ZDKIZQ","","664.3999999985099","img/flower1.png","76","665.5999999940395","3","1","3","1","1,0.333,0.333,0.333,1,0.333,0.333,0.333,1","1,0.333,0.333,0.333,1,0.333,0.333,0.333,1","1",""
"","html-keyboard-response","331","175106","0.0-331.0","3G2UL9A02E0KAD3AL358D89POC367A","ACAJFF4MF5S5X","3ECKRY5B1QIH1N6NFX1ECCW5ZDKIZQ","","null","<img src=""img/flower1.png"" style=""width:200px; border:14px solid green;"">","null","","","","","","","","",""
"","image-keyboard-response","332","175436","0.0-332.0","3G2UL9A02E0KAD3AL358D89POC367A","ACAJFF4MF5S5X","3ECKRY5B1QIH1N6NFX1ECCW5ZDKIZQ","","328.19999999552965","img/flower6.png","76","329.29999999701977","3","1","1","1","1,0.333,0.333,0.333,1,0.333,0.333,0.333,1","1,0.333,0.333,0.333,1,0.333,0.333,0.333,1","1",""
"","html-keyboard-response","333","175738","0.0-333.0","3G2UL9A02E0KAD3AL358D89POC367A","ACAJFF4MF5S5X","3ECKRY5B1QIH1N6NFX1ECCW5ZDKIZQ","","null","<img src=""img/flower6.png"" style=""width:200px; border:14px solid green;"">","null","","","","","","","","",""
"","image-keyboard-response","334","176796","0.0-334.0","3G2UL9A02E0KAD3AL358D89POC367A","ACAJFF4MF5S5X","3ECKRY5B1QIH1N6NFX1ECCW5ZDKIZQ","","1057.2999999970198","img/flower1.png","76","1057.8999999985099","3","1","3","1","1,0.333,0.333,0.333,1,0.333,0.333,0.333,1","1,0.333,0.333,0.333,1,0.333,0.333,0.333,1","1",""
"","html-keyboard-response","335","177098","0.0-335.0","3G2UL9A02E0KAD3AL358D89POC367A","ACAJFF4MF5S5X","3ECKRY5B1QIH1N6NFX1ECCW5ZDKIZQ","","null","<img src=""img/flower1.png"" style=""width:200px; border:14px solid green;"">","null","","","","","","","","",""
"","image-keyboard-response","336","177556","0.0-336.0","3G2UL9A02E0KAD3AL358D89POC367A","ACAJFF4MF5S5X","3ECKRY5B1QIH1N6NFX1ECCW5ZDKIZQ","","456.8999999985099","img/flower6.png","76","457.79999999701977","3","1","1","1","1,0.333,0.333,0.333,1,0.333,0.333,0.333,1","1,0.333,0.333,0.333,1,0.333,0.333,0.333,1","1",""
"","html-keyboard-response","337","177858","0.0-337.0","3G2UL9A02E0KAD3AL358D89POC367A","ACAJFF4MF5S5X","3ECKRY5B1QIH1N6NFX1ECCW5ZDKIZQ","","null","<img src=""img/flower6.png"" style=""width:200px; border:14px solid green;"">","null","","","","","","","","",""
"","image-keyboard-response","338","178452","0.0-338.0","3G2UL9A02E0KAD3AL358D89POC367A","ACAJFF4MF5S5X","3ECKRY5B1QIH1N6NFX1ECCW5ZDKIZQ","","592.2999999970198","img/flower6.png","76","593.3000000044703","3","1","1","1","1,0.333,0.333,0.333,1,0.333,0.333,0.333,1","1,0.333,0.333,0.333,1,0.333,0.333,0.333,1","1",""
"","html-keyboard-response","339","178753","0.0-339.0","3G2UL9A02E0KAD3AL358D89POC367A","ACAJFF4MF5S5X","3ECKRY5B1QIH1N6NFX1ECCW5ZDKIZQ","","null","<img src=""img/flower6.png"" style=""width:200px; border:14px solid green;"">","null","","","","","","","","",""
"","image-keyboard-response","340","179196","0.0-340.0","3G2UL9A02E0KAD3AL358D89POC367A","ACAJFF4MF5S5X","3ECKRY5B1QIH1N6NFX1ECCW5ZDKIZQ","","441.29999999701977","img/flower6.png","76","442.3999999985099","3","1","1","1","1,0.333,0.333,0.333,1,0.333,0.333,0.333,1","1,0.333,0.333,0.333,1,0.333,0.333,0.333,1","1",""
"","html-keyboard-response","341","179498","0.0-341.0","3G2UL9A02E0KAD3AL358D89POC367A","ACAJFF4MF5S5X","3ECKRY5B1QIH1N6NFX1ECCW5ZDKIZQ","","null","<img src=""img/flower6.png"" style=""width:200px; border:14px solid green;"">","null","","","","","","","","",""
"","image-keyboard-response","342","180124","0.0-342.0","3G2UL9A02E0KAD3AL358D89POC367A","ACAJFF4MF5S5X","3ECKRY5B1QIH1N6NFX1ECCW5ZDKIZQ","","625","img/flower4.png","75","626","2","1","2","1","1,0.333,0.333,0.333,1,0.333,0.333,0.333,1","1,0.333,0.333,0.333,1,0.333,0.333,0.333,1","1",""
"","html-keyboard-response","343","180425","0.0-343.0","3G2UL9A02E0KAD3AL358D89POC367A","ACAJFF4MF5S5X","3ECKRY5B1QIH1N6NFX1ECCW5ZDKIZQ","","null","<img src=""img/flower4.png"" style=""width:200px; border:14px solid green;"">","null","","","","","","","","",""
"","image-keyboard-response","344","181116","0.0-344.0","3G2UL9A02E0KAD3AL358D89POC367A","ACAJFF4MF5S5X","3ECKRY5B1QIH1N6NFX1ECCW5ZDKIZQ","","689.2999999970198","img/flower1.png","76","690.5","3","1","3","1","1,0.333,0.333,0.333,1,0.333,0.333,0.333,1","1,0.333,0.333,0.333,1,0.333,0.333,0.333,1","1",""
"","html-keyboard-response","345","181418","0.0-345.0","3G2UL9A02E0KAD3AL358D89POC367A","ACAJFF4MF5S5X","3ECKRY5B1QIH1N6NFX1ECCW5ZDKIZQ","","null","<img src=""img/flower1.png"" style=""width:200px; border:14px solid green;"">","null","","","","","","","","",""
"","image-keyboard-response","346","181812","0.0-346.0","3G2UL9A02E0KAD3AL358D89POC367A","ACAJFF4MF5S5X","3ECKRY5B1QIH1N6NFX1ECCW5ZDKIZQ","","392.70000000298023","img/flower1.png","76","393.70000000298023","3","1","3","1","1,0.333,0.333,0.333,1,0.333,0.333,0.333,1","1,0.333,0.333,0.333,1,0.333,0.333,0.333,1","1",""
"","html-keyboard-response","347","182115","0.0-347.0","3G2UL9A02E0KAD3AL358D89POC367A","ACAJFF4MF5S5X","3ECKRY5B1QIH1N6NFX1ECCW5ZDKIZQ","","null","<img src=""img/flower1.png"" style=""width:200px; border:14px solid green;"">","null","","","","","","","","",""
"","image-keyboard-response","348","182790","0.0-348.0","3G2UL9A02E0KAD3AL358D89POC367A","ACAJFF4MF5S5X","3ECKRY5B1QIH1N6NFX1ECCW5ZDKIZQ","","673.8999999985099","img/flower6.png","76","675.0999999940395","3","1","1","1","1,0.333,0.333,0.333,1,0.333,0.333,0.333,1","1,0.333,0.333,0.333,1,0.333,0.333,0.333,1","1",""
"","html-keyboard-response","349","183093","0.0-349.0","3G2UL9A02E0KAD3AL358D89POC367A","ACAJFF4MF5S5X","3ECKRY5B1QIH1N6NFX1ECCW5ZDKIZQ","","null","<img src=""img/flower6.png"" style=""width:200px; border:14px solid green;"">","null","","","","","","","","",""
"","image-keyboard-response","350","183508","0.0-350.0","3G2UL9A02E0KAD3AL358D89POC367A","ACAJFF4MF5S5X","3ECKRY5B1QIH1N6NFX1ECCW5ZDKIZQ","","414.3999999985099","img/flower6.png","76","415.40000000596046","3","1","1","1","1,0.333,0.333,0.333,1,0.333,0.333,0.333,1","1,0.333,0.333,0.333,1,0.333,0.333,0.333,1","1",""
"","html-keyboard-response","351","183811","0.0-351.0","3G2UL9A02E0KAD3AL358D89POC367A","ACAJFF4MF5S5X","3ECKRY5B1QIH1N6NFX1ECCW5ZDKIZQ","","null","<img src=""img/flower6.png"" style=""width:200px; border:14px solid green;"">","null","","","","","","","","",""
"","image-keyboard-response","352","184420","0.0-352.0","3G2UL9A02E0KAD3AL358D89POC367A","ACAJFF4MF5S5X","3ECKRY5B1QIH1N6NFX1ECCW5ZDKIZQ","","607.8999999985099","img/flower4.png","75","609.1000000014901","2","1","2","1","1,0.333,0.333,0.333,1,0.333,0.333,0.333,1","1,0.333,0.333,0.333,1,0.333,0.333,0.333,1","1",""
"","html-keyboard-response","353","184723","0.0-353.0","3G2UL9A02E0KAD3AL358D89POC367A","ACAJFF4MF5S5X","3ECKRY5B1QIH1N6NFX1ECCW5ZDKIZQ","","null","<img src=""img/flower4.png"" style=""width:200px; border:14px solid green;"">","null","","","","","","","","",""
"","image-keyboard-response","354","185196","0.0-354.0","3G2UL9A02E0KAD3AL358D89POC367A","ACAJFF4MF5S5X","3ECKRY5B1QIH1N6NFX1ECCW5ZDKIZQ","","471.6000000014901","img/flower6.png","76","472.70000000298023","3","0","1","1","1,0.333,0.333,0.333,1,0.333,0.333,0.333,1","1,0.333,0.333,0.333,1,0.333,0.333,0.333,1","1",""
"","html-keyboard-response","355","185497","0.0-355.0","3G2UL9A02E0KAD3AL358D89POC367A","ACAJFF4MF5S5X","3ECKRY5B1QIH1N6NFX1ECCW5ZDKIZQ","","null","<img src=""img/flower6.png"" style=""width:200px;border:14px solid red;"">","null","","","","","","","","",""
"","image-keyboard-response","356","186636","0.0-356.0","3G2UL9A02E0KAD3AL358D89POC367A","ACAJFF4MF5S5X","3ECKRY5B1QIH1N6NFX1ECCW5ZDKIZQ","","1137","img/flower1.png","76","1138.2000000029802","3","1","3","1","1,0.333,0.333,0.333,1,0.333,0.333,0.333,1","1,0.333,0.333,0.333,1,0.333,0.333,0.333,1","1",""
"","html-keyboard-response","357","186938","0.0-357.0","3G2UL9A02E0KAD3AL358D89POC367A","ACAJFF4MF5S5X","3ECKRY5B1QIH1N6NFX1ECCW5ZDKIZQ","","null","<img src=""img/flower1.png"" style=""width:200px; border:14px solid green;"">","null","","","","","","","","",""
"","image-keyboard-response","358","187292","0.0-358.0","3G2UL9A02E0KAD3AL358D89POC367A","ACAJFF4MF5S5X","3ECKRY5B1QIH1N6NFX1ECCW5ZDKIZQ","","352.8999999985099","img/flower1.png","76","353.8999999985099","3","1","3","1","1,0.333,0.333,0.333,1,0.333,0.333,0.333,1","1,0.333,0.333,0.333,1,0.333,0.333,0.333,1","1",""
"","html-keyboard-response","359","187594","0.0-359.0","3G2UL9A02E0KAD3AL358D89POC367A","ACAJFF4MF5S5X","3ECKRY5B1QIH1N6NFX1ECCW5ZDKIZQ","","null","<img src=""img/flower1.png"" style=""width:200px; border:14px solid green;"">","null","","","","","","","","",""
"","image-keyboard-response","360","187932","0.0-360.0","3G2UL9A02E0KAD3AL358D89POC367A","ACAJFF4MF5S5X","3ECKRY5B1QIH1N6NFX1ECCW5ZDKIZQ","","336.5","img/flower1.png","76","337.6000000014901","3","1","3","1","1,0.333,0.333,0.333,1,0.333,0.333,0.333,1","1,0.333,0.333,0.333,1,0.333,0.333,0.333,1","1",""
"","html-keyboard-response","361","188233","0.0-361.0","3G2UL9A02E0KAD3AL358D89POC367A","ACAJFF4MF5S5X","3ECKRY5B1QIH1N6NFX1ECCW5ZDKIZQ","","null","<img src=""img/flower1.png"" style=""width:200px; border:14px solid green;"">","null","","","","","","","","",""
"","html-keyboard-response","362","191635","0.0-362.0","3G2UL9A02E0KAD3AL358D89POC367A","ACAJFF4MF5S5X","3ECKRY5B1QIH1N6NFX1ECCW5ZDKIZQ","","","","","","","","","","","","",""
"","instructions","363","193784","0.0-363.0","3G2UL9A02E0KAD3AL358D89POC367A","ACAJFF4MF5S5X","3ECKRY5B1QIH1N6NFX1ECCW5ZDKIZQ","[{""page_index"":0,""viewing_time"":2147.8000000044703}]","2148.10000000149","","","","","","","","","","",""
"","survey-text","364","197975","0.0-364.0","3G2UL9A02E0KAD3AL358D89POC367A","ACAJFF4MF5S5X","3ECKRY5B1QIH1N6NFX1ECCW5ZDKIZQ","","4188","","","","","","","","","","","{""Q0"":""ACAJFF4MF5S5X""}"
