"rt","url","trial_type","trial_index","time_elapsed","internal_node_id","assignmentID","mturkID","hitID","success","view_history","stimulus","key_press","reactionTime","a","r","s","cond","reward_cond","reward_cond_actual","reward_matrix_idx","responses"
"3233.7000000476837","consent.html","external-html","0","3297","0.0-0.0","3OSWBBLG1FJDA1OGD3HKDDW56S1XDL","ACKG8OU1KHKO2","3MVY4USGB69K0BK9K576GJZ2CVDSII","","","","","","","","","","","","",""
"","","fullscreen","1","9809","0.0-1.0","3OSWBBLG1FJDA1OGD3HKDDW56S1XDL","ACKG8OU1KHKO2","3MVY4USGB69K0BK9K576GJZ2CVDSII","true","","","","","","","","","","","",""
"65238.5","","instructions","2","75046","0.0-2.0","3OSWBBLG1FJDA1OGD3HKDDW56S1XDL","ACKG8OU1KHKO2","3MVY4USGB69K0BK9K576GJZ2CVDSII","","[{""page_index"":0,""viewing_time"":14525.600000023842},{""page_index"":1,""viewing_time"":6856.600000023842},{""page_index"":2,""viewing_time"":5389},{""page_index"":3,""viewing_time"":12102.5},{""page_index"":4,""viewing_time"":2512.5},{""page_index"":5,""viewing_time"":22977.899999976158},{""page_index"":6,""viewing_time"":873.8999999761581}]","","","","","","","","","","",""
"155414.30000007153","","instructions","3","230457","0.0-3.0","3OSWBBLG1FJDA1OGD3HKDDW56S1XDL","ACKG8OU1KHKO2","3MVY4USGB69K0BK9K576GJZ2CVDSII","","[{""page_index"":0,""viewing_time"":155414.10000002384}]","","","","","","","","","","",""
"1447.3000000715256","","image-keyboard-response","4","231906","0.0-4.0","3OSWBBLG1FJDA1OGD3HKDDW56S1XDL","ACKG8OU1KHKO2","3MVY4USGB69K0BK9K576GJZ2CVDSII","","","img/flower4.png","74","1448.5","1","1","1","","","","",""
"null","","html-keyboard-response","5","232215","0.0-5.0","3OSWBBLG1FJDA1OGD3HKDDW56S1XDL","ACKG8OU1KHKO2","3MVY4USGB69K0BK9K576GJZ2CVDSII","","","<img src=""img/flower4.png"" style=""width:200px; border:14px solid green;"">","null","","","","","","","","",""
"1497.7000000476837","","image-keyboard-response","6","233714","0.0-6.0","3OSWBBLG1FJDA1OGD3HKDDW56S1XDL","ACKG8OU1KHKO2","3MVY4USGB69K0BK9K576GJZ2CVDSII","","","img/flower5.png","75","1498.1999999284744","2","1","2","","","","",""
"null","","html-keyboard-response","7","234026","0.0-7.0","3OSWBBLG1FJDA1OGD3HKDDW56S1XDL","ACKG8OU1KHKO2","3MVY4USGB69K0BK9K576GJZ2CVDSII","","","<img src=""img/flower5.png"" style=""width:200px; border:14px solid green;"">","null","","","","","","","","",""
"638.2999999523163","","image-keyboard-response","8","234665","0.0-8.0","3OSWBBLG1FJDA1OGD3HKDDW56S1XDL","ACKG8OU1KHKO2","3MVY4USGB69K0BK9K576GJZ2CVDSII","","","img/flower6.png","76","639.1000000238419","3","1","3","","","","",""
"null","","html-keyboard-response","9","234966","0.0-9.0","3OSWBBLG1FJDA1OGD3HKDDW56S1XDL","ACKG8OU1KHKO2","3MVY4USGB69K0BK9K576GJZ2CVDSII","","","<img src=""img/flower6.png"" style=""width:200px; border:14px solid green;"">","null","","","","","","","","",""
"690.5","","image-keyboard-response","10","235657","0.0-10.0","3OSWBBLG1FJDA1OGD3HKDDW56S1XDL","ACKG8OU1KHKO2","3MVY4USGB69K0BK9K576GJZ2CVDSII","","","img/flower4.png","74","691","1","1","1","","","","",""
"null","","html-keyboard-response","11","235966","0.0-11.0","3OSWBBLG1FJDA1OGD3HKDDW56S1XDL","ACKG8OU1KHKO2","3MVY4USGB69K0BK9K576GJZ2CVDSII","","","<img src=""img/flower4.png"" style=""width:200px; border:14px solid green;"">","null","","","","","","","","",""
"1242.5","","image-keyboard-response","12","237209","0.0-12.0","3OSWBBLG1FJDA1OGD3HKDDW56S1XDL","ACKG8OU1KHKO2","3MVY4USGB69K0BK9K576GJZ2CVDSII","","","img/flower6.png","76","1243.0999999046326","3","1","3","","","","",""
"null","","html-keyboard-response","13","237521","0.0-13.0","3OSWBBLG1FJDA1OGD3HKDDW56S1XDL","ACKG8OU1KHKO2","3MVY4USGB69K0BK9K576GJZ2CVDSII","","","<img src=""img/flower6.png"" style=""width:200px; border:14px solid green;"">","null","","","","","","","","",""
"847.5","","image-keyboard-response","14","238369","0.0-14.0","3OSWBBLG1FJDA1OGD3HKDDW56S1XDL","ACKG8OU1KHKO2","3MVY4USGB69K0BK9K576GJZ2CVDSII","","","img/flower4.png","74","848.1000000238419","1","0","1","","","","",""
"null","","html-keyboard-response","15","238678","0.0-15.0","3OSWBBLG1FJDA1OGD3HKDDW56S1XDL","ACKG8OU1KHKO2","3MVY4USGB69K0BK9K576GJZ2CVDSII","","","<img src=""img/flower4.png"" style=""width:200px;border:14px solid red;"">","null","","","","","","","","",""
"609.8999999761581","","image-keyboard-response","16","239288","0.0-16.0","3OSWBBLG1FJDA1OGD3HKDDW56S1XDL","ACKG8OU1KHKO2","3MVY4USGB69K0BK9K576GJZ2CVDSII","","","img/flower4.png","74","610.6000000238419","1","1","1","","","","",""
"null","","html-keyboard-response","17","239592","0.0-17.0","3OSWBBLG1FJDA1OGD3HKDDW56S1XDL","ACKG8OU1KHKO2","3MVY4USGB69K0BK9K576GJZ2CVDSII","","","<img src=""img/flower4.png"" style=""width:200px; border:14px solid green;"">","null","","","","","","","","",""
"983.7000000476837","","image-keyboard-response","18","240577","0.0-18.0","3OSWBBLG1FJDA1OGD3HKDDW56S1XDL","ACKG8OU1KHKO2","3MVY4USGB69K0BK9K576GJZ2CVDSII","","","img/flower5.png","75","984.3000000715256","2","1","2","","","","",""
"null","","html-keyboard-response","19","240888","0.0-19.0","3OSWBBLG1FJDA1OGD3HKDDW56S1XDL","ACKG8OU1KHKO2","3MVY4USGB69K0BK9K576GJZ2CVDSII","","","<img src=""img/flower5.png"" style=""width:200px; border:14px solid green;"">","null","","","","","","","","",""
"689","","image-keyboard-response","20","241577","0.0-20.0","3OSWBBLG1FJDA1OGD3HKDDW56S1XDL","ACKG8OU1KHKO2","3MVY4USGB69K0BK9K576GJZ2CVDSII","","","img/flower6.png","76","689.6999999284744","3","1","3","","","","",""
"null","","html-keyboard-response","21","241891","0.0-21.0","3OSWBBLG1FJDA1OGD3HKDDW56S1XDL","ACKG8OU1KHKO2","3MVY4USGB69K0BK9K576GJZ2CVDSII","","","<img src=""img/flower6.png"" style=""width:200px; border:14px solid green;"">","null","","","","","","","","",""
"453","","image-keyboard-response","22","242344","0.0-22.0","3OSWBBLG1FJDA1OGD3HKDDW56S1XDL","ACKG8OU1KHKO2","3MVY4USGB69K0BK9K576GJZ2CVDSII","","","img/flower6.png","76","453.60000002384186","3","1","3","","","","",""
"null","","html-keyboard-response","23","242647","0.0-23.0","3OSWBBLG1FJDA1OGD3HKDDW56S1XDL","ACKG8OU1KHKO2","3MVY4USGB69K0BK9K576GJZ2CVDSII","","","<img src=""img/flower6.png"" style=""width:200px; border:14px solid green;"">","null","","","","","","","","",""
"360.7999999523163","","image-keyboard-response","24","243009","0.0-24.0","3OSWBBLG1FJDA1OGD3HKDDW56S1XDL","ACKG8OU1KHKO2","3MVY4USGB69K0BK9K576GJZ2CVDSII","","","img/flower6.png","76","361.60000002384186","3","1","3","","","","",""
"null","","html-keyboard-response","25","243320","0.0-25.0","3OSWBBLG1FJDA1OGD3HKDDW56S1XDL","ACKG8OU1KHKO2","3MVY4USGB69K0BK9K576GJZ2CVDSII","","","<img src=""img/flower6.png"" style=""width:200px; border:14px solid green;"">","null","","","","","","","","",""
"465.6999999284744","","image-keyboard-response","26","243786","0.0-26.0","3OSWBBLG1FJDA1OGD3HKDDW56S1XDL","ACKG8OU1KHKO2","3MVY4USGB69K0BK9K576GJZ2CVDSII","","","img/flower5.png","74","466.39999997615814","1","1","2","","","","",""
"null","","html-keyboard-response","27","244094","0.0-27.0","3OSWBBLG1FJDA1OGD3HKDDW56S1XDL","ACKG8OU1KHKO2","3MVY4USGB69K0BK9K576GJZ2CVDSII","","","<img src=""img/flower5.png"" style=""width:200px; border:14px solid green;"">","null","","","","","","","","",""
"489.7000000476837","","image-keyboard-response","28","244584","0.0-28.0","3OSWBBLG1FJDA1OGD3HKDDW56S1XDL","ACKG8OU1KHKO2","3MVY4USGB69K0BK9K576GJZ2CVDSII","","","img/flower5.png","74","490.09999990463257","1","0","2","","","","",""
"null","","html-keyboard-response","29","244885","0.0-29.0","3OSWBBLG1FJDA1OGD3HKDDW56S1XDL","ACKG8OU1KHKO2","3MVY4USGB69K0BK9K576GJZ2CVDSII","","","<img src=""img/flower5.png"" style=""width:200px;border:14px solid red;"">","null","","","","","","","","",""
"570.1999999284744","","image-keyboard-response","30","245456","0.0-30.0","3OSWBBLG1FJDA1OGD3HKDDW56S1XDL","ACKG8OU1KHKO2","3MVY4USGB69K0BK9K576GJZ2CVDSII","","","img/flower4.png","75","570.9000000953674","2","0","1","","","","",""
"null","","html-keyboard-response","31","245769","0.0-31.0","3OSWBBLG1FJDA1OGD3HKDDW56S1XDL","ACKG8OU1KHKO2","3MVY4USGB69K0BK9K576GJZ2CVDSII","","","<img src=""img/flower4.png"" style=""width:200px;border:14px solid red;"">","null","","","","","","","","",""
"806.8999999761581","","image-keyboard-response","32","246577","0.0-32.0","3OSWBBLG1FJDA1OGD3HKDDW56S1XDL","ACKG8OU1KHKO2","3MVY4USGB69K0BK9K576GJZ2CVDSII","","","img/flower5.png","74","807.5999999046326","1","0","2","","","","",""
"null","","html-keyboard-response","33","246887","0.0-33.0","3OSWBBLG1FJDA1OGD3HKDDW56S1XDL","ACKG8OU1KHKO2","3MVY4USGB69K0BK9K576GJZ2CVDSII","","","<img src=""img/flower5.png"" style=""width:200px;border:14px solid red;"">","null","","","","","","","","",""
"881.6000000238419","","image-keyboard-response","34","247769","0.0-34.0","3OSWBBLG1FJDA1OGD3HKDDW56S1XDL","ACKG8OU1KHKO2","3MVY4USGB69K0BK9K576GJZ2CVDSII","","","img/flower6.png","76","882.2000000476837","3","1","3","","","","",""
"null","","html-keyboard-response","35","248078","0.0-35.0","3OSWBBLG1FJDA1OGD3HKDDW56S1XDL","ACKG8OU1KHKO2","3MVY4USGB69K0BK9K576GJZ2CVDSII","","","<img src=""img/flower6.png"" style=""width:200px; border:14px solid green;"">","null","","","","","","","","",""
"1762.1000000238419","","image-keyboard-response","36","249841","0.0-36.0","3OSWBBLG1FJDA1OGD3HKDDW56S1XDL","ACKG8OU1KHKO2","3MVY4USGB69K0BK9K576GJZ2CVDSII","","","img/flower5.png","75","1762.7999999523163","2","1","2","","","","",""
"null","","html-keyboard-response","37","250151","0.0-37.0","3OSWBBLG1FJDA1OGD3HKDDW56S1XDL","ACKG8OU1KHKO2","3MVY4USGB69K0BK9K576GJZ2CVDSII","","","<img src=""img/flower5.png"" style=""width:200px; border:14px solid green;"">","null","","","","","","","","",""
"458.59999990463257","","image-keyboard-response","38","250610","0.0-38.0","3OSWBBLG1FJDA1OGD3HKDDW56S1XDL","ACKG8OU1KHKO2","3MVY4USGB69K0BK9K576GJZ2CVDSII","","","img/flower5.png","75","459.2000000476837","2","1","2","","","","",""
"null","","html-keyboard-response","39","250919","0.0-39.0","3OSWBBLG1FJDA1OGD3HKDDW56S1XDL","ACKG8OU1KHKO2","3MVY4USGB69K0BK9K576GJZ2CVDSII","","","<img src=""img/flower5.png"" style=""width:200px; border:14px solid green;"">","null","","","","","","","","",""
"633","","image-keyboard-response","40","251553","0.0-40.0","3OSWBBLG1FJDA1OGD3HKDDW56S1XDL","ACKG8OU1KHKO2","3MVY4USGB69K0BK9K576GJZ2CVDSII","","","img/flower4.png","74","633.6999999284744","1","1","1","","","","",""
"null","","html-keyboard-response","41","251854","0.0-41.0","3OSWBBLG1FJDA1OGD3HKDDW56S1XDL","ACKG8OU1KHKO2","3MVY4USGB69K0BK9K576GJZ2CVDSII","","","<img src=""img/flower4.png"" style=""width:200px; border:14px solid green;"">","null","","","","","","","","",""
"418.10000002384186","","image-keyboard-response","42","252272","0.0-42.0","3OSWBBLG1FJDA1OGD3HKDDW56S1XDL","ACKG8OU1KHKO2","3MVY4USGB69K0BK9K576GJZ2CVDSII","","","img/flower4.png","74","418.7000000476837","1","0","1","","","","",""
"null","","html-keyboard-response","43","252582","0.0-43.0","3OSWBBLG1FJDA1OGD3HKDDW56S1XDL","ACKG8OU1KHKO2","3MVY4USGB69K0BK9K576GJZ2CVDSII","","","<img src=""img/flower4.png"" style=""width:200px;border:14px solid red;"">","null","","","","","","","","",""
"713.7999999523163","","image-keyboard-response","44","253297","0.0-44.0","3OSWBBLG1FJDA1OGD3HKDDW56S1XDL","ACKG8OU1KHKO2","3MVY4USGB69K0BK9K576GJZ2CVDSII","","","img/flower6.png","76","714.7000000476837","3","1","3","","","","",""
"null","","html-keyboard-response","45","253606","0.0-45.0","3OSWBBLG1FJDA1OGD3HKDDW56S1XDL","ACKG8OU1KHKO2","3MVY4USGB69K0BK9K576GJZ2CVDSII","","","<img src=""img/flower6.png"" style=""width:200px; border:14px solid green;"">","null","","","","","","","","",""
"866.2999999523163","","image-keyboard-response","46","254473","0.0-46.0","3OSWBBLG1FJDA1OGD3HKDDW56S1XDL","ACKG8OU1KHKO2","3MVY4USGB69K0BK9K576GJZ2CVDSII","","","img/flower6.png","76","867","3","1","3","","","","",""
"null","","html-keyboard-response","47","254784","0.0-47.0","3OSWBBLG1FJDA1OGD3HKDDW56S1XDL","ACKG8OU1KHKO2","3MVY4USGB69K0BK9K576GJZ2CVDSII","","","<img src=""img/flower6.png"" style=""width:200px; border:14px solid green;"">","null","","","","","","","","",""
"928.2999999523163","","image-keyboard-response","48","255713","0.0-48.0","3OSWBBLG1FJDA1OGD3HKDDW56S1XDL","ACKG8OU1KHKO2","3MVY4USGB69K0BK9K576GJZ2CVDSII","","","img/flower5.png","75","928.8999999761581","2","0","2","","","","",""
"null","","html-keyboard-response","49","256023","0.0-49.0","3OSWBBLG1FJDA1OGD3HKDDW56S1XDL","ACKG8OU1KHKO2","3MVY4USGB69K0BK9K576GJZ2CVDSII","","","<img src=""img/flower5.png"" style=""width:200px;border:14px solid red;"">","null","","","","","","","","",""
"856.3999999761581","","image-keyboard-response","50","256880","0.0-50.0","3OSWBBLG1FJDA1OGD3HKDDW56S1XDL","ACKG8OU1KHKO2","3MVY4USGB69K0BK9K576GJZ2CVDSII","","","img/flower6.png","76","857","3","0","3","","","","",""
"null","","html-keyboard-response","51","257181","0.0-51.0","3OSWBBLG1FJDA1OGD3HKDDW56S1XDL","ACKG8OU1KHKO2","3MVY4USGB69K0BK9K576GJZ2CVDSII","","","<img src=""img/flower6.png"" style=""width:200px;border:14px solid red;"">","null","","","","","","","","",""
"674.2000000476837","","image-keyboard-response","52","257856","0.0-52.0","3OSWBBLG1FJDA1OGD3HKDDW56S1XDL","ACKG8OU1KHKO2","3MVY4USGB69K0BK9K576GJZ2CVDSII","","","img/flower4.png","74","674.7000000476837","1","1","1","","","","",""
"null","","html-keyboard-response","53","258168","0.0-53.0","3OSWBBLG1FJDA1OGD3HKDDW56S1XDL","ACKG8OU1KHKO2","3MVY4USGB69K0BK9K576GJZ2CVDSII","","","<img src=""img/flower4.png"" style=""width:200px; border:14px solid green;"">","null","","","","","","","","",""
"791.2000000476837","","image-keyboard-response","54","258960","0.0-54.0","3OSWBBLG1FJDA1OGD3HKDDW56S1XDL","ACKG8OU1KHKO2","3MVY4USGB69K0BK9K576GJZ2CVDSII","","","img/flower5.png","75","791.7999999523163","2","0","2","","","","",""
"null","","html-keyboard-response","55","259269","0.0-55.0","3OSWBBLG1FJDA1OGD3HKDDW56S1XDL","ACKG8OU1KHKO2","3MVY4USGB69K0BK9K576GJZ2CVDSII","","","<img src=""img/flower5.png"" style=""width:200px;border:14px solid red;"">","null","","","","","","","","",""
"1003","","image-keyboard-response","56","260273","0.0-56.0","3OSWBBLG1FJDA1OGD3HKDDW56S1XDL","ACKG8OU1KHKO2","3MVY4USGB69K0BK9K576GJZ2CVDSII","","","img/flower6.png","76","1003.6000000238419","3","1","3","","","","",""
"null","","html-keyboard-response","57","260575","0.0-57.0","3OSWBBLG1FJDA1OGD3HKDDW56S1XDL","ACKG8OU1KHKO2","3MVY4USGB69K0BK9K576GJZ2CVDSII","","","<img src=""img/flower6.png"" style=""width:200px; border:14px solid green;"">","null","","","","","","","","",""
"928.6000000238419","","image-keyboard-response","58","261504","0.0-58.0","3OSWBBLG1FJDA1OGD3HKDDW56S1XDL","ACKG8OU1KHKO2","3MVY4USGB69K0BK9K576GJZ2CVDSII","","","img/flower5.png","75","929.3999999761581","2","1","2","","","","",""
"null","","html-keyboard-response","59","261814","0.0-59.0","3OSWBBLG1FJDA1OGD3HKDDW56S1XDL","ACKG8OU1KHKO2","3MVY4USGB69K0BK9K576GJZ2CVDSII","","","<img src=""img/flower5.png"" style=""width:200px; border:14px solid green;"">","null","","","","","","","","",""
"1290.2000000476837","","image-keyboard-response","60","263105","0.0-60.0","3OSWBBLG1FJDA1OGD3HKDDW56S1XDL","ACKG8OU1KHKO2","3MVY4USGB69K0BK9K576GJZ2CVDSII","","","img/flower4.png","74","1291","1","1","1","","","","",""
"null","","html-keyboard-response","61","263414","0.0-61.0","3OSWBBLG1FJDA1OGD3HKDDW56S1XDL","ACKG8OU1KHKO2","3MVY4USGB69K0BK9K576GJZ2CVDSII","","","<img src=""img/flower4.png"" style=""width:200px; border:14px solid green;"">","null","","","","","","","","",""
"489.5","","image-keyboard-response","62","263904","0.0-62.0","3OSWBBLG1FJDA1OGD3HKDDW56S1XDL","ACKG8OU1KHKO2","3MVY4USGB69K0BK9K576GJZ2CVDSII","","","img/flower4.png","74","490.1999999284744","1","0","1","","","","",""
"null","","html-keyboard-response","63","264214","0.0-63.0","3OSWBBLG1FJDA1OGD3HKDDW56S1XDL","ACKG8OU1KHKO2","3MVY4USGB69K0BK9K576GJZ2CVDSII","","","<img src=""img/flower4.png"" style=""width:200px;border:14px solid red;"">","null","","","","","","","","",""
"2668.5","","instructions","64","266882","0.0-64.0","3OSWBBLG1FJDA1OGD3HKDDW56S1XDL","ACKG8OU1KHKO2","3MVY4USGB69K0BK9K576GJZ2CVDSII","","[{""page_index"":0,""viewing_time"":1487.2999999523163},{""page_index"":1,""viewing_time"":1181}]","","","","","","","","","","",""
"812.6000000238419","","image-keyboard-response","65","267696","0.0-65.0","3OSWBBLG1FJDA1OGD3HKDDW56S1XDL","ACKG8OU1KHKO2","3MVY4USGB69K0BK9K576GJZ2CVDSII","","","img/flower6.png","76","813.3999999761581","3","1","3","","","","",""
"null","","html-keyboard-response","66","268006","0.0-66.0","3OSWBBLG1FJDA1OGD3HKDDW56S1XDL","ACKG8OU1KHKO2","3MVY4USGB69K0BK9K576GJZ2CVDSII","","","<img src=""img/flower6.png"" style=""width:200px; border:14px solid green;"">","null","","","","","","","","",""
"474.10000002384186","","image-keyboard-response","67","268480","0.0-67.0","3OSWBBLG1FJDA1OGD3HKDDW56S1XDL","ACKG8OU1KHKO2","3MVY4USGB69K0BK9K576GJZ2CVDSII","","","img/flower6.png","76","474.7000000476837","3","1","3","","","","",""
"null","","html-keyboard-response","68","268794","0.0-68.0","3OSWBBLG1FJDA1OGD3HKDDW56S1XDL","ACKG8OU1KHKO2","3MVY4USGB69K0BK9K576GJZ2CVDSII","","","<img src=""img/flower6.png"" style=""width:200px; border:14px solid green;"">","null","","","","","","","","",""
"725.7000000476837","","image-keyboard-response","69","269520","0.0-69.0","3OSWBBLG1FJDA1OGD3HKDDW56S1XDL","ACKG8OU1KHKO2","3MVY4USGB69K0BK9K576GJZ2CVDSII","","","img/flower4.png","74","726.2000000476837","1","1","1","","","","",""
"null","","html-keyboard-response","70","269829","0.0-70.0","3OSWBBLG1FJDA1OGD3HKDDW56S1XDL","ACKG8OU1KHKO2","3MVY4USGB69K0BK9K576GJZ2CVDSII","","","<img src=""img/flower4.png"" style=""width:200px; border:14px solid green;"">","null","","","","","","","","",""
"714","","image-keyboard-response","71","270544","0.0-71.0","3OSWBBLG1FJDA1OGD3HKDDW56S1XDL","ACKG8OU1KHKO2","3MVY4USGB69K0BK9K576GJZ2CVDSII","","","img/flower5.png","75","714.6999999284744","2","0","2","","","","",""
"null","","html-keyboard-response","72","270853","0.0-72.0","3OSWBBLG1FJDA1OGD3HKDDW56S1XDL","ACKG8OU1KHKO2","3MVY4USGB69K0BK9K576GJZ2CVDSII","","","<img src=""img/flower5.png"" style=""width:200px;border:14px solid red;"">","null","","","","","","","","",""
"682.6000000238419","","image-keyboard-response","73","271536","0.0-73.0","3OSWBBLG1FJDA1OGD3HKDDW56S1XDL","ACKG8OU1KHKO2","3MVY4USGB69K0BK9K576GJZ2CVDSII","","","img/flower4.png","74","683.4000000953674","1","0","1","","","","",""
"null","","html-keyboard-response","74","271849","0.0-74.0","3OSWBBLG1FJDA1OGD3HKDDW56S1XDL","ACKG8OU1KHKO2","3MVY4USGB69K0BK9K576GJZ2CVDSII","","","<img src=""img/flower4.png"" style=""width:200px;border:14px solid red;"">","null","","","","","","","","",""
"1005.4000000953674","","image-keyboard-response","75","272855","0.0-75.0","3OSWBBLG1FJDA1OGD3HKDDW56S1XDL","ACKG8OU1KHKO2","3MVY4USGB69K0BK9K576GJZ2CVDSII","","","img/flower5.png","75","1005.8999999761581","2","1","2","","","","",""
"null","","html-keyboard-response","76","273157","0.0-76.0","3OSWBBLG1FJDA1OGD3HKDDW56S1XDL","ACKG8OU1KHKO2","3MVY4USGB69K0BK9K576GJZ2CVDSII","","","<img src=""img/flower5.png"" style=""width:200px; border:14px solid green;"">","null","","","","","","","","",""
"690","","image-keyboard-response","77","273848","0.0-77.0","3OSWBBLG1FJDA1OGD3HKDDW56S1XDL","ACKG8OU1KHKO2","3MVY4USGB69K0BK9K576GJZ2CVDSII","","","img/flower4.png","74","690.7000000476837","1","0","1","","","","",""
"null","","html-keyboard-response","78","274157","0.0-78.0","3OSWBBLG1FJDA1OGD3HKDDW56S1XDL","ACKG8OU1KHKO2","3MVY4USGB69K0BK9K576GJZ2CVDSII","","","<img src=""img/flower4.png"" style=""width:200px;border:14px solid red;"">","null","","","","","","","","",""
"466.3000000715256","","image-keyboard-response","79","274624","0.0-79.0","3OSWBBLG1FJDA1OGD3HKDDW56S1XDL","ACKG8OU1KHKO2","3MVY4USGB69K0BK9K576GJZ2CVDSII","","","img/flower4.png","74","466.89999997615814","1","1","1","","","","",""
"null","","html-keyboard-response","80","274932","0.0-80.0","3OSWBBLG1FJDA1OGD3HKDDW56S1XDL","ACKG8OU1KHKO2","3MVY4USGB69K0BK9K576GJZ2CVDSII","","","<img src=""img/flower4.png"" style=""width:200px; border:14px solid green;"">","null","","","","","","","","",""
"706.6000000238419","","image-keyboard-response","81","275640","0.0-81.0","3OSWBBLG1FJDA1OGD3HKDDW56S1XDL","ACKG8OU1KHKO2","3MVY4USGB69K0BK9K576GJZ2CVDSII","","","img/flower5.png","75","707.2999999523163","2","0","2","","","","",""
"null","","html-keyboard-response","82","275951","0.0-82.0","3OSWBBLG1FJDA1OGD3HKDDW56S1XDL","ACKG8OU1KHKO2","3MVY4USGB69K0BK9K576GJZ2CVDSII","","","<img src=""img/flower5.png"" style=""width:200px;border:14px solid red;"">","null","","","","","","","","",""
"783.8000000715256","","image-keyboard-response","83","276735","0.0-83.0","3OSWBBLG1FJDA1OGD3HKDDW56S1XDL","ACKG8OU1KHKO2","3MVY4USGB69K0BK9K576GJZ2CVDSII","","","img/flower4.png","74","784.3999999761581","1","1","1","","","","",""
"null","","html-keyboard-response","84","277039","0.0-84.0","3OSWBBLG1FJDA1OGD3HKDDW56S1XDL","ACKG8OU1KHKO2","3MVY4USGB69K0BK9K576GJZ2CVDSII","","","<img src=""img/flower4.png"" style=""width:200px; border:14px solid green;"">","null","","","","","","","","",""
"776","","image-keyboard-response","85","277816","0.0-85.0","3OSWBBLG1FJDA1OGD3HKDDW56S1XDL","ACKG8OU1KHKO2","3MVY4USGB69K0BK9K576GJZ2CVDSII","","","img/flower5.png","75","776.6000000238419","2","1","2","","","","",""
"null","","html-keyboard-response","86","278128","0.0-86.0","3OSWBBLG1FJDA1OGD3HKDDW56S1XDL","ACKG8OU1KHKO2","3MVY4USGB69K0BK9K576GJZ2CVDSII","","","<img src=""img/flower5.png"" style=""width:200px; border:14px solid green;"">","null","","","","","","","","",""
"478.8000000715256","","image-keyboard-response","87","278608","0.0-87.0","3OSWBBLG1FJDA1OGD3HKDDW56S1XDL","ACKG8OU1KHKO2","3MVY4USGB69K0BK9K576GJZ2CVDSII","","","img/flower5.png","75","479.39999997615814","2","0","2","","","","",""
"null","","html-keyboard-response","88","278921","0.0-88.0","3OSWBBLG1FJDA1OGD3HKDDW56S1XDL","ACKG8OU1KHKO2","3MVY4USGB69K0BK9K576GJZ2CVDSII","","","<img src=""img/flower5.png"" style=""width:200px;border:14px solid red;"">","null","","","","","","","","",""
"1928.8999999761581","","image-keyboard-response","89","280850","0.0-89.0","3OSWBBLG1FJDA1OGD3HKDDW56S1XDL","ACKG8OU1KHKO2","3MVY4USGB69K0BK9K576GJZ2CVDSII","","","img/flower6.png","76","1929.6000000238419","3","1","3","","","","",""
"null","","html-keyboard-response","90","281157","0.0-90.0","3OSWBBLG1FJDA1OGD3HKDDW56S1XDL","ACKG8OU1KHKO2","3MVY4USGB69K0BK9K576GJZ2CVDSII","","","<img src=""img/flower6.png"" style=""width:200px; border:14px solid green;"">","null","","","","","","","","",""
"386.10000002384186","","image-keyboard-response","91","281544","0.0-91.0","3OSWBBLG1FJDA1OGD3HKDDW56S1XDL","ACKG8OU1KHKO2","3MVY4USGB69K0BK9K576GJZ2CVDSII","","","img/flower6.png","76","386.6999999284744","3","1","3","","","","",""
"null","","html-keyboard-response","92","281854","0.0-92.0","3OSWBBLG1FJDA1OGD3HKDDW56S1XDL","ACKG8OU1KHKO2","3MVY4USGB69K0BK9K576GJZ2CVDSII","","","<img src=""img/flower6.png"" style=""width:200px; border:14px solid green;"">","null","","","","","","","","",""
"303.6999999284744","","image-keyboard-response","93","282159","0.0-93.0","3OSWBBLG1FJDA1OGD3HKDDW56S1XDL","ACKG8OU1KHKO2","3MVY4USGB69K0BK9K576GJZ2CVDSII","","","img/flower6.png","76","304.6999999284744","3","1","3","","","","",""
"null","","html-keyboard-response","94","282461","0.0-94.0","3OSWBBLG1FJDA1OGD3HKDDW56S1XDL","ACKG8OU1KHKO2","3MVY4USGB69K0BK9K576GJZ2CVDSII","","","<img src=""img/flower6.png"" style=""width:200px; border:14px solid green;"">","null","","","","","","","","",""
"337.8000000715256","","image-keyboard-response","95","282799","0.0-95.0","3OSWBBLG1FJDA1OGD3HKDDW56S1XDL","ACKG8OU1KHKO2","3MVY4USGB69K0BK9K576GJZ2CVDSII","","","img/flower6.png","76","338.40000009536743","3","1","3","","","","",""
"null","","html-keyboard-response","96","283108","0.0-96.0","3OSWBBLG1FJDA1OGD3HKDDW56S1XDL","ACKG8OU1KHKO2","3MVY4USGB69K0BK9K576GJZ2CVDSII","","","<img src=""img/flower6.png"" style=""width:200px; border:14px solid green;"">","null","","","","","","","","",""
"506.2000000476837","","image-keyboard-response","97","283616","0.0-97.0","3OSWBBLG1FJDA1OGD3HKDDW56S1XDL","ACKG8OU1KHKO2","3MVY4USGB69K0BK9K576GJZ2CVDSII","","","img/flower4.png","74","507.10000002384186","1","1","1","","","","",""
"null","","html-keyboard-response","98","283931","0.0-98.0","3OSWBBLG1FJDA1OGD3HKDDW56S1XDL","ACKG8OU1KHKO2","3MVY4USGB69K0BK9K576GJZ2CVDSII","","","<img src=""img/flower4.png"" style=""width:200px; border:14px solid green;"">","null","","","","","","","","",""
"604.3999999761581","","image-keyboard-response","99","284536","0.0-99.0","3OSWBBLG1FJDA1OGD3HKDDW56S1XDL","ACKG8OU1KHKO2","3MVY4USGB69K0BK9K576GJZ2CVDSII","","","img/flower5.png","75","605.1000000238419","2","0","2","","","","",""
"null","","html-keyboard-response","100","284847","0.0-100.0","3OSWBBLG1FJDA1OGD3HKDDW56S1XDL","ACKG8OU1KHKO2","3MVY4USGB69K0BK9K576GJZ2CVDSII","","","<img src=""img/flower5.png"" style=""width:200px;border:14px solid red;"">","null","","","","","","","","",""
"343.10000002384186","","image-keyboard-response","101","285191","0.0-101.0","3OSWBBLG1FJDA1OGD3HKDDW56S1XDL","ACKG8OU1KHKO2","3MVY4USGB69K0BK9K576GJZ2CVDSII","","","img/flower5.png","75","343.8000000715256","2","0","2","","","","",""
"null","","html-keyboard-response","102","285503","0.0-102.0","3OSWBBLG1FJDA1OGD3HKDDW56S1XDL","ACKG8OU1KHKO2","3MVY4USGB69K0BK9K576GJZ2CVDSII","","","<img src=""img/flower5.png"" style=""width:200px;border:14px solid red;"">","null","","","","","","","","",""
"399.59999990463257","","image-keyboard-response","103","285904","0.0-103.0","3OSWBBLG1FJDA1OGD3HKDDW56S1XDL","ACKG8OU1KHKO2","3MVY4USGB69K0BK9K576GJZ2CVDSII","","","img/flower6.png","75","400.10000002384186","2","0","3","","","","",""
"null","","html-keyboard-response","104","286214","0.0-104.0","3OSWBBLG1FJDA1OGD3HKDDW56S1XDL","ACKG8OU1KHKO2","3MVY4USGB69K0BK9K576GJZ2CVDSII","","","<img src=""img/flower6.png"" style=""width:200px;border:14px solid red;"">","null","","","","","","","","",""
"400.09999990463257","","image-keyboard-response","105","286615","0.0-105.0","3OSWBBLG1FJDA1OGD3HKDDW56S1XDL","ACKG8OU1KHKO2","3MVY4USGB69K0BK9K576GJZ2CVDSII","","","img/flower6.png","76","400.5","3","1","3","","","","",""
"null","","html-keyboard-response","106","286918","0.0-106.0","3OSWBBLG1FJDA1OGD3HKDDW56S1XDL","ACKG8OU1KHKO2","3MVY4USGB69K0BK9K576GJZ2CVDSII","","","<img src=""img/flower6.png"" style=""width:200px; border:14px solid green;"">","null","","","","","","","","",""
"368.10000002384186","","image-keyboard-response","107","287287","0.0-107.0","3OSWBBLG1FJDA1OGD3HKDDW56S1XDL","ACKG8OU1KHKO2","3MVY4USGB69K0BK9K576GJZ2CVDSII","","","img/flower6.png","76","368.6999999284744","3","0","3","","","","",""
"null","","html-keyboard-response","108","287589","0.0-108.0","3OSWBBLG1FJDA1OGD3HKDDW56S1XDL","ACKG8OU1KHKO2","3MVY4USGB69K0BK9K576GJZ2CVDSII","","","<img src=""img/flower6.png"" style=""width:200px;border:14px solid red;"">","null","","","","","","","","",""
"329.89999997615814","","image-keyboard-response","109","287919","0.0-109.0","3OSWBBLG1FJDA1OGD3HKDDW56S1XDL","ACKG8OU1KHKO2","3MVY4USGB69K0BK9K576GJZ2CVDSII","","","img/flower6.png","76","330.5","3","1","3","","","","",""
"null","","html-keyboard-response","110","288229","0.0-110.0","3OSWBBLG1FJDA1OGD3HKDDW56S1XDL","ACKG8OU1KHKO2","3MVY4USGB69K0BK9K576GJZ2CVDSII","","","<img src=""img/flower6.png"" style=""width:200px; border:14px solid green;"">","null","","","","","","","","",""
"850.5","","image-keyboard-response","111","289080","0.0-111.0","3OSWBBLG1FJDA1OGD3HKDDW56S1XDL","ACKG8OU1KHKO2","3MVY4USGB69K0BK9K576GJZ2CVDSII","","","img/flower5.png","75","851.2999999523163","2","1","2","","","","",""
"null","","html-keyboard-response","112","289389","0.0-112.0","3OSWBBLG1FJDA1OGD3HKDDW56S1XDL","ACKG8OU1KHKO2","3MVY4USGB69K0BK9K576GJZ2CVDSII","","","<img src=""img/flower5.png"" style=""width:200px; border:14px solid green;"">","null","","","","","","","","",""
"506","","image-keyboard-response","113","289896","0.0-113.0","3OSWBBLG1FJDA1OGD3HKDDW56S1XDL","ACKG8OU1KHKO2","3MVY4USGB69K0BK9K576GJZ2CVDSII","","","img/flower5.png","75","506.8000000715256","2","1","2","","","","",""
"null","","html-keyboard-response","114","290205","0.0-114.0","3OSWBBLG1FJDA1OGD3HKDDW56S1XDL","ACKG8OU1KHKO2","3MVY4USGB69K0BK9K576GJZ2CVDSII","","","<img src=""img/flower5.png"" style=""width:200px; border:14px solid green;"">","null","","","","","","","","",""
"953.6000000238419","","image-keyboard-response","115","291159","0.0-115.0","3OSWBBLG1FJDA1OGD3HKDDW56S1XDL","ACKG8OU1KHKO2","3MVY4USGB69K0BK9K576GJZ2CVDSII","","","img/flower4.png","74","954.0999999046326","1","1","1","","","","",""
"null","","html-keyboard-response","116","291464","0.0-116.0","3OSWBBLG1FJDA1OGD3HKDDW56S1XDL","ACKG8OU1KHKO2","3MVY4USGB69K0BK9K576GJZ2CVDSII","","","<img src=""img/flower4.png"" style=""width:200px; border:14px solid green;"">","null","","","","","","","","",""
"397.89999997615814","","image-keyboard-response","117","291864","0.0-117.0","3OSWBBLG1FJDA1OGD3HKDDW56S1XDL","ACKG8OU1KHKO2","3MVY4USGB69K0BK9K576GJZ2CVDSII","","","img/flower4.png","74","398.60000002384186","1","1","1","","","","",""
"null","","html-keyboard-response","118","292172","0.0-118.0","3OSWBBLG1FJDA1OGD3HKDDW56S1XDL","ACKG8OU1KHKO2","3MVY4USGB69K0BK9K576GJZ2CVDSII","","","<img src=""img/flower4.png"" style=""width:200px; border:14px solid green;"">","null","","","","","","","","",""
"770.3999999761581","","image-keyboard-response","119","292943","0.0-119.0","3OSWBBLG1FJDA1OGD3HKDDW56S1XDL","ACKG8OU1KHKO2","3MVY4USGB69K0BK9K576GJZ2CVDSII","","","img/flower5.png","75","770.8999999761581","2","0","2","","","","",""
"null","","html-keyboard-response","120","293253","0.0-120.0","3OSWBBLG1FJDA1OGD3HKDDW56S1XDL","ACKG8OU1KHKO2","3MVY4USGB69K0BK9K576GJZ2CVDSII","","","<img src=""img/flower5.png"" style=""width:200px;border:14px solid red;"">","null","","","","","","","","",""
"1166.1000000238419","","image-keyboard-response","121","294419","0.0-121.0","3OSWBBLG1FJDA1OGD3HKDDW56S1XDL","ACKG8OU1KHKO2","3MVY4USGB69K0BK9K576GJZ2CVDSII","","","img/flower4.png","74","1166.6000000238419","1","1","1","","","","",""
"null","","html-keyboard-response","122","294724","0.0-122.0","3OSWBBLG1FJDA1OGD3HKDDW56S1XDL","ACKG8OU1KHKO2","3MVY4USGB69K0BK9K576GJZ2CVDSII","","","<img src=""img/flower4.png"" style=""width:200px; border:14px solid green;"">","null","","","","","","","","",""
"450.5","","image-keyboard-response","123","295175","0.0-123.0","3OSWBBLG1FJDA1OGD3HKDDW56S1XDL","ACKG8OU1KHKO2","3MVY4USGB69K0BK9K576GJZ2CVDSII","","","img/flower4.png","74","451.2000000476837","1","1","1","","","","",""
"null","","html-keyboard-response","124","295484","0.0-124.0","3OSWBBLG1FJDA1OGD3HKDDW56S1XDL","ACKG8OU1KHKO2","3MVY4USGB69K0BK9K576GJZ2CVDSII","","","<img src=""img/flower4.png"" style=""width:200px; border:14px solid green;"">","null","","","","","","","","",""
"1426.5","","instructions","125","296911","0.0-125.0","3OSWBBLG1FJDA1OGD3HKDDW56S1XDL","ACKG8OU1KHKO2","3MVY4USGB69K0BK9K576GJZ2CVDSII","","[{""page_index"":0,""viewing_time"":1426.3999999761581}]","","","","","","","","","","",""
"1137.3999999761581","","image-keyboard-response","126","298049","0.0-126.0","3OSWBBLG1FJDA1OGD3HKDDW56S1XDL","ACKG8OU1KHKO2","3MVY4USGB69K0BK9K576GJZ2CVDSII","","","img/flower3.png","74","1138.2000000476837","1","0","2","1","1,0.333,0.333,0.333,1,0.333,0.333,0.333,1","1,0.333,0.333,0.333,1,0.333,0.333,0.333,1","1",""
"null","","html-keyboard-response","127","298356","0.0-127.0","3OSWBBLG1FJDA1OGD3HKDDW56S1XDL","ACKG8OU1KHKO2","3MVY4USGB69K0BK9K576GJZ2CVDSII","","","<img src=""img/flower3.png"" style=""width:200px;border:14px solid red;"">","null","","","","","","","","",""
"1314.1999999284744","","image-keyboard-response","128","299671","0.0-128.0","3OSWBBLG1FJDA1OGD3HKDDW56S1XDL","ACKG8OU1KHKO2","3MVY4USGB69K0BK9K576GJZ2CVDSII","","","img/flower6.png","76","1314.8999999761581","3","1","3","1","1,0.333,0.333,0.333,1,0.333,0.333,0.333,1","1,0.333,0.333,0.333,1,0.333,0.333,0.333,1","1",""
"null","","html-keyboard-response","129","299980","0.0-129.0","3OSWBBLG1FJDA1OGD3HKDDW56S1XDL","ACKG8OU1KHKO2","3MVY4USGB69K0BK9K576GJZ2CVDSII","","","<img src=""img/flower6.png"" style=""width:200px; border:14px solid green;"">","null","","","","","","","","",""
"938.3000000715256","","image-keyboard-response","130","300919","0.0-130.0","3OSWBBLG1FJDA1OGD3HKDDW56S1XDL","ACKG8OU1KHKO2","3MVY4USGB69K0BK9K576GJZ2CVDSII","","","img/flower3.png","75","939","2","1","2","1","1,0.333,0.333,0.333,1,0.333,0.333,0.333,1","1,0.333,0.333,0.333,1,0.333,0.333,0.333,1","1",""
"null","","html-keyboard-response","131","301228","0.0-131.0","3OSWBBLG1FJDA1OGD3HKDDW56S1XDL","ACKG8OU1KHKO2","3MVY4USGB69K0BK9K576GJZ2CVDSII","","","<img src=""img/flower3.png"" style=""width:200px; border:14px solid green;"">","null","","","","","","","","",""
"730.6000000238419","","image-keyboard-response","132","301959","0.0-132.0","3OSWBBLG1FJDA1OGD3HKDDW56S1XDL","ACKG8OU1KHKO2","3MVY4USGB69K0BK9K576GJZ2CVDSII","","","img/flower3.png","75","731.2999999523163","2","1","2","1","1,0.333,0.333,0.333,1,0.333,0.333,0.333,1","1,0.333,0.333,0.333,1,0.333,0.333,0.333,1","1",""
"null","","html-keyboard-response","133","302268","0.0-133.0","3OSWBBLG1FJDA1OGD3HKDDW56S1XDL","ACKG8OU1KHKO2","3MVY4USGB69K0BK9K576GJZ2CVDSII","","","<img src=""img/flower3.png"" style=""width:200px; border:14px solid green;"">","null","","","","","","","","",""
"841.7999999523163","","image-keyboard-response","134","303111","0.0-134.0","3OSWBBLG1FJDA1OGD3HKDDW56S1XDL","ACKG8OU1KHKO2","3MVY4USGB69K0BK9K576GJZ2CVDSII","","","img/flower2.png","74","842.3999999761581","1","1","1","1","1,0.333,0.333,0.333,1,0.333,0.333,0.333,1","1,0.333,0.333,0.333,1,0.333,0.333,0.333,1","1",""
"null","","html-keyboard-response","135","303423","0.0-135.0","3OSWBBLG1FJDA1OGD3HKDDW56S1XDL","ACKG8OU1KHKO2","3MVY4USGB69K0BK9K576GJZ2CVDSII","","","<img src=""img/flower2.png"" style=""width:200px; border:14px solid green;"">","null","","","","","","","","",""
"959.7999999523163","","image-keyboard-response","136","304383","0.0-136.0","3OSWBBLG1FJDA1OGD3HKDDW56S1XDL","ACKG8OU1KHKO2","3MVY4USGB69K0BK9K576GJZ2CVDSII","","","img/flower6.png","76","960.3000000715256","3","1","3","1","1,0.333,0.333,0.333,1,0.333,0.333,0.333,1","1,0.333,0.333,0.333,1,0.333,0.333,0.333,1","1",""
"null","","html-keyboard-response","137","304688","0.0-137.0","3OSWBBLG1FJDA1OGD3HKDDW56S1XDL","ACKG8OU1KHKO2","3MVY4USGB69K0BK9K576GJZ2CVDSII","","","<img src=""img/flower6.png"" style=""width:200px; border:14px solid green;"">","null","","","","","","","","",""
"406.5","","image-keyboard-response","138","305095","0.0-138.0","3OSWBBLG1FJDA1OGD3HKDDW56S1XDL","ACKG8OU1KHKO2","3MVY4USGB69K0BK9K576GJZ2CVDSII","","","img/flower6.png","76","407","3","1","3","1","1,0.333,0.333,0.333,1,0.333,0.333,0.333,1","1,0.333,0.333,0.333,1,0.333,0.333,0.333,1","1",""
"null","","html-keyboard-response","139","305404","0.0-139.0","3OSWBBLG1FJDA1OGD3HKDDW56S1XDL","ACKG8OU1KHKO2","3MVY4USGB69K0BK9K576GJZ2CVDSII","","","<img src=""img/flower6.png"" style=""width:200px; border:14px solid green;"">","null","","","","","","","","",""
"338.5","","image-keyboard-response","140","305743","0.0-140.0","3OSWBBLG1FJDA1OGD3HKDDW56S1XDL","ACKG8OU1KHKO2","3MVY4USGB69K0BK9K576GJZ2CVDSII","","","img/flower6.png","76","339.2000000476837","3","1","3","1","1,0.333,0.333,0.333,1,0.333,0.333,0.333,1","1,0.333,0.333,0.333,1,0.333,0.333,0.333,1","1",""
"null","","html-keyboard-response","141","306053","0.0-141.0","3OSWBBLG1FJDA1OGD3HKDDW56S1XDL","ACKG8OU1KHKO2","3MVY4USGB69K0BK9K576GJZ2CVDSII","","","<img src=""img/flower6.png"" style=""width:200px; border:14px solid green;"">","null","","","","","","","","",""
"1785","","image-keyboard-response","142","307839","0.0-142.0","3OSWBBLG1FJDA1OGD3HKDDW56S1XDL","ACKG8OU1KHKO2","3MVY4USGB69K0BK9K576GJZ2CVDSII","","","img/flower2.png","74","1785.7000000476837","1","1","1","1","1,0.333,0.333,0.333,1,0.333,0.333,0.333,1","1,0.333,0.333,0.333,1,0.333,0.333,0.333,1","1",""
"null","","html-keyboard-response","143","308148","0.0-143.0","3OSWBBLG1FJDA1OGD3HKDDW56S1XDL","ACKG8OU1KHKO2","3MVY4USGB69K0BK9K576GJZ2CVDSII","","","<img src=""img/flower2.png"" style=""width:200px; border:14px solid green;"">","null","","","","","","","","",""
"737.6000000238419","","image-keyboard-response","144","308886","0.0-144.0","3OSWBBLG1FJDA1OGD3HKDDW56S1XDL","ACKG8OU1KHKO2","3MVY4USGB69K0BK9K576GJZ2CVDSII","","","img/flower3.png","75","738.1999999284744","2","1","2","1","1,0.333,0.333,0.333,1,0.333,0.333,0.333,1","1,0.333,0.333,0.333,1,0.333,0.333,0.333,1","1",""
"null","","html-keyboard-response","145","309189","0.0-145.0","3OSWBBLG1FJDA1OGD3HKDDW56S1XDL","ACKG8OU1KHKO2","3MVY4USGB69K0BK9K576GJZ2CVDSII","","","<img src=""img/flower3.png"" style=""width:200px; border:14px solid green;"">","null","","","","","","","","",""
"833.2999999523163","","image-keyboard-response","146","310023","0.0-146.0","3OSWBBLG1FJDA1OGD3HKDDW56S1XDL","ACKG8OU1KHKO2","3MVY4USGB69K0BK9K576GJZ2CVDSII","","","img/flower6.png","76","834.3000000715256","3","1","3","1","1,0.333,0.333,0.333,1,0.333,0.333,0.333,1","1,0.333,0.333,0.333,1,0.333,0.333,0.333,1","1",""
"null","","html-keyboard-response","147","310332","0.0-147.0","3OSWBBLG1FJDA1OGD3HKDDW56S1XDL","ACKG8OU1KHKO2","3MVY4USGB69K0BK9K576GJZ2CVDSII","","","<img src=""img/flower6.png"" style=""width:200px; border:14px solid green;"">","null","","","","","","","","",""
"1546.2000000476837","","image-keyboard-response","148","311879","0.0-148.0","3OSWBBLG1FJDA1OGD3HKDDW56S1XDL","ACKG8OU1KHKO2","3MVY4USGB69K0BK9K576GJZ2CVDSII","","","img/flower3.png","74","1546.8000000715256","1","0","2","1","1,0.333,0.333,0.333,1,0.333,0.333,0.333,1","1,0.333,0.333,0.333,1,0.333,0.333,0.333,1","1",""
"null","","html-keyboard-response","149","312188","0.0-149.0","3OSWBBLG1FJDA1OGD3HKDDW56S1XDL","ACKG8OU1KHKO2","3MVY4USGB69K0BK9K576GJZ2CVDSII","","","<img src=""img/flower3.png"" style=""width:200px;border:14px solid red;"">","null","","","","","","","","",""
"1026","","image-keyboard-response","150","313215","0.0-150.0","3OSWBBLG1FJDA1OGD3HKDDW56S1XDL","ACKG8OU1KHKO2","3MVY4USGB69K0BK9K576GJZ2CVDSII","","","img/flower2.png","75","1026.8000000715256","2","1","1","1","1,0.333,0.333,0.333,1,0.333,0.333,0.333,1","1,0.333,0.333,0.333,1,0.333,0.333,0.333,1","1",""
"null","","html-keyboard-response","151","313524","0.0-151.0","3OSWBBLG1FJDA1OGD3HKDDW56S1XDL","ACKG8OU1KHKO2","3MVY4USGB69K0BK9K576GJZ2CVDSII","","","<img src=""img/flower2.png"" style=""width:200px; border:14px solid green;"">","null","","","","","","","","",""
"394.10000002384186","","image-keyboard-response","152","313918","0.0-152.0","3OSWBBLG1FJDA1OGD3HKDDW56S1XDL","ACKG8OU1KHKO2","3MVY4USGB69K0BK9K576GJZ2CVDSII","","","img/flower2.png","75","394.7000000476837","2","0","1","1","1,0.333,0.333,0.333,1,0.333,0.333,0.333,1","1,0.333,0.333,0.333,1,0.333,0.333,0.333,1","1",""
"null","","html-keyboard-response","153","314219","0.0-153.0","3OSWBBLG1FJDA1OGD3HKDDW56S1XDL","ACKG8OU1KHKO2","3MVY4USGB69K0BK9K576GJZ2CVDSII","","","<img src=""img/flower2.png"" style=""width:200px;border:14px solid red;"">","null","","","","","","","","",""
"933.6999999284744","","image-keyboard-response","154","315154","0.0-154.0","3OSWBBLG1FJDA1OGD3HKDDW56S1XDL","ACKG8OU1KHKO2","3MVY4USGB69K0BK9K576GJZ2CVDSII","","","img/flower6.png","76","934.1999999284744","3","1","3","1","1,0.333,0.333,0.333,1,0.333,0.333,0.333,1","1,0.333,0.333,0.333,1,0.333,0.333,0.333,1","1",""
"null","","html-keyboard-response","155","315459","0.0-155.0","3OSWBBLG1FJDA1OGD3HKDDW56S1XDL","ACKG8OU1KHKO2","3MVY4USGB69K0BK9K576GJZ2CVDSII","","","<img src=""img/flower6.png"" style=""width:200px; border:14px solid green;"">","null","","","","","","","","",""
"1378.1000000238419","","image-keyboard-response","156","316838","0.0-156.0","3OSWBBLG1FJDA1OGD3HKDDW56S1XDL","ACKG8OU1KHKO2","3MVY4USGB69K0BK9K576GJZ2CVDSII","","","img/flower2.png","74","1378.7999999523163","1","1","1","1","1,0.333,0.333,0.333,1,0.333,0.333,0.333,1","1,0.333,0.333,0.333,1,0.333,0.333,0.333,1","1",""
"null","","html-keyboard-response","157","317140","0.0-157.0","3OSWBBLG1FJDA1OGD3HKDDW56S1XDL","ACKG8OU1KHKO2","3MVY4USGB69K0BK9K576GJZ2CVDSII","","","<img src=""img/flower2.png"" style=""width:200px; border:14px solid green;"">","null","","","","","","","","",""
"802.1000000238419","","image-keyboard-response","158","317943","0.0-158.0","3OSWBBLG1FJDA1OGD3HKDDW56S1XDL","ACKG8OU1KHKO2","3MVY4USGB69K0BK9K576GJZ2CVDSII","","","img/flower6.png","76","802.6000000238419","3","1","3","1","1,0.333,0.333,0.333,1,0.333,0.333,0.333,1","1,0.333,0.333,0.333,1,0.333,0.333,0.333,1","1",""
"null","","html-keyboard-response","159","318254","0.0-159.0","3OSWBBLG1FJDA1OGD3HKDDW56S1XDL","ACKG8OU1KHKO2","3MVY4USGB69K0BK9K576GJZ2CVDSII","","","<img src=""img/flower6.png"" style=""width:200px; border:14px solid green;"">","null","","","","","","","","",""
"896.2000000476837","","image-keyboard-response","160","319151","0.0-160.0","3OSWBBLG1FJDA1OGD3HKDDW56S1XDL","ACKG8OU1KHKO2","3MVY4USGB69K0BK9K576GJZ2CVDSII","","","img/flower2.png","74","896.6999999284744","1","1","1","1","1,0.333,0.333,0.333,1,0.333,0.333,0.333,1","1,0.333,0.333,0.333,1,0.333,0.333,0.333,1","1",""
"null","","html-keyboard-response","161","319462","0.0-161.0","3OSWBBLG1FJDA1OGD3HKDDW56S1XDL","ACKG8OU1KHKO2","3MVY4USGB69K0BK9K576GJZ2CVDSII","","","<img src=""img/flower2.png"" style=""width:200px; border:14px solid green;"">","null","","","","","","","","",""
"688.5","","image-keyboard-response","162","320151","0.0-162.0","3OSWBBLG1FJDA1OGD3HKDDW56S1XDL","ACKG8OU1KHKO2","3MVY4USGB69K0BK9K576GJZ2CVDSII","","","img/flower3.png","75","689","2","1","2","1","1,0.333,0.333,0.333,1,0.333,0.333,0.333,1","1,0.333,0.333,0.333,1,0.333,0.333,0.333,1","1",""
"null","","html-keyboard-response","163","320460","0.0-163.0","3OSWBBLG1FJDA1OGD3HKDDW56S1XDL","ACKG8OU1KHKO2","3MVY4USGB69K0BK9K576GJZ2CVDSII","","","<img src=""img/flower3.png"" style=""width:200px; border:14px solid green;"">","null","","","","","","","","",""
"785.8999999761581","","image-keyboard-response","164","321247","0.0-164.0","3OSWBBLG1FJDA1OGD3HKDDW56S1XDL","ACKG8OU1KHKO2","3MVY4USGB69K0BK9K576GJZ2CVDSII","","","img/flower2.png","74","786.5","1","1","1","1","1,0.333,0.333,0.333,1,0.333,0.333,0.333,1","1,0.333,0.333,0.333,1,0.333,0.333,0.333,1","1",""
"null","","html-keyboard-response","165","321557","0.0-165.0","3OSWBBLG1FJDA1OGD3HKDDW56S1XDL","ACKG8OU1KHKO2","3MVY4USGB69K0BK9K576GJZ2CVDSII","","","<img src=""img/flower2.png"" style=""width:200px; border:14px solid green;"">","null","","","","","","","","",""
"921.2000000476837","","image-keyboard-response","166","322479","0.0-166.0","3OSWBBLG1FJDA1OGD3HKDDW56S1XDL","ACKG8OU1KHKO2","3MVY4USGB69K0BK9K576GJZ2CVDSII","","","img/flower6.png","76","921.7999999523163","3","1","3","1","1,0.333,0.333,0.333,1,0.333,0.333,0.333,1","1,0.333,0.333,0.333,1,0.333,0.333,0.333,1","1",""
"null","","html-keyboard-response","167","322789","0.0-167.0","3OSWBBLG1FJDA1OGD3HKDDW56S1XDL","ACKG8OU1KHKO2","3MVY4USGB69K0BK9K576GJZ2CVDSII","","","<img src=""img/flower6.png"" style=""width:200px; border:14px solid green;"">","null","","","","","","","","",""
"391.60000002384186","","image-keyboard-response","168","323182","0.0-168.0","3OSWBBLG1FJDA1OGD3HKDDW56S1XDL","ACKG8OU1KHKO2","3MVY4USGB69K0BK9K576GJZ2CVDSII","","","img/flower6.png","76","392.2000000476837","3","1","3","1","1,0.333,0.333,0.333,1,0.333,0.333,0.333,1","1,0.333,0.333,0.333,1,0.333,0.333,0.333,1","1",""
"null","","html-keyboard-response","169","323486","0.0-169.0","3OSWBBLG1FJDA1OGD3HKDDW56S1XDL","ACKG8OU1KHKO2","3MVY4USGB69K0BK9K576GJZ2CVDSII","","","<img src=""img/flower6.png"" style=""width:200px; border:14px solid green;"">","null","","","","","","","","",""
"496.10000002384186","","image-keyboard-response","170","323983","0.0-170.0","3OSWBBLG1FJDA1OGD3HKDDW56S1XDL","ACKG8OU1KHKO2","3MVY4USGB69K0BK9K576GJZ2CVDSII","","","img/flower2.png","74","496.8000000715256","1","1","1","1","1,0.333,0.333,0.333,1,0.333,0.333,0.333,1","1,0.333,0.333,0.333,1,0.333,0.333,0.333,1","1",""
"null","","html-keyboard-response","171","324297","0.0-171.0","3OSWBBLG1FJDA1OGD3HKDDW56S1XDL","ACKG8OU1KHKO2","3MVY4USGB69K0BK9K576GJZ2CVDSII","","","<img src=""img/flower2.png"" style=""width:200px; border:14px solid green;"">","null","","","","","","","","",""
"732.7000000476837","","image-keyboard-response","172","325030","0.0-172.0","3OSWBBLG1FJDA1OGD3HKDDW56S1XDL","ACKG8OU1KHKO2","3MVY4USGB69K0BK9K576GJZ2CVDSII","","","img/flower3.png","75","733.3999999761581","2","1","2","1","1,0.333,0.333,0.333,1,0.333,0.333,0.333,1","1,0.333,0.333,0.333,1,0.333,0.333,0.333,1","1",""
"null","","html-keyboard-response","173","325342","0.0-173.0","3OSWBBLG1FJDA1OGD3HKDDW56S1XDL","ACKG8OU1KHKO2","3MVY4USGB69K0BK9K576GJZ2CVDSII","","","<img src=""img/flower3.png"" style=""width:200px; border:14px solid green;"">","null","","","","","","","","",""
"352.40000009536743","","image-keyboard-response","174","325695","0.0-174.0","3OSWBBLG1FJDA1OGD3HKDDW56S1XDL","ACKG8OU1KHKO2","3MVY4USGB69K0BK9K576GJZ2CVDSII","","","img/flower3.png","75","352.89999997615814","2","1","2","1","1,0.333,0.333,0.333,1,0.333,0.333,0.333,1","1,0.333,0.333,0.333,1,0.333,0.333,0.333,1","1",""
"null","","html-keyboard-response","175","326004","0.0-175.0","3OSWBBLG1FJDA1OGD3HKDDW56S1XDL","ACKG8OU1KHKO2","3MVY4USGB69K0BK9K576GJZ2CVDSII","","","<img src=""img/flower3.png"" style=""width:200px; border:14px solid green;"">","null","","","","","","","","",""
"980.7999999523163","","image-keyboard-response","176","326985","0.0-176.0","3OSWBBLG1FJDA1OGD3HKDDW56S1XDL","ACKG8OU1KHKO2","3MVY4USGB69K0BK9K576GJZ2CVDSII","","","img/flower6.png","76","981.5","3","1","3","1","1,0.333,0.333,0.333,1,0.333,0.333,0.333,1","1,0.333,0.333,0.333,1,0.333,0.333,0.333,1","1",""
"null","","html-keyboard-response","177","327291","0.0-177.0","3OSWBBLG1FJDA1OGD3HKDDW56S1XDL","ACKG8OU1KHKO2","3MVY4USGB69K0BK9K576GJZ2CVDSII","","","<img src=""img/flower6.png"" style=""width:200px; border:14px solid green;"">","null","","","","","","","","",""
"1162.1999999284744","","image-keyboard-response","178","328454","0.0-178.0","3OSWBBLG1FJDA1OGD3HKDDW56S1XDL","ACKG8OU1KHKO2","3MVY4USGB69K0BK9K576GJZ2CVDSII","","","img/flower2.png","74","1162.7999999523163","1","1","1","1","1,0.333,0.333,0.333,1,0.333,0.333,0.333,1","1,0.333,0.333,0.333,1,0.333,0.333,0.333,1","1",""
"null","","html-keyboard-response","179","328755","0.0-179.0","3OSWBBLG1FJDA1OGD3HKDDW56S1XDL","ACKG8OU1KHKO2","3MVY4USGB69K0BK9K576GJZ2CVDSII","","","<img src=""img/flower2.png"" style=""width:200px; border:14px solid green;"">","null","","","","","","","","",""
"1394.4000000953674","","image-keyboard-response","180","330150","0.0-180.0","3OSWBBLG1FJDA1OGD3HKDDW56S1XDL","ACKG8OU1KHKO2","3MVY4USGB69K0BK9K576GJZ2CVDSII","","","img/flower3.png","75","1395.1000000238419","2","1","2","1","1,0.333,0.333,0.333,1,0.333,0.333,0.333,1","1,0.333,0.333,0.333,1,0.333,0.333,0.333,1","1",""
"null","","html-keyboard-response","181","330461","0.0-181.0","3OSWBBLG1FJDA1OGD3HKDDW56S1XDL","ACKG8OU1KHKO2","3MVY4USGB69K0BK9K576GJZ2CVDSII","","","<img src=""img/flower3.png"" style=""width:200px; border:14px solid green;"">","null","","","","","","","","",""
"687.8000000715256","","image-keyboard-response","182","331150","0.0-182.0","3OSWBBLG1FJDA1OGD3HKDDW56S1XDL","ACKG8OU1KHKO2","3MVY4USGB69K0BK9K576GJZ2CVDSII","","","img/flower6.png","76","688.5","3","1","3","1","1,0.333,0.333,0.333,1,0.333,0.333,0.333,1","1,0.333,0.333,0.333,1,0.333,0.333,0.333,1","1",""
"null","","html-keyboard-response","183","331451","0.0-183.0","3OSWBBLG1FJDA1OGD3HKDDW56S1XDL","ACKG8OU1KHKO2","3MVY4USGB69K0BK9K576GJZ2CVDSII","","","<img src=""img/flower6.png"" style=""width:200px; border:14px solid green;"">","null","","","","","","","","",""
"570.2000000476837","","image-keyboard-response","184","332022","0.0-184.0","3OSWBBLG1FJDA1OGD3HKDDW56S1XDL","ACKG8OU1KHKO2","3MVY4USGB69K0BK9K576GJZ2CVDSII","","","img/flower6.png","76","570.8999999761581","3","1","3","1","1,0.333,0.333,0.333,1,0.333,0.333,0.333,1","1,0.333,0.333,0.333,1,0.333,0.333,0.333,1","1",""
"null","","html-keyboard-response","185","332331","0.0-185.0","3OSWBBLG1FJDA1OGD3HKDDW56S1XDL","ACKG8OU1KHKO2","3MVY4USGB69K0BK9K576GJZ2CVDSII","","","<img src=""img/flower6.png"" style=""width:200px; border:14px solid green;"">","null","","","","","","","","",""
"394.7999999523163","","image-keyboard-response","186","332726","0.0-186.0","3OSWBBLG1FJDA1OGD3HKDDW56S1XDL","ACKG8OU1KHKO2","3MVY4USGB69K0BK9K576GJZ2CVDSII","","","img/flower6.png","76","395.40000009536743","3","1","3","1","1,0.333,0.333,0.333,1,0.333,0.333,0.333,1","1,0.333,0.333,0.333,1,0.333,0.333,0.333,1","1",""
"null","","html-keyboard-response","187","333038","0.0-187.0","3OSWBBLG1FJDA1OGD3HKDDW56S1XDL","ACKG8OU1KHKO2","3MVY4USGB69K0BK9K576GJZ2CVDSII","","","<img src=""img/flower6.png"" style=""width:200px; border:14px solid green;"">","null","","","","","","","","",""
"1919.8999999761581","","image-keyboard-response","188","334958","0.0-188.0","3OSWBBLG1FJDA1OGD3HKDDW56S1XDL","ACKG8OU1KHKO2","3MVY4USGB69K0BK9K576GJZ2CVDSII","","","img/flower3.png","75","1920.5","2","1","2","1","1,0.333,0.333,0.333,1,0.333,0.333,0.333,1","1,0.333,0.333,0.333,1,0.333,0.333,0.333,1","1",""
"null","","html-keyboard-response","189","335268","0.0-189.0","3OSWBBLG1FJDA1OGD3HKDDW56S1XDL","ACKG8OU1KHKO2","3MVY4USGB69K0BK9K576GJZ2CVDSII","","","<img src=""img/flower3.png"" style=""width:200px; border:14px solid green;"">","null","","","","","","","","",""
"1057.5","","image-keyboard-response","190","336326","0.0-190.0","3OSWBBLG1FJDA1OGD3HKDDW56S1XDL","ACKG8OU1KHKO2","3MVY4USGB69K0BK9K576GJZ2CVDSII","","","img/flower6.png","76","1058.1000000238419","3","1","3","1","1,0.333,0.333,0.333,1,0.333,0.333,0.333,1","1,0.333,0.333,0.333,1,0.333,0.333,0.333,1","1",""
"null","","html-keyboard-response","191","336636","0.0-191.0","3OSWBBLG1FJDA1OGD3HKDDW56S1XDL","ACKG8OU1KHKO2","3MVY4USGB69K0BK9K576GJZ2CVDSII","","","<img src=""img/flower6.png"" style=""width:200px; border:14px solid green;"">","null","","","","","","","","",""
"1657.5","","image-keyboard-response","192","338294","0.0-192.0","3OSWBBLG1FJDA1OGD3HKDDW56S1XDL","ACKG8OU1KHKO2","3MVY4USGB69K0BK9K576GJZ2CVDSII","","","img/flower3.png","75","1658.2000000476837","2","1","2","1","1,0.333,0.333,0.333,1,0.333,0.333,0.333,1","1,0.333,0.333,0.333,1,0.333,0.333,0.333,1","1",""
"null","","html-keyboard-response","193","338606","0.0-193.0","3OSWBBLG1FJDA1OGD3HKDDW56S1XDL","ACKG8OU1KHKO2","3MVY4USGB69K0BK9K576GJZ2CVDSII","","","<img src=""img/flower3.png"" style=""width:200px; border:14px solid green;"">","null","","","","","","","","",""
"879.6000000238419","","image-keyboard-response","194","339486","0.0-194.0","3OSWBBLG1FJDA1OGD3HKDDW56S1XDL","ACKG8OU1KHKO2","3MVY4USGB69K0BK9K576GJZ2CVDSII","","","img/flower2.png","74","880.2000000476837","1","1","1","1","1,0.333,0.333,0.333,1,0.333,0.333,0.333,1","1,0.333,0.333,0.333,1,0.333,0.333,0.333,1","1",""
"null","","html-keyboard-response","195","339795","0.0-195.0","3OSWBBLG1FJDA1OGD3HKDDW56S1XDL","ACKG8OU1KHKO2","3MVY4USGB69K0BK9K576GJZ2CVDSII","","","<img src=""img/flower2.png"" style=""width:200px; border:14px solid green;"">","null","","","","","","","","",""
"1033.9000000953674","","image-keyboard-response","196","340830","0.0-196.0","3OSWBBLG1FJDA1OGD3HKDDW56S1XDL","ACKG8OU1KHKO2","3MVY4USGB69K0BK9K576GJZ2CVDSII","","","img/flower3.png","75","1034.3999999761581","2","1","2","1","1,0.333,0.333,0.333,1,0.333,0.333,0.333,1","1,0.333,0.333,0.333,1,0.333,0.333,0.333,1","1",""
"null","","html-keyboard-response","197","341131","0.0-197.0","3OSWBBLG1FJDA1OGD3HKDDW56S1XDL","ACKG8OU1KHKO2","3MVY4USGB69K0BK9K576GJZ2CVDSII","","","<img src=""img/flower3.png"" style=""width:200px; border:14px solid green;"">","null","","","","","","","","",""
"1034.1999999284744","","image-keyboard-response","198","342166","0.0-198.0","3OSWBBLG1FJDA1OGD3HKDDW56S1XDL","ACKG8OU1KHKO2","3MVY4USGB69K0BK9K576GJZ2CVDSII","","","img/flower6.png","76","1035","3","1","3","1","1,0.333,0.333,0.333,1,0.333,0.333,0.333,1","1,0.333,0.333,0.333,1,0.333,0.333,0.333,1","1",""
"null","","html-keyboard-response","199","342477","0.0-199.0","3OSWBBLG1FJDA1OGD3HKDDW56S1XDL","ACKG8OU1KHKO2","3MVY4USGB69K0BK9K576GJZ2CVDSII","","","<img src=""img/flower6.png"" style=""width:200px; border:14px solid green;"">","null","","","","","","","","",""
"2343.5","","image-keyboard-response","200","344822","0.0-200.0","3OSWBBLG1FJDA1OGD3HKDDW56S1XDL","ACKG8OU1KHKO2","3MVY4USGB69K0BK9K576GJZ2CVDSII","","","img/flower3.png","75","2344.2000000476837","2","1","2","1","1,0.333,0.333,0.333,1,0.333,0.333,0.333,1","1,0.333,0.333,0.333,1,0.333,0.333,0.333,1","1",""
"null","","html-keyboard-response","201","345131","0.0-201.0","3OSWBBLG1FJDA1OGD3HKDDW56S1XDL","ACKG8OU1KHKO2","3MVY4USGB69K0BK9K576GJZ2CVDSII","","","<img src=""img/flower3.png"" style=""width:200px; border:14px solid green;"">","null","","","","","","","","",""
"595.6000000238419","","image-keyboard-response","202","345727","0.0-202.0","3OSWBBLG1FJDA1OGD3HKDDW56S1XDL","ACKG8OU1KHKO2","3MVY4USGB69K0BK9K576GJZ2CVDSII","","","img/flower3.png","75","596.1999999284744","2","1","2","1","1,0.333,0.333,0.333,1,0.333,0.333,0.333,1","1,0.333,0.333,0.333,1,0.333,0.333,0.333,1","1",""
"null","","html-keyboard-response","203","346035","0.0-203.0","3OSWBBLG1FJDA1OGD3HKDDW56S1XDL","ACKG8OU1KHKO2","3MVY4USGB69K0BK9K576GJZ2CVDSII","","","<img src=""img/flower3.png"" style=""width:200px; border:14px solid green;"">","null","","","","","","","","",""
"389.89999997615814","","image-keyboard-response","204","346426","0.0-204.0","3OSWBBLG1FJDA1OGD3HKDDW56S1XDL","ACKG8OU1KHKO2","3MVY4USGB69K0BK9K576GJZ2CVDSII","","","img/flower3.png","75","390.40000009536743","2","1","2","1","1,0.333,0.333,0.333,1,0.333,0.333,0.333,1","1,0.333,0.333,0.333,1,0.333,0.333,0.333,1","1",""
"null","","html-keyboard-response","205","346727","0.0-205.0","3OSWBBLG1FJDA1OGD3HKDDW56S1XDL","ACKG8OU1KHKO2","3MVY4USGB69K0BK9K576GJZ2CVDSII","","","<img src=""img/flower3.png"" style=""width:200px; border:14px solid green;"">","null","","","","","","","","",""
"1726.3999999761581","","image-keyboard-response","206","348454","0.0-206.0","3OSWBBLG1FJDA1OGD3HKDDW56S1XDL","ACKG8OU1KHKO2","3MVY4USGB69K0BK9K576GJZ2CVDSII","","","img/flower2.png","74","1726.8999999761581","1","1","1","1","1,0.333,0.333,0.333,1,0.333,0.333,0.333,1","1,0.333,0.333,0.333,1,0.333,0.333,0.333,1","1",""
"null","","html-keyboard-response","207","348763","0.0-207.0","3OSWBBLG1FJDA1OGD3HKDDW56S1XDL","ACKG8OU1KHKO2","3MVY4USGB69K0BK9K576GJZ2CVDSII","","","<img src=""img/flower2.png"" style=""width:200px; border:14px solid green;"">","null","","","","","","","","",""
"1042.4000000953674","","image-keyboard-response","208","349806","0.0-208.0","3OSWBBLG1FJDA1OGD3HKDDW56S1XDL","ACKG8OU1KHKO2","3MVY4USGB69K0BK9K576GJZ2CVDSII","","","img/flower3.png","76","1043","3","0","2","1","1,0.333,0.333,0.333,1,0.333,0.333,0.333,1","1,0.333,0.333,0.333,1,0.333,0.333,0.333,1","1",""
"null","","html-keyboard-response","209","350115","0.0-209.0","3OSWBBLG1FJDA1OGD3HKDDW56S1XDL","ACKG8OU1KHKO2","3MVY4USGB69K0BK9K576GJZ2CVDSII","","","<img src=""img/flower3.png"" style=""width:200px;border:14px solid red;"">","null","","","","","","","","",""
"1738.0999999046326","","image-keyboard-response","210","351854","0.0-210.0","3OSWBBLG1FJDA1OGD3HKDDW56S1XDL","ACKG8OU1KHKO2","3MVY4USGB69K0BK9K576GJZ2CVDSII","","","img/flower6.png","76","1738.6000000238419","3","1","3","1","1,0.333,0.333,0.333,1,0.333,0.333,0.333,1","1,0.333,0.333,0.333,1,0.333,0.333,0.333,1","1",""
"null","","html-keyboard-response","211","352163","0.0-211.0","3OSWBBLG1FJDA1OGD3HKDDW56S1XDL","ACKG8OU1KHKO2","3MVY4USGB69K0BK9K576GJZ2CVDSII","","","<img src=""img/flower6.png"" style=""width:200px; border:14px solid green;"">","null","","","","","","","","",""
"866.2999999523163","","image-keyboard-response","212","353030","0.0-212.0","3OSWBBLG1FJDA1OGD3HKDDW56S1XDL","ACKG8OU1KHKO2","3MVY4USGB69K0BK9K576GJZ2CVDSII","","","img/flower3.png","75","866.8999999761581","2","1","2","1","1,0.333,0.333,0.333,1,0.333,0.333,0.333,1","1,0.333,0.333,0.333,1,0.333,0.333,0.333,1","1",""
"null","","html-keyboard-response","213","353339","0.0-213.0","3OSWBBLG1FJDA1OGD3HKDDW56S1XDL","ACKG8OU1KHKO2","3MVY4USGB69K0BK9K576GJZ2CVDSII","","","<img src=""img/flower3.png"" style=""width:200px; border:14px solid green;"">","null","","","","","","","","",""
"570.3000000715256","","image-keyboard-response","214","353909","0.0-214.0","3OSWBBLG1FJDA1OGD3HKDDW56S1XDL","ACKG8OU1KHKO2","3MVY4USGB69K0BK9K576GJZ2CVDSII","","","img/flower3.png","75","570.7999999523163","2","1","2","1","1,0.333,0.333,0.333,1,0.333,0.333,0.333,1","1,0.333,0.333,0.333,1,0.333,0.333,0.333,1","1",""
"null","","html-keyboard-response","215","354219","0.0-215.0","3OSWBBLG1FJDA1OGD3HKDDW56S1XDL","ACKG8OU1KHKO2","3MVY4USGB69K0BK9K576GJZ2CVDSII","","","<img src=""img/flower3.png"" style=""width:200px; border:14px solid green;"">","null","","","","","","","","",""
"434.10000002384186","","image-keyboard-response","216","354653","0.0-216.0","3OSWBBLG1FJDA1OGD3HKDDW56S1XDL","ACKG8OU1KHKO2","3MVY4USGB69K0BK9K576GJZ2CVDSII","","","img/flower3.png","75","434.60000002384186","2","1","2","1","1,0.333,0.333,0.333,1,0.333,0.333,0.333,1","1,0.333,0.333,0.333,1,0.333,0.333,0.333,1","1",""
"null","","html-keyboard-response","217","354964","0.0-217.0","3OSWBBLG1FJDA1OGD3HKDDW56S1XDL","ACKG8OU1KHKO2","3MVY4USGB69K0BK9K576GJZ2CVDSII","","","<img src=""img/flower3.png"" style=""width:200px; border:14px solid green;"">","null","","","","","","","","",""
"697.3999999761581","","image-keyboard-response","218","355662","0.0-218.0","3OSWBBLG1FJDA1OGD3HKDDW56S1XDL","ACKG8OU1KHKO2","3MVY4USGB69K0BK9K576GJZ2CVDSII","","","img/flower2.png","74","697.8999999761581","1","1","1","1","1,0.333,0.333,0.333,1,0.333,0.333,0.333,1","1,0.333,0.333,0.333,1,0.333,0.333,0.333,1","1",""
"null","","html-keyboard-response","219","355970","0.0-219.0","3OSWBBLG1FJDA1OGD3HKDDW56S1XDL","ACKG8OU1KHKO2","3MVY4USGB69K0BK9K576GJZ2CVDSII","","","<img src=""img/flower2.png"" style=""width:200px; border:14px solid green;"">","null","","","","","","","","",""
"1306.5","","image-keyboard-response","220","357278","0.0-220.0","3OSWBBLG1FJDA1OGD3HKDDW56S1XDL","ACKG8OU1KHKO2","3MVY4USGB69K0BK9K576GJZ2CVDSII","","","img/flower6.png","76","1307.1000000238419","3","1","3","1","1,0.333,0.333,0.333,1,0.333,0.333,0.333,1","1,0.333,0.333,0.333,1,0.333,0.333,0.333,1","1",""
"null","","html-keyboard-response","221","357589","0.0-221.0","3OSWBBLG1FJDA1OGD3HKDDW56S1XDL","ACKG8OU1KHKO2","3MVY4USGB69K0BK9K576GJZ2CVDSII","","","<img src=""img/flower6.png"" style=""width:200px; border:14px solid green;"">","null","","","","","","","","",""
"847.2999999523163","","image-keyboard-response","222","358437","0.0-222.0","3OSWBBLG1FJDA1OGD3HKDDW56S1XDL","ACKG8OU1KHKO2","3MVY4USGB69K0BK9K576GJZ2CVDSII","","","img/flower2.png","74","847.7999999523163","1","1","1","1","1,0.333,0.333,0.333,1,0.333,0.333,0.333,1","1,0.333,0.333,0.333,1,0.333,0.333,0.333,1","1",""
"null","","html-keyboard-response","223","358748","0.0-223.0","3OSWBBLG1FJDA1OGD3HKDDW56S1XDL","ACKG8OU1KHKO2","3MVY4USGB69K0BK9K576GJZ2CVDSII","","","<img src=""img/flower2.png"" style=""width:200px; border:14px solid green;"">","null","","","","","","","","",""
"1288.1000000238419","","image-keyboard-response","224","360037","0.0-224.0","3OSWBBLG1FJDA1OGD3HKDDW56S1XDL","ACKG8OU1KHKO2","3MVY4USGB69K0BK9K576GJZ2CVDSII","","","img/flower3.png","75","1288.7999999523163","2","1","2","1","1,0.333,0.333,0.333,1,0.333,0.333,0.333,1","1,0.333,0.333,0.333,1,0.333,0.333,0.333,1","1",""
"null","","html-keyboard-response","225","360346","0.0-225.0","3OSWBBLG1FJDA1OGD3HKDDW56S1XDL","ACKG8OU1KHKO2","3MVY4USGB69K0BK9K576GJZ2CVDSII","","","<img src=""img/flower3.png"" style=""width:200px; border:14px solid green;"">","null","","","","","","","","",""
"490.39999997615814","","image-keyboard-response","226","360837","0.0-226.0","3OSWBBLG1FJDA1OGD3HKDDW56S1XDL","ACKG8OU1KHKO2","3MVY4USGB69K0BK9K576GJZ2CVDSII","","","img/flower3.png","75","490.89999997615814","2","1","2","1","1,0.333,0.333,0.333,1,0.333,0.333,0.333,1","1,0.333,0.333,0.333,1,0.333,0.333,0.333,1","1",""
"null","","html-keyboard-response","227","361146","0.0-227.0","3OSWBBLG1FJDA1OGD3HKDDW56S1XDL","ACKG8OU1KHKO2","3MVY4USGB69K0BK9K576GJZ2CVDSII","","","<img src=""img/flower3.png"" style=""width:200px; border:14px solid green;"">","null","","","","","","","","",""
"770","","image-keyboard-response","228","361917","0.0-228.0","3OSWBBLG1FJDA1OGD3HKDDW56S1XDL","ACKG8OU1KHKO2","3MVY4USGB69K0BK9K576GJZ2CVDSII","","","img/flower2.png","74","770.7000000476837","1","1","1","1","1,0.333,0.333,0.333,1,0.333,0.333,0.333,1","1,0.333,0.333,0.333,1,0.333,0.333,0.333,1","1",""
"null","","html-keyboard-response","229","362227","0.0-229.0","3OSWBBLG1FJDA1OGD3HKDDW56S1XDL","ACKG8OU1KHKO2","3MVY4USGB69K0BK9K576GJZ2CVDSII","","","<img src=""img/flower2.png"" style=""width:200px; border:14px solid green;"">","null","","","","","","","","",""
"649.7000000476837","","image-keyboard-response","230","362878","0.0-230.0","3OSWBBLG1FJDA1OGD3HKDDW56S1XDL","ACKG8OU1KHKO2","3MVY4USGB69K0BK9K576GJZ2CVDSII","","","img/flower2.png","74","650.5","1","1","1","1","1,0.333,0.333,0.333,1,0.333,0.333,0.333,1","1,0.333,0.333,0.333,1,0.333,0.333,0.333,1","1",""
"null","","html-keyboard-response","231","363187","0.0-231.0","3OSWBBLG1FJDA1OGD3HKDDW56S1XDL","ACKG8OU1KHKO2","3MVY4USGB69K0BK9K576GJZ2CVDSII","","","<img src=""img/flower2.png"" style=""width:200px; border:14px solid green;"">","null","","","","","","","","",""
"713.3999999761581","","image-keyboard-response","232","363901","0.0-232.0","3OSWBBLG1FJDA1OGD3HKDDW56S1XDL","ACKG8OU1KHKO2","3MVY4USGB69K0BK9K576GJZ2CVDSII","","","img/flower6.png","76","714.3999999761581","3","1","3","1","1,0.333,0.333,0.333,1,0.333,0.333,0.333,1","1,0.333,0.333,0.333,1,0.333,0.333,0.333,1","1",""
"null","","html-keyboard-response","233","364212","0.0-233.0","3OSWBBLG1FJDA1OGD3HKDDW56S1XDL","ACKG8OU1KHKO2","3MVY4USGB69K0BK9K576GJZ2CVDSII","","","<img src=""img/flower6.png"" style=""width:200px; border:14px solid green;"">","null","","","","","","","","",""
"464.2999999523163","","image-keyboard-response","234","364677","0.0-234.0","3OSWBBLG1FJDA1OGD3HKDDW56S1XDL","ACKG8OU1KHKO2","3MVY4USGB69K0BK9K576GJZ2CVDSII","","","img/flower6.png","76","464.7999999523163","3","1","3","1","1,0.333,0.333,0.333,1,0.333,0.333,0.333,1","1,0.333,0.333,0.333,1,0.333,0.333,0.333,1","1",""
"null","","html-keyboard-response","235","364988","0.0-235.0","3OSWBBLG1FJDA1OGD3HKDDW56S1XDL","ACKG8OU1KHKO2","3MVY4USGB69K0BK9K576GJZ2CVDSII","","","<img src=""img/flower6.png"" style=""width:200px; border:14px solid green;"">","null","","","","","","","","",""
"1736.6999999284744","","image-keyboard-response","236","366726","0.0-236.0","3OSWBBLG1FJDA1OGD3HKDDW56S1XDL","ACKG8OU1KHKO2","3MVY4USGB69K0BK9K576GJZ2CVDSII","","","img/flower3.png","75","1737.4000000953674","2","1","2","1","1,0.333,0.333,0.333,1,0.333,0.333,0.333,1","1,0.333,0.333,0.333,1,0.333,0.333,0.333,1","1",""
"null","","html-keyboard-response","237","367038","0.0-237.0","3OSWBBLG1FJDA1OGD3HKDDW56S1XDL","ACKG8OU1KHKO2","3MVY4USGB69K0BK9K576GJZ2CVDSII","","","<img src=""img/flower3.png"" style=""width:200px; border:14px solid green;"">","null","","","","","","","","",""
"654.7999999523163","","image-keyboard-response","238","367693","0.0-238.0","3OSWBBLG1FJDA1OGD3HKDDW56S1XDL","ACKG8OU1KHKO2","3MVY4USGB69K0BK9K576GJZ2CVDSII","","","img/flower2.png","74","655.5","1","1","1","1","1,0.333,0.333,0.333,1,0.333,0.333,0.333,1","1,0.333,0.333,0.333,1,0.333,0.333,0.333,1","1",""
"null","","html-keyboard-response","239","368007","0.0-239.0","3OSWBBLG1FJDA1OGD3HKDDW56S1XDL","ACKG8OU1KHKO2","3MVY4USGB69K0BK9K576GJZ2CVDSII","","","<img src=""img/flower2.png"" style=""width:200px; border:14px solid green;"">","null","","","","","","","","",""
"613.6000000238419","","image-keyboard-response","240","368622","0.0-240.0","3OSWBBLG1FJDA1OGD3HKDDW56S1XDL","ACKG8OU1KHKO2","3MVY4USGB69K0BK9K576GJZ2CVDSII","","","img/flower2.png","74","614.1999999284744","1","1","1","1","1,0.333,0.333,0.333,1,0.333,0.333,0.333,1","1,0.333,0.333,0.333,1,0.333,0.333,0.333,1","1",""
"null","","html-keyboard-response","241","368934","0.0-241.0","3OSWBBLG1FJDA1OGD3HKDDW56S1XDL","ACKG8OU1KHKO2","3MVY4USGB69K0BK9K576GJZ2CVDSII","","","<img src=""img/flower2.png"" style=""width:200px; border:14px solid green;"">","null","","","","","","","","",""
"476.2999999523163","","image-keyboard-response","242","369411","0.0-242.0","3OSWBBLG1FJDA1OGD3HKDDW56S1XDL","ACKG8OU1KHKO2","3MVY4USGB69K0BK9K576GJZ2CVDSII","","","img/flower2.png","74","476.7000000476837","1","1","1","1","1,0.333,0.333,0.333,1,0.333,0.333,0.333,1","1,0.333,0.333,0.333,1,0.333,0.333,0.333,1","1",""
"null","","html-keyboard-response","243","369714","0.0-243.0","3OSWBBLG1FJDA1OGD3HKDDW56S1XDL","ACKG8OU1KHKO2","3MVY4USGB69K0BK9K576GJZ2CVDSII","","","<img src=""img/flower2.png"" style=""width:200px; border:14px solid green;"">","null","","","","","","","","",""
"785.6999999284744","","image-keyboard-response","244","370501","0.0-244.0","3OSWBBLG1FJDA1OGD3HKDDW56S1XDL","ACKG8OU1KHKO2","3MVY4USGB69K0BK9K576GJZ2CVDSII","","","img/flower6.png","76","786.3000000715256","3","1","3","1","1,0.333,0.333,0.333,1,0.333,0.333,0.333,1","1,0.333,0.333,0.333,1,0.333,0.333,0.333,1","1",""
"null","","html-keyboard-response","245","370810","0.0-245.0","3OSWBBLG1FJDA1OGD3HKDDW56S1XDL","ACKG8OU1KHKO2","3MVY4USGB69K0BK9K576GJZ2CVDSII","","","<img src=""img/flower6.png"" style=""width:200px; border:14px solid green;"">","null","","","","","","","","",""
"738.2000000476837","","image-keyboard-response","246","371549","0.0-246.0","3OSWBBLG1FJDA1OGD3HKDDW56S1XDL","ACKG8OU1KHKO2","3MVY4USGB69K0BK9K576GJZ2CVDSII","","","img/flower6.png","76","738.6999999284744","3","1","3","1","1,0.333,0.333,0.333,1,0.333,0.333,0.333,1","1,0.333,0.333,0.333,1,0.333,0.333,0.333,1","1",""
"null","","html-keyboard-response","247","371850","0.0-247.0","3OSWBBLG1FJDA1OGD3HKDDW56S1XDL","ACKG8OU1KHKO2","3MVY4USGB69K0BK9K576GJZ2CVDSII","","","<img src=""img/flower6.png"" style=""width:200px; border:14px solid green;"">","null","","","","","","","","",""
"658.2999999523163","","image-keyboard-response","248","372509","0.0-248.0","3OSWBBLG1FJDA1OGD3HKDDW56S1XDL","ACKG8OU1KHKO2","3MVY4USGB69K0BK9K576GJZ2CVDSII","","","img/flower2.png","76","658.6999999284744","3","0","1","1","1,0.333,0.333,0.333,1,0.333,0.333,0.333,1","1,0.333,0.333,0.333,1,0.333,0.333,0.333,1","1",""
"null","","html-keyboard-response","249","372819","0.0-249.0","3OSWBBLG1FJDA1OGD3HKDDW56S1XDL","ACKG8OU1KHKO2","3MVY4USGB69K0BK9K576GJZ2CVDSII","","","<img src=""img/flower2.png"" style=""width:200px;border:14px solid red;"">","null","","","","","","","","",""
"520.9000000953674","","image-keyboard-response","250","373341","0.0-250.0","3OSWBBLG1FJDA1OGD3HKDDW56S1XDL","ACKG8OU1KHKO2","3MVY4USGB69K0BK9K576GJZ2CVDSII","","","img/flower2.png","74","521.3999999761581","1","1","1","1","1,0.333,0.333,0.333,1,0.333,0.333,0.333,1","1,0.333,0.333,0.333,1,0.333,0.333,0.333,1","1",""
"null","","html-keyboard-response","251","373650","0.0-251.0","3OSWBBLG1FJDA1OGD3HKDDW56S1XDL","ACKG8OU1KHKO2","3MVY4USGB69K0BK9K576GJZ2CVDSII","","","<img src=""img/flower2.png"" style=""width:200px; border:14px solid green;"">","null","","","","","","","","",""
"826.2999999523163","","image-keyboard-response","252","374477","0.0-252.0","3OSWBBLG1FJDA1OGD3HKDDW56S1XDL","ACKG8OU1KHKO2","3MVY4USGB69K0BK9K576GJZ2CVDSII","","","img/flower6.png","76","826.8999999761581","3","1","3","1","1,0.333,0.333,0.333,1,0.333,0.333,0.333,1","1,0.333,0.333,0.333,1,0.333,0.333,0.333,1","1",""
"null","","html-keyboard-response","253","374778","0.0-253.0","3OSWBBLG1FJDA1OGD3HKDDW56S1XDL","ACKG8OU1KHKO2","3MVY4USGB69K0BK9K576GJZ2CVDSII","","","<img src=""img/flower6.png"" style=""width:200px; border:14px solid green;"">","null","","","","","","","","",""
"641.8000000715256","","image-keyboard-response","254","375420","0.0-254.0","3OSWBBLG1FJDA1OGD3HKDDW56S1XDL","ACKG8OU1KHKO2","3MVY4USGB69K0BK9K576GJZ2CVDSII","","","img/flower2.png","76","642.5","3","0","1","1","1,0.333,0.333,0.333,1,0.333,0.333,0.333,1","1,0.333,0.333,0.333,1,0.333,0.333,0.333,1","1",""
"null","","html-keyboard-response","255","375723","0.0-255.0","3OSWBBLG1FJDA1OGD3HKDDW56S1XDL","ACKG8OU1KHKO2","3MVY4USGB69K0BK9K576GJZ2CVDSII","","","<img src=""img/flower2.png"" style=""width:200px;border:14px solid red;"">","null","","","","","","","","",""
"1369.3999999761581","","image-keyboard-response","256","377093","0.0-256.0","3OSWBBLG1FJDA1OGD3HKDDW56S1XDL","ACKG8OU1KHKO2","3MVY4USGB69K0BK9K576GJZ2CVDSII","","","img/flower3.png","75","1370","2","1","2","1","1,0.333,0.333,0.333,1,0.333,0.333,0.333,1","1,0.333,0.333,0.333,1,0.333,0.333,0.333,1","1",""
"null","","html-keyboard-response","257","377402","0.0-257.0","3OSWBBLG1FJDA1OGD3HKDDW56S1XDL","ACKG8OU1KHKO2","3MVY4USGB69K0BK9K576GJZ2CVDSII","","","<img src=""img/flower3.png"" style=""width:200px; border:14px solid green;"">","null","","","","","","","","",""
"483.8000000715256","","image-keyboard-response","258","377886","0.0-258.0","3OSWBBLG1FJDA1OGD3HKDDW56S1XDL","ACKG8OU1KHKO2","3MVY4USGB69K0BK9K576GJZ2CVDSII","","","img/flower3.png","75","484.60000002384186","2","1","2","1","1,0.333,0.333,0.333,1,0.333,0.333,0.333,1","1,0.333,0.333,0.333,1,0.333,0.333,0.333,1","1",""
"null","","html-keyboard-response","259","378194","0.0-259.0","3OSWBBLG1FJDA1OGD3HKDDW56S1XDL","ACKG8OU1KHKO2","3MVY4USGB69K0BK9K576GJZ2CVDSII","","","<img src=""img/flower3.png"" style=""width:200px; border:14px solid green;"">","null","","","","","","","","",""
"593.7000000476837","","image-keyboard-response","260","378788","0.0-260.0","3OSWBBLG1FJDA1OGD3HKDDW56S1XDL","ACKG8OU1KHKO2","3MVY4USGB69K0BK9K576GJZ2CVDSII","","","img/flower2.png","74","594.1999999284744","1","1","1","1","1,0.333,0.333,0.333,1,0.333,0.333,0.333,1","1,0.333,0.333,0.333,1,0.333,0.333,0.333,1","1",""
"null","","html-keyboard-response","261","379090","0.0-261.0","3OSWBBLG1FJDA1OGD3HKDDW56S1XDL","ACKG8OU1KHKO2","3MVY4USGB69K0BK9K576GJZ2CVDSII","","","<img src=""img/flower2.png"" style=""width:200px; border:14px solid green;"">","null","","","","","","","","",""
"995.3000000715256","","image-keyboard-response","262","380086","0.0-262.0","3OSWBBLG1FJDA1OGD3HKDDW56S1XDL","ACKG8OU1KHKO2","3MVY4USGB69K0BK9K576GJZ2CVDSII","","","img/flower6.png","76","995.8999999761581","3","1","3","1","1,0.333,0.333,0.333,1,0.333,0.333,0.333,1","1,0.333,0.333,0.333,1,0.333,0.333,0.333,1","1",""
"null","","html-keyboard-response","263","380394","0.0-263.0","3OSWBBLG1FJDA1OGD3HKDDW56S1XDL","ACKG8OU1KHKO2","3MVY4USGB69K0BK9K576GJZ2CVDSII","","","<img src=""img/flower6.png"" style=""width:200px; border:14px solid green;"">","null","","","","","","","","",""
"641.7000000476837","","image-keyboard-response","264","381037","0.0-264.0","3OSWBBLG1FJDA1OGD3HKDDW56S1XDL","ACKG8OU1KHKO2","3MVY4USGB69K0BK9K576GJZ2CVDSII","","","img/flower2.png","76","642.5","3","0","1","1","1,0.333,0.333,0.333,1,0.333,0.333,0.333,1","1,0.333,0.333,0.333,1,0.333,0.333,0.333,1","1",""
"null","","html-keyboard-response","265","381347","0.0-265.0","3OSWBBLG1FJDA1OGD3HKDDW56S1XDL","ACKG8OU1KHKO2","3MVY4USGB69K0BK9K576GJZ2CVDSII","","","<img src=""img/flower2.png"" style=""width:200px;border:14px solid red;"">","null","","","","","","","","",""
"576.7000000476837","","image-keyboard-response","266","381925","0.0-266.0","3OSWBBLG1FJDA1OGD3HKDDW56S1XDL","ACKG8OU1KHKO2","3MVY4USGB69K0BK9K576GJZ2CVDSII","","","img/flower2.png","76","577.3999999761581","3","0","1","1","1,0.333,0.333,0.333,1,0.333,0.333,0.333,1","1,0.333,0.333,0.333,1,0.333,0.333,0.333,1","1",""
"null","","html-keyboard-response","267","382235","0.0-267.0","3OSWBBLG1FJDA1OGD3HKDDW56S1XDL","ACKG8OU1KHKO2","3MVY4USGB69K0BK9K576GJZ2CVDSII","","","<img src=""img/flower2.png"" style=""width:200px;border:14px solid red;"">","null","","","","","","","","",""
"289.10000002384186","","image-keyboard-response","268","382525","0.0-268.0","3OSWBBLG1FJDA1OGD3HKDDW56S1XDL","ACKG8OU1KHKO2","3MVY4USGB69K0BK9K576GJZ2CVDSII","","","img/flower2.png","74","289.6999999284744","1","1","1","1","1,0.333,0.333,0.333,1,0.333,0.333,0.333,1","1,0.333,0.333,0.333,1,0.333,0.333,0.333,1","1",""
"null","","html-keyboard-response","269","382834","0.0-269.0","3OSWBBLG1FJDA1OGD3HKDDW56S1XDL","ACKG8OU1KHKO2","3MVY4USGB69K0BK9K576GJZ2CVDSII","","","<img src=""img/flower2.png"" style=""width:200px; border:14px solid green;"">","null","","","","","","","","",""
"810.1000000238419","","image-keyboard-response","270","383645","0.0-270.0","3OSWBBLG1FJDA1OGD3HKDDW56S1XDL","ACKG8OU1KHKO2","3MVY4USGB69K0BK9K576GJZ2CVDSII","","","img/flower6.png","76","810.6999999284744","3","1","3","1","1,0.333,0.333,0.333,1,0.333,0.333,0.333,1","1,0.333,0.333,0.333,1,0.333,0.333,0.333,1","1",""
"null","","html-keyboard-response","271","383954","0.0-271.0","3OSWBBLG1FJDA1OGD3HKDDW56S1XDL","ACKG8OU1KHKO2","3MVY4USGB69K0BK9K576GJZ2CVDSII","","","<img src=""img/flower6.png"" style=""width:200px; border:14px solid green;"">","null","","","","","","","","",""
"410.10000002384186","","image-keyboard-response","272","384365","0.0-272.0","3OSWBBLG1FJDA1OGD3HKDDW56S1XDL","ACKG8OU1KHKO2","3MVY4USGB69K0BK9K576GJZ2CVDSII","","","img/flower6.png","76","410.7999999523163","3","1","3","1","1,0.333,0.333,0.333,1,0.333,0.333,0.333,1","1,0.333,0.333,0.333,1,0.333,0.333,0.333,1","1",""
"null","","html-keyboard-response","273","384673","0.0-273.0","3OSWBBLG1FJDA1OGD3HKDDW56S1XDL","ACKG8OU1KHKO2","3MVY4USGB69K0BK9K576GJZ2CVDSII","","","<img src=""img/flower6.png"" style=""width:200px; border:14px solid green;"">","null","","","","","","","","",""
"642.1999999284744","","image-keyboard-response","274","385317","0.0-274.0","3OSWBBLG1FJDA1OGD3HKDDW56S1XDL","ACKG8OU1KHKO2","3MVY4USGB69K0BK9K576GJZ2CVDSII","","","img/flower2.png","74","643","1","1","1","1","1,0.333,0.333,0.333,1,0.333,0.333,0.333,1","1,0.333,0.333,0.333,1,0.333,0.333,0.333,1","1",""
"null","","html-keyboard-response","275","385626","0.0-275.0","3OSWBBLG1FJDA1OGD3HKDDW56S1XDL","ACKG8OU1KHKO2","3MVY4USGB69K0BK9K576GJZ2CVDSII","","","<img src=""img/flower2.png"" style=""width:200px; border:14px solid green;"">","null","","","","","","","","",""
"882","","image-keyboard-response","276","386508","0.0-276.0","3OSWBBLG1FJDA1OGD3HKDDW56S1XDL","ACKG8OU1KHKO2","3MVY4USGB69K0BK9K576GJZ2CVDSII","","","img/flower3.png","75","882.5999999046326","2","1","2","1","1,0.333,0.333,0.333,1,0.333,0.333,0.333,1","1,0.333,0.333,0.333,1,0.333,0.333,0.333,1","1",""
"null","","html-keyboard-response","277","386821","0.0-277.0","3OSWBBLG1FJDA1OGD3HKDDW56S1XDL","ACKG8OU1KHKO2","3MVY4USGB69K0BK9K576GJZ2CVDSII","","","<img src=""img/flower3.png"" style=""width:200px; border:14px solid green;"">","null","","","","","","","","",""
"959.5","","image-keyboard-response","278","387781","0.0-278.0","3OSWBBLG1FJDA1OGD3HKDDW56S1XDL","ACKG8OU1KHKO2","3MVY4USGB69K0BK9K576GJZ2CVDSII","","","img/flower3.png","75","960.1999999284744","2","1","2","1","1,0.333,0.333,0.333,1,0.333,0.333,0.333,1","1,0.333,0.333,0.333,1,0.333,0.333,0.333,1","1",""
"null","","html-keyboard-response","279","388091","0.0-279.0","3OSWBBLG1FJDA1OGD3HKDDW56S1XDL","ACKG8OU1KHKO2","3MVY4USGB69K0BK9K576GJZ2CVDSII","","","<img src=""img/flower3.png"" style=""width:200px; border:14px solid green;"">","null","","","","","","","","",""
"552.1000000238419","","image-keyboard-response","280","388644","0.0-280.0","3OSWBBLG1FJDA1OGD3HKDDW56S1XDL","ACKG8OU1KHKO2","3MVY4USGB69K0BK9K576GJZ2CVDSII","","","img/flower3.png","75","552.8000000715256","2","1","2","1","1,0.333,0.333,0.333,1,0.333,0.333,0.333,1","1,0.333,0.333,0.333,1,0.333,0.333,0.333,1","1",""
"null","","html-keyboard-response","281","388957","0.0-281.0","3OSWBBLG1FJDA1OGD3HKDDW56S1XDL","ACKG8OU1KHKO2","3MVY4USGB69K0BK9K576GJZ2CVDSII","","","<img src=""img/flower3.png"" style=""width:200px; border:14px solid green;"">","null","","","","","","","","",""
"710.8000000715256","","image-keyboard-response","282","389668","0.0-282.0","3OSWBBLG1FJDA1OGD3HKDDW56S1XDL","ACKG8OU1KHKO2","3MVY4USGB69K0BK9K576GJZ2CVDSII","","","img/flower2.png","74","711.6000000238419","1","1","1","1","1,0.333,0.333,0.333,1,0.333,0.333,0.333,1","1,0.333,0.333,0.333,1,0.333,0.333,0.333,1","1",""
"null","","html-keyboard-response","283","389978","0.0-283.0","3OSWBBLG1FJDA1OGD3HKDDW56S1XDL","ACKG8OU1KHKO2","3MVY4USGB69K0BK9K576GJZ2CVDSII","","","<img src=""img/flower2.png"" style=""width:200px; border:14px solid green;"">","null","","","","","","","","",""
"1258","","image-keyboard-response","284","391237","0.0-284.0","3OSWBBLG1FJDA1OGD3HKDDW56S1XDL","ACKG8OU1KHKO2","3MVY4USGB69K0BK9K576GJZ2CVDSII","","","img/flower6.png","76","1258.8000000715256","3","1","3","1","1,0.333,0.333,0.333,1,0.333,0.333,0.333,1","1,0.333,0.333,0.333,1,0.333,0.333,0.333,1","1",""
"null","","html-keyboard-response","285","391537","0.0-285.0","3OSWBBLG1FJDA1OGD3HKDDW56S1XDL","ACKG8OU1KHKO2","3MVY4USGB69K0BK9K576GJZ2CVDSII","","","<img src=""img/flower6.png"" style=""width:200px; border:14px solid green;"">","null","","","","","","","","",""
"642.3999999761581","","image-keyboard-response","286","392181","0.0-286.0","3OSWBBLG1FJDA1OGD3HKDDW56S1XDL","ACKG8OU1KHKO2","3MVY4USGB69K0BK9K576GJZ2CVDSII","","","img/flower2.png","76","643.1000000238419","3","0","1","1","1,0.333,0.333,0.333,1,0.333,0.333,0.333,1","1,0.333,0.333,0.333,1,0.333,0.333,0.333,1","1",""
"null","","html-keyboard-response","287","392491","0.0-287.0","3OSWBBLG1FJDA1OGD3HKDDW56S1XDL","ACKG8OU1KHKO2","3MVY4USGB69K0BK9K576GJZ2CVDSII","","","<img src=""img/flower2.png"" style=""width:200px;border:14px solid red;"">","null","","","","","","","","",""
"736.2999999523163","","image-keyboard-response","288","393228","0.0-288.0","3OSWBBLG1FJDA1OGD3HKDDW56S1XDL","ACKG8OU1KHKO2","3MVY4USGB69K0BK9K576GJZ2CVDSII","","","img/flower2.png","74","736.7999999523163","1","1","1","1","1,0.333,0.333,0.333,1,0.333,0.333,0.333,1","1,0.333,0.333,0.333,1,0.333,0.333,0.333,1","1",""
"null","","html-keyboard-response","289","393537","0.0-289.0","3OSWBBLG1FJDA1OGD3HKDDW56S1XDL","ACKG8OU1KHKO2","3MVY4USGB69K0BK9K576GJZ2CVDSII","","","<img src=""img/flower2.png"" style=""width:200px; border:14px solid green;"">","null","","","","","","","","",""
"1186.5999999046326","","image-keyboard-response","290","394724","0.0-290.0","3OSWBBLG1FJDA1OGD3HKDDW56S1XDL","ACKG8OU1KHKO2","3MVY4USGB69K0BK9K576GJZ2CVDSII","","","img/flower3.png","75","1187.2000000476837","2","1","2","1","1,0.333,0.333,0.333,1,0.333,0.333,0.333,1","1,0.333,0.333,0.333,1,0.333,0.333,0.333,1","1",""
"null","","html-keyboard-response","291","395025","0.0-291.0","3OSWBBLG1FJDA1OGD3HKDDW56S1XDL","ACKG8OU1KHKO2","3MVY4USGB69K0BK9K576GJZ2CVDSII","","","<img src=""img/flower3.png"" style=""width:200px; border:14px solid green;"">","null","","","","","","","","",""
"410.09999990463257","","image-keyboard-response","292","395436","0.0-292.0","3OSWBBLG1FJDA1OGD3HKDDW56S1XDL","ACKG8OU1KHKO2","3MVY4USGB69K0BK9K576GJZ2CVDSII","","","img/flower3.png","75","410.7000000476837","2","1","2","1","1,0.333,0.333,0.333,1,0.333,0.333,0.333,1","1,0.333,0.333,0.333,1,0.333,0.333,0.333,1","1",""
"null","","html-keyboard-response","293","395746","0.0-293.0","3OSWBBLG1FJDA1OGD3HKDDW56S1XDL","ACKG8OU1KHKO2","3MVY4USGB69K0BK9K576GJZ2CVDSII","","","<img src=""img/flower3.png"" style=""width:200px; border:14px solid green;"">","null","","","","","","","","",""
"1441.4000000953674","","image-keyboard-response","294","397188","0.0-294.0","3OSWBBLG1FJDA1OGD3HKDDW56S1XDL","ACKG8OU1KHKO2","3MVY4USGB69K0BK9K576GJZ2CVDSII","","","img/flower6.png","76","1441.8999999761581","3","1","3","1","1,0.333,0.333,0.333,1,0.333,0.333,0.333,1","1,0.333,0.333,0.333,1,0.333,0.333,0.333,1","1",""
"null","","html-keyboard-response","295","397490","0.0-295.0","3OSWBBLG1FJDA1OGD3HKDDW56S1XDL","ACKG8OU1KHKO2","3MVY4USGB69K0BK9K576GJZ2CVDSII","","","<img src=""img/flower6.png"" style=""width:200px; border:14px solid green;"">","null","","","","","","","","",""
"474","","image-keyboard-response","296","397964","0.0-296.0","3OSWBBLG1FJDA1OGD3HKDDW56S1XDL","ACKG8OU1KHKO2","3MVY4USGB69K0BK9K576GJZ2CVDSII","","","img/flower6.png","76","474.5","3","1","3","1","1,0.333,0.333,0.333,1,0.333,0.333,0.333,1","1,0.333,0.333,0.333,1,0.333,0.333,0.333,1","1",""
"null","","html-keyboard-response","297","398275","0.0-297.0","3OSWBBLG1FJDA1OGD3HKDDW56S1XDL","ACKG8OU1KHKO2","3MVY4USGB69K0BK9K576GJZ2CVDSII","","","<img src=""img/flower6.png"" style=""width:200px; border:14px solid green;"">","null","","","","","","","","",""
"528.6000000238419","","image-keyboard-response","298","398804","0.0-298.0","3OSWBBLG1FJDA1OGD3HKDDW56S1XDL","ACKG8OU1KHKO2","3MVY4USGB69K0BK9K576GJZ2CVDSII","","","img/flower2.png","74","529.1999999284744","1","1","1","1","1,0.333,0.333,0.333,1,0.333,0.333,0.333,1","1,0.333,0.333,0.333,1,0.333,0.333,0.333,1","1",""
"null","","html-keyboard-response","299","399114","0.0-299.0","3OSWBBLG1FJDA1OGD3HKDDW56S1XDL","ACKG8OU1KHKO2","3MVY4USGB69K0BK9K576GJZ2CVDSII","","","<img src=""img/flower2.png"" style=""width:200px; border:14px solid green;"">","null","","","","","","","","",""
"761.6999999284744","","image-keyboard-response","300","399876","0.0-300.0","3OSWBBLG1FJDA1OGD3HKDDW56S1XDL","ACKG8OU1KHKO2","3MVY4USGB69K0BK9K576GJZ2CVDSII","","","img/flower6.png","76","762.7000000476837","3","1","3","1","1,0.333,0.333,0.333,1,0.333,0.333,0.333,1","1,0.333,0.333,0.333,1,0.333,0.333,0.333,1","1",""
"null","","html-keyboard-response","301","400187","0.0-301.0","3OSWBBLG1FJDA1OGD3HKDDW56S1XDL","ACKG8OU1KHKO2","3MVY4USGB69K0BK9K576GJZ2CVDSII","","","<img src=""img/flower6.png"" style=""width:200px; border:14px solid green;"">","null","","","","","","","","",""
"424.10000002384186","","image-keyboard-response","302","400612","0.0-302.0","3OSWBBLG1FJDA1OGD3HKDDW56S1XDL","ACKG8OU1KHKO2","3MVY4USGB69K0BK9K576GJZ2CVDSII","","","img/flower6.png","76","424.7999999523163","3","1","3","1","1,0.333,0.333,0.333,1,0.333,0.333,0.333,1","1,0.333,0.333,0.333,1,0.333,0.333,0.333,1","1",""
"null","","html-keyboard-response","303","400924","0.0-303.0","3OSWBBLG1FJDA1OGD3HKDDW56S1XDL","ACKG8OU1KHKO2","3MVY4USGB69K0BK9K576GJZ2CVDSII","","","<img src=""img/flower6.png"" style=""width:200px; border:14px solid green;"">","null","","","","","","","","",""
"575.5","","image-keyboard-response","304","401500","0.0-304.0","3OSWBBLG1FJDA1OGD3HKDDW56S1XDL","ACKG8OU1KHKO2","3MVY4USGB69K0BK9K576GJZ2CVDSII","","","img/flower3.png","74","576.1000000238419","1","0","2","1","1,0.333,0.333,0.333,1,0.333,0.333,0.333,1","1,0.333,0.333,0.333,1,0.333,0.333,0.333,1","1",""
"null","","html-keyboard-response","305","401804","0.0-305.0","3OSWBBLG1FJDA1OGD3HKDDW56S1XDL","ACKG8OU1KHKO2","3MVY4USGB69K0BK9K576GJZ2CVDSII","","","<img src=""img/flower3.png"" style=""width:200px;border:14px solid red;"">","null","","","","","","","","",""
"","","html-keyboard-response","306","402996","0.0-306.0","3OSWBBLG1FJDA1OGD3HKDDW56S1XDL","ACKG8OU1KHKO2","3MVY4USGB69K0BK9K576GJZ2CVDSII","","","","","","","","","","","","",""
"1198.3999999761581","","image-keyboard-response","307","404195","0.0-307.0","3OSWBBLG1FJDA1OGD3HKDDW56S1XDL","ACKG8OU1KHKO2","3MVY4USGB69K0BK9K576GJZ2CVDSII","","","img/flower4.png","74","1199.0999999046326","1","1","2","2","1,0,0,1,1,0,1,0,1","0,0,1,1,0,1,0,1,1","2",""
"null","","html-keyboard-response","308","404497","0.0-308.0","3OSWBBLG1FJDA1OGD3HKDDW56S1XDL","ACKG8OU1KHKO2","3MVY4USGB69K0BK9K576GJZ2CVDSII","","","<img src=""img/flower4.png"" style=""width:200px; border:14px solid green;"">","null","","","","","","","","",""
"913.8000000715256","","image-keyboard-response","309","405412","0.0-309.0","3OSWBBLG1FJDA1OGD3HKDDW56S1XDL","ACKG8OU1KHKO2","3MVY4USGB69K0BK9K576GJZ2CVDSII","","","img/flower1.png","75","914.6000000238419","2","1","3","2","1,0,0,1,1,0,1,0,1","0,0,1,1,0,1,0,1,1","2",""
"null","","html-keyboard-response","310","405721","0.0-310.0","3OSWBBLG1FJDA1OGD3HKDDW56S1XDL","ACKG8OU1KHKO2","3MVY4USGB69K0BK9K576GJZ2CVDSII","","","<img src=""img/flower1.png"" style=""width:200px; border:14px solid green;"">","null","","","","","","","","",""
"402","","image-keyboard-response","311","406124","0.0-311.0","3OSWBBLG1FJDA1OGD3HKDDW56S1XDL","ACKG8OU1KHKO2","3MVY4USGB69K0BK9K576GJZ2CVDSII","","","img/flower1.png","75","402.59999990463257","2","1","3","2","1,0,0,1,1,0,1,0,1","0,0,1,1,0,1,0,1,1","2",""
"null","","html-keyboard-response","312","406429","0.0-312.0","3OSWBBLG1FJDA1OGD3HKDDW56S1XDL","ACKG8OU1KHKO2","3MVY4USGB69K0BK9K576GJZ2CVDSII","","","<img src=""img/flower1.png"" style=""width:200px; border:14px solid green;"">","null","","","","","","","","",""
"349.8000000715256","","image-keyboard-response","313","406780","0.0-313.0","3OSWBBLG1FJDA1OGD3HKDDW56S1XDL","ACKG8OU1KHKO2","3MVY4USGB69K0BK9K576GJZ2CVDSII","","","img/flower1.png","75","350.5","2","1","3","2","1,0,0,1,1,0,1,0,1","0,0,1,1,0,1,0,1,1","2",""
"null","","html-keyboard-response","314","407089","0.0-314.0","3OSWBBLG1FJDA1OGD3HKDDW56S1XDL","ACKG8OU1KHKO2","3MVY4USGB69K0BK9K576GJZ2CVDSII","","","<img src=""img/flower1.png"" style=""width:200px; border:14px solid green;"">","null","","","","","","","","",""
"770","","image-keyboard-response","315","407860","0.0-315.0","3OSWBBLG1FJDA1OGD3HKDDW56S1XDL","ACKG8OU1KHKO2","3MVY4USGB69K0BK9K576GJZ2CVDSII","","","img/flower5.png","76","770.6000000238419","3","1","1","2","1,0,0,1,1,0,1,0,1","0,0,1,1,0,1,0,1,1","2",""
"null","","html-keyboard-response","316","408171","0.0-316.0","3OSWBBLG1FJDA1OGD3HKDDW56S1XDL","ACKG8OU1KHKO2","3MVY4USGB69K0BK9K576GJZ2CVDSII","","","<img src=""img/flower5.png"" style=""width:200px; border:14px solid green;"">","null","","","","","","","","",""
"464.39999997615814","","image-keyboard-response","317","408636","0.0-317.0","3OSWBBLG1FJDA1OGD3HKDDW56S1XDL","ACKG8OU1KHKO2","3MVY4USGB69K0BK9K576GJZ2CVDSII","","","img/flower5.png","76","465.2000000476837","3","1","1","2","1,0,0,1,1,0,1,0,1","0,0,1,1,0,1,0,1,1","2",""
"null","","html-keyboard-response","318","408945","0.0-318.0","3OSWBBLG1FJDA1OGD3HKDDW56S1XDL","ACKG8OU1KHKO2","3MVY4USGB69K0BK9K576GJZ2CVDSII","","","<img src=""img/flower5.png"" style=""width:200px; border:14px solid green;"">","null","","","","","","","","",""
"1241.6000000238419","","image-keyboard-response","319","410188","0.0-319.0","3OSWBBLG1FJDA1OGD3HKDDW56S1XDL","ACKG8OU1KHKO2","3MVY4USGB69K0BK9K576GJZ2CVDSII","","","img/flower4.png","74","1242.2000000476837","1","1","2","2","1,0,0,1,1,0,1,0,1","0,0,1,1,0,1,0,1,1","2",""
"null","","html-keyboard-response","320","410497","0.0-320.0","3OSWBBLG1FJDA1OGD3HKDDW56S1XDL","ACKG8OU1KHKO2","3MVY4USGB69K0BK9K576GJZ2CVDSII","","","<img src=""img/flower4.png"" style=""width:200px; border:14px solid green;"">","null","","","","","","","","",""
"954.3000000715256","","image-keyboard-response","321","411452","0.0-321.0","3OSWBBLG1FJDA1OGD3HKDDW56S1XDL","ACKG8OU1KHKO2","3MVY4USGB69K0BK9K576GJZ2CVDSII","","","img/flower5.png","75","955.1999999284744","2","0","1","2","1,0,0,1,1,0,1,0,1","0,0,1,1,0,1,0,1,1","2",""
"null","","html-keyboard-response","322","411761","0.0-322.0","3OSWBBLG1FJDA1OGD3HKDDW56S1XDL","ACKG8OU1KHKO2","3MVY4USGB69K0BK9K576GJZ2CVDSII","","","<img src=""img/flower5.png"" style=""width:200px;border:14px solid red;"">","null","","","","","","","","",""
"946.0999999046326","","image-keyboard-response","323","412708","0.0-323.0","3OSWBBLG1FJDA1OGD3HKDDW56S1XDL","ACKG8OU1KHKO2","3MVY4USGB69K0BK9K576GJZ2CVDSII","","","img/flower4.png","74","946.8000000715256","1","1","2","2","1,0,0,1,1,0,1,0,1","0,0,1,1,0,1,0,1,1","2",""
"null","","html-keyboard-response","324","413020","0.0-324.0","3OSWBBLG1FJDA1OGD3HKDDW56S1XDL","ACKG8OU1KHKO2","3MVY4USGB69K0BK9K576GJZ2CVDSII","","","<img src=""img/flower4.png"" style=""width:200px; border:14px solid green;"">","null","","","","","","","","",""
"1774.8000000715256","","image-keyboard-response","325","414796","0.0-325.0","3OSWBBLG1FJDA1OGD3HKDDW56S1XDL","ACKG8OU1KHKO2","3MVY4USGB69K0BK9K576GJZ2CVDSII","","","img/flower1.png","75","1775.1999999284744","2","1","3","2","1,0,0,1,1,0,1,0,1","0,0,1,1,0,1,0,1,1","2",""
"null","","html-keyboard-response","326","415107","0.0-326.0","3OSWBBLG1FJDA1OGD3HKDDW56S1XDL","ACKG8OU1KHKO2","3MVY4USGB69K0BK9K576GJZ2CVDSII","","","<img src=""img/flower1.png"" style=""width:200px; border:14px solid green;"">","null","","","","","","","","",""
"2240","","image-keyboard-response","327","417348","0.0-327.0","3OSWBBLG1FJDA1OGD3HKDDW56S1XDL","ACKG8OU1KHKO2","3MVY4USGB69K0BK9K576GJZ2CVDSII","","","img/flower5.png","74","2240.600000023842","1","0","1","2","1,0,0,1,1,0,1,0,1","0,0,1,1,0,1,0,1,1","2",""
"null","","html-keyboard-response","328","417659","0.0-328.0","3OSWBBLG1FJDA1OGD3HKDDW56S1XDL","ACKG8OU1KHKO2","3MVY4USGB69K0BK9K576GJZ2CVDSII","","","<img src=""img/flower5.png"" style=""width:200px;border:14px solid red;"">","null","","","","","","","","",""
"903.3999999761581","","image-keyboard-response","329","418563","0.0-329.0","3OSWBBLG1FJDA1OGD3HKDDW56S1XDL","ACKG8OU1KHKO2","3MVY4USGB69K0BK9K576GJZ2CVDSII","","","img/flower1.png","75","904","2","1","3","2","1,0,0,1,1,0,1,0,1","0,0,1,1,0,1,0,1,1","2",""
"null","","html-keyboard-response","330","418874","0.0-330.0","3OSWBBLG1FJDA1OGD3HKDDW56S1XDL","ACKG8OU1KHKO2","3MVY4USGB69K0BK9K576GJZ2CVDSII","","","<img src=""img/flower1.png"" style=""width:200px; border:14px solid green;"">","null","","","","","","","","",""
"968.4000000953674","","image-keyboard-response","331","419843","0.0-331.0","3OSWBBLG1FJDA1OGD3HKDDW56S1XDL","ACKG8OU1KHKO2","3MVY4USGB69K0BK9K576GJZ2CVDSII","","","img/flower4.png","74","969.1999999284744","1","1","2","2","1,0,0,1,1,0,1,0,1","0,0,1,1,0,1,0,1,1","2",""
"null","","html-keyboard-response","332","420146","0.0-332.0","3OSWBBLG1FJDA1OGD3HKDDW56S1XDL","ACKG8OU1KHKO2","3MVY4USGB69K0BK9K576GJZ2CVDSII","","","<img src=""img/flower4.png"" style=""width:200px; border:14px solid green;"">","null","","","","","","","","",""
"704.3999999761581","","image-keyboard-response","333","420851","0.0-333.0","3OSWBBLG1FJDA1OGD3HKDDW56S1XDL","ACKG8OU1KHKO2","3MVY4USGB69K0BK9K576GJZ2CVDSII","","","img/flower5.png","74","705.1000000238419","1","0","1","2","1,0,0,1,1,0,1,0,1","0,0,1,1,0,1,0,1,1","2",""
"null","","html-keyboard-response","334","421162","0.0-334.0","3OSWBBLG1FJDA1OGD3HKDDW56S1XDL","ACKG8OU1KHKO2","3MVY4USGB69K0BK9K576GJZ2CVDSII","","","<img src=""img/flower5.png"" style=""width:200px;border:14px solid red;"">","null","","","","","","","","",""
"697","","image-keyboard-response","335","421860","0.0-335.0","3OSWBBLG1FJDA1OGD3HKDDW56S1XDL","ACKG8OU1KHKO2","3MVY4USGB69K0BK9K576GJZ2CVDSII","","","img/flower4.png","74","697.6000000238419","1","1","2","2","1,0,0,1,1,0,1,0,1","0,0,1,1,0,1,0,1,1","2",""
"null","","html-keyboard-response","336","422171","0.0-336.0","3OSWBBLG1FJDA1OGD3HKDDW56S1XDL","ACKG8OU1KHKO2","3MVY4USGB69K0BK9K576GJZ2CVDSII","","","<img src=""img/flower4.png"" style=""width:200px; border:14px solid green;"">","null","","","","","","","","",""
"639.5","","image-keyboard-response","337","422812","0.0-337.0","3OSWBBLG1FJDA1OGD3HKDDW56S1XDL","ACKG8OU1KHKO2","3MVY4USGB69K0BK9K576GJZ2CVDSII","","","img/flower5.png","75","640.1000000238419","2","0","1","2","1,0,0,1,1,0,1,0,1","0,0,1,1,0,1,0,1,1","2",""
"null","","html-keyboard-response","338","423124","0.0-338.0","3OSWBBLG1FJDA1OGD3HKDDW56S1XDL","ACKG8OU1KHKO2","3MVY4USGB69K0BK9K576GJZ2CVDSII","","","<img src=""img/flower5.png"" style=""width:200px;border:14px solid red;"">","null","","","","","","","","",""
"494.7000000476837","","image-keyboard-response","339","423619","0.0-339.0","3OSWBBLG1FJDA1OGD3HKDDW56S1XDL","ACKG8OU1KHKO2","3MVY4USGB69K0BK9K576GJZ2CVDSII","","","img/flower5.png","75","495.1999999284744","2","0","1","2","1,0,0,1,1,0,1,0,1","0,0,1,1,0,1,0,1,1","2",""
"null","","html-keyboard-response","340","423931","0.0-340.0","3OSWBBLG1FJDA1OGD3HKDDW56S1XDL","ACKG8OU1KHKO2","3MVY4USGB69K0BK9K576GJZ2CVDSII","","","<img src=""img/flower5.png"" style=""width:200px;border:14px solid red;"">","null","","","","","","","","",""
"1647.6000000238419","","image-keyboard-response","341","425579","0.0-341.0","3OSWBBLG1FJDA1OGD3HKDDW56S1XDL","ACKG8OU1KHKO2","3MVY4USGB69K0BK9K576GJZ2CVDSII","","","img/flower1.png","75","1648.3000000715256","2","1","3","2","1,0,0,1,1,0,1,0,1","0,0,1,1,0,1,0,1,1","2",""
"null","","html-keyboard-response","342","425889","0.0-342.0","3OSWBBLG1FJDA1OGD3HKDDW56S1XDL","ACKG8OU1KHKO2","3MVY4USGB69K0BK9K576GJZ2CVDSII","","","<img src=""img/flower1.png"" style=""width:200px; border:14px solid green;"">","null","","","","","","","","",""
"756.8999999761581","","image-keyboard-response","343","426647","0.0-343.0","3OSWBBLG1FJDA1OGD3HKDDW56S1XDL","ACKG8OU1KHKO2","3MVY4USGB69K0BK9K576GJZ2CVDSII","","","img/flower4.png","74","757.6999999284744","1","1","2","2","1,0,0,1,1,0,1,0,1","0,0,1,1,0,1,0,1,1","2",""
"null","","html-keyboard-response","344","426955","0.0-344.0","3OSWBBLG1FJDA1OGD3HKDDW56S1XDL","ACKG8OU1KHKO2","3MVY4USGB69K0BK9K576GJZ2CVDSII","","","<img src=""img/flower4.png"" style=""width:200px; border:14px solid green;"">","null","","","","","","","","",""
"407.2999999523163","","image-keyboard-response","345","427363","0.0-345.0","3OSWBBLG1FJDA1OGD3HKDDW56S1XDL","ACKG8OU1KHKO2","3MVY4USGB69K0BK9K576GJZ2CVDSII","","","img/flower4.png","74","407.90000009536743","1","1","2","2","1,0,0,1,1,0,1,0,1","0,0,1,1,0,1,0,1,1","2",""
"null","","html-keyboard-response","346","427664","0.0-346.0","3OSWBBLG1FJDA1OGD3HKDDW56S1XDL","ACKG8OU1KHKO2","3MVY4USGB69K0BK9K576GJZ2CVDSII","","","<img src=""img/flower4.png"" style=""width:200px; border:14px solid green;"">","null","","","","","","","","",""
"370.3000000715256","","image-keyboard-response","347","428035","0.0-347.0","3OSWBBLG1FJDA1OGD3HKDDW56S1XDL","ACKG8OU1KHKO2","3MVY4USGB69K0BK9K576GJZ2CVDSII","","","img/flower4.png","74","371","1","1","2","2","1,0,0,1,1,0,1,0,1","0,0,1,1,0,1,0,1,1","2",""
"null","","html-keyboard-response","348","428344","0.0-348.0","3OSWBBLG1FJDA1OGD3HKDDW56S1XDL","ACKG8OU1KHKO2","3MVY4USGB69K0BK9K576GJZ2CVDSII","","","<img src=""img/flower4.png"" style=""width:200px; border:14px solid green;"">","null","","","","","","","","",""
"932.1999999284744","","image-keyboard-response","349","429278","0.0-349.0","3OSWBBLG1FJDA1OGD3HKDDW56S1XDL","ACKG8OU1KHKO2","3MVY4USGB69K0BK9K576GJZ2CVDSII","","","img/flower1.png","76","933","3","1","3","2","1,0,0,1,1,0,1,0,1","0,0,1,1,0,1,0,1,1","2",""
"null","","html-keyboard-response","350","429589","0.0-350.0","3OSWBBLG1FJDA1OGD3HKDDW56S1XDL","ACKG8OU1KHKO2","3MVY4USGB69K0BK9K576GJZ2CVDSII","","","<img src=""img/flower1.png"" style=""width:200px; border:14px solid green;"">","null","","","","","","","","",""
"461.60000002384186","","image-keyboard-response","351","430051","0.0-351.0","3OSWBBLG1FJDA1OGD3HKDDW56S1XDL","ACKG8OU1KHKO2","3MVY4USGB69K0BK9K576GJZ2CVDSII","","","img/flower1.png","76","462.2999999523163","3","1","3","2","1,0,0,1,1,0,1,0,1","0,0,1,1,0,1,0,1,1","2",""
"null","","html-keyboard-response","352","430360","0.0-352.0","3OSWBBLG1FJDA1OGD3HKDDW56S1XDL","ACKG8OU1KHKO2","3MVY4USGB69K0BK9K576GJZ2CVDSII","","","<img src=""img/flower1.png"" style=""width:200px; border:14px solid green;"">","null","","","","","","","","",""
"850.3999999761581","","image-keyboard-response","353","431211","0.0-353.0","3OSWBBLG1FJDA1OGD3HKDDW56S1XDL","ACKG8OU1KHKO2","3MVY4USGB69K0BK9K576GJZ2CVDSII","","","img/flower4.png","74","851","1","1","2","2","1,0,0,1,1,0,1,0,1","0,0,1,1,0,1,0,1,1","2",""
"null","","html-keyboard-response","354","431527","0.0-354.0","3OSWBBLG1FJDA1OGD3HKDDW56S1XDL","ACKG8OU1KHKO2","3MVY4USGB69K0BK9K576GJZ2CVDSII","","","<img src=""img/flower4.png"" style=""width:200px; border:14px solid green;"">","null","","","","","","","","",""
"1035.8000000715256","","image-keyboard-response","355","432563","0.0-355.0","3OSWBBLG1FJDA1OGD3HKDDW56S1XDL","ACKG8OU1KHKO2","3MVY4USGB69K0BK9K576GJZ2CVDSII","","","img/flower4.png","74","1036.2999999523163","1","1","2","2","1,0,0,1,1,0,1,0,1","0,0,1,1,0,1,0,1,1","2",""
"null","","html-keyboard-response","356","432876","0.0-356.0","3OSWBBLG1FJDA1OGD3HKDDW56S1XDL","ACKG8OU1KHKO2","3MVY4USGB69K0BK9K576GJZ2CVDSII","","","<img src=""img/flower4.png"" style=""width:200px; border:14px solid green;"">","null","","","","","","","","",""
"798.3000000715256","","image-keyboard-response","357","433675","0.0-357.0","3OSWBBLG1FJDA1OGD3HKDDW56S1XDL","ACKG8OU1KHKO2","3MVY4USGB69K0BK9K576GJZ2CVDSII","","","img/flower1.png","76","798.8999999761581","3","1","3","2","1,0,0,1,1,0,1,0,1","0,0,1,1,0,1,0,1,1","2",""
"null","","html-keyboard-response","358","433984","0.0-358.0","3OSWBBLG1FJDA1OGD3HKDDW56S1XDL","ACKG8OU1KHKO2","3MVY4USGB69K0BK9K576GJZ2CVDSII","","","<img src=""img/flower1.png"" style=""width:200px; border:14px solid green;"">","null","","","","","","","","",""
"1066.6999999284744","","image-keyboard-response","359","435051","0.0-359.0","3OSWBBLG1FJDA1OGD3HKDDW56S1XDL","ACKG8OU1KHKO2","3MVY4USGB69K0BK9K576GJZ2CVDSII","","","img/flower5.png","75","1067.2999999523163","2","0","1","2","1,0,0,1,1,0,1,0,1","0,0,1,1,0,1,0,1,1","2",""
"null","","html-keyboard-response","360","435360","0.0-360.0","3OSWBBLG1FJDA1OGD3HKDDW56S1XDL","ACKG8OU1KHKO2","3MVY4USGB69K0BK9K576GJZ2CVDSII","","","<img src=""img/flower5.png"" style=""width:200px;border:14px solid red;"">","null","","","","","","","","",""
"906.7000000476837","","image-keyboard-response","361","436268","0.0-361.0","3OSWBBLG1FJDA1OGD3HKDDW56S1XDL","ACKG8OU1KHKO2","3MVY4USGB69K0BK9K576GJZ2CVDSII","","","img/flower1.png","76","907.2999999523163","3","1","3","2","1,0,0,1,1,0,1,0,1","0,0,1,1,0,1,0,1,1","2",""
"null","","html-keyboard-response","362","436576","0.0-362.0","3OSWBBLG1FJDA1OGD3HKDDW56S1XDL","ACKG8OU1KHKO2","3MVY4USGB69K0BK9K576GJZ2CVDSII","","","<img src=""img/flower1.png"" style=""width:200px; border:14px solid green;"">","null","","","","","","","","",""
"370.2999999523163","","image-keyboard-response","363","436947","0.0-363.0","3OSWBBLG1FJDA1OGD3HKDDW56S1XDL","ACKG8OU1KHKO2","3MVY4USGB69K0BK9K576GJZ2CVDSII","","","img/flower1.png","76","371","3","1","3","2","1,0,0,1,1,0,1,0,1","0,0,1,1,0,1,0,1,1","2",""
"null","","html-keyboard-response","364","437256","0.0-364.0","3OSWBBLG1FJDA1OGD3HKDDW56S1XDL","ACKG8OU1KHKO2","3MVY4USGB69K0BK9K576GJZ2CVDSII","","","<img src=""img/flower1.png"" style=""width:200px; border:14px solid green;"">","null","","","","","","","","",""
"674.5","","image-keyboard-response","365","437931","0.0-365.0","3OSWBBLG1FJDA1OGD3HKDDW56S1XDL","ACKG8OU1KHKO2","3MVY4USGB69K0BK9K576GJZ2CVDSII","","","img/flower4.png","74","675","1","1","2","2","1,0,0,1,1,0,1,0,1","0,0,1,1,0,1,0,1,1","2",""
"null","","html-keyboard-response","366","438240","0.0-366.0","3OSWBBLG1FJDA1OGD3HKDDW56S1XDL","ACKG8OU1KHKO2","3MVY4USGB69K0BK9K576GJZ2CVDSII","","","<img src=""img/flower4.png"" style=""width:200px; border:14px solid green;"">","null","","","","","","","","",""
"762.5","","image-keyboard-response","367","439003","0.0-367.0","3OSWBBLG1FJDA1OGD3HKDDW56S1XDL","ACKG8OU1KHKO2","3MVY4USGB69K0BK9K576GJZ2CVDSII","","","img/flower1.png","76","763.1000000238419","3","1","3","2","1,0,0,1,1,0,1,0,1","0,0,1,1,0,1,0,1,1","2",""
"null","","html-keyboard-response","368","439316","0.0-368.0","3OSWBBLG1FJDA1OGD3HKDDW56S1XDL","ACKG8OU1KHKO2","3MVY4USGB69K0BK9K576GJZ2CVDSII","","","<img src=""img/flower1.png"" style=""width:200px; border:14px solid green;"">","null","","","","","","","","",""
