"success","trial_type","trial_index","time_elapsed","internal_node_id","assignmentID","mturkID","hitID","view_history","rt","stimulus","key_press","reactionTime","a","r","s","cond","reward_cond","reward_cond_actual","reward_matrix_idx","responses"
"true","fullscreen","0","2337","0.0-0.0","3PMBY0YE28PD4D04ARGVD4S5FNN9C0","ACON9O9NMFOHE","30UZJB2POHY4464FN6NBJ2NLFWF354","","","","","","","","","","","","",""
"","instructions","1","16865","0.0-1.0","3PMBY0YE28PD4D04ARGVD4S5FNN9C0","ACON9O9NMFOHE","30UZJB2POHY4464FN6NBJ2NLFWF354","[{""page_index"":0,""viewing_time"":5102.600000143051},{""page_index"":1,""viewing_time"":1527.7999999523163},{""page_index"":2,""viewing_time"":664},{""page_index"":3,""viewing_time"":384.2999999523163},{""page_index"":4,""viewing_time"":2215.9000000953674},{""page_index"":5,""viewing_time"":2111.7999999523163},{""page_index"":6,""viewing_time"":1776.0999999046326},{""page_index"":7,""viewing_time"":744}]","14527","","","","","","","","","","",""
"","image-keyboard-response","2","17657","0.0-2.0","3PMBY0YE28PD4D04ARGVD4S5FNN9C0","ACON9O9NMFOHE","30UZJB2POHY4464FN6NBJ2NLFWF354","","789.5","img/flower1.png","74","790.7999999523163","1","0","3","2","1,0,0,1,1,0,1,0,1","0,0,1,1,0,1,0,1,1","2",""
"","html-keyboard-response","3","17960","0.0-3.0","3PMBY0YE28PD4D04ARGVD4S5FNN9C0","ACON9O9NMFOHE","30UZJB2POHY4464FN6NBJ2NLFWF354","","null","<img src=""img/flower1.png"" style=""width:200px;border:14px solid red;"">","null","","","","","","","","",""
"","image-keyboard-response","4","18793","0.0-4.0","3PMBY0YE28PD4D04ARGVD4S5FNN9C0","ACON9O9NMFOHE","30UZJB2POHY4464FN6NBJ2NLFWF354","","831.7999999523163","img/flower4.png","76","832.7000000476837","3","1","1","2","1,0,0,1,1,0,1,0,1","0,0,1,1,0,1,0,1,1","2",""
"","html-keyboard-response","5","19108","0.0-5.0","3PMBY0YE28PD4D04ARGVD4S5FNN9C0","ACON9O9NMFOHE","30UZJB2POHY4464FN6NBJ2NLFWF354","","null","<img src=""img/flower4.png"" style=""width:200px; border:14px solid green;"">","null","","","","","","","","",""
"","image-keyboard-response","6","19849","0.0-6.0","3PMBY0YE28PD4D04ARGVD4S5FNN9C0","ACON9O9NMFOHE","30UZJB2POHY4464FN6NBJ2NLFWF354","","740.5","img/flower5.png","75","741.1000001430511","2","0","2","2","1,0,0,1,1,0,1,0,1","0,0,1,1,0,1,0,1,1","2",""
"","html-keyboard-response","7","20164","0.0-7.0","3PMBY0YE28PD4D04ARGVD4S5FNN9C0","ACON9O9NMFOHE","30UZJB2POHY4464FN6NBJ2NLFWF354","","null","<img src=""img/flower5.png"" style=""width:200px;border:14px solid red;"">","null","","","","","","","","",""
"","image-keyboard-response","8","20680","0.0-8.0","3PMBY0YE28PD4D04ARGVD4S5FNN9C0","ACON9O9NMFOHE","30UZJB2POHY4464FN6NBJ2NLFWF354","","516","img/flower4.png","76","516.7999999523163","3","1","1","2","1,0,0,1,1,0,1,0,1","0,0,1,1,0,1,0,1,1","2",""
"","html-keyboard-response","9","20987","0.0-9.0","3PMBY0YE28PD4D04ARGVD4S5FNN9C0","ACON9O9NMFOHE","30UZJB2POHY4464FN6NBJ2NLFWF354","","null","<img src=""img/flower4.png"" style=""width:200px; border:14px solid green;"">","null","","","","","","","","",""
"","image-keyboard-response","10","21769","0.0-10.0","3PMBY0YE28PD4D04ARGVD4S5FNN9C0","ACON9O9NMFOHE","30UZJB2POHY4464FN6NBJ2NLFWF354","","780.6999998092651","img/flower1.png","74","781.7000000476837","1","0","3","2","1,0,0,1,1,0,1,0,1","0,0,1,1,0,1,0,1,1","2",""
"","html-keyboard-response","11","22076","0.0-11.0","3PMBY0YE28PD4D04ARGVD4S5FNN9C0","ACON9O9NMFOHE","30UZJB2POHY4464FN6NBJ2NLFWF354","","null","<img src=""img/flower1.png"" style=""width:200px;border:14px solid red;"">","null","","","","","","","","",""
"","image-keyboard-response","12","22697","0.0-12.0","3PMBY0YE28PD4D04ARGVD4S5FNN9C0","ACON9O9NMFOHE","30UZJB2POHY4464FN6NBJ2NLFWF354","","619.2999999523163","img/flower1.png","75","620.2000000476837","2","1","3","2","1,0,0,1,1,0,1,0,1","0,0,1,1,0,1,0,1,1","2",""
"","html-keyboard-response","13","23009","0.0-13.0","3PMBY0YE28PD4D04ARGVD4S5FNN9C0","ACON9O9NMFOHE","30UZJB2POHY4464FN6NBJ2NLFWF354","","null","<img src=""img/flower1.png"" style=""width:200px; border:14px solid green;"">","null","","","","","","","","",""
"","image-keyboard-response","14","23385","0.0-14.0","3PMBY0YE28PD4D04ARGVD4S5FNN9C0","ACON9O9NMFOHE","30UZJB2POHY4464FN6NBJ2NLFWF354","","374.59999990463257","img/flower1.png","75","375.39999985694885","2","1","3","2","1,0,0,1,1,0,1,0,1","0,0,1,1,0,1,0,1,1","2",""
"","html-keyboard-response","15","23690","0.0-15.0","3PMBY0YE28PD4D04ARGVD4S5FNN9C0","ACON9O9NMFOHE","30UZJB2POHY4464FN6NBJ2NLFWF354","","null","<img src=""img/flower1.png"" style=""width:200px; border:14px solid green;"">","null","","","","","","","","",""
"","image-keyboard-response","16","24024","0.0-16.0","3PMBY0YE28PD4D04ARGVD4S5FNN9C0","ACON9O9NMFOHE","30UZJB2POHY4464FN6NBJ2NLFWF354","","333.10000014305115","img/flower1.png","75","334.10000014305115","2","1","3","2","1,0,0,1,1,0,1,0,1","0,0,1,1,0,1,0,1,1","2",""
"","html-keyboard-response","17","24330","0.0-17.0","3PMBY0YE28PD4D04ARGVD4S5FNN9C0","ACON9O9NMFOHE","30UZJB2POHY4464FN6NBJ2NLFWF354","","null","<img src=""img/flower1.png"" style=""width:200px; border:14px solid green;"">","null","","","","","","","","",""
"","image-keyboard-response","18","24665","0.0-18.0","3PMBY0YE28PD4D04ARGVD4S5FNN9C0","ACON9O9NMFOHE","30UZJB2POHY4464FN6NBJ2NLFWF354","","333.59999990463257","img/flower1.png","75","334.5","2","1","3","2","1,0,0,1,1,0,1,0,1","0,0,1,1,0,1,0,1,1","2",""
"","html-keyboard-response","19","24973","0.0-19.0","3PMBY0YE28PD4D04ARGVD4S5FNN9C0","ACON9O9NMFOHE","30UZJB2POHY4464FN6NBJ2NLFWF354","","null","<img src=""img/flower1.png"" style=""width:200px; border:14px solid green;"">","null","","","","","","","","",""
"","image-keyboard-response","20","26057","0.0-20.0","3PMBY0YE28PD4D04ARGVD4S5FNN9C0","ACON9O9NMFOHE","30UZJB2POHY4464FN6NBJ2NLFWF354","","1082","img/flower4.png","76","1083","3","1","1","2","1,0,0,1,1,0,1,0,1","0,0,1,1,0,1,0,1,1","2",""
"","html-keyboard-response","21","26368","0.0-21.0","3PMBY0YE28PD4D04ARGVD4S5FNN9C0","ACON9O9NMFOHE","30UZJB2POHY4464FN6NBJ2NLFWF354","","null","<img src=""img/flower4.png"" style=""width:200px; border:14px solid green;"">","null","","","","","","","","",""
"","image-keyboard-response","22","26953","0.0-22.0","3PMBY0YE28PD4D04ARGVD4S5FNN9C0","ACON9O9NMFOHE","30UZJB2POHY4464FN6NBJ2NLFWF354","","583.2999999523163","img/flower5.png","74","584","1","1","2","2","1,0,0,1,1,0,1,0,1","0,0,1,1,0,1,0,1,1","2",""
"","html-keyboard-response","23","27266","0.0-23.0","3PMBY0YE28PD4D04ARGVD4S5FNN9C0","ACON9O9NMFOHE","30UZJB2POHY4464FN6NBJ2NLFWF354","","null","<img src=""img/flower5.png"" style=""width:200px; border:14px solid green;"">","null","","","","","","","","",""
"","image-keyboard-response","24","27720","0.0-24.0","3PMBY0YE28PD4D04ARGVD4S5FNN9C0","ACON9O9NMFOHE","30UZJB2POHY4464FN6NBJ2NLFWF354","","453.7000000476837","img/flower1.png","76","454.7000000476837","3","1","3","2","1,0,0,1,1,0,1,0,1","0,0,1,1,0,1,0,1,1","2",""
"","html-keyboard-response","25","28027","0.0-25.0","3PMBY0YE28PD4D04ARGVD4S5FNN9C0","ACON9O9NMFOHE","30UZJB2POHY4464FN6NBJ2NLFWF354","","null","<img src=""img/flower1.png"" style=""width:200px; border:14px solid green;"">","null","","","","","","","","",""
"","image-keyboard-response","26","28537","0.0-26.0","3PMBY0YE28PD4D04ARGVD4S5FNN9C0","ACON9O9NMFOHE","30UZJB2POHY4464FN6NBJ2NLFWF354","","508.09999990463257","img/flower1.png","76","509.2000000476837","3","1","3","2","1,0,0,1,1,0,1,0,1","0,0,1,1,0,1,0,1,1","2",""
"","html-keyboard-response","27","28847","0.0-27.0","3PMBY0YE28PD4D04ARGVD4S5FNN9C0","ACON9O9NMFOHE","30UZJB2POHY4464FN6NBJ2NLFWF354","","null","<img src=""img/flower1.png"" style=""width:200px; border:14px solid green;"">","null","","","","","","","","",""
"","image-keyboard-response","28","29400","0.0-28.0","3PMBY0YE28PD4D04ARGVD4S5FNN9C0","ACON9O9NMFOHE","30UZJB2POHY4464FN6NBJ2NLFWF354","","552","img/flower4.png","74","552.7999999523163","1","0","1","2","1,0,0,1,1,0,1,0,1","0,0,1,1,0,1,0,1,1","2",""
"","html-keyboard-response","29","29703","0.0-29.0","3PMBY0YE28PD4D04ARGVD4S5FNN9C0","ACON9O9NMFOHE","30UZJB2POHY4464FN6NBJ2NLFWF354","","null","<img src=""img/flower4.png"" style=""width:200px;border:14px solid red;"">","null","","","","","","","","",""
"","image-keyboard-response","30","30825","0.0-30.0","3PMBY0YE28PD4D04ARGVD4S5FNN9C0","ACON9O9NMFOHE","30UZJB2POHY4464FN6NBJ2NLFWF354","","1121.8999998569489","img/flower5.png","75","1122.5999999046326","2","0","2","2","1,0,0,1,1,0,1,0,1","0,0,1,1,0,1,0,1,1","2",""
"","html-keyboard-response","31","31127","0.0-31.0","3PMBY0YE28PD4D04ARGVD4S5FNN9C0","ACON9O9NMFOHE","30UZJB2POHY4464FN6NBJ2NLFWF354","","null","<img src=""img/flower5.png"" style=""width:200px;border:14px solid red;"">","null","","","","","","","","",""
"","image-keyboard-response","32","32232","0.0-32.0","3PMBY0YE28PD4D04ARGVD4S5FNN9C0","ACON9O9NMFOHE","30UZJB2POHY4464FN6NBJ2NLFWF354","","1104.5","img/flower1.png","76","1105.2999999523163","3","1","3","2","1,0,0,1,1,0,1,0,1","0,0,1,1,0,1,0,1,1","2",""
"","html-keyboard-response","33","32540","0.0-33.0","3PMBY0YE28PD4D04ARGVD4S5FNN9C0","ACON9O9NMFOHE","30UZJB2POHY4464FN6NBJ2NLFWF354","","null","<img src=""img/flower1.png"" style=""width:200px; border:14px solid green;"">","null","","","","","","","","",""
"","image-keyboard-response","34","33224","0.0-34.0","3PMBY0YE28PD4D04ARGVD4S5FNN9C0","ACON9O9NMFOHE","30UZJB2POHY4464FN6NBJ2NLFWF354","","683.4000000953674","img/flower4.png","74","684.2999999523163","1","0","1","2","1,0,0,1,1,0,1,0,1","0,0,1,1,0,1,0,1,1","2",""
"","html-keyboard-response","35","33527","0.0-35.0","3PMBY0YE28PD4D04ARGVD4S5FNN9C0","ACON9O9NMFOHE","30UZJB2POHY4464FN6NBJ2NLFWF354","","null","<img src=""img/flower4.png"" style=""width:200px;border:14px solid red;"">","null","","","","","","","","",""
"","image-keyboard-response","36","34232","0.0-36.0","3PMBY0YE28PD4D04ARGVD4S5FNN9C0","ACON9O9NMFOHE","30UZJB2POHY4464FN6NBJ2NLFWF354","","704.8000001907349","img/flower1.png","76","705.6999998092651","3","1","3","2","1,0,0,1,1,0,1,0,1","0,0,1,1,0,1,0,1,1","2",""
"","html-keyboard-response","37","34545","0.0-37.0","3PMBY0YE28PD4D04ARGVD4S5FNN9C0","ACON9O9NMFOHE","30UZJB2POHY4464FN6NBJ2NLFWF354","","null","<img src=""img/flower1.png"" style=""width:200px; border:14px solid green;"">","null","","","","","","","","",""
"","image-keyboard-response","38","34968","0.0-38.0","3PMBY0YE28PD4D04ARGVD4S5FNN9C0","ACON9O9NMFOHE","30UZJB2POHY4464FN6NBJ2NLFWF354","","422","img/flower1.png","76","422.90000009536743","3","1","3","2","1,0,0,1,1,0,1,0,1","0,0,1,1,0,1,0,1,1","2",""
"","html-keyboard-response","39","35270","0.0-39.0","3PMBY0YE28PD4D04ARGVD4S5FNN9C0","ACON9O9NMFOHE","30UZJB2POHY4464FN6NBJ2NLFWF354","","null","<img src=""img/flower1.png"" style=""width:200px; border:14px solid green;"">","null","","","","","","","","",""
"","image-keyboard-response","40","36264","0.0-40.0","3PMBY0YE28PD4D04ARGVD4S5FNN9C0","ACON9O9NMFOHE","30UZJB2POHY4464FN6NBJ2NLFWF354","","992.8000001907349","img/flower5.png","75","993.6999998092651","2","0","2","2","1,0,0,1,1,0,1,0,1","0,0,1,1,0,1,0,1,1","2",""
"","html-keyboard-response","41","36567","0.0-41.0","3PMBY0YE28PD4D04ARGVD4S5FNN9C0","ACON9O9NMFOHE","30UZJB2POHY4464FN6NBJ2NLFWF354","","null","<img src=""img/flower5.png"" style=""width:200px;border:14px solid red;"">","null","","","","","","","","",""
"","image-keyboard-response","42","37432","0.0-42.0","3PMBY0YE28PD4D04ARGVD4S5FNN9C0","ACON9O9NMFOHE","30UZJB2POHY4464FN6NBJ2NLFWF354","","864.7000000476837","img/flower4.png","76","865.4000000953674","3","1","1","2","1,0,0,1,1,0,1,0,1","0,0,1,1,0,1,0,1,1","2",""
"","html-keyboard-response","43","37734","0.0-43.0","3PMBY0YE28PD4D04ARGVD4S5FNN9C0","ACON9O9NMFOHE","30UZJB2POHY4464FN6NBJ2NLFWF354","","null","<img src=""img/flower4.png"" style=""width:200px; border:14px solid green;"">","null","","","","","","","","",""
"","image-keyboard-response","44","38553","0.0-44.0","3PMBY0YE28PD4D04ARGVD4S5FNN9C0","ACON9O9NMFOHE","30UZJB2POHY4464FN6NBJ2NLFWF354","","817.5","img/flower5.png","76","818.4000000953674","3","1","2","2","1,0,0,1,1,0,1,0,1","0,0,1,1,0,1,0,1,1","2",""
"","html-keyboard-response","45","38855","0.0-45.0","3PMBY0YE28PD4D04ARGVD4S5FNN9C0","ACON9O9NMFOHE","30UZJB2POHY4464FN6NBJ2NLFWF354","","null","<img src=""img/flower5.png"" style=""width:200px; border:14px solid green;"">","null","","","","","","","","",""
"","image-keyboard-response","46","39192","0.0-46.0","3PMBY0YE28PD4D04ARGVD4S5FNN9C0","ACON9O9NMFOHE","30UZJB2POHY4464FN6NBJ2NLFWF354","","336.89999985694885","img/flower5.png","76","337.40000009536743","3","1","2","2","1,0,0,1,1,0,1,0,1","0,0,1,1,0,1,0,1,1","2",""
"","html-keyboard-response","47","39494","0.0-47.0","3PMBY0YE28PD4D04ARGVD4S5FNN9C0","ACON9O9NMFOHE","30UZJB2POHY4464FN6NBJ2NLFWF354","","null","<img src=""img/flower5.png"" style=""width:200px; border:14px solid green;"">","null","","","","","","","","",""
"","image-keyboard-response","48","40200","0.0-48.0","3PMBY0YE28PD4D04ARGVD4S5FNN9C0","ACON9O9NMFOHE","30UZJB2POHY4464FN6NBJ2NLFWF354","","705.4000000953674","img/flower4.png","76","706","3","1","1","2","1,0,0,1,1,0,1,0,1","0,0,1,1,0,1,0,1,1","2",""
"","html-keyboard-response","49","40502","0.0-49.0","3PMBY0YE28PD4D04ARGVD4S5FNN9C0","ACON9O9NMFOHE","30UZJB2POHY4464FN6NBJ2NLFWF354","","null","<img src=""img/flower4.png"" style=""width:200px; border:14px solid green;"">","null","","","","","","","","",""
"","image-keyboard-response","50","41017","0.0-50.0","3PMBY0YE28PD4D04ARGVD4S5FNN9C0","ACON9O9NMFOHE","30UZJB2POHY4464FN6NBJ2NLFWF354","","514.7000000476837","img/flower1.png","76","515.5","3","1","3","2","1,0,0,1,1,0,1,0,1","0,0,1,1,0,1,0,1,1","2",""
"","html-keyboard-response","51","41319","0.0-51.0","3PMBY0YE28PD4D04ARGVD4S5FNN9C0","ACON9O9NMFOHE","30UZJB2POHY4464FN6NBJ2NLFWF354","","null","<img src=""img/flower1.png"" style=""width:200px; border:14px solid green;"">","null","","","","","","","","",""
"","image-keyboard-response","52","42184","0.0-52.0","3PMBY0YE28PD4D04ARGVD4S5FNN9C0","ACON9O9NMFOHE","30UZJB2POHY4464FN6NBJ2NLFWF354","","864.1000001430511","img/flower5.png","75","864.7999999523163","2","0","2","2","1,0,0,1,1,0,1,0,1","0,0,1,1,0,1,0,1,1","2",""
"","html-keyboard-response","53","42487","0.0-53.0","3PMBY0YE28PD4D04ARGVD4S5FNN9C0","ACON9O9NMFOHE","30UZJB2POHY4464FN6NBJ2NLFWF354","","null","<img src=""img/flower5.png"" style=""width:200px;border:14px solid red;"">","null","","","","","","","","",""
"","image-keyboard-response","54","42985","0.0-54.0","3PMBY0YE28PD4D04ARGVD4S5FNN9C0","ACON9O9NMFOHE","30UZJB2POHY4464FN6NBJ2NLFWF354","","497.09999990463257","img/flower4.png","76","497.90000009536743","3","1","1","2","1,0,0,1,1,0,1,0,1","0,0,1,1,0,1,0,1,1","2",""
"","html-keyboard-response","55","43286","0.0-55.0","3PMBY0YE28PD4D04ARGVD4S5FNN9C0","ACON9O9NMFOHE","30UZJB2POHY4464FN6NBJ2NLFWF354","","null","<img src=""img/flower4.png"" style=""width:200px; border:14px solid green;"">","null","","","","","","","","",""
"","image-keyboard-response","56","43864","0.0-56.0","3PMBY0YE28PD4D04ARGVD4S5FNN9C0","ACON9O9NMFOHE","30UZJB2POHY4464FN6NBJ2NLFWF354","","576.7999999523163","img/flower5.png","74","577.6000001430511","1","1","2","2","1,0,0,1,1,0,1,0,1","0,0,1,1,0,1,0,1,1","2",""
"","html-keyboard-response","57","44166","0.0-57.0","3PMBY0YE28PD4D04ARGVD4S5FNN9C0","ACON9O9NMFOHE","30UZJB2POHY4464FN6NBJ2NLFWF354","","null","<img src=""img/flower5.png"" style=""width:200px; border:14px solid green;"">","null","","","","","","","","",""
"","image-keyboard-response","58","44568","0.0-58.0","3PMBY0YE28PD4D04ARGVD4S5FNN9C0","ACON9O9NMFOHE","30UZJB2POHY4464FN6NBJ2NLFWF354","","401.69999980926514","img/flower5.png","74","402.2000000476837","1","1","2","2","1,0,0,1,1,0,1,0,1","0,0,1,1,0,1,0,1,1","2",""
"","html-keyboard-response","59","44880","0.0-59.0","3PMBY0YE28PD4D04ARGVD4S5FNN9C0","ACON9O9NMFOHE","30UZJB2POHY4464FN6NBJ2NLFWF354","","null","<img src=""img/flower5.png"" style=""width:200px; border:14px solid green;"">","null","","","","","","","","",""
"","image-keyboard-response","60","45240","0.0-60.0","3PMBY0YE28PD4D04ARGVD4S5FNN9C0","ACON9O9NMFOHE","30UZJB2POHY4464FN6NBJ2NLFWF354","","358.7999999523163","img/flower5.png","74","359.7999999523163","1","1","2","2","1,0,0,1,1,0,1,0,1","0,0,1,1,0,1,0,1,1","2",""
"","html-keyboard-response","61","45543","0.0-61.0","3PMBY0YE28PD4D04ARGVD4S5FNN9C0","ACON9O9NMFOHE","30UZJB2POHY4464FN6NBJ2NLFWF354","","null","<img src=""img/flower5.png"" style=""width:200px; border:14px solid green;"">","null","","","","","","","","",""
"","image-keyboard-response","62","45896","0.0-62.0","3PMBY0YE28PD4D04ARGVD4S5FNN9C0","ACON9O9NMFOHE","30UZJB2POHY4464FN6NBJ2NLFWF354","","353","img/flower5.png","74","353.7000000476837","1","1","2","2","1,0,0,1,1,0,1,0,1","0,0,1,1,0,1,0,1,1","2",""
"","html-keyboard-response","63","46199","0.0-63.0","3PMBY0YE28PD4D04ARGVD4S5FNN9C0","ACON9O9NMFOHE","30UZJB2POHY4464FN6NBJ2NLFWF354","","null","<img src=""img/flower5.png"" style=""width:200px; border:14px solid green;"">","null","","","","","","","","",""
"","image-keyboard-response","64","46776","0.0-64.0","3PMBY0YE28PD4D04ARGVD4S5FNN9C0","ACON9O9NMFOHE","30UZJB2POHY4464FN6NBJ2NLFWF354","","576.0999999046326","img/flower4.png","76","576.7999999523163","3","1","1","2","1,0,0,1,1,0,1,0,1","0,0,1,1,0,1,0,1,1","2",""
"","html-keyboard-response","65","47079","0.0-65.0","3PMBY0YE28PD4D04ARGVD4S5FNN9C0","ACON9O9NMFOHE","30UZJB2POHY4464FN6NBJ2NLFWF354","","null","<img src=""img/flower4.png"" style=""width:200px; border:14px solid green;"">","null","","","","","","","","",""
"","image-keyboard-response","66","48121","0.0-66.0","3PMBY0YE28PD4D04ARGVD4S5FNN9C0","ACON9O9NMFOHE","30UZJB2POHY4464FN6NBJ2NLFWF354","","1040.9000000953674","img/flower5.png","74","1041.7000000476837","1","1","2","2","1,0,0,1,1,0,1,0,1","0,0,1,1,0,1,0,1,1","2",""
"","html-keyboard-response","67","48423","0.0-67.0","3PMBY0YE28PD4D04ARGVD4S5FNN9C0","ACON9O9NMFOHE","30UZJB2POHY4464FN6NBJ2NLFWF354","","null","<img src=""img/flower5.png"" style=""width:200px; border:14px solid green;"">","null","","","","","","","","",""
"","image-keyboard-response","68","49080","0.0-68.0","3PMBY0YE28PD4D04ARGVD4S5FNN9C0","ACON9O9NMFOHE","30UZJB2POHY4464FN6NBJ2NLFWF354","","656.2999999523163","img/flower4.png","76","657","3","1","1","2","1,0,0,1,1,0,1,0,1","0,0,1,1,0,1,0,1,1","2",""
"","html-keyboard-response","69","49383","0.0-69.0","3PMBY0YE28PD4D04ARGVD4S5FNN9C0","ACON9O9NMFOHE","30UZJB2POHY4464FN6NBJ2NLFWF354","","null","<img src=""img/flower4.png"" style=""width:200px; border:14px solid green;"">","null","","","","","","","","",""
"","image-keyboard-response","70","50072","0.0-70.0","3PMBY0YE28PD4D04ARGVD4S5FNN9C0","ACON9O9NMFOHE","30UZJB2POHY4464FN6NBJ2NLFWF354","","688.2000000476837","img/flower1.png","75","688.9000000953674","2","1","3","2","1,0,0,1,1,0,1,0,1","0,0,1,1,0,1,0,1,1","2",""
"","html-keyboard-response","71","50374","0.0-71.0","3PMBY0YE28PD4D04ARGVD4S5FNN9C0","ACON9O9NMFOHE","30UZJB2POHY4464FN6NBJ2NLFWF354","","null","<img src=""img/flower1.png"" style=""width:200px; border:14px solid green;"">","null","","","","","","","","",""
"","image-keyboard-response","72","51050","0.0-72.0","3PMBY0YE28PD4D04ARGVD4S5FNN9C0","ACON9O9NMFOHE","30UZJB2POHY4464FN6NBJ2NLFWF354","","674.2999999523163","img/flower4.png","76","675.0999999046326","3","1","1","2","1,0,0,1,1,0,1,0,1","0,0,1,1,0,1,0,1,1","2",""
"","html-keyboard-response","73","51352","0.0-73.0","3PMBY0YE28PD4D04ARGVD4S5FNN9C0","ACON9O9NMFOHE","30UZJB2POHY4464FN6NBJ2NLFWF354","","null","<img src=""img/flower4.png"" style=""width:200px; border:14px solid green;"">","null","","","","","","","","",""
"","image-keyboard-response","74","51768","0.0-74.0","3PMBY0YE28PD4D04ARGVD4S5FNN9C0","ACON9O9NMFOHE","30UZJB2POHY4464FN6NBJ2NLFWF354","","415.60000014305115","img/flower4.png","76","416.40000009536743","3","1","1","2","1,0,0,1,1,0,1,0,1","0,0,1,1,0,1,0,1,1","2",""
"","html-keyboard-response","75","52070","0.0-75.0","3PMBY0YE28PD4D04ARGVD4S5FNN9C0","ACON9O9NMFOHE","30UZJB2POHY4464FN6NBJ2NLFWF354","","null","<img src=""img/flower4.png"" style=""width:200px; border:14px solid green;"">","null","","","","","","","","",""
"","image-keyboard-response","76","52744","0.0-76.0","3PMBY0YE28PD4D04ARGVD4S5FNN9C0","ACON9O9NMFOHE","30UZJB2POHY4464FN6NBJ2NLFWF354","","673.2000000476837","img/flower5.png","74","673.9000000953674","1","1","2","2","1,0,0,1,1,0,1,0,1","0,0,1,1,0,1,0,1,1","2",""
"","html-keyboard-response","77","53057","0.0-77.0","3PMBY0YE28PD4D04ARGVD4S5FNN9C0","ACON9O9NMFOHE","30UZJB2POHY4464FN6NBJ2NLFWF354","","null","<img src=""img/flower5.png"" style=""width:200px; border:14px solid green;"">","null","","","","","","","","",""
"","image-keyboard-response","78","53784","0.0-78.0","3PMBY0YE28PD4D04ARGVD4S5FNN9C0","ACON9O9NMFOHE","30UZJB2POHY4464FN6NBJ2NLFWF354","","726.3999998569489","img/flower1.png","75","727.2999999523163","2","1","3","2","1,0,0,1,1,0,1,0,1","0,0,1,1,0,1,0,1,1","2",""
"","html-keyboard-response","79","54086","0.0-79.0","3PMBY0YE28PD4D04ARGVD4S5FNN9C0","ACON9O9NMFOHE","30UZJB2POHY4464FN6NBJ2NLFWF354","","null","<img src=""img/flower1.png"" style=""width:200px; border:14px solid green;"">","null","","","","","","","","",""
"","image-keyboard-response","80","55048","0.0-80.0","3PMBY0YE28PD4D04ARGVD4S5FNN9C0","ACON9O9NMFOHE","30UZJB2POHY4464FN6NBJ2NLFWF354","","961.1999998092651","img/flower5.png","74","962","1","1","2","2","1,0,0,1,1,0,1,0,1","0,0,1,1,0,1,0,1,1","2",""
"","html-keyboard-response","81","55350","0.0-81.0","3PMBY0YE28PD4D04ARGVD4S5FNN9C0","ACON9O9NMFOHE","30UZJB2POHY4464FN6NBJ2NLFWF354","","null","<img src=""img/flower5.png"" style=""width:200px; border:14px solid green;"">","null","","","","","","","","",""
"","image-keyboard-response","82","55960","0.0-82.0","3PMBY0YE28PD4D04ARGVD4S5FNN9C0","ACON9O9NMFOHE","30UZJB2POHY4464FN6NBJ2NLFWF354","","608.7999999523163","img/flower1.png","76","609.9000000953674","3","1","3","2","1,0,0,1,1,0,1,0,1","0,0,1,1,0,1,0,1,1","2",""
"","html-keyboard-response","83","56263","0.0-83.0","3PMBY0YE28PD4D04ARGVD4S5FNN9C0","ACON9O9NMFOHE","30UZJB2POHY4464FN6NBJ2NLFWF354","","null","<img src=""img/flower1.png"" style=""width:200px; border:14px solid green;"">","null","","","","","","","","",""
"","image-keyboard-response","84","56696","0.0-84.0","3PMBY0YE28PD4D04ARGVD4S5FNN9C0","ACON9O9NMFOHE","30UZJB2POHY4464FN6NBJ2NLFWF354","","432.09999990463257","img/flower1.png","76","433.10000014305115","3","1","3","2","1,0,0,1,1,0,1,0,1","0,0,1,1,0,1,0,1,1","2",""
"","html-keyboard-response","85","56998","0.0-85.0","3PMBY0YE28PD4D04ARGVD4S5FNN9C0","ACON9O9NMFOHE","30UZJB2POHY4464FN6NBJ2NLFWF354","","null","<img src=""img/flower1.png"" style=""width:200px; border:14px solid green;"">","null","","","","","","","","",""
"","image-keyboard-response","86","57864","0.0-86.0","3PMBY0YE28PD4D04ARGVD4S5FNN9C0","ACON9O9NMFOHE","30UZJB2POHY4464FN6NBJ2NLFWF354","","864.7999999523163","img/flower4.png","75","865.8000001907349","2","0","1","2","1,0,0,1,1,0,1,0,1","0,0,1,1,0,1,0,1,1","2",""
"","html-keyboard-response","87","58166","0.0-87.0","3PMBY0YE28PD4D04ARGVD4S5FNN9C0","ACON9O9NMFOHE","30UZJB2POHY4464FN6NBJ2NLFWF354","","null","<img src=""img/flower4.png"" style=""width:200px;border:14px solid red;"">","null","","","","","","","","",""
"","image-keyboard-response","88","58713","0.0-88.0","3PMBY0YE28PD4D04ARGVD4S5FNN9C0","ACON9O9NMFOHE","30UZJB2POHY4464FN6NBJ2NLFWF354","","545.5999999046326","img/flower1.png","76","546.4000000953674","3","1","3","2","1,0,0,1,1,0,1,0,1","0,0,1,1,0,1,0,1,1","2",""
"","html-keyboard-response","89","59016","0.0-89.0","3PMBY0YE28PD4D04ARGVD4S5FNN9C0","ACON9O9NMFOHE","30UZJB2POHY4464FN6NBJ2NLFWF354","","null","<img src=""img/flower1.png"" style=""width:200px; border:14px solid green;"">","null","","","","","","","","",""
"","image-keyboard-response","90","59625","0.0-90.0","3PMBY0YE28PD4D04ARGVD4S5FNN9C0","ACON9O9NMFOHE","30UZJB2POHY4464FN6NBJ2NLFWF354","","608.0999999046326","img/flower4.png","76","608.9000000953674","3","1","1","2","1,0,0,1,1,0,1,0,1","0,0,1,1,0,1,0,1,1","2",""
"","html-keyboard-response","91","59927","0.0-91.0","3PMBY0YE28PD4D04ARGVD4S5FNN9C0","ACON9O9NMFOHE","30UZJB2POHY4464FN6NBJ2NLFWF354","","null","<img src=""img/flower4.png"" style=""width:200px; border:14px solid green;"">","null","","","","","","","","",""
"","image-keyboard-response","92","60281","0.0-92.0","3PMBY0YE28PD4D04ARGVD4S5FNN9C0","ACON9O9NMFOHE","30UZJB2POHY4464FN6NBJ2NLFWF354","","352.2999999523163","img/flower4.png","76","353.10000014305115","3","1","1","2","1,0,0,1,1,0,1,0,1","0,0,1,1,0,1,0,1,1","2",""
"","html-keyboard-response","93","60583","0.0-93.0","3PMBY0YE28PD4D04ARGVD4S5FNN9C0","ACON9O9NMFOHE","30UZJB2POHY4464FN6NBJ2NLFWF354","","null","<img src=""img/flower4.png"" style=""width:200px; border:14px solid green;"">","null","","","","","","","","",""
"","image-keyboard-response","94","61194","0.0-94.0","3PMBY0YE28PD4D04ARGVD4S5FNN9C0","ACON9O9NMFOHE","30UZJB2POHY4464FN6NBJ2NLFWF354","","610.4000000953674","img/flower5.png","74","611.2999999523163","1","1","2","2","1,0,0,1,1,0,1,0,1","0,0,1,1,0,1,0,1,1","2",""
"","html-keyboard-response","95","61497","0.0-95.0","3PMBY0YE28PD4D04ARGVD4S5FNN9C0","ACON9O9NMFOHE","30UZJB2POHY4464FN6NBJ2NLFWF354","","null","<img src=""img/flower5.png"" style=""width:200px; border:14px solid green;"">","null","","","","","","","","",""
"","image-keyboard-response","96","62185","0.0-96.0","3PMBY0YE28PD4D04ARGVD4S5FNN9C0","ACON9O9NMFOHE","30UZJB2POHY4464FN6NBJ2NLFWF354","","687.2999999523163","img/flower4.png","76","688","3","1","1","2","1,0,0,1,1,0,1,0,1","0,0,1,1,0,1,0,1,1","2",""
"","html-keyboard-response","97","62491","0.0-97.0","3PMBY0YE28PD4D04ARGVD4S5FNN9C0","ACON9O9NMFOHE","30UZJB2POHY4464FN6NBJ2NLFWF354","","null","<img src=""img/flower4.png"" style=""width:200px; border:14px solid green;"">","null","","","","","","","","",""
"","image-keyboard-response","98","63129","0.0-98.0","3PMBY0YE28PD4D04ARGVD4S5FNN9C0","ACON9O9NMFOHE","30UZJB2POHY4464FN6NBJ2NLFWF354","","637.0999999046326","img/flower5.png","74","637.7999999523163","1","1","2","2","1,0,0,1,1,0,1,0,1","0,0,1,1,0,1,0,1,1","2",""
"","html-keyboard-response","99","63438","0.0-99.0","3PMBY0YE28PD4D04ARGVD4S5FNN9C0","ACON9O9NMFOHE","30UZJB2POHY4464FN6NBJ2NLFWF354","","null","<img src=""img/flower5.png"" style=""width:200px; border:14px solid green;"">","null","","","","","","","","",""
"","image-keyboard-response","100","63913","0.0-100.0","3PMBY0YE28PD4D04ARGVD4S5FNN9C0","ACON9O9NMFOHE","30UZJB2POHY4464FN6NBJ2NLFWF354","","473.89999985694885","img/flower4.png","76","474.7000000476837","3","1","1","2","1,0,0,1,1,0,1,0,1","0,0,1,1,0,1,0,1,1","2",""
"","html-keyboard-response","101","64214","0.0-101.0","3PMBY0YE28PD4D04ARGVD4S5FNN9C0","ACON9O9NMFOHE","30UZJB2POHY4464FN6NBJ2NLFWF354","","null","<img src=""img/flower4.png"" style=""width:200px; border:14px solid green;"">","null","","","","","","","","",""
"","image-keyboard-response","102","64697","0.0-102.0","3PMBY0YE28PD4D04ARGVD4S5FNN9C0","ACON9O9NMFOHE","30UZJB2POHY4464FN6NBJ2NLFWF354","","481.90000009536743","img/flower5.png","76","482.59999990463257","3","1","2","2","1,0,0,1,1,0,1,0,1","0,0,1,1,0,1,0,1,1","2",""
"","html-keyboard-response","103","64998","0.0-103.0","3PMBY0YE28PD4D04ARGVD4S5FNN9C0","ACON9O9NMFOHE","30UZJB2POHY4464FN6NBJ2NLFWF354","","null","<img src=""img/flower5.png"" style=""width:200px; border:14px solid green;"">","null","","","","","","","","",""
"","image-keyboard-response","104","65481","0.0-104.0","3PMBY0YE28PD4D04ARGVD4S5FNN9C0","ACON9O9NMFOHE","30UZJB2POHY4464FN6NBJ2NLFWF354","","481.40000009536743","img/flower1.png","76","482.40000009536743","3","1","3","2","1,0,0,1,1,0,1,0,1","0,0,1,1,0,1,0,1,1","2",""
"","html-keyboard-response","105","65783","0.0-105.0","3PMBY0YE28PD4D04ARGVD4S5FNN9C0","ACON9O9NMFOHE","30UZJB2POHY4464FN6NBJ2NLFWF354","","null","<img src=""img/flower1.png"" style=""width:200px; border:14px solid green;"">","null","","","","","","","","",""
"","image-keyboard-response","106","66169","0.0-106.0","3PMBY0YE28PD4D04ARGVD4S5FNN9C0","ACON9O9NMFOHE","30UZJB2POHY4464FN6NBJ2NLFWF354","","385.2000000476837","img/flower1.png","76","385.90000009536743","3","1","3","2","1,0,0,1,1,0,1,0,1","0,0,1,1,0,1,0,1,1","2",""
"","html-keyboard-response","107","66471","0.0-107.0","3PMBY0YE28PD4D04ARGVD4S5FNN9C0","ACON9O9NMFOHE","30UZJB2POHY4464FN6NBJ2NLFWF354","","null","<img src=""img/flower1.png"" style=""width:200px; border:14px solid green;"">","null","","","","","","","","",""
"","image-keyboard-response","108","66809","0.0-108.0","3PMBY0YE28PD4D04ARGVD4S5FNN9C0","ACON9O9NMFOHE","30UZJB2POHY4464FN6NBJ2NLFWF354","","336.7000000476837","img/flower1.png","76","337.59999990463257","3","1","3","2","1,0,0,1,1,0,1,0,1","0,0,1,1,0,1,0,1,1","2",""
"","html-keyboard-response","109","67111","0.0-109.0","3PMBY0YE28PD4D04ARGVD4S5FNN9C0","ACON9O9NMFOHE","30UZJB2POHY4464FN6NBJ2NLFWF354","","null","<img src=""img/flower1.png"" style=""width:200px; border:14px solid green;"">","null","","","","","","","","",""
"","image-keyboard-response","110","67673","0.0-110.0","3PMBY0YE28PD4D04ARGVD4S5FNN9C0","ACON9O9NMFOHE","30UZJB2POHY4464FN6NBJ2NLFWF354","","560.7999999523163","img/flower5.png","74","561.5","1","1","2","2","1,0,0,1,1,0,1,0,1","0,0,1,1,0,1,0,1,1","2",""
"","html-keyboard-response","111","67975","0.0-111.0","3PMBY0YE28PD4D04ARGVD4S5FNN9C0","ACON9O9NMFOHE","30UZJB2POHY4464FN6NBJ2NLFWF354","","null","<img src=""img/flower5.png"" style=""width:200px; border:14px solid green;"">","null","","","","","","","","",""
"","image-keyboard-response","112","68345","0.0-112.0","3PMBY0YE28PD4D04ARGVD4S5FNN9C0","ACON9O9NMFOHE","30UZJB2POHY4464FN6NBJ2NLFWF354","","369.09999990463257","img/flower5.png","74","369.90000009536743","1","1","2","2","1,0,0,1,1,0,1,0,1","0,0,1,1,0,1,0,1,1","2",""
"","html-keyboard-response","113","68646","0.0-113.0","3PMBY0YE28PD4D04ARGVD4S5FNN9C0","ACON9O9NMFOHE","30UZJB2POHY4464FN6NBJ2NLFWF354","","null","<img src=""img/flower5.png"" style=""width:200px; border:14px solid green;"">","null","","","","","","","","",""
"","image-keyboard-response","114","68841","0.0-114.0","3PMBY0YE28PD4D04ARGVD4S5FNN9C0","ACON9O9NMFOHE","30UZJB2POHY4464FN6NBJ2NLFWF354","","193.5","img/flower1.png","74","194.10000014305115","1","0","3","2","1,0,0,1,1,0,1,0,1","0,0,1,1,0,1,0,1,1","2",""
"","html-keyboard-response","115","69142","0.0-115.0","3PMBY0YE28PD4D04ARGVD4S5FNN9C0","ACON9O9NMFOHE","30UZJB2POHY4464FN6NBJ2NLFWF354","","null","<img src=""img/flower1.png"" style=""width:200px;border:14px solid red;"">","null","","","","","","","","",""
"","image-keyboard-response","116","69577","0.0-116.0","3PMBY0YE28PD4D04ARGVD4S5FNN9C0","ACON9O9NMFOHE","30UZJB2POHY4464FN6NBJ2NLFWF354","","433.09999990463257","img/flower1.png","76","433.89999985694885","3","1","3","2","1,0,0,1,1,0,1,0,1","0,0,1,1,0,1,0,1,1","2",""
"","html-keyboard-response","117","69879","0.0-117.0","3PMBY0YE28PD4D04ARGVD4S5FNN9C0","ACON9O9NMFOHE","30UZJB2POHY4464FN6NBJ2NLFWF354","","null","<img src=""img/flower1.png"" style=""width:200px; border:14px solid green;"">","null","","","","","","","","",""
"","image-keyboard-response","118","71290","0.0-118.0","3PMBY0YE28PD4D04ARGVD4S5FNN9C0","ACON9O9NMFOHE","30UZJB2POHY4464FN6NBJ2NLFWF354","","1409.7000000476837","img/flower5.png","74","1410.7999999523163","1","1","2","2","1,0,0,1,1,0,1,0,1","0,0,1,1,0,1,0,1,1","2",""
"","html-keyboard-response","119","71592","0.0-119.0","3PMBY0YE28PD4D04ARGVD4S5FNN9C0","ACON9O9NMFOHE","30UZJB2POHY4464FN6NBJ2NLFWF354","","null","<img src=""img/flower5.png"" style=""width:200px; border:14px solid green;"">","null","","","","","","","","",""
"","image-keyboard-response","120","72553","0.0-120.0","3PMBY0YE28PD4D04ARGVD4S5FNN9C0","ACON9O9NMFOHE","30UZJB2POHY4464FN6NBJ2NLFWF354","","959.6999998092651","img/flower4.png","76","960.2999999523163","3","1","1","2","1,0,0,1,1,0,1,0,1","0,0,1,1,0,1,0,1,1","2",""
"","html-keyboard-response","121","72855","0.0-121.0","3PMBY0YE28PD4D04ARGVD4S5FNN9C0","ACON9O9NMFOHE","30UZJB2POHY4464FN6NBJ2NLFWF354","","null","<img src=""img/flower4.png"" style=""width:200px; border:14px solid green;"">","null","","","","","","","","",""
"","image-keyboard-response","122","73337","0.0-122.0","3PMBY0YE28PD4D04ARGVD4S5FNN9C0","ACON9O9NMFOHE","30UZJB2POHY4464FN6NBJ2NLFWF354","","480.7999999523163","img/flower4.png","76","481.60000014305115","3","1","1","2","1,0,0,1,1,0,1,0,1","0,0,1,1,0,1,0,1,1","2",""
"","html-keyboard-response","123","73639","0.0-123.0","3PMBY0YE28PD4D04ARGVD4S5FNN9C0","ACON9O9NMFOHE","30UZJB2POHY4464FN6NBJ2NLFWF354","","null","<img src=""img/flower4.png"" style=""width:200px; border:14px solid green;"">","null","","","","","","","","",""
"","image-keyboard-response","124","74297","0.0-124.0","3PMBY0YE28PD4D04ARGVD4S5FNN9C0","ACON9O9NMFOHE","30UZJB2POHY4464FN6NBJ2NLFWF354","","657.0999999046326","img/flower5.png","74","657.7000000476837","1","1","2","2","1,0,0,1,1,0,1,0,1","0,0,1,1,0,1,0,1,1","2",""
"","html-keyboard-response","125","74599","0.0-125.0","3PMBY0YE28PD4D04ARGVD4S5FNN9C0","ACON9O9NMFOHE","30UZJB2POHY4464FN6NBJ2NLFWF354","","null","<img src=""img/flower5.png"" style=""width:200px; border:14px solid green;"">","null","","","","","","","","",""
"","image-keyboard-response","126","74969","0.0-126.0","3PMBY0YE28PD4D04ARGVD4S5FNN9C0","ACON9O9NMFOHE","30UZJB2POHY4464FN6NBJ2NLFWF354","","368.89999985694885","img/flower5.png","74","369.60000014305115","1","1","2","2","1,0,0,1,1,0,1,0,1","0,0,1,1,0,1,0,1,1","2",""
"","html-keyboard-response","127","75271","0.0-127.0","3PMBY0YE28PD4D04ARGVD4S5FNN9C0","ACON9O9NMFOHE","30UZJB2POHY4464FN6NBJ2NLFWF354","","null","<img src=""img/flower5.png"" style=""width:200px; border:14px solid green;"">","null","","","","","","","","",""
"","image-keyboard-response","128","76697","0.0-128.0","3PMBY0YE28PD4D04ARGVD4S5FNN9C0","ACON9O9NMFOHE","30UZJB2POHY4464FN6NBJ2NLFWF354","","1425.2000000476837","img/flower4.png","76","1425.7999999523163","3","1","1","2","1,0,0,1,1,0,1,0,1","0,0,1,1,0,1,0,1,1","2",""
"","html-keyboard-response","129","76998","0.0-129.0","3PMBY0YE28PD4D04ARGVD4S5FNN9C0","ACON9O9NMFOHE","30UZJB2POHY4464FN6NBJ2NLFWF354","","null","<img src=""img/flower4.png"" style=""width:200px; border:14px solid green;"">","null","","","","","","","","",""
"","image-keyboard-response","130","77593","0.0-130.0","3PMBY0YE28PD4D04ARGVD4S5FNN9C0","ACON9O9NMFOHE","30UZJB2POHY4464FN6NBJ2NLFWF354","","593.2999999523163","img/flower1.png","74","594.1000001430511","1","0","3","2","1,0,0,1,1,0,1,0,1","0,0,1,1,0,1,0,1,1","2",""
"","html-keyboard-response","131","77895","0.0-131.0","3PMBY0YE28PD4D04ARGVD4S5FNN9C0","ACON9O9NMFOHE","30UZJB2POHY4464FN6NBJ2NLFWF354","","null","<img src=""img/flower1.png"" style=""width:200px;border:14px solid red;"">","null","","","","","","","","",""
"","image-keyboard-response","132","78729","0.0-132.0","3PMBY0YE28PD4D04ARGVD4S5FNN9C0","ACON9O9NMFOHE","30UZJB2POHY4464FN6NBJ2NLFWF354","","832.5999999046326","img/flower5.png","74","833.5","1","1","2","2","1,0,0,1,1,0,1,0,1","0,0,1,1,0,1,0,1,1","2",""
"","html-keyboard-response","133","79031","0.0-133.0","3PMBY0YE28PD4D04ARGVD4S5FNN9C0","ACON9O9NMFOHE","30UZJB2POHY4464FN6NBJ2NLFWF354","","null","<img src=""img/flower5.png"" style=""width:200px; border:14px solid green;"">","null","","","","","","","","",""
"","image-keyboard-response","134","79368","0.0-134.0","3PMBY0YE28PD4D04ARGVD4S5FNN9C0","ACON9O9NMFOHE","30UZJB2POHY4464FN6NBJ2NLFWF354","","337","img/flower5.png","74","337.7000000476837","1","1","2","2","1,0,0,1,1,0,1,0,1","0,0,1,1,0,1,0,1,1","2",""
"","html-keyboard-response","135","79671","0.0-135.0","3PMBY0YE28PD4D04ARGVD4S5FNN9C0","ACON9O9NMFOHE","30UZJB2POHY4464FN6NBJ2NLFWF354","","null","<img src=""img/flower5.png"" style=""width:200px; border:14px solid green;"">","null","","","","","","","","",""
"","image-keyboard-response","136","80281","0.0-136.0","3PMBY0YE28PD4D04ARGVD4S5FNN9C0","ACON9O9NMFOHE","30UZJB2POHY4464FN6NBJ2NLFWF354","","608.5","img/flower4.png","76","609.5999999046326","3","1","1","2","1,0,0,1,1,0,1,0,1","0,0,1,1,0,1,0,1,1","2",""
"","html-keyboard-response","137","80583","0.0-137.0","3PMBY0YE28PD4D04ARGVD4S5FNN9C0","ACON9O9NMFOHE","30UZJB2POHY4464FN6NBJ2NLFWF354","","null","<img src=""img/flower4.png"" style=""width:200px; border:14px solid green;"">","null","","","","","","","","",""
"","image-keyboard-response","138","80969","0.0-138.0","3PMBY0YE28PD4D04ARGVD4S5FNN9C0","ACON9O9NMFOHE","30UZJB2POHY4464FN6NBJ2NLFWF354","","385.10000014305115","img/flower4.png","76","385.7000000476837","3","1","1","2","1,0,0,1,1,0,1,0,1","0,0,1,1,0,1,0,1,1","2",""
"","html-keyboard-response","139","81270","0.0-139.0","3PMBY0YE28PD4D04ARGVD4S5FNN9C0","ACON9O9NMFOHE","30UZJB2POHY4464FN6NBJ2NLFWF354","","null","<img src=""img/flower4.png"" style=""width:200px; border:14px solid green;"">","null","","","","","","","","",""
"","image-keyboard-response","140","82042","0.0-140.0","3PMBY0YE28PD4D04ARGVD4S5FNN9C0","ACON9O9NMFOHE","30UZJB2POHY4464FN6NBJ2NLFWF354","","771.1000001430511","img/flower1.png","75","771.8999998569489","2","1","3","2","1,0,0,1,1,0,1,0,1","0,0,1,1,0,1,0,1,1","2",""
"","html-keyboard-response","141","82345","0.0-141.0","3PMBY0YE28PD4D04ARGVD4S5FNN9C0","ACON9O9NMFOHE","30UZJB2POHY4464FN6NBJ2NLFWF354","","null","<img src=""img/flower1.png"" style=""width:200px; border:14px solid green;"">","null","","","","","","","","",""
"","image-keyboard-response","142","82936","0.0-142.0","3PMBY0YE28PD4D04ARGVD4S5FNN9C0","ACON9O9NMFOHE","30UZJB2POHY4464FN6NBJ2NLFWF354","","590.9000000953674","img/flower4.png","76","591.7000000476837","3","1","1","2","1,0,0,1,1,0,1,0,1","0,0,1,1,0,1,0,1,1","2",""
"","html-keyboard-response","143","83239","0.0-143.0","3PMBY0YE28PD4D04ARGVD4S5FNN9C0","ACON9O9NMFOHE","30UZJB2POHY4464FN6NBJ2NLFWF354","","null","<img src=""img/flower4.png"" style=""width:200px; border:14px solid green;"">","null","","","","","","","","",""
"","image-keyboard-response","144","83800","0.0-144.0","3PMBY0YE28PD4D04ARGVD4S5FNN9C0","ACON9O9NMFOHE","30UZJB2POHY4464FN6NBJ2NLFWF354","","560.9000000953674","img/flower1.png","75","561.5999999046326","2","1","3","2","1,0,0,1,1,0,1,0,1","0,0,1,1,0,1,0,1,1","2",""
"","html-keyboard-response","145","84103","0.0-145.0","3PMBY0YE28PD4D04ARGVD4S5FNN9C0","ACON9O9NMFOHE","30UZJB2POHY4464FN6NBJ2NLFWF354","","null","<img src=""img/flower1.png"" style=""width:200px; border:14px solid green;"">","null","","","","","","","","",""
"","image-keyboard-response","146","84649","0.0-146.0","3PMBY0YE28PD4D04ARGVD4S5FNN9C0","ACON9O9NMFOHE","30UZJB2POHY4464FN6NBJ2NLFWF354","","545.2000000476837","img/flower4.png","76","546","3","1","1","2","1,0,0,1,1,0,1,0,1","0,0,1,1,0,1,0,1,1","2",""
"","html-keyboard-response","147","84951","0.0-147.0","3PMBY0YE28PD4D04ARGVD4S5FNN9C0","ACON9O9NMFOHE","30UZJB2POHY4464FN6NBJ2NLFWF354","","null","<img src=""img/flower4.png"" style=""width:200px; border:14px solid green;"">","null","","","","","","","","",""
"","image-keyboard-response","148","85513","0.0-148.0","3PMBY0YE28PD4D04ARGVD4S5FNN9C0","ACON9O9NMFOHE","30UZJB2POHY4464FN6NBJ2NLFWF354","","560.8999998569489","img/flower5.png","74","561.5999999046326","1","1","2","2","1,0,0,1,1,0,1,0,1","0,0,1,1,0,1,0,1,1","2",""
"","html-keyboard-response","149","85815","0.0-149.0","3PMBY0YE28PD4D04ARGVD4S5FNN9C0","ACON9O9NMFOHE","30UZJB2POHY4464FN6NBJ2NLFWF354","","null","<img src=""img/flower5.png"" style=""width:200px; border:14px solid green;"">","null","","","","","","","","",""
"","image-keyboard-response","150","86217","0.0-150.0","3PMBY0YE28PD4D04ARGVD4S5FNN9C0","ACON9O9NMFOHE","30UZJB2POHY4464FN6NBJ2NLFWF354","","400.5","img/flower5.png","74","401.2999999523163","1","1","2","2","1,0,0,1,1,0,1,0,1","0,0,1,1,0,1,0,1,1","2",""
"","html-keyboard-response","151","86519","0.0-151.0","3PMBY0YE28PD4D04ARGVD4S5FNN9C0","ACON9O9NMFOHE","30UZJB2POHY4464FN6NBJ2NLFWF354","","null","<img src=""img/flower5.png"" style=""width:200px; border:14px solid green;"">","null","","","","","","","","",""
"","image-keyboard-response","152","87321","0.0-152.0","3PMBY0YE28PD4D04ARGVD4S5FNN9C0","ACON9O9NMFOHE","30UZJB2POHY4464FN6NBJ2NLFWF354","","800.5999999046326","img/flower1.png","75","801.2000000476837","2","1","3","2","1,0,0,1,1,0,1,0,1","0,0,1,1,0,1,0,1,1","2",""
"","html-keyboard-response","153","87636","0.0-153.0","3PMBY0YE28PD4D04ARGVD4S5FNN9C0","ACON9O9NMFOHE","30UZJB2POHY4464FN6NBJ2NLFWF354","","null","<img src=""img/flower1.png"" style=""width:200px; border:14px solid green;"">","null","","","","","","","","",""
"","image-keyboard-response","154","88121","0.0-154.0","3PMBY0YE28PD4D04ARGVD4S5FNN9C0","ACON9O9NMFOHE","30UZJB2POHY4464FN6NBJ2NLFWF354","","483.40000009536743","img/flower5.png","76","484.2000000476837","3","1","2","2","1,0,0,1,1,0,1,0,1","0,0,1,1,0,1,0,1,1","2",""
"","html-keyboard-response","155","88422","0.0-155.0","3PMBY0YE28PD4D04ARGVD4S5FNN9C0","ACON9O9NMFOHE","30UZJB2POHY4464FN6NBJ2NLFWF354","","null","<img src=""img/flower5.png"" style=""width:200px; border:14px solid green;"">","null","","","","","","","","",""
"","image-keyboard-response","156","88840","0.0-156.0","3PMBY0YE28PD4D04ARGVD4S5FNN9C0","ACON9O9NMFOHE","30UZJB2POHY4464FN6NBJ2NLFWF354","","417.7000000476837","img/flower5.png","76","418.2999999523163","3","1","2","2","1,0,0,1,1,0,1,0,1","0,0,1,1,0,1,0,1,1","2",""
"","html-keyboard-response","157","89142","0.0-157.0","3PMBY0YE28PD4D04ARGVD4S5FNN9C0","ACON9O9NMFOHE","30UZJB2POHY4464FN6NBJ2NLFWF354","","null","<img src=""img/flower5.png"" style=""width:200px; border:14px solid green;"">","null","","","","","","","","",""
"","image-keyboard-response","158","89497","0.0-158.0","3PMBY0YE28PD4D04ARGVD4S5FNN9C0","ACON9O9NMFOHE","30UZJB2POHY4464FN6NBJ2NLFWF354","","353.59999990463257","img/flower5.png","76","354.39999985694885","3","1","2","2","1,0,0,1,1,0,1,0,1","0,0,1,1,0,1,0,1,1","2",""
"","html-keyboard-response","159","89812","0.0-159.0","3PMBY0YE28PD4D04ARGVD4S5FNN9C0","ACON9O9NMFOHE","30UZJB2POHY4464FN6NBJ2NLFWF354","","null","<img src=""img/flower5.png"" style=""width:200px; border:14px solid green;"">","null","","","","","","","","",""
"","image-keyboard-response","160","90585","0.0-160.0","3PMBY0YE28PD4D04ARGVD4S5FNN9C0","ACON9O9NMFOHE","30UZJB2POHY4464FN6NBJ2NLFWF354","","772","img/flower1.png","75","772.7000000476837","2","1","3","2","1,0,0,1,1,0,1,0,1","0,0,1,1,0,1,0,1,1","2",""
"","html-keyboard-response","161","90886","0.0-161.0","3PMBY0YE28PD4D04ARGVD4S5FNN9C0","ACON9O9NMFOHE","30UZJB2POHY4464FN6NBJ2NLFWF354","","null","<img src=""img/flower1.png"" style=""width:200px; border:14px solid green;"">","null","","","","","","","","",""
"","image-keyboard-response","162","91273","0.0-162.0","3PMBY0YE28PD4D04ARGVD4S5FNN9C0","ACON9O9NMFOHE","30UZJB2POHY4464FN6NBJ2NLFWF354","","385.60000014305115","img/flower1.png","75","386.40000009536743","2","1","3","2","1,0,0,1,1,0,1,0,1","0,0,1,1,0,1,0,1,1","2",""
"","html-keyboard-response","163","91575","0.0-163.0","3PMBY0YE28PD4D04ARGVD4S5FNN9C0","ACON9O9NMFOHE","30UZJB2POHY4464FN6NBJ2NLFWF354","","null","<img src=""img/flower1.png"" style=""width:200px; border:14px solid green;"">","null","","","","","","","","",""
"","image-keyboard-response","164","92602","0.0-164.0","3PMBY0YE28PD4D04ARGVD4S5FNN9C0","ACON9O9NMFOHE","30UZJB2POHY4464FN6NBJ2NLFWF354","","1026.0999999046326","img/flower4.png","76","1026.7999999523163","3","1","1","2","1,0,0,1,1,0,1,0,1","0,0,1,1,0,1,0,1,1","2",""
"","html-keyboard-response","165","92904","0.0-165.0","3PMBY0YE28PD4D04ARGVD4S5FNN9C0","ACON9O9NMFOHE","30UZJB2POHY4464FN6NBJ2NLFWF354","","null","<img src=""img/flower4.png"" style=""width:200px; border:14px solid green;"">","null","","","","","","","","",""
"","image-keyboard-response","166","93256","0.0-166.0","3PMBY0YE28PD4D04ARGVD4S5FNN9C0","ACON9O9NMFOHE","30UZJB2POHY4464FN6NBJ2NLFWF354","","351.90000009536743","img/flower4.png","76","352.69999980926514","3","1","1","2","1,0,0,1,1,0,1,0,1","0,0,1,1,0,1,0,1,1","2",""
"","html-keyboard-response","167","93559","0.0-167.0","3PMBY0YE28PD4D04ARGVD4S5FNN9C0","ACON9O9NMFOHE","30UZJB2POHY4464FN6NBJ2NLFWF354","","null","<img src=""img/flower4.png"" style=""width:200px; border:14px solid green;"">","null","","","","","","","","",""
"","image-keyboard-response","168","95145","0.0-168.0","3PMBY0YE28PD4D04ARGVD4S5FNN9C0","ACON9O9NMFOHE","30UZJB2POHY4464FN6NBJ2NLFWF354","","1585.2999999523163","img/flower1.png","75","1586","2","1","3","2","1,0,0,1,1,0,1,0,1","0,0,1,1,0,1,0,1,1","2",""
"","html-keyboard-response","169","95446","0.0-169.0","3PMBY0YE28PD4D04ARGVD4S5FNN9C0","ACON9O9NMFOHE","30UZJB2POHY4464FN6NBJ2NLFWF354","","null","<img src=""img/flower1.png"" style=""width:200px; border:14px solid green;"">","null","","","","","","","","",""
"","image-keyboard-response","170","96072","0.0-170.0","3PMBY0YE28PD4D04ARGVD4S5FNN9C0","ACON9O9NMFOHE","30UZJB2POHY4464FN6NBJ2NLFWF354","","625.4000000953674","img/flower4.png","76","625.8999998569489","3","1","1","2","1,0,0,1,1,0,1,0,1","0,0,1,1,0,1,0,1,1","2",""
"","html-keyboard-response","171","96375","0.0-171.0","3PMBY0YE28PD4D04ARGVD4S5FNN9C0","ACON9O9NMFOHE","30UZJB2POHY4464FN6NBJ2NLFWF354","","null","<img src=""img/flower4.png"" style=""width:200px; border:14px solid green;"">","null","","","","","","","","",""
"","image-keyboard-response","172","97128","0.0-172.0","3PMBY0YE28PD4D04ARGVD4S5FNN9C0","ACON9O9NMFOHE","30UZJB2POHY4464FN6NBJ2NLFWF354","","752.9000000953674","img/flower5.png","74","753.6999998092651","1","1","2","2","1,0,0,1,1,0,1,0,1","0,0,1,1,0,1,0,1,1","2",""
"","html-keyboard-response","173","97430","0.0-173.0","3PMBY0YE28PD4D04ARGVD4S5FNN9C0","ACON9O9NMFOHE","30UZJB2POHY4464FN6NBJ2NLFWF354","","null","<img src=""img/flower5.png"" style=""width:200px; border:14px solid green;"">","null","","","","","","","","",""
"","image-keyboard-response","174","98040","0.0-174.0","3PMBY0YE28PD4D04ARGVD4S5FNN9C0","ACON9O9NMFOHE","30UZJB2POHY4464FN6NBJ2NLFWF354","","610","img/flower4.png","75","610.5999999046326","2","0","1","2","1,0,0,1,1,0,1,0,1","0,0,1,1,0,1,0,1,1","2",""
"","html-keyboard-response","175","98342","0.0-175.0","3PMBY0YE28PD4D04ARGVD4S5FNN9C0","ACON9O9NMFOHE","30UZJB2POHY4464FN6NBJ2NLFWF354","","null","<img src=""img/flower4.png"" style=""width:200px;border:14px solid red;"">","null","","","","","","","","",""
"","image-keyboard-response","176","98809","0.0-176.0","3PMBY0YE28PD4D04ARGVD4S5FNN9C0","ACON9O9NMFOHE","30UZJB2POHY4464FN6NBJ2NLFWF354","","465.7999999523163","img/flower4.png","76","466.5","3","1","1","2","1,0,0,1,1,0,1,0,1","0,0,1,1,0,1,0,1,1","2",""
"","html-keyboard-response","177","99111","0.0-177.0","3PMBY0YE28PD4D04ARGVD4S5FNN9C0","ACON9O9NMFOHE","30UZJB2POHY4464FN6NBJ2NLFWF354","","null","<img src=""img/flower4.png"" style=""width:200px; border:14px solid green;"">","null","","","","","","","","",""
"","image-keyboard-response","178","99976","0.0-178.0","3PMBY0YE28PD4D04ARGVD4S5FNN9C0","ACON9O9NMFOHE","30UZJB2POHY4464FN6NBJ2NLFWF354","","864.3999998569489","img/flower1.png","75","865.1999998092651","2","1","3","2","1,0,0,1,1,0,1,0,1","0,0,1,1,0,1,0,1,1","2",""
"","html-keyboard-response","179","100278","0.0-179.0","3PMBY0YE28PD4D04ARGVD4S5FNN9C0","ACON9O9NMFOHE","30UZJB2POHY4464FN6NBJ2NLFWF354","","null","<img src=""img/flower1.png"" style=""width:200px; border:14px solid green;"">","null","","","","","","","","",""
"","image-keyboard-response","180","101049","0.0-180.0","3PMBY0YE28PD4D04ARGVD4S5FNN9C0","ACON9O9NMFOHE","30UZJB2POHY4464FN6NBJ2NLFWF354","","769.1000001430511","img/flower4.png","75","769.9000000953674","2","0","1","2","1,0,0,1,1,0,1,0,1","0,0,1,1,0,1,0,1,1","2",""
"","html-keyboard-response","181","101359","0.0-181.0","3PMBY0YE28PD4D04ARGVD4S5FNN9C0","ACON9O9NMFOHE","30UZJB2POHY4464FN6NBJ2NLFWF354","","null","<img src=""img/flower4.png"" style=""width:200px;border:14px solid red;"">","null","","","","","","","","",""
"","image-keyboard-response","182","102682","0.0-182.0","3PMBY0YE28PD4D04ARGVD4S5FNN9C0","ACON9O9NMFOHE","30UZJB2POHY4464FN6NBJ2NLFWF354","","1322.3000001907349","img/flower3.png","75","1322.8999998569489","2","0","1","1","1,0.333,0.333,0.333,1,0.333,0.333,0.333,1","1,0.333,0.333,0.333,1,0.333,0.333,0.333,1","1",""
"","html-keyboard-response","183","102984","0.0-183.0","3PMBY0YE28PD4D04ARGVD4S5FNN9C0","ACON9O9NMFOHE","30UZJB2POHY4464FN6NBJ2NLFWF354","","null","<img src=""img/flower3.png"" style=""width:200px;border:14px solid red;"">","null","","","","","","","","",""
"","image-keyboard-response","184","103705","0.0-184.0","3PMBY0YE28PD4D04ARGVD4S5FNN9C0","ACON9O9NMFOHE","30UZJB2POHY4464FN6NBJ2NLFWF354","","720.5999999046326","img/flower2.png","76","721.6999998092651","3","0","2","1","1,0.333,0.333,0.333,1,0.333,0.333,0.333,1","1,0.333,0.333,0.333,1,0.333,0.333,0.333,1","1",""
"","html-keyboard-response","185","104007","0.0-185.0","3PMBY0YE28PD4D04ARGVD4S5FNN9C0","ACON9O9NMFOHE","30UZJB2POHY4464FN6NBJ2NLFWF354","","null","<img src=""img/flower2.png"" style=""width:200px;border:14px solid red;"">","null","","","","","","","","",""
"","image-keyboard-response","186","104617","0.0-186.0","3PMBY0YE28PD4D04ARGVD4S5FNN9C0","ACON9O9NMFOHE","30UZJB2POHY4464FN6NBJ2NLFWF354","","609.2999999523163","img/flower6.png","74","610","1","1","3","1","1,0.333,0.333,0.333,1,0.333,0.333,0.333,1","1,0.333,0.333,0.333,1,0.333,0.333,0.333,1","1",""
"","html-keyboard-response","187","104922","0.0-187.0","3PMBY0YE28PD4D04ARGVD4S5FNN9C0","ACON9O9NMFOHE","30UZJB2POHY4464FN6NBJ2NLFWF354","","null","<img src=""img/flower6.png"" style=""width:200px; border:14px solid green;"">","null","","","","","","","","",""
"","image-keyboard-response","188","106057","0.0-188.0","3PMBY0YE28PD4D04ARGVD4S5FNN9C0","ACON9O9NMFOHE","30UZJB2POHY4464FN6NBJ2NLFWF354","","1133.5999999046326","img/flower2.png","74","1134.3999998569489","1","1","2","1","1,0.333,0.333,0.333,1,0.333,0.333,0.333,1","1,0.333,0.333,0.333,1,0.333,0.333,0.333,1","1",""
"","html-keyboard-response","189","106359","0.0-189.0","3PMBY0YE28PD4D04ARGVD4S5FNN9C0","ACON9O9NMFOHE","30UZJB2POHY4464FN6NBJ2NLFWF354","","null","<img src=""img/flower2.png"" style=""width:200px; border:14px solid green;"">","null","","","","","","","","",""
"","image-keyboard-response","190","107304","0.0-190.0","3PMBY0YE28PD4D04ARGVD4S5FNN9C0","ACON9O9NMFOHE","30UZJB2POHY4464FN6NBJ2NLFWF354","","944.7000000476837","img/flower6.png","74","945.5","1","1","3","1","1,0.333,0.333,0.333,1,0.333,0.333,0.333,1","1,0.333,0.333,0.333,1,0.333,0.333,0.333,1","1",""
"","html-keyboard-response","191","107606","0.0-191.0","3PMBY0YE28PD4D04ARGVD4S5FNN9C0","ACON9O9NMFOHE","30UZJB2POHY4464FN6NBJ2NLFWF354","","null","<img src=""img/flower6.png"" style=""width:200px; border:14px solid green;"">","null","","","","","","","","",""
"","image-keyboard-response","192","107976","0.0-192.0","3PMBY0YE28PD4D04ARGVD4S5FNN9C0","ACON9O9NMFOHE","30UZJB2POHY4464FN6NBJ2NLFWF354","","369.2999999523163","img/flower6.png","74","370.09999990463257","1","1","3","1","1,0.333,0.333,0.333,1,0.333,0.333,0.333,1","1,0.333,0.333,0.333,1,0.333,0.333,0.333,1","1",""
"","html-keyboard-response","193","108279","0.0-193.0","3PMBY0YE28PD4D04ARGVD4S5FNN9C0","ACON9O9NMFOHE","30UZJB2POHY4464FN6NBJ2NLFWF354","","null","<img src=""img/flower6.png"" style=""width:200px; border:14px solid green;"">","null","","","","","","","","",""
"","image-keyboard-response","194","108632","0.0-194.0","3PMBY0YE28PD4D04ARGVD4S5FNN9C0","ACON9O9NMFOHE","30UZJB2POHY4464FN6NBJ2NLFWF354","","352.7000000476837","img/flower6.png","74","353.40000009536743","1","1","3","1","1,0.333,0.333,0.333,1,0.333,0.333,0.333,1","1,0.333,0.333,0.333,1,0.333,0.333,0.333,1","1",""
"","html-keyboard-response","195","108934","0.0-195.0","3PMBY0YE28PD4D04ARGVD4S5FNN9C0","ACON9O9NMFOHE","30UZJB2POHY4464FN6NBJ2NLFWF354","","null","<img src=""img/flower6.png"" style=""width:200px; border:14px solid green;"">","null","","","","","","","","",""
"","image-keyboard-response","196","109752","0.0-196.0","3PMBY0YE28PD4D04ARGVD4S5FNN9C0","ACON9O9NMFOHE","30UZJB2POHY4464FN6NBJ2NLFWF354","","817.7999999523163","img/flower3.png","75","818.4000000953674","2","0","1","1","1,0.333,0.333,0.333,1,0.333,0.333,0.333,1","1,0.333,0.333,0.333,1,0.333,0.333,0.333,1","1",""
"","html-keyboard-response","197","110060","0.0-197.0","3PMBY0YE28PD4D04ARGVD4S5FNN9C0","ACON9O9NMFOHE","30UZJB2POHY4464FN6NBJ2NLFWF354","","null","<img src=""img/flower3.png"" style=""width:200px;border:14px solid red;"">","null","","","","","","","","",""
"","image-keyboard-response","198","110809","0.0-198.0","3PMBY0YE28PD4D04ARGVD4S5FNN9C0","ACON9O9NMFOHE","30UZJB2POHY4464FN6NBJ2NLFWF354","","748","img/flower2.png","76","748.7000000476837","3","0","2","1","1,0.333,0.333,0.333,1,0.333,0.333,0.333,1","1,0.333,0.333,0.333,1,0.333,0.333,0.333,1","1",""
"","html-keyboard-response","199","111111","0.0-199.0","3PMBY0YE28PD4D04ARGVD4S5FNN9C0","ACON9O9NMFOHE","30UZJB2POHY4464FN6NBJ2NLFWF354","","null","<img src=""img/flower2.png"" style=""width:200px;border:14px solid red;"">","null","","","","","","","","",""
"","image-keyboard-response","200","112025","0.0-200.0","3PMBY0YE28PD4D04ARGVD4S5FNN9C0","ACON9O9NMFOHE","30UZJB2POHY4464FN6NBJ2NLFWF354","","913.1000001430511","img/flower3.png","75","913.8000001907349","2","0","1","1","1,0.333,0.333,0.333,1,0.333,0.333,0.333,1","1,0.333,0.333,0.333,1,0.333,0.333,0.333,1","1",""
"","html-keyboard-response","201","112327","0.0-201.0","3PMBY0YE28PD4D04ARGVD4S5FNN9C0","ACON9O9NMFOHE","30UZJB2POHY4464FN6NBJ2NLFWF354","","null","<img src=""img/flower3.png"" style=""width:200px;border:14px solid red;"">","null","","","","","","","","",""
"","image-keyboard-response","202","113178","0.0-202.0","3PMBY0YE28PD4D04ARGVD4S5FNN9C0","ACON9O9NMFOHE","30UZJB2POHY4464FN6NBJ2NLFWF354","","850.2000000476837","img/flower6.png","74","851.0999999046326","1","0","3","1","1,0.333,0.333,0.333,1,0.333,0.333,0.333,1","1,0.333,0.333,0.333,1,0.333,0.333,0.333,1","1",""
"","html-keyboard-response","203","113479","0.0-203.0","3PMBY0YE28PD4D04ARGVD4S5FNN9C0","ACON9O9NMFOHE","30UZJB2POHY4464FN6NBJ2NLFWF354","","null","<img src=""img/flower6.png"" style=""width:200px;border:14px solid red;"">","null","","","","","","","","",""
"","image-keyboard-response","204","114393","0.0-204.0","3PMBY0YE28PD4D04ARGVD4S5FNN9C0","ACON9O9NMFOHE","30UZJB2POHY4464FN6NBJ2NLFWF354","","912.3999998569489","img/flower3.png","75","914.7999999523163","2","1","1","1","1,0.333,0.333,0.333,1,0.333,0.333,0.333,1","1,0.333,0.333,0.333,1,0.333,0.333,0.333,1","1",""
"","html-keyboard-response","205","114696","0.0-205.0","3PMBY0YE28PD4D04ARGVD4S5FNN9C0","ACON9O9NMFOHE","30UZJB2POHY4464FN6NBJ2NLFWF354","","null","<img src=""img/flower3.png"" style=""width:200px; border:14px solid green;"">","null","","","","","","","","",""
"","image-keyboard-response","206","115064","0.0-206.0","3PMBY0YE28PD4D04ARGVD4S5FNN9C0","ACON9O9NMFOHE","30UZJB2POHY4464FN6NBJ2NLFWF354","","366.89999985694885","img/flower3.png","75","367.89999985694885","2","0","1","1","1,0.333,0.333,0.333,1,0.333,0.333,0.333,1","1,0.333,0.333,0.333,1,0.333,0.333,0.333,1","1",""
"","html-keyboard-response","207","115367","0.0-207.0","3PMBY0YE28PD4D04ARGVD4S5FNN9C0","ACON9O9NMFOHE","30UZJB2POHY4464FN6NBJ2NLFWF354","","null","<img src=""img/flower3.png"" style=""width:200px;border:14px solid red;"">","null","","","","","","","","",""
"","image-keyboard-response","208","115810","0.0-208.0","3PMBY0YE28PD4D04ARGVD4S5FNN9C0","ACON9O9NMFOHE","30UZJB2POHY4464FN6NBJ2NLFWF354","","443.09999990463257","img/flower3.png","75","443.90000009536743","2","1","1","1","1,0.333,0.333,0.333,1,0.333,0.333,0.333,1","1,0.333,0.333,0.333,1,0.333,0.333,0.333,1","1",""
"","html-keyboard-response","209","116113","0.0-209.0","3PMBY0YE28PD4D04ARGVD4S5FNN9C0","ACON9O9NMFOHE","30UZJB2POHY4464FN6NBJ2NLFWF354","","null","<img src=""img/flower3.png"" style=""width:200px; border:14px solid green;"">","null","","","","","","","","",""
"","image-keyboard-response","210","117000","0.0-210.0","3PMBY0YE28PD4D04ARGVD4S5FNN9C0","ACON9O9NMFOHE","30UZJB2POHY4464FN6NBJ2NLFWF354","","886","img/flower2.png","76","887.2000000476837","3","0","2","1","1,0.333,0.333,0.333,1,0.333,0.333,0.333,1","1,0.333,0.333,0.333,1,0.333,0.333,0.333,1","1",""
"","html-keyboard-response","211","117302","0.0-211.0","3PMBY0YE28PD4D04ARGVD4S5FNN9C0","ACON9O9NMFOHE","30UZJB2POHY4464FN6NBJ2NLFWF354","","null","<img src=""img/flower2.png"" style=""width:200px;border:14px solid red;"">","null","","","","","","","","",""
"","image-keyboard-response","212","118184","0.0-212.0","3PMBY0YE28PD4D04ARGVD4S5FNN9C0","ACON9O9NMFOHE","30UZJB2POHY4464FN6NBJ2NLFWF354","","881.0999999046326","img/flower6.png","74","881.8999998569489","1","0","3","1","1,0.333,0.333,0.333,1,0.333,0.333,0.333,1","1,0.333,0.333,0.333,1,0.333,0.333,0.333,1","1",""
"","html-keyboard-response","213","118486","0.0-213.0","3PMBY0YE28PD4D04ARGVD4S5FNN9C0","ACON9O9NMFOHE","30UZJB2POHY4464FN6NBJ2NLFWF354","","null","<img src=""img/flower6.png"" style=""width:200px;border:14px solid red;"">","null","","","","","","","","",""
"","image-keyboard-response","214","119224","0.0-214.0","3PMBY0YE28PD4D04ARGVD4S5FNN9C0","ACON9O9NMFOHE","30UZJB2POHY4464FN6NBJ2NLFWF354","","737.5999999046326","img/flower2.png","76","738.2999999523163","3","0","2","1","1,0.333,0.333,0.333,1,0.333,0.333,0.333,1","1,0.333,0.333,0.333,1,0.333,0.333,0.333,1","1",""
"","html-keyboard-response","215","119528","0.0-215.0","3PMBY0YE28PD4D04ARGVD4S5FNN9C0","ACON9O9NMFOHE","30UZJB2POHY4464FN6NBJ2NLFWF354","","null","<img src=""img/flower2.png"" style=""width:200px;border:14px solid red;"">","null","","","","","","","","",""
"","image-keyboard-response","216","120425","0.0-216.0","3PMBY0YE28PD4D04ARGVD4S5FNN9C0","ACON9O9NMFOHE","30UZJB2POHY4464FN6NBJ2NLFWF354","","895.6999998092651","img/flower6.png","74","896.5","1","1","3","1","1,0.333,0.333,0.333,1,0.333,0.333,0.333,1","1,0.333,0.333,0.333,1,0.333,0.333,0.333,1","1",""
"","html-keyboard-response","217","120736","0.0-217.0","3PMBY0YE28PD4D04ARGVD4S5FNN9C0","ACON9O9NMFOHE","30UZJB2POHY4464FN6NBJ2NLFWF354","","null","<img src=""img/flower6.png"" style=""width:200px; border:14px solid green;"">","null","","","","","","","","",""
"","image-keyboard-response","218","121144","0.0-218.0","3PMBY0YE28PD4D04ARGVD4S5FNN9C0","ACON9O9NMFOHE","30UZJB2POHY4464FN6NBJ2NLFWF354","","407.7999999523163","img/flower6.png","74","408.59999990463257","1","0","3","1","1,0.333,0.333,0.333,1,0.333,0.333,0.333,1","1,0.333,0.333,0.333,1,0.333,0.333,0.333,1","1",""
"","html-keyboard-response","219","121446","0.0-219.0","3PMBY0YE28PD4D04ARGVD4S5FNN9C0","ACON9O9NMFOHE","30UZJB2POHY4464FN6NBJ2NLFWF354","","null","<img src=""img/flower6.png"" style=""width:200px;border:14px solid red;"">","null","","","","","","","","",""
"","image-keyboard-response","220","121960","0.0-220.0","3PMBY0YE28PD4D04ARGVD4S5FNN9C0","ACON9O9NMFOHE","30UZJB2POHY4464FN6NBJ2NLFWF354","","512.9000000953674","img/flower6.png","74","513.7999999523163","1","1","3","1","1,0.333,0.333,0.333,1,0.333,0.333,0.333,1","1,0.333,0.333,0.333,1,0.333,0.333,0.333,1","1",""
"","html-keyboard-response","221","122262","0.0-221.0","3PMBY0YE28PD4D04ARGVD4S5FNN9C0","ACON9O9NMFOHE","30UZJB2POHY4464FN6NBJ2NLFWF354","","null","<img src=""img/flower6.png"" style=""width:200px; border:14px solid green;"">","null","","","","","","","","",""
"","image-keyboard-response","222","122984","0.0-222.0","3PMBY0YE28PD4D04ARGVD4S5FNN9C0","ACON9O9NMFOHE","30UZJB2POHY4464FN6NBJ2NLFWF354","","721","img/flower2.png","74","721.9000000953674","1","0","2","1","1,0.333,0.333,0.333,1,0.333,0.333,0.333,1","1,0.333,0.333,0.333,1,0.333,0.333,0.333,1","1",""
"","html-keyboard-response","223","123286","0.0-223.0","3PMBY0YE28PD4D04ARGVD4S5FNN9C0","ACON9O9NMFOHE","30UZJB2POHY4464FN6NBJ2NLFWF354","","null","<img src=""img/flower2.png"" style=""width:200px;border:14px solid red;"">","null","","","","","","","","",""
"","image-keyboard-response","224","124298","0.0-224.0","3PMBY0YE28PD4D04ARGVD4S5FNN9C0","ACON9O9NMFOHE","30UZJB2POHY4464FN6NBJ2NLFWF354","","1010.6000001430511","img/flower3.png","76","1011.4000000953674","3","0","1","1","1,0.333,0.333,0.333,1,0.333,0.333,0.333,1","1,0.333,0.333,0.333,1,0.333,0.333,0.333,1","1",""
"","html-keyboard-response","225","124600","0.0-225.0","3PMBY0YE28PD4D04ARGVD4S5FNN9C0","ACON9O9NMFOHE","30UZJB2POHY4464FN6NBJ2NLFWF354","","null","<img src=""img/flower3.png"" style=""width:200px;border:14px solid red;"">","null","","","","","","","","",""
"","image-keyboard-response","226","124968","0.0-226.0","3PMBY0YE28PD4D04ARGVD4S5FNN9C0","ACON9O9NMFOHE","30UZJB2POHY4464FN6NBJ2NLFWF354","","366.89999985694885","img/flower3.png","76","367.59999990463257","3","0","1","1","1,0.333,0.333,0.333,1,0.333,0.333,0.333,1","1,0.333,0.333,0.333,1,0.333,0.333,0.333,1","1",""
"","html-keyboard-response","227","125271","0.0-227.0","3PMBY0YE28PD4D04ARGVD4S5FNN9C0","ACON9O9NMFOHE","30UZJB2POHY4464FN6NBJ2NLFWF354","","null","<img src=""img/flower3.png"" style=""width:200px;border:14px solid red;"">","null","","","","","","","","",""
"","image-keyboard-response","228","126168","0.0-228.0","3PMBY0YE28PD4D04ARGVD4S5FNN9C0","ACON9O9NMFOHE","30UZJB2POHY4464FN6NBJ2NLFWF354","","896.7000000476837","img/flower2.png","75","897.5","2","1","2","1","1,0.333,0.333,0.333,1,0.333,0.333,0.333,1","1,0.333,0.333,0.333,1,0.333,0.333,0.333,1","1",""
"","html-keyboard-response","229","126470","0.0-229.0","3PMBY0YE28PD4D04ARGVD4S5FNN9C0","ACON9O9NMFOHE","30UZJB2POHY4464FN6NBJ2NLFWF354","","null","<img src=""img/flower2.png"" style=""width:200px; border:14px solid green;"">","null","","","","","","","","",""
"","image-keyboard-response","230","126872","0.0-230.0","3PMBY0YE28PD4D04ARGVD4S5FNN9C0","ACON9O9NMFOHE","30UZJB2POHY4464FN6NBJ2NLFWF354","","401","img/flower2.png","75","401.7000000476837","2","1","2","1","1,0.333,0.333,0.333,1,0.333,0.333,0.333,1","1,0.333,0.333,0.333,1,0.333,0.333,0.333,1","1",""
"","html-keyboard-response","231","127174","0.0-231.0","3PMBY0YE28PD4D04ARGVD4S5FNN9C0","ACON9O9NMFOHE","30UZJB2POHY4464FN6NBJ2NLFWF354","","null","<img src=""img/flower2.png"" style=""width:200px; border:14px solid green;"">","null","","","","","","","","",""
"","image-keyboard-response","232","128088","0.0-232.0","3PMBY0YE28PD4D04ARGVD4S5FNN9C0","ACON9O9NMFOHE","30UZJB2POHY4464FN6NBJ2NLFWF354","","913.4000000953674","img/flower3.png","76","914.1000001430511","3","0","1","1","1,0.333,0.333,0.333,1,0.333,0.333,0.333,1","1,0.333,0.333,0.333,1,0.333,0.333,0.333,1","1",""
"","html-keyboard-response","233","128390","0.0-233.0","3PMBY0YE28PD4D04ARGVD4S5FNN9C0","ACON9O9NMFOHE","30UZJB2POHY4464FN6NBJ2NLFWF354","","null","<img src=""img/flower3.png"" style=""width:200px;border:14px solid red;"">","null","","","","","","","","",""
"","image-keyboard-response","234","129144","0.0-234.0","3PMBY0YE28PD4D04ARGVD4S5FNN9C0","ACON9O9NMFOHE","30UZJB2POHY4464FN6NBJ2NLFWF354","","752.6999998092651","img/flower6.png","74","753.4000000953674","1","0","3","1","1,0.333,0.333,0.333,1,0.333,0.333,0.333,1","1,0.333,0.333,0.333,1,0.333,0.333,0.333,1","1",""
"","html-keyboard-response","235","129446","0.0-235.0","3PMBY0YE28PD4D04ARGVD4S5FNN9C0","ACON9O9NMFOHE","30UZJB2POHY4464FN6NBJ2NLFWF354","","null","<img src=""img/flower6.png"" style=""width:200px;border:14px solid red;"">","null","","","","","","","","",""
"","image-keyboard-response","236","129832","0.0-236.0","3PMBY0YE28PD4D04ARGVD4S5FNN9C0","ACON9O9NMFOHE","30UZJB2POHY4464FN6NBJ2NLFWF354","","383.7999999523163","img/flower6.png","74","385.30000019073486","1","1","3","1","1,0.333,0.333,0.333,1,0.333,0.333,0.333,1","1,0.333,0.333,0.333,1,0.333,0.333,0.333,1","1",""
"","html-keyboard-response","237","130133","0.0-237.0","3PMBY0YE28PD4D04ARGVD4S5FNN9C0","ACON9O9NMFOHE","30UZJB2POHY4464FN6NBJ2NLFWF354","","null","<img src=""img/flower6.png"" style=""width:200px; border:14px solid green;"">","null","","","","","","","","",""
"","image-keyboard-response","238","131032","0.0-238.0","3PMBY0YE28PD4D04ARGVD4S5FNN9C0","ACON9O9NMFOHE","30UZJB2POHY4464FN6NBJ2NLFWF354","","898.1000001430511","img/flower3.png","74","898.7999999523163","1","1","1","1","1,0.333,0.333,0.333,1,0.333,0.333,0.333,1","1,0.333,0.333,0.333,1,0.333,0.333,0.333,1","1",""
"","html-keyboard-response","239","131334","0.0-239.0","3PMBY0YE28PD4D04ARGVD4S5FNN9C0","ACON9O9NMFOHE","30UZJB2POHY4464FN6NBJ2NLFWF354","","null","<img src=""img/flower3.png"" style=""width:200px; border:14px solid green;"">","null","","","","","","","","",""
"","image-keyboard-response","240","132104","0.0-240.0","3PMBY0YE28PD4D04ARGVD4S5FNN9C0","ACON9O9NMFOHE","30UZJB2POHY4464FN6NBJ2NLFWF354","","769.1000001430511","img/flower2.png","74","769.9000000953674","1","0","2","1","1,0.333,0.333,0.333,1,0.333,0.333,0.333,1","1,0.333,0.333,0.333,1,0.333,0.333,0.333,1","1",""
"","html-keyboard-response","241","132414","0.0-241.0","3PMBY0YE28PD4D04ARGVD4S5FNN9C0","ACON9O9NMFOHE","30UZJB2POHY4464FN6NBJ2NLFWF354","","null","<img src=""img/flower2.png"" style=""width:200px;border:14px solid red;"">","null","","","","","","","","",""
"","image-keyboard-response","242","133176","0.0-242.0","3PMBY0YE28PD4D04ARGVD4S5FNN9C0","ACON9O9NMFOHE","30UZJB2POHY4464FN6NBJ2NLFWF354","","761.2000000476837","img/flower6.png","74","762","1","0","3","1","1,0.333,0.333,0.333,1,0.333,0.333,0.333,1","1,0.333,0.333,0.333,1,0.333,0.333,0.333,1","1",""
"","html-keyboard-response","243","133479","0.0-243.0","3PMBY0YE28PD4D04ARGVD4S5FNN9C0","ACON9O9NMFOHE","30UZJB2POHY4464FN6NBJ2NLFWF354","","null","<img src=""img/flower6.png"" style=""width:200px;border:14px solid red;"">","null","","","","","","","","",""
"","image-keyboard-response","244","134425","0.0-244.0","3PMBY0YE28PD4D04ARGVD4S5FNN9C0","ACON9O9NMFOHE","30UZJB2POHY4464FN6NBJ2NLFWF354","","945.7000000476837","img/flower3.png","75","946.2999999523163","2","0","1","1","1,0.333,0.333,0.333,1,0.333,0.333,0.333,1","1,0.333,0.333,0.333,1,0.333,0.333,0.333,1","1",""
"","html-keyboard-response","245","134727","0.0-245.0","3PMBY0YE28PD4D04ARGVD4S5FNN9C0","ACON9O9NMFOHE","30UZJB2POHY4464FN6NBJ2NLFWF354","","null","<img src=""img/flower3.png"" style=""width:200px;border:14px solid red;"">","null","","","","","","","","",""
"","image-keyboard-response","246","135112","0.0-246.0","3PMBY0YE28PD4D04ARGVD4S5FNN9C0","ACON9O9NMFOHE","30UZJB2POHY4464FN6NBJ2NLFWF354","","384.2999999523163","img/flower3.png","76","384.90000009536743","3","0","1","1","1,0.333,0.333,0.333,1,0.333,0.333,0.333,1","1,0.333,0.333,0.333,1,0.333,0.333,0.333,1","1",""
"","html-keyboard-response","247","135415","0.0-247.0","3PMBY0YE28PD4D04ARGVD4S5FNN9C0","ACON9O9NMFOHE","30UZJB2POHY4464FN6NBJ2NLFWF354","","null","<img src=""img/flower3.png"" style=""width:200px;border:14px solid red;"">","null","","","","","","","","",""
"","image-keyboard-response","248","135880","0.0-248.0","3PMBY0YE28PD4D04ARGVD4S5FNN9C0","ACON9O9NMFOHE","30UZJB2POHY4464FN6NBJ2NLFWF354","","464.2999999523163","img/flower3.png","74","465.2000000476837","1","1","1","1","1,0.333,0.333,0.333,1,0.333,0.333,0.333,1","1,0.333,0.333,0.333,1,0.333,0.333,0.333,1","1",""
"","html-keyboard-response","249","136182","0.0-249.0","3PMBY0YE28PD4D04ARGVD4S5FNN9C0","ACON9O9NMFOHE","30UZJB2POHY4464FN6NBJ2NLFWF354","","null","<img src=""img/flower3.png"" style=""width:200px; border:14px solid green;"">","null","","","","","","","","",""
"","image-keyboard-response","250","136808","0.0-250.0","3PMBY0YE28PD4D04ARGVD4S5FNN9C0","ACON9O9NMFOHE","30UZJB2POHY4464FN6NBJ2NLFWF354","","625","img/flower6.png","74","625.7000000476837","1","0","3","1","1,0.333,0.333,0.333,1,0.333,0.333,0.333,1","1,0.333,0.333,0.333,1,0.333,0.333,0.333,1","1",""
"","html-keyboard-response","251","137110","0.0-251.0","3PMBY0YE28PD4D04ARGVD4S5FNN9C0","ACON9O9NMFOHE","30UZJB2POHY4464FN6NBJ2NLFWF354","","null","<img src=""img/flower6.png"" style=""width:200px;border:14px solid red;"">","null","","","","","","","","",""
"","image-keyboard-response","252","137640","0.0-252.0","3PMBY0YE28PD4D04ARGVD4S5FNN9C0","ACON9O9NMFOHE","30UZJB2POHY4464FN6NBJ2NLFWF354","","529","img/flower6.png","76","529.7999999523163","3","1","3","1","1,0.333,0.333,0.333,1,0.333,0.333,0.333,1","1,0.333,0.333,0.333,1,0.333,0.333,0.333,1","1",""
"","html-keyboard-response","253","137943","0.0-253.0","3PMBY0YE28PD4D04ARGVD4S5FNN9C0","ACON9O9NMFOHE","30UZJB2POHY4464FN6NBJ2NLFWF354","","null","<img src=""img/flower6.png"" style=""width:200px; border:14px solid green;"">","null","","","","","","","","",""
"","image-keyboard-response","254","138328","0.0-254.0","3PMBY0YE28PD4D04ARGVD4S5FNN9C0","ACON9O9NMFOHE","30UZJB2POHY4464FN6NBJ2NLFWF354","","384.5","img/flower6.png","76","385.39999985694885","3","1","3","1","1,0.333,0.333,0.333,1,0.333,0.333,0.333,1","1,0.333,0.333,0.333,1,0.333,0.333,0.333,1","1",""
"","html-keyboard-response","255","138631","0.0-255.0","3PMBY0YE28PD4D04ARGVD4S5FNN9C0","ACON9O9NMFOHE","30UZJB2POHY4464FN6NBJ2NLFWF354","","null","<img src=""img/flower6.png"" style=""width:200px; border:14px solid green;"">","null","","","","","","","","",""
"","image-keyboard-response","256","139448","0.0-256.0","3PMBY0YE28PD4D04ARGVD4S5FNN9C0","ACON9O9NMFOHE","30UZJB2POHY4464FN6NBJ2NLFWF354","","816.7000000476837","img/flower2.png","75","817.6999998092651","2","1","2","1","1,0.333,0.333,0.333,1,0.333,0.333,0.333,1","1,0.333,0.333,0.333,1,0.333,0.333,0.333,1","1",""
"","html-keyboard-response","257","139751","0.0-257.0","3PMBY0YE28PD4D04ARGVD4S5FNN9C0","ACON9O9NMFOHE","30UZJB2POHY4464FN6NBJ2NLFWF354","","null","<img src=""img/flower2.png"" style=""width:200px; border:14px solid green;"">","null","","","","","","","","",""
"","image-keyboard-response","258","140056","0.0-258.0","3PMBY0YE28PD4D04ARGVD4S5FNN9C0","ACON9O9NMFOHE","30UZJB2POHY4464FN6NBJ2NLFWF354","","304.7000000476837","img/flower2.png","75","305.39999985694885","2","1","2","1","1,0.333,0.333,0.333,1,0.333,0.333,0.333,1","1,0.333,0.333,0.333,1,0.333,0.333,0.333,1","1",""
"","html-keyboard-response","259","140359","0.0-259.0","3PMBY0YE28PD4D04ARGVD4S5FNN9C0","ACON9O9NMFOHE","30UZJB2POHY4464FN6NBJ2NLFWF354","","null","<img src=""img/flower2.png"" style=""width:200px; border:14px solid green;"">","null","","","","","","","","",""
"","image-keyboard-response","260","141769","0.0-260.0","3PMBY0YE28PD4D04ARGVD4S5FNN9C0","ACON9O9NMFOHE","30UZJB2POHY4464FN6NBJ2NLFWF354","","1408.0999999046326","img/flower3.png","74","1409","1","1","1","1","1,0.333,0.333,0.333,1,0.333,0.333,0.333,1","1,0.333,0.333,0.333,1,0.333,0.333,0.333,1","1",""
"","html-keyboard-response","261","142071","0.0-261.0","3PMBY0YE28PD4D04ARGVD4S5FNN9C0","ACON9O9NMFOHE","30UZJB2POHY4464FN6NBJ2NLFWF354","","null","<img src=""img/flower3.png"" style=""width:200px; border:14px solid green;"">","null","","","","","","","","",""
"","image-keyboard-response","262","142392","0.0-262.0","3PMBY0YE28PD4D04ARGVD4S5FNN9C0","ACON9O9NMFOHE","30UZJB2POHY4464FN6NBJ2NLFWF354","","320.30000019073486","img/flower3.png","74","321.09999990463257","1","1","1","1","1,0.333,0.333,0.333,1,0.333,0.333,0.333,1","1,0.333,0.333,0.333,1,0.333,0.333,0.333,1","1",""
"","html-keyboard-response","263","142694","0.0-263.0","3PMBY0YE28PD4D04ARGVD4S5FNN9C0","ACON9O9NMFOHE","30UZJB2POHY4464FN6NBJ2NLFWF354","","null","<img src=""img/flower3.png"" style=""width:200px; border:14px solid green;"">","null","","","","","","","","",""
"","image-keyboard-response","264","143016","0.0-264.0","3PMBY0YE28PD4D04ARGVD4S5FNN9C0","ACON9O9NMFOHE","30UZJB2POHY4464FN6NBJ2NLFWF354","","321.39999985694885","img/flower3.png","74","322.2000000476837","1","1","1","1","1,0.333,0.333,0.333,1,0.333,0.333,0.333,1","1,0.333,0.333,0.333,1,0.333,0.333,0.333,1","1",""
"","html-keyboard-response","265","143318","0.0-265.0","3PMBY0YE28PD4D04ARGVD4S5FNN9C0","ACON9O9NMFOHE","30UZJB2POHY4464FN6NBJ2NLFWF354","","null","<img src=""img/flower3.png"" style=""width:200px; border:14px solid green;"">","null","","","","","","","","",""
"","image-keyboard-response","266","143625","0.0-266.0","3PMBY0YE28PD4D04ARGVD4S5FNN9C0","ACON9O9NMFOHE","30UZJB2POHY4464FN6NBJ2NLFWF354","","305.80000019073486","img/flower3.png","74","306.59999990463257","1","1","1","1","1,0.333,0.333,0.333,1,0.333,0.333,0.333,1","1,0.333,0.333,0.333,1,0.333,0.333,0.333,1","1",""
"","html-keyboard-response","267","143927","0.0-267.0","3PMBY0YE28PD4D04ARGVD4S5FNN9C0","ACON9O9NMFOHE","30UZJB2POHY4464FN6NBJ2NLFWF354","","null","<img src=""img/flower3.png"" style=""width:200px; border:14px solid green;"">","null","","","","","","","","",""
"","image-keyboard-response","268","144666","0.0-268.0","3PMBY0YE28PD4D04ARGVD4S5FNN9C0","ACON9O9NMFOHE","30UZJB2POHY4464FN6NBJ2NLFWF354","","737.9000000953674","img/flower2.png","76","738.5","3","1","2","1","1,0.333,0.333,0.333,1,0.333,0.333,0.333,1","1,0.333,0.333,0.333,1,0.333,0.333,0.333,1","1",""
"","html-keyboard-response","269","144968","0.0-269.0","3PMBY0YE28PD4D04ARGVD4S5FNN9C0","ACON9O9NMFOHE","30UZJB2POHY4464FN6NBJ2NLFWF354","","null","<img src=""img/flower2.png"" style=""width:200px; border:14px solid green;"">","null","","","","","","","","",""
"","image-keyboard-response","270","145224","0.0-270.0","3PMBY0YE28PD4D04ARGVD4S5FNN9C0","ACON9O9NMFOHE","30UZJB2POHY4464FN6NBJ2NLFWF354","","255.20000004768372","img/flower3.png","76","256","3","0","1","1","1,0.333,0.333,0.333,1,0.333,0.333,0.333,1","1,0.333,0.333,0.333,1,0.333,0.333,0.333,1","1",""
"","html-keyboard-response","271","145526","0.0-271.0","3PMBY0YE28PD4D04ARGVD4S5FNN9C0","ACON9O9NMFOHE","30UZJB2POHY4464FN6NBJ2NLFWF354","","null","<img src=""img/flower3.png"" style=""width:200px;border:14px solid red;"">","null","","","","","","","","",""
"","image-keyboard-response","272","146600","0.0-272.0","3PMBY0YE28PD4D04ARGVD4S5FNN9C0","ACON9O9NMFOHE","30UZJB2POHY4464FN6NBJ2NLFWF354","","1073.6000001430511","img/flower6.png","76","1074.2000000476837","3","1","3","1","1,0.333,0.333,0.333,1,0.333,0.333,0.333,1","1,0.333,0.333,0.333,1,0.333,0.333,0.333,1","1",""
"","html-keyboard-response","273","146903","0.0-273.0","3PMBY0YE28PD4D04ARGVD4S5FNN9C0","ACON9O9NMFOHE","30UZJB2POHY4464FN6NBJ2NLFWF354","","null","<img src=""img/flower6.png"" style=""width:200px; border:14px solid green;"">","null","","","","","","","","",""
"","image-keyboard-response","274","147224","0.0-274.0","3PMBY0YE28PD4D04ARGVD4S5FNN9C0","ACON9O9NMFOHE","30UZJB2POHY4464FN6NBJ2NLFWF354","","320.40000009536743","img/flower3.png","76","321.2000000476837","3","0","1","1","1,0.333,0.333,0.333,1,0.333,0.333,0.333,1","1,0.333,0.333,0.333,1,0.333,0.333,0.333,1","1",""
"","html-keyboard-response","275","147527","0.0-275.0","3PMBY0YE28PD4D04ARGVD4S5FNN9C0","ACON9O9NMFOHE","30UZJB2POHY4464FN6NBJ2NLFWF354","","null","<img src=""img/flower3.png"" style=""width:200px;border:14px solid red;"">","null","","","","","","","","",""
"","image-keyboard-response","276","148440","0.0-276.0","3PMBY0YE28PD4D04ARGVD4S5FNN9C0","ACON9O9NMFOHE","30UZJB2POHY4464FN6NBJ2NLFWF354","","912.7000000476837","img/flower2.png","75","913.4000000953674","2","1","2","1","1,0.333,0.333,0.333,1,0.333,0.333,0.333,1","1,0.333,0.333,0.333,1,0.333,0.333,0.333,1","1",""
"","html-keyboard-response","277","148742","0.0-277.0","3PMBY0YE28PD4D04ARGVD4S5FNN9C0","ACON9O9NMFOHE","30UZJB2POHY4464FN6NBJ2NLFWF354","","null","<img src=""img/flower2.png"" style=""width:200px; border:14px solid green;"">","null","","","","","","","","",""
"","image-keyboard-response","278","149912","0.0-278.0","3PMBY0YE28PD4D04ARGVD4S5FNN9C0","ACON9O9NMFOHE","30UZJB2POHY4464FN6NBJ2NLFWF354","","1168.8999998569489","img/flower6.png","76","1169.7000000476837","3","1","3","1","1,0.333,0.333,0.333,1,0.333,0.333,0.333,1","1,0.333,0.333,0.333,1,0.333,0.333,0.333,1","1",""
"","html-keyboard-response","279","150214","0.0-279.0","3PMBY0YE28PD4D04ARGVD4S5FNN9C0","ACON9O9NMFOHE","30UZJB2POHY4464FN6NBJ2NLFWF354","","null","<img src=""img/flower6.png"" style=""width:200px; border:14px solid green;"">","null","","","","","","","","",""
"","image-keyboard-response","280","150520","0.0-280.0","3PMBY0YE28PD4D04ARGVD4S5FNN9C0","ACON9O9NMFOHE","30UZJB2POHY4464FN6NBJ2NLFWF354","","305.2000000476837","img/flower6.png","76","306","3","1","3","1","1,0.333,0.333,0.333,1,0.333,0.333,0.333,1","1,0.333,0.333,0.333,1,0.333,0.333,0.333,1","1",""
"","html-keyboard-response","281","150822","0.0-281.0","3PMBY0YE28PD4D04ARGVD4S5FNN9C0","ACON9O9NMFOHE","30UZJB2POHY4464FN6NBJ2NLFWF354","","null","<img src=""img/flower6.png"" style=""width:200px; border:14px solid green;"">","null","","","","","","","","",""
"","image-keyboard-response","282","151144","0.0-282.0","3PMBY0YE28PD4D04ARGVD4S5FNN9C0","ACON9O9NMFOHE","30UZJB2POHY4464FN6NBJ2NLFWF354","","321.2999999523163","img/flower6.png","76","321.90000009536743","3","1","3","1","1,0.333,0.333,0.333,1,0.333,0.333,0.333,1","1,0.333,0.333,0.333,1,0.333,0.333,0.333,1","1",""
"","html-keyboard-response","283","151453","0.0-283.0","3PMBY0YE28PD4D04ARGVD4S5FNN9C0","ACON9O9NMFOHE","30UZJB2POHY4464FN6NBJ2NLFWF354","","null","<img src=""img/flower6.png"" style=""width:200px; border:14px solid green;"">","null","","","","","","","","",""
"","image-keyboard-response","284","152584","0.0-284.0","3PMBY0YE28PD4D04ARGVD4S5FNN9C0","ACON9O9NMFOHE","30UZJB2POHY4464FN6NBJ2NLFWF354","","1130.5","img/flower3.png","74","1131.0999999046326","1","1","1","1","1,0.333,0.333,0.333,1,0.333,0.333,0.333,1","1,0.333,0.333,0.333,1,0.333,0.333,0.333,1","1",""
"","html-keyboard-response","285","152886","0.0-285.0","3PMBY0YE28PD4D04ARGVD4S5FNN9C0","ACON9O9NMFOHE","30UZJB2POHY4464FN6NBJ2NLFWF354","","null","<img src=""img/flower3.png"" style=""width:200px; border:14px solid green;"">","null","","","","","","","","",""
"","image-keyboard-response","286","153784","0.0-286.0","3PMBY0YE28PD4D04ARGVD4S5FNN9C0","ACON9O9NMFOHE","30UZJB2POHY4464FN6NBJ2NLFWF354","","897.1999998092651","img/flower2.png","74","897.8999998569489","1","0","2","1","1,0.333,0.333,0.333,1,0.333,0.333,0.333,1","1,0.333,0.333,0.333,1,0.333,0.333,0.333,1","1",""
"","html-keyboard-response","287","154086","0.0-287.0","3PMBY0YE28PD4D04ARGVD4S5FNN9C0","ACON9O9NMFOHE","30UZJB2POHY4464FN6NBJ2NLFWF354","","null","<img src=""img/flower2.png"" style=""width:200px;border:14px solid red;"">","null","","","","","","","","",""
"","image-keyboard-response","288","154568","0.0-288.0","3PMBY0YE28PD4D04ARGVD4S5FNN9C0","ACON9O9NMFOHE","30UZJB2POHY4464FN6NBJ2NLFWF354","","481.2999999523163","img/flower2.png","76","482","3","0","2","1","1,0.333,0.333,0.333,1,0.333,0.333,0.333,1","1,0.333,0.333,0.333,1,0.333,0.333,0.333,1","1",""
"","html-keyboard-response","289","154869","0.0-289.0","3PMBY0YE28PD4D04ARGVD4S5FNN9C0","ACON9O9NMFOHE","30UZJB2POHY4464FN6NBJ2NLFWF354","","null","<img src=""img/flower2.png"" style=""width:200px;border:14px solid red;"">","null","","","","","","","","",""
"","image-keyboard-response","290","155754","0.0-290.0","3PMBY0YE28PD4D04ARGVD4S5FNN9C0","ACON9O9NMFOHE","30UZJB2POHY4464FN6NBJ2NLFWF354","","883.4000000953674","img/flower6.png","76","884.4000000953674","3","1","3","1","1,0.333,0.333,0.333,1,0.333,0.333,0.333,1","1,0.333,0.333,0.333,1,0.333,0.333,0.333,1","1",""
"","html-keyboard-response","291","156056","0.0-291.0","3PMBY0YE28PD4D04ARGVD4S5FNN9C0","ACON9O9NMFOHE","30UZJB2POHY4464FN6NBJ2NLFWF354","","null","<img src=""img/flower6.png"" style=""width:200px; border:14px solid green;"">","null","","","","","","","","",""
"","image-keyboard-response","292","156744","0.0-292.0","3PMBY0YE28PD4D04ARGVD4S5FNN9C0","ACON9O9NMFOHE","30UZJB2POHY4464FN6NBJ2NLFWF354","","687.5999999046326","img/flower2.png","75","688.4000000953674","2","1","2","1","1,0.333,0.333,0.333,1,0.333,0.333,0.333,1","1,0.333,0.333,0.333,1,0.333,0.333,0.333,1","1",""
"","html-keyboard-response","293","157047","0.0-293.0","3PMBY0YE28PD4D04ARGVD4S5FNN9C0","ACON9O9NMFOHE","30UZJB2POHY4464FN6NBJ2NLFWF354","","null","<img src=""img/flower2.png"" style=""width:200px; border:14px solid green;"">","null","","","","","","","","",""
"","image-keyboard-response","294","157896","0.0-294.0","3PMBY0YE28PD4D04ARGVD4S5FNN9C0","ACON9O9NMFOHE","30UZJB2POHY4464FN6NBJ2NLFWF354","","848.2999999523163","img/flower6.png","76","849.3000001907349","3","1","3","1","1,0.333,0.333,0.333,1,0.333,0.333,0.333,1","1,0.333,0.333,0.333,1,0.333,0.333,0.333,1","1",""
"","html-keyboard-response","295","158198","0.0-295.0","3PMBY0YE28PD4D04ARGVD4S5FNN9C0","ACON9O9NMFOHE","30UZJB2POHY4464FN6NBJ2NLFWF354","","null","<img src=""img/flower6.png"" style=""width:200px; border:14px solid green;"">","null","","","","","","","","",""
"","image-keyboard-response","296","158952","0.0-296.0","3PMBY0YE28PD4D04ARGVD4S5FNN9C0","ACON9O9NMFOHE","30UZJB2POHY4464FN6NBJ2NLFWF354","","753.0999999046326","img/flower3.png","74","754","1","1","1","1","1,0.333,0.333,0.333,1,0.333,0.333,0.333,1","1,0.333,0.333,0.333,1,0.333,0.333,0.333,1","1",""
"","html-keyboard-response","297","159255","0.0-297.0","3PMBY0YE28PD4D04ARGVD4S5FNN9C0","ACON9O9NMFOHE","30UZJB2POHY4464FN6NBJ2NLFWF354","","null","<img src=""img/flower3.png"" style=""width:200px; border:14px solid green;"">","null","","","","","","","","",""
"","image-keyboard-response","298","160152","0.0-298.0","3PMBY0YE28PD4D04ARGVD4S5FNN9C0","ACON9O9NMFOHE","30UZJB2POHY4464FN6NBJ2NLFWF354","","896.6000001430511","img/flower6.png","76","897.2000000476837","3","1","3","1","1,0.333,0.333,0.333,1,0.333,0.333,0.333,1","1,0.333,0.333,0.333,1,0.333,0.333,0.333,1","1",""
"","html-keyboard-response","299","160458","0.0-299.0","3PMBY0YE28PD4D04ARGVD4S5FNN9C0","ACON9O9NMFOHE","30UZJB2POHY4464FN6NBJ2NLFWF354","","null","<img src=""img/flower6.png"" style=""width:200px; border:14px solid green;"">","null","","","","","","","","",""
"","image-keyboard-response","300","161176","0.0-300.0","3PMBY0YE28PD4D04ARGVD4S5FNN9C0","ACON9O9NMFOHE","30UZJB2POHY4464FN6NBJ2NLFWF354","","717.0999999046326","img/flower3.png","75","717.7000000476837","2","1","1","1","1,0.333,0.333,0.333,1,0.333,0.333,0.333,1","1,0.333,0.333,0.333,1,0.333,0.333,0.333,1","1",""
"","html-keyboard-response","301","161478","0.0-301.0","3PMBY0YE28PD4D04ARGVD4S5FNN9C0","ACON9O9NMFOHE","30UZJB2POHY4464FN6NBJ2NLFWF354","","null","<img src=""img/flower3.png"" style=""width:200px; border:14px solid green;"">","null","","","","","","","","",""
"","image-keyboard-response","302","162024","0.0-302.0","3PMBY0YE28PD4D04ARGVD4S5FNN9C0","ACON9O9NMFOHE","30UZJB2POHY4464FN6NBJ2NLFWF354","","545.4000000953674","img/flower2.png","76","546.1000001430511","3","0","2","1","1,0.333,0.333,0.333,1,0.333,0.333,0.333,1","1,0.333,0.333,0.333,1,0.333,0.333,0.333,1","1",""
"","html-keyboard-response","303","162327","0.0-303.0","3PMBY0YE28PD4D04ARGVD4S5FNN9C0","ACON9O9NMFOHE","30UZJB2POHY4464FN6NBJ2NLFWF354","","null","<img src=""img/flower2.png"" style=""width:200px;border:14px solid red;"">","null","","","","","","","","",""
"","image-keyboard-response","304","162824","0.0-304.0","3PMBY0YE28PD4D04ARGVD4S5FNN9C0","ACON9O9NMFOHE","30UZJB2POHY4464FN6NBJ2NLFWF354","","496.2999999523163","img/flower2.png","74","497.2000000476837","1","0","2","1","1,0.333,0.333,0.333,1,0.333,0.333,0.333,1","1,0.333,0.333,0.333,1,0.333,0.333,0.333,1","1",""
"","html-keyboard-response","305","163125","0.0-305.0","3PMBY0YE28PD4D04ARGVD4S5FNN9C0","ACON9O9NMFOHE","30UZJB2POHY4464FN6NBJ2NLFWF354","","null","<img src=""img/flower2.png"" style=""width:200px;border:14px solid red;"">","null","","","","","","","","",""
"","image-keyboard-response","306","163896","0.0-306.0","3PMBY0YE28PD4D04ARGVD4S5FNN9C0","ACON9O9NMFOHE","30UZJB2POHY4464FN6NBJ2NLFWF354","","769.5999999046326","img/flower6.png","76","770.4000000953674","3","1","3","1","1,0.333,0.333,0.333,1,0.333,0.333,0.333,1","1,0.333,0.333,0.333,1,0.333,0.333,0.333,1","1",""
"","html-keyboard-response","307","164198","0.0-307.0","3PMBY0YE28PD4D04ARGVD4S5FNN9C0","ACON9O9NMFOHE","30UZJB2POHY4464FN6NBJ2NLFWF354","","null","<img src=""img/flower6.png"" style=""width:200px; border:14px solid green;"">","null","","","","","","","","",""
"","image-keyboard-response","308","164536","0.0-308.0","3PMBY0YE28PD4D04ARGVD4S5FNN9C0","ACON9O9NMFOHE","30UZJB2POHY4464FN6NBJ2NLFWF354","","336.59999990463257","img/flower6.png","76","337.39999985694885","3","1","3","1","1,0.333,0.333,0.333,1,0.333,0.333,0.333,1","1,0.333,0.333,0.333,1,0.333,0.333,0.333,1","1",""
"","html-keyboard-response","309","164838","0.0-309.0","3PMBY0YE28PD4D04ARGVD4S5FNN9C0","ACON9O9NMFOHE","30UZJB2POHY4464FN6NBJ2NLFWF354","","null","<img src=""img/flower6.png"" style=""width:200px; border:14px solid green;"">","null","","","","","","","","",""
"","image-keyboard-response","310","165432","0.0-310.0","3PMBY0YE28PD4D04ARGVD4S5FNN9C0","ACON9O9NMFOHE","30UZJB2POHY4464FN6NBJ2NLFWF354","","593","img/flower2.png","76","593.7000000476837","3","0","2","1","1,0.333,0.333,0.333,1,0.333,0.333,0.333,1","1,0.333,0.333,0.333,1,0.333,0.333,0.333,1","1",""
"","html-keyboard-response","311","165734","0.0-311.0","3PMBY0YE28PD4D04ARGVD4S5FNN9C0","ACON9O9NMFOHE","30UZJB2POHY4464FN6NBJ2NLFWF354","","null","<img src=""img/flower2.png"" style=""width:200px;border:14px solid red;"">","null","","","","","","","","",""
"","image-keyboard-response","312","166601","0.0-312.0","3PMBY0YE28PD4D04ARGVD4S5FNN9C0","ACON9O9NMFOHE","30UZJB2POHY4464FN6NBJ2NLFWF354","","865.9000000953674","img/flower6.png","76","866.7000000476837","3","1","3","1","1,0.333,0.333,0.333,1,0.333,0.333,0.333,1","1,0.333,0.333,0.333,1,0.333,0.333,0.333,1","1",""
"","html-keyboard-response","313","166903","0.0-313.0","3PMBY0YE28PD4D04ARGVD4S5FNN9C0","ACON9O9NMFOHE","30UZJB2POHY4464FN6NBJ2NLFWF354","","null","<img src=""img/flower6.png"" style=""width:200px; border:14px solid green;"">","null","","","","","","","","",""
"","image-keyboard-response","314","167640","0.0-314.0","3PMBY0YE28PD4D04ARGVD4S5FNN9C0","ACON9O9NMFOHE","30UZJB2POHY4464FN6NBJ2NLFWF354","","736.4000000953674","img/flower2.png","74","737.2999999523163","1","0","2","1","1,0.333,0.333,0.333,1,0.333,0.333,0.333,1","1,0.333,0.333,0.333,1,0.333,0.333,0.333,1","1",""
"","html-keyboard-response","315","167943","0.0-315.0","3PMBY0YE28PD4D04ARGVD4S5FNN9C0","ACON9O9NMFOHE","30UZJB2POHY4464FN6NBJ2NLFWF354","","null","<img src=""img/flower2.png"" style=""width:200px;border:14px solid red;"">","null","","","","","","","","",""
"","image-keyboard-response","316","169288","0.0-316.0","3PMBY0YE28PD4D04ARGVD4S5FNN9C0","ACON9O9NMFOHE","30UZJB2POHY4464FN6NBJ2NLFWF354","","1344.5","img/flower3.png","76","1345.2000000476837","3","1","1","1","1,0.333,0.333,0.333,1,0.333,0.333,0.333,1","1,0.333,0.333,0.333,1,0.333,0.333,0.333,1","1",""
"","html-keyboard-response","317","169590","0.0-317.0","3PMBY0YE28PD4D04ARGVD4S5FNN9C0","ACON9O9NMFOHE","30UZJB2POHY4464FN6NBJ2NLFWF354","","null","<img src=""img/flower3.png"" style=""width:200px; border:14px solid green;"">","null","","","","","","","","",""
"","image-keyboard-response","318","170456","0.0-318.0","3PMBY0YE28PD4D04ARGVD4S5FNN9C0","ACON9O9NMFOHE","30UZJB2POHY4464FN6NBJ2NLFWF354","","865.0999999046326","img/flower2.png","75","865.7999999523163","2","1","2","1","1,0.333,0.333,0.333,1,0.333,0.333,0.333,1","1,0.333,0.333,0.333,1,0.333,0.333,0.333,1","1",""
"","html-keyboard-response","319","170758","0.0-319.0","3PMBY0YE28PD4D04ARGVD4S5FNN9C0","ACON9O9NMFOHE","30UZJB2POHY4464FN6NBJ2NLFWF354","","null","<img src=""img/flower2.png"" style=""width:200px; border:14px solid green;"">","null","","","","","","","","",""
"","image-keyboard-response","320","171128","0.0-320.0","3PMBY0YE28PD4D04ARGVD4S5FNN9C0","ACON9O9NMFOHE","30UZJB2POHY4464FN6NBJ2NLFWF354","","369.40000009536743","img/flower2.png","75","370.10000014305115","2","1","2","1","1,0.333,0.333,0.333,1,0.333,0.333,0.333,1","1,0.333,0.333,0.333,1,0.333,0.333,0.333,1","1",""
"","html-keyboard-response","321","171431","0.0-321.0","3PMBY0YE28PD4D04ARGVD4S5FNN9C0","ACON9O9NMFOHE","30UZJB2POHY4464FN6NBJ2NLFWF354","","null","<img src=""img/flower2.png"" style=""width:200px; border:14px solid green;"">","null","","","","","","","","",""
"","image-keyboard-response","322","172056","0.0-322.0","3PMBY0YE28PD4D04ARGVD4S5FNN9C0","ACON9O9NMFOHE","30UZJB2POHY4464FN6NBJ2NLFWF354","","623.7999999523163","img/flower6.png","76","624.6000001430511","3","1","3","1","1,0.333,0.333,0.333,1,0.333,0.333,0.333,1","1,0.333,0.333,0.333,1,0.333,0.333,0.333,1","1",""
"","html-keyboard-response","323","172358","0.0-323.0","3PMBY0YE28PD4D04ARGVD4S5FNN9C0","ACON9O9NMFOHE","30UZJB2POHY4464FN6NBJ2NLFWF354","","null","<img src=""img/flower6.png"" style=""width:200px; border:14px solid green;"">","null","","","","","","","","",""
"","image-keyboard-response","324","172904","0.0-324.0","3PMBY0YE28PD4D04ARGVD4S5FNN9C0","ACON9O9NMFOHE","30UZJB2POHY4464FN6NBJ2NLFWF354","","545.4000000953674","img/flower2.png","75","546.1000001430511","2","1","2","1","1,0.333,0.333,0.333,1,0.333,0.333,0.333,1","1,0.333,0.333,0.333,1,0.333,0.333,0.333,1","1",""
"","html-keyboard-response","325","173206","0.0-325.0","3PMBY0YE28PD4D04ARGVD4S5FNN9C0","ACON9O9NMFOHE","30UZJB2POHY4464FN6NBJ2NLFWF354","","null","<img src=""img/flower2.png"" style=""width:200px; border:14px solid green;"">","null","","","","","","","","",""
"","image-keyboard-response","326","173576","0.0-326.0","3PMBY0YE28PD4D04ARGVD4S5FNN9C0","ACON9O9NMFOHE","30UZJB2POHY4464FN6NBJ2NLFWF354","","369.19999980926514","img/flower2.png","75","370","2","1","2","1","1,0.333,0.333,0.333,1,0.333,0.333,0.333,1","1,0.333,0.333,0.333,1,0.333,0.333,0.333,1","1",""
"","html-keyboard-response","327","173877","0.0-327.0","3PMBY0YE28PD4D04ARGVD4S5FNN9C0","ACON9O9NMFOHE","30UZJB2POHY4464FN6NBJ2NLFWF354","","null","<img src=""img/flower2.png"" style=""width:200px; border:14px solid green;"">","null","","","","","","","","",""
"","image-keyboard-response","328","174680","0.0-328.0","3PMBY0YE28PD4D04ARGVD4S5FNN9C0","ACON9O9NMFOHE","30UZJB2POHY4464FN6NBJ2NLFWF354","","801.5999999046326","img/flower3.png","74","802.2999999523163","1","1","1","1","1,0.333,0.333,0.333,1,0.333,0.333,0.333,1","1,0.333,0.333,0.333,1,0.333,0.333,0.333,1","1",""
"","html-keyboard-response","329","174983","0.0-329.0","3PMBY0YE28PD4D04ARGVD4S5FNN9C0","ACON9O9NMFOHE","30UZJB2POHY4464FN6NBJ2NLFWF354","","null","<img src=""img/flower3.png"" style=""width:200px; border:14px solid green;"">","null","","","","","","","","",""
"","image-keyboard-response","330","175320","0.0-330.0","3PMBY0YE28PD4D04ARGVD4S5FNN9C0","ACON9O9NMFOHE","30UZJB2POHY4464FN6NBJ2NLFWF354","","336.2000000476837","img/flower3.png","74","337","1","1","1","1","1,0.333,0.333,0.333,1,0.333,0.333,0.333,1","1,0.333,0.333,0.333,1,0.333,0.333,0.333,1","1",""
"","html-keyboard-response","331","175622","0.0-331.0","3PMBY0YE28PD4D04ARGVD4S5FNN9C0","ACON9O9NMFOHE","30UZJB2POHY4464FN6NBJ2NLFWF354","","null","<img src=""img/flower3.png"" style=""width:200px; border:14px solid green;"">","null","","","","","","","","",""
"","image-keyboard-response","332","176373","0.0-332.0","3PMBY0YE28PD4D04ARGVD4S5FNN9C0","ACON9O9NMFOHE","30UZJB2POHY4464FN6NBJ2NLFWF354","","750","img/flower6.png","76","750.8999998569489","3","1","3","1","1,0.333,0.333,0.333,1,0.333,0.333,0.333,1","1,0.333,0.333,0.333,1,0.333,0.333,0.333,1","1",""
"","html-keyboard-response","333","176675","0.0-333.0","3PMBY0YE28PD4D04ARGVD4S5FNN9C0","ACON9O9NMFOHE","30UZJB2POHY4464FN6NBJ2NLFWF354","","null","<img src=""img/flower6.png"" style=""width:200px; border:14px solid green;"">","null","","","","","","","","",""
"","image-keyboard-response","334","177049","0.0-334.0","3PMBY0YE28PD4D04ARGVD4S5FNN9C0","ACON9O9NMFOHE","30UZJB2POHY4464FN6NBJ2NLFWF354","","373.2000000476837","img/flower6.png","76","373.7999999523163","3","1","3","1","1,0.333,0.333,0.333,1,0.333,0.333,0.333,1","1,0.333,0.333,0.333,1,0.333,0.333,0.333,1","1",""
"","html-keyboard-response","335","177352","0.0-335.0","3PMBY0YE28PD4D04ARGVD4S5FNN9C0","ACON9O9NMFOHE","30UZJB2POHY4464FN6NBJ2NLFWF354","","null","<img src=""img/flower6.png"" style=""width:200px; border:14px solid green;"">","null","","","","","","","","",""
"","image-keyboard-response","336","177976","0.0-336.0","3PMBY0YE28PD4D04ARGVD4S5FNN9C0","ACON9O9NMFOHE","30UZJB2POHY4464FN6NBJ2NLFWF354","","623.1000001430511","img/flower3.png","74","623.8999998569489","1","1","1","1","1,0.333,0.333,0.333,1,0.333,0.333,0.333,1","1,0.333,0.333,0.333,1,0.333,0.333,0.333,1","1",""
"","html-keyboard-response","337","178278","0.0-337.0","3PMBY0YE28PD4D04ARGVD4S5FNN9C0","ACON9O9NMFOHE","30UZJB2POHY4464FN6NBJ2NLFWF354","","null","<img src=""img/flower3.png"" style=""width:200px; border:14px solid green;"">","null","","","","","","","","",""
"","image-keyboard-response","338","178600","0.0-338.0","3PMBY0YE28PD4D04ARGVD4S5FNN9C0","ACON9O9NMFOHE","30UZJB2POHY4464FN6NBJ2NLFWF354","","320.89999985694885","img/flower3.png","74","321.5","1","1","1","1","1,0.333,0.333,0.333,1,0.333,0.333,0.333,1","1,0.333,0.333,0.333,1,0.333,0.333,0.333,1","1",""
"","html-keyboard-response","339","178901","0.0-339.0","3PMBY0YE28PD4D04ARGVD4S5FNN9C0","ACON9O9NMFOHE","30UZJB2POHY4464FN6NBJ2NLFWF354","","null","<img src=""img/flower3.png"" style=""width:200px; border:14px solid green;"">","null","","","","","","","","",""
"","image-keyboard-response","340","179752","0.0-340.0","3PMBY0YE28PD4D04ARGVD4S5FNN9C0","ACON9O9NMFOHE","30UZJB2POHY4464FN6NBJ2NLFWF354","","849.5999999046326","img/flower2.png","75","850.4000000953674","2","1","2","1","1,0.333,0.333,0.333,1,0.333,0.333,0.333,1","1,0.333,0.333,0.333,1,0.333,0.333,0.333,1","1",""
"","html-keyboard-response","341","180056","0.0-341.0","3PMBY0YE28PD4D04ARGVD4S5FNN9C0","ACON9O9NMFOHE","30UZJB2POHY4464FN6NBJ2NLFWF354","","null","<img src=""img/flower2.png"" style=""width:200px; border:14px solid green;"">","null","","","","","","","","",""
"","image-keyboard-response","342","180616","0.0-342.0","3PMBY0YE28PD4D04ARGVD4S5FNN9C0","ACON9O9NMFOHE","30UZJB2POHY4464FN6NBJ2NLFWF354","","559.2999999523163","img/flower3.png","76","560.2999999523163","3","1","1","1","1,0.333,0.333,0.333,1,0.333,0.333,0.333,1","1,0.333,0.333,0.333,1,0.333,0.333,0.333,1","1",""
"","html-keyboard-response","343","180919","0.0-343.0","3PMBY0YE28PD4D04ARGVD4S5FNN9C0","ACON9O9NMFOHE","30UZJB2POHY4464FN6NBJ2NLFWF354","","null","<img src=""img/flower3.png"" style=""width:200px; border:14px solid green;"">","null","","","","","","","","",""
"","image-keyboard-response","344","181272","0.0-344.0","3PMBY0YE28PD4D04ARGVD4S5FNN9C0","ACON9O9NMFOHE","30UZJB2POHY4464FN6NBJ2NLFWF354","","352.7000000476837","img/flower3.png","76","353.39999985694885","3","0","1","1","1,0.333,0.333,0.333,1,0.333,0.333,0.333,1","1,0.333,0.333,0.333,1,0.333,0.333,0.333,1","1",""
"","html-keyboard-response","345","181575","0.0-345.0","3PMBY0YE28PD4D04ARGVD4S5FNN9C0","ACON9O9NMFOHE","30UZJB2POHY4464FN6NBJ2NLFWF354","","null","<img src=""img/flower3.png"" style=""width:200px;border:14px solid red;"">","null","","","","","","","","",""
"","image-keyboard-response","346","182136","0.0-346.0","3PMBY0YE28PD4D04ARGVD4S5FNN9C0","ACON9O9NMFOHE","30UZJB2POHY4464FN6NBJ2NLFWF354","","560.3000001907349","img/flower2.png","74","561.1999998092651","1","1","2","1","1,0.333,0.333,0.333,1,0.333,0.333,0.333,1","1,0.333,0.333,0.333,1,0.333,0.333,0.333,1","1",""
"","html-keyboard-response","347","182452","0.0-347.0","3PMBY0YE28PD4D04ARGVD4S5FNN9C0","ACON9O9NMFOHE","30UZJB2POHY4464FN6NBJ2NLFWF354","","null","<img src=""img/flower2.png"" style=""width:200px; border:14px solid green;"">","null","","","","","","","","",""
"","image-keyboard-response","348","182760","0.0-348.0","3PMBY0YE28PD4D04ARGVD4S5FNN9C0","ACON9O9NMFOHE","30UZJB2POHY4464FN6NBJ2NLFWF354","","307.40000009536743","img/flower2.png","74","308.2000000476837","1","0","2","1","1,0.333,0.333,0.333,1,0.333,0.333,0.333,1","1,0.333,0.333,0.333,1,0.333,0.333,0.333,1","1",""
"","html-keyboard-response","349","183063","0.0-349.0","3PMBY0YE28PD4D04ARGVD4S5FNN9C0","ACON9O9NMFOHE","30UZJB2POHY4464FN6NBJ2NLFWF354","","null","<img src=""img/flower2.png"" style=""width:200px;border:14px solid red;"">","null","","","","","","","","",""
"","image-keyboard-response","350","183688","0.0-350.0","3PMBY0YE28PD4D04ARGVD4S5FNN9C0","ACON9O9NMFOHE","30UZJB2POHY4464FN6NBJ2NLFWF354","","624.6000001430511","img/flower6.png","76","625.2999999523163","3","1","3","1","1,0.333,0.333,0.333,1,0.333,0.333,0.333,1","1,0.333,0.333,0.333,1,0.333,0.333,0.333,1","1",""
"","html-keyboard-response","351","183991","0.0-351.0","3PMBY0YE28PD4D04ARGVD4S5FNN9C0","ACON9O9NMFOHE","30UZJB2POHY4464FN6NBJ2NLFWF354","","null","<img src=""img/flower6.png"" style=""width:200px; border:14px solid green;"">","null","","","","","","","","",""
"","image-keyboard-response","352","184616","0.0-352.0","3PMBY0YE28PD4D04ARGVD4S5FNN9C0","ACON9O9NMFOHE","30UZJB2POHY4464FN6NBJ2NLFWF354","","624.7999999523163","img/flower2.png","75","625.5","2","1","2","1","1,0.333,0.333,0.333,1,0.333,0.333,0.333,1","1,0.333,0.333,0.333,1,0.333,0.333,0.333,1","1",""
"","html-keyboard-response","353","184918","0.0-353.0","3PMBY0YE28PD4D04ARGVD4S5FNN9C0","ACON9O9NMFOHE","30UZJB2POHY4464FN6NBJ2NLFWF354","","null","<img src=""img/flower2.png"" style=""width:200px; border:14px solid green;"">","null","","","","","","","","",""
"","image-keyboard-response","354","185240","0.0-354.0","3PMBY0YE28PD4D04ARGVD4S5FNN9C0","ACON9O9NMFOHE","30UZJB2POHY4464FN6NBJ2NLFWF354","","321.2000000476837","img/flower2.png","75","322","2","1","2","1","1,0.333,0.333,0.333,1,0.333,0.333,0.333,1","1,0.333,0.333,0.333,1,0.333,0.333,0.333,1","1",""
"","html-keyboard-response","355","185542","0.0-355.0","3PMBY0YE28PD4D04ARGVD4S5FNN9C0","ACON9O9NMFOHE","30UZJB2POHY4464FN6NBJ2NLFWF354","","null","<img src=""img/flower2.png"" style=""width:200px; border:14px solid green;"">","null","","","","","","","","",""
"","image-keyboard-response","356","185864","0.0-356.0","3PMBY0YE28PD4D04ARGVD4S5FNN9C0","ACON9O9NMFOHE","30UZJB2POHY4464FN6NBJ2NLFWF354","","321.5","img/flower2.png","75","322.30000019073486","2","1","2","1","1,0.333,0.333,0.333,1,0.333,0.333,0.333,1","1,0.333,0.333,0.333,1,0.333,0.333,0.333,1","1",""
"","html-keyboard-response","357","186166","0.0-357.0","3PMBY0YE28PD4D04ARGVD4S5FNN9C0","ACON9O9NMFOHE","30UZJB2POHY4464FN6NBJ2NLFWF354","","null","<img src=""img/flower2.png"" style=""width:200px; border:14px solid green;"">","null","","","","","","","","",""
"","image-keyboard-response","358","187210","0.0-358.0","3PMBY0YE28PD4D04ARGVD4S5FNN9C0","ACON9O9NMFOHE","30UZJB2POHY4464FN6NBJ2NLFWF354","","1042.2000000476837","img/flower3.png","74","1043.2000000476837","1","1","1","1","1,0.333,0.333,0.333,1,0.333,0.333,0.333,1","1,0.333,0.333,0.333,1,0.333,0.333,0.333,1","1",""
"","html-keyboard-response","359","187512","0.0-359.0","3PMBY0YE28PD4D04ARGVD4S5FNN9C0","ACON9O9NMFOHE","30UZJB2POHY4464FN6NBJ2NLFWF354","","null","<img src=""img/flower3.png"" style=""width:200px; border:14px solid green;"">","null","","","","","","","","",""
"","image-keyboard-response","360","188073","0.0-360.0","3PMBY0YE28PD4D04ARGVD4S5FNN9C0","ACON9O9NMFOHE","30UZJB2POHY4464FN6NBJ2NLFWF354","","560.1000001430511","img/flower6.png","76","560.9000000953674","3","1","3","1","1,0.333,0.333,0.333,1,0.333,0.333,0.333,1","1,0.333,0.333,0.333,1,0.333,0.333,0.333,1","1",""
"","html-keyboard-response","361","188375","0.0-361.0","3PMBY0YE28PD4D04ARGVD4S5FNN9C0","ACON9O9NMFOHE","30UZJB2POHY4464FN6NBJ2NLFWF354","","null","<img src=""img/flower6.png"" style=""width:200px; border:14px solid green;"">","null","","","","","","","","",""
"","html-keyboard-response","362","190392","0.0-362.0","3PMBY0YE28PD4D04ARGVD4S5FNN9C0","ACON9O9NMFOHE","30UZJB2POHY4464FN6NBJ2NLFWF354","","","","","","","","","","","","",""
"","instructions","363","191225","0.0-363.0","3PMBY0YE28PD4D04ARGVD4S5FNN9C0","ACON9O9NMFOHE","30UZJB2POHY4464FN6NBJ2NLFWF354","[{""page_index"":0,""viewing_time"":831.3000001907349}]","831.6000001430511","","","","","","","","","","",""
"","survey-text","364","193177","0.0-364.0","3PMBY0YE28PD4D04ARGVD4S5FNN9C0","ACON9O9NMFOHE","30UZJB2POHY4464FN6NBJ2NLFWF354","","1948.7999999523163","","","","","","","","","","","{""Q0"":""ACON9O9NMFOHE""}"
