"rt","url","trial_type","trial_index","time_elapsed","internal_node_id","assignmentID","mturkID","hitID","success","view_history","stimulus","key_press","reactionTime","a","r","s","reward_cond","responses"
"5599.300000000745","consent.html","external-html","0","5712","0.0-0.0","3AWETUDC93EJN74H6Z6G1VST4VOIZG","ACSS93E03ZUGX","3A3KKYU7P33Z3BR9PPFZ5194ZCQMWU","","","","","","","","","",""
"","","fullscreen","1","8447","0.0-1.0","3AWETUDC93EJN74H6Z6G1VST4VOIZG","ACSS93E03ZUGX","3A3KKYU7P33Z3BR9PPFZ5194ZCQMWU","true","","","","","","","","",""
"104416.90000000037","","instructions","2","112869","0.0-2.0","3AWETUDC93EJN74H6Z6G1VST4VOIZG","ACSS93E03ZUGX","3A3KKYU7P33Z3BR9PPFZ5194ZCQMWU","","[{""page_index"":0,""viewing_time"":23631.800000000745},{""page_index"":1,""viewing_time"":5401.9000000003725},{""page_index"":2,""viewing_time"":6748.39999999851},{""page_index"":3,""viewing_time"":7828.200000001118},{""page_index"":4,""viewing_time"":7614.699999999255},{""page_index"":5,""viewing_time"":49110.90000000037},{""page_index"":6,""viewing_time"":4077.9000000003725}]","","","","","","","",""
"10095.200000001118","","instructions","3","122968","0.0-3.0","3AWETUDC93EJN74H6Z6G1VST4VOIZG","ACSS93E03ZUGX","3A3KKYU7P33Z3BR9PPFZ5194ZCQMWU","","[{""page_index"":0,""viewing_time"":10094.10000000149}]","","","","","","","",""
"1336.4000000003725","","image-keyboard-response","4","124312","0.0-4.0","3AWETUDC93EJN74H6Z6G1VST4VOIZG","ACSS93E03ZUGX","3A3KKYU7P33Z3BR9PPFZ5194ZCQMWU","","","img/flower4.png","74","1342.2999999988824","1","1","1","",""
"null","","html-keyboard-response","5","124623","0.0-5.0","3AWETUDC93EJN74H6Z6G1VST4VOIZG","ACSS93E03ZUGX","3A3KKYU7P33Z3BR9PPFZ5194ZCQMWU","","","<img src=""img/flower4.png"" style=""width:200px; border:14px solid green;"">","null","","","","","",""
"933.7999999988824","","image-keyboard-response","6","125561","0.0-6.0","3AWETUDC93EJN74H6Z6G1VST4VOIZG","ACSS93E03ZUGX","3A3KKYU7P33Z3BR9PPFZ5194ZCQMWU","","","img/flower5.png","75","937.4000000003725","2","1","2","",""
"null","","html-keyboard-response","7","125870","0.0-7.0","3AWETUDC93EJN74H6Z6G1VST4VOIZG","ACSS93E03ZUGX","3A3KKYU7P33Z3BR9PPFZ5194ZCQMWU","","","<img src=""img/flower5.png"" style=""width:200px; border:14px solid green;"">","null","","","","","",""
"678.0999999996275","","image-keyboard-response","8","126553","0.0-8.0","3AWETUDC93EJN74H6Z6G1VST4VOIZG","ACSS93E03ZUGX","3A3KKYU7P33Z3BR9PPFZ5194ZCQMWU","","","img/flower4.png","74","681.8999999985099","1","1","1","",""
"null","","html-keyboard-response","9","126862","0.0-9.0","3AWETUDC93EJN74H6Z6G1VST4VOIZG","ACSS93E03ZUGX","3A3KKYU7P33Z3BR9PPFZ5194ZCQMWU","","","<img src=""img/flower4.png"" style=""width:200px; border:14px solid green;"">","null","","","","","",""
"710.5999999996275","","image-keyboard-response","10","127576","0.0-10.0","3AWETUDC93EJN74H6Z6G1VST4VOIZG","ACSS93E03ZUGX","3A3KKYU7P33Z3BR9PPFZ5194ZCQMWU","","","img/flower6.png","76","713.2999999988824","3","1","3","",""
"null","","html-keyboard-response","11","127886","0.0-11.0","3AWETUDC93EJN74H6Z6G1VST4VOIZG","ACSS93E03ZUGX","3A3KKYU7P33Z3BR9PPFZ5194ZCQMWU","","","<img src=""img/flower6.png"" style=""width:200px; border:14px solid green;"">","null","","","","","",""
"870.8000000007451","","image-keyboard-response","12","128761","0.0-12.0","3AWETUDC93EJN74H6Z6G1VST4VOIZG","ACSS93E03ZUGX","3A3KKYU7P33Z3BR9PPFZ5194ZCQMWU","","","img/flower5.png","75","874.5","2","1","2","",""
"null","","html-keyboard-response","13","129070","0.0-13.0","3AWETUDC93EJN74H6Z6G1VST4VOIZG","ACSS93E03ZUGX","3A3KKYU7P33Z3BR9PPFZ5194ZCQMWU","","","<img src=""img/flower5.png"" style=""width:200px; border:14px solid green;"">","null","","","","","",""
"914.2999999988824","","image-keyboard-response","14","129989","0.0-14.0","3AWETUDC93EJN74H6Z6G1VST4VOIZG","ACSS93E03ZUGX","3A3KKYU7P33Z3BR9PPFZ5194ZCQMWU","","","img/flower5.png","75","917.7999999988824","2","0","2","",""
"null","","html-keyboard-response","15","130294","0.0-15.0","3AWETUDC93EJN74H6Z6G1VST4VOIZG","ACSS93E03ZUGX","3A3KKYU7P33Z3BR9PPFZ5194ZCQMWU","","","<img src=""img/flower5.png"" style=""width:200px;border:14px solid red;"">","null","","","","","",""
"934.5","","image-keyboard-response","16","131233","0.0-16.0","3AWETUDC93EJN74H6Z6G1VST4VOIZG","ACSS93E03ZUGX","3A3KKYU7P33Z3BR9PPFZ5194ZCQMWU","","","img/flower6.png","76","937.6999999992549","3","1","3","",""
"null","","html-keyboard-response","17","131542","0.0-17.0","3AWETUDC93EJN74H6Z6G1VST4VOIZG","ACSS93E03ZUGX","3A3KKYU7P33Z3BR9PPFZ5194ZCQMWU","","","<img src=""img/flower6.png"" style=""width:200px; border:14px solid green;"">","null","","","","","",""
"1059","","image-keyboard-response","18","132606","0.0-18.0","3AWETUDC93EJN74H6Z6G1VST4VOIZG","ACSS93E03ZUGX","3A3KKYU7P33Z3BR9PPFZ5194ZCQMWU","","","img/flower6.png","76","1062.6000000014901","3","0","3","",""
"null","","html-keyboard-response","19","132918","0.0-19.0","3AWETUDC93EJN74H6Z6G1VST4VOIZG","ACSS93E03ZUGX","3A3KKYU7P33Z3BR9PPFZ5194ZCQMWU","","","<img src=""img/flower6.png"" style=""width:200px;border:14px solid red;"">","null","","","","","",""
"2703","","image-keyboard-response","20","135626","0.0-20.0","3AWETUDC93EJN74H6Z6G1VST4VOIZG","ACSS93E03ZUGX","3A3KKYU7P33Z3BR9PPFZ5194ZCQMWU","","","img/flower6.png","76","2707.4000000003725","3","1","3","",""
"null","","html-keyboard-response","21","135934","0.0-21.0","3AWETUDC93EJN74H6Z6G1VST4VOIZG","ACSS93E03ZUGX","3A3KKYU7P33Z3BR9PPFZ5194ZCQMWU","","","<img src=""img/flower6.png"" style=""width:200px; border:14px solid green;"">","null","","","","","",""
"1547.9000000003725","","image-keyboard-response","22","137489","0.0-22.0","3AWETUDC93EJN74H6Z6G1VST4VOIZG","ACSS93E03ZUGX","3A3KKYU7P33Z3BR9PPFZ5194ZCQMWU","","","img/flower5.png","75","1551.2999999988824","2","1","2","",""
"null","","html-keyboard-response","23","137798","0.0-23.0","3AWETUDC93EJN74H6Z6G1VST4VOIZG","ACSS93E03ZUGX","3A3KKYU7P33Z3BR9PPFZ5194ZCQMWU","","","<img src=""img/flower5.png"" style=""width:200px; border:14px solid green;"">","null","","","","","",""
"3939.0999999996275","","image-keyboard-response","24","141742","0.0-24.0","3AWETUDC93EJN74H6Z6G1VST4VOIZG","ACSS93E03ZUGX","3A3KKYU7P33Z3BR9PPFZ5194ZCQMWU","","","img/flower5.png","75","3942.699999999255","2","1","2","",""
"null","","html-keyboard-response","25","142047","0.0-25.0","3AWETUDC93EJN74H6Z6G1VST4VOIZG","ACSS93E03ZUGX","3A3KKYU7P33Z3BR9PPFZ5194ZCQMWU","","","<img src=""img/flower5.png"" style=""width:200px; border:14px solid green;"">","null","","","","","",""
"1303.1000000014901","","image-keyboard-response","26","143355","0.0-26.0","3AWETUDC93EJN74H6Z6G1VST4VOIZG","ACSS93E03ZUGX","3A3KKYU7P33Z3BR9PPFZ5194ZCQMWU","","","img/flower4.png","74","1306.9000000003725","1","0","1","",""
"null","","html-keyboard-response","27","143663","0.0-27.0","3AWETUDC93EJN74H6Z6G1VST4VOIZG","ACSS93E03ZUGX","3A3KKYU7P33Z3BR9PPFZ5194ZCQMWU","","","<img src=""img/flower4.png"" style=""width:200px;border:14px solid red;"">","null","","","","","",""
"1724.5","","image-keyboard-response","28","145391","0.0-28.0","3AWETUDC93EJN74H6Z6G1VST4VOIZG","ACSS93E03ZUGX","3A3KKYU7P33Z3BR9PPFZ5194ZCQMWU","","","img/flower4.png","74","1728","1","1","1","",""
"null","","html-keyboard-response","29","145702","0.0-29.0","3AWETUDC93EJN74H6Z6G1VST4VOIZG","ACSS93E03ZUGX","3A3KKYU7P33Z3BR9PPFZ5194ZCQMWU","","","<img src=""img/flower4.png"" style=""width:200px; border:14px solid green;"">","null","","","","","",""
"2044.6000000014901","","image-keyboard-response","30","147752","0.0-30.0","3AWETUDC93EJN74H6Z6G1VST4VOIZG","ACSS93E03ZUGX","3A3KKYU7P33Z3BR9PPFZ5194ZCQMWU","","","img/flower6.png","76","2048.89999999851","3","1","3","",""
"null","","html-keyboard-response","31","148062","0.0-31.0","3AWETUDC93EJN74H6Z6G1VST4VOIZG","ACSS93E03ZUGX","3A3KKYU7P33Z3BR9PPFZ5194ZCQMWU","","","<img src=""img/flower6.png"" style=""width:200px; border:14px solid green;"">","null","","","","","",""
"2186.89999999851","","image-keyboard-response","32","150253","0.0-32.0","3AWETUDC93EJN74H6Z6G1VST4VOIZG","ACSS93E03ZUGX","3A3KKYU7P33Z3BR9PPFZ5194ZCQMWU","","","img/flower5.png","75","2189.9000000003725","2","1","2","",""
"null","","html-keyboard-response","33","150558","0.0-33.0","3AWETUDC93EJN74H6Z6G1VST4VOIZG","ACSS93E03ZUGX","3A3KKYU7P33Z3BR9PPFZ5194ZCQMWU","","","<img src=""img/flower5.png"" style=""width:200px; border:14px solid green;"">","null","","","","","",""
"2664.5","","image-keyboard-response","34","153228","0.0-34.0","3AWETUDC93EJN74H6Z6G1VST4VOIZG","ACSS93E03ZUGX","3A3KKYU7P33Z3BR9PPFZ5194ZCQMWU","","","img/flower4.png","74","2668.89999999851","1","1","1","",""
"null","","html-keyboard-response","35","153535","0.0-35.0","3AWETUDC93EJN74H6Z6G1VST4VOIZG","ACSS93E03ZUGX","3A3KKYU7P33Z3BR9PPFZ5194ZCQMWU","","","<img src=""img/flower4.png"" style=""width:200px; border:14px solid green;"">","null","","","","","",""
"1992.0999999996275","","image-keyboard-response","36","155531","0.0-36.0","3AWETUDC93EJN74H6Z6G1VST4VOIZG","ACSS93E03ZUGX","3A3KKYU7P33Z3BR9PPFZ5194ZCQMWU","","","img/flower5.png","75","1995","2","1","2","",""
"null","","html-keyboard-response","37","155839","0.0-37.0","3AWETUDC93EJN74H6Z6G1VST4VOIZG","ACSS93E03ZUGX","3A3KKYU7P33Z3BR9PPFZ5194ZCQMWU","","","<img src=""img/flower5.png"" style=""width:200px; border:14px solid green;"">","null","","","","","",""
"2269.2999999988824","","image-keyboard-response","38","158112","0.0-38.0","3AWETUDC93EJN74H6Z6G1VST4VOIZG","ACSS93E03ZUGX","3A3KKYU7P33Z3BR9PPFZ5194ZCQMWU","","","img/flower4.png","74","2272.4000000003725","1","1","1","",""
"null","","html-keyboard-response","39","158422","0.0-39.0","3AWETUDC93EJN74H6Z6G1VST4VOIZG","ACSS93E03ZUGX","3A3KKYU7P33Z3BR9PPFZ5194ZCQMWU","","","<img src=""img/flower4.png"" style=""width:200px; border:14px solid green;"">","null","","","","","",""
"3208.4000000003725","","image-keyboard-response","40","161634","0.0-40.0","3AWETUDC93EJN74H6Z6G1VST4VOIZG","ACSS93E03ZUGX","3A3KKYU7P33Z3BR9PPFZ5194ZCQMWU","","","img/flower4.png","74","3211.5","1","0","1","",""
"null","","html-keyboard-response","41","161942","0.0-41.0","3AWETUDC93EJN74H6Z6G1VST4VOIZG","ACSS93E03ZUGX","3A3KKYU7P33Z3BR9PPFZ5194ZCQMWU","","","<img src=""img/flower4.png"" style=""width:200px;border:14px solid red;"">","null","","","","","",""
"2168","","image-keyboard-response","42","164114","0.0-42.0","3AWETUDC93EJN74H6Z6G1VST4VOIZG","ACSS93E03ZUGX","3A3KKYU7P33Z3BR9PPFZ5194ZCQMWU","","","img/flower6.png","76","2171.5","3","1","3","",""
"null","","html-keyboard-response","43","164422","0.0-43.0","3AWETUDC93EJN74H6Z6G1VST4VOIZG","ACSS93E03ZUGX","3A3KKYU7P33Z3BR9PPFZ5194ZCQMWU","","","<img src=""img/flower6.png"" style=""width:200px; border:14px solid green;"">","null","","","","","",""
"1071.7999999988824","","image-keyboard-response","44","165499","0.0-44.0","3AWETUDC93EJN74H6Z6G1VST4VOIZG","ACSS93E03ZUGX","3A3KKYU7P33Z3BR9PPFZ5194ZCQMWU","","","img/flower5.png","75","1075.7000000011176","2","1","2","",""
"null","","html-keyboard-response","45","165806","0.0-45.0","3AWETUDC93EJN74H6Z6G1VST4VOIZG","ACSS93E03ZUGX","3A3KKYU7P33Z3BR9PPFZ5194ZCQMWU","","","<img src=""img/flower5.png"" style=""width:200px; border:14px solid green;"">","null","","","","","",""
"1057.5999999996275","","image-keyboard-response","46","166868","0.0-46.0","3AWETUDC93EJN74H6Z6G1VST4VOIZG","ACSS93E03ZUGX","3A3KKYU7P33Z3BR9PPFZ5194ZCQMWU","","","img/flower4.png","74","1061","1","0","1","",""
"null","","html-keyboard-response","47","167175","0.0-47.0","3AWETUDC93EJN74H6Z6G1VST4VOIZG","ACSS93E03ZUGX","3A3KKYU7P33Z3BR9PPFZ5194ZCQMWU","","","<img src=""img/flower4.png"" style=""width:200px;border:14px solid red;"">","null","","","","","",""
"796.9000000003725","","image-keyboard-response","48","167976","0.0-48.0","3AWETUDC93EJN74H6Z6G1VST4VOIZG","ACSS93E03ZUGX","3A3KKYU7P33Z3BR9PPFZ5194ZCQMWU","","","img/flower4.png","74","800.3000000007451","1","1","1","",""
"null","","html-keyboard-response","49","168287","0.0-49.0","3AWETUDC93EJN74H6Z6G1VST4VOIZG","ACSS93E03ZUGX","3A3KKYU7P33Z3BR9PPFZ5194ZCQMWU","","","<img src=""img/flower4.png"" style=""width:200px; border:14px solid green;"">","null","","","","","",""
"1279.0999999996275","","image-keyboard-response","50","169571","0.0-50.0","3AWETUDC93EJN74H6Z6G1VST4VOIZG","ACSS93E03ZUGX","3A3KKYU7P33Z3BR9PPFZ5194ZCQMWU","","","img/flower6.png","76","1283.0999999996275","3","1","3","",""
"null","","html-keyboard-response","51","169878","0.0-51.0","3AWETUDC93EJN74H6Z6G1VST4VOIZG","ACSS93E03ZUGX","3A3KKYU7P33Z3BR9PPFZ5194ZCQMWU","","","<img src=""img/flower6.png"" style=""width:200px; border:14px solid green;"">","null","","","","","",""
"3605.800000000745","","image-keyboard-response","52","173488","0.0-52.0","3AWETUDC93EJN74H6Z6G1VST4VOIZG","ACSS93E03ZUGX","3A3KKYU7P33Z3BR9PPFZ5194ZCQMWU","","","img/flower6.png","76","3610","3","1","3","",""
"null","","html-keyboard-response","53","173799","0.0-53.0","3AWETUDC93EJN74H6Z6G1VST4VOIZG","ACSS93E03ZUGX","3A3KKYU7P33Z3BR9PPFZ5194ZCQMWU","","","<img src=""img/flower6.png"" style=""width:200px; border:14px solid green;"">","null","","","","","",""
"2710.199999999255","","image-keyboard-response","54","176513","0.0-54.0","3AWETUDC93EJN74H6Z6G1VST4VOIZG","ACSS93E03ZUGX","3A3KKYU7P33Z3BR9PPFZ5194ZCQMWU","","","img/flower6.png","76","2713.699999999255","3","1","3","",""
"null","","html-keyboard-response","55","176822","0.0-55.0","3AWETUDC93EJN74H6Z6G1VST4VOIZG","ACSS93E03ZUGX","3A3KKYU7P33Z3BR9PPFZ5194ZCQMWU","","","<img src=""img/flower6.png"" style=""width:200px; border:14px solid green;"">","null","","","","","",""
"3093.4000000003725","","image-keyboard-response","56","179920","0.0-56.0","3AWETUDC93EJN74H6Z6G1VST4VOIZG","ACSS93E03ZUGX","3A3KKYU7P33Z3BR9PPFZ5194ZCQMWU","","","img/flower6.png","76","3097","3","1","3","",""
"null","","html-keyboard-response","57","180231","0.0-57.0","3AWETUDC93EJN74H6Z6G1VST4VOIZG","ACSS93E03ZUGX","3A3KKYU7P33Z3BR9PPFZ5194ZCQMWU","","","<img src=""img/flower6.png"" style=""width:200px; border:14px solid green;"">","null","","","","","",""
"1414.5999999996275","","image-keyboard-response","58","181649","0.0-58.0","3AWETUDC93EJN74H6Z6G1VST4VOIZG","ACSS93E03ZUGX","3A3KKYU7P33Z3BR9PPFZ5194ZCQMWU","","","img/flower4.png","74","1418","1","1","1","",""
"null","","html-keyboard-response","59","181958","0.0-59.0","3AWETUDC93EJN74H6Z6G1VST4VOIZG","ACSS93E03ZUGX","3A3KKYU7P33Z3BR9PPFZ5194ZCQMWU","","","<img src=""img/flower4.png"" style=""width:200px; border:14px solid green;"">","null","","","","","",""
"1407.199999999255","","image-keyboard-response","60","183369","0.0-60.0","3AWETUDC93EJN74H6Z6G1VST4VOIZG","ACSS93E03ZUGX","3A3KKYU7P33Z3BR9PPFZ5194ZCQMWU","","","img/flower5.png","75","1410.300000000745","2","0","2","",""
"null","","html-keyboard-response","61","183678","0.0-61.0","3AWETUDC93EJN74H6Z6G1VST4VOIZG","ACSS93E03ZUGX","3A3KKYU7P33Z3BR9PPFZ5194ZCQMWU","","","<img src=""img/flower5.png"" style=""width:200px;border:14px solid red;"">","null","","","","","",""
"590.5","","image-keyboard-response","62","184272","0.0-62.0","3AWETUDC93EJN74H6Z6G1VST4VOIZG","ACSS93E03ZUGX","3A3KKYU7P33Z3BR9PPFZ5194ZCQMWU","","","img/flower5.png","75","593.7000000011176","2","1","2","",""
"null","","html-keyboard-response","63","184580","0.0-63.0","3AWETUDC93EJN74H6Z6G1VST4VOIZG","ACSS93E03ZUGX","3A3KKYU7P33Z3BR9PPFZ5194ZCQMWU","","","<img src=""img/flower5.png"" style=""width:200px; border:14px solid green;"">","null","","","","","",""
"80435.30000000075","","instructions","64","265017","0.0-64.0","3AWETUDC93EJN74H6Z6G1VST4VOIZG","ACSS93E03ZUGX","3A3KKYU7P33Z3BR9PPFZ5194ZCQMWU","","[{""page_index"":0,""viewing_time"":2869.699999999255},{""page_index"":1,""viewing_time"":77564.40000000037}]","","","","","","","",""
"2966.7999999988824","","image-keyboard-response","65","267989","0.0-65.0","3AWETUDC93EJN74H6Z6G1VST4VOIZG","ACSS93E03ZUGX","3A3KKYU7P33Z3BR9PPFZ5194ZCQMWU","","","img/flower5.png","76","2971.199999999255","3","1","2","",""
"null","","html-keyboard-response","66","268295","0.0-66.0","3AWETUDC93EJN74H6Z6G1VST4VOIZG","ACSS93E03ZUGX","3A3KKYU7P33Z3BR9PPFZ5194ZCQMWU","","","<img src=""img/flower5.png"" style=""width:200px; border:14px solid green;"">","null","","","","","",""
"2640.5","","image-keyboard-response","67","270939","0.0-67.0","3AWETUDC93EJN74H6Z6G1VST4VOIZG","ACSS93E03ZUGX","3A3KKYU7P33Z3BR9PPFZ5194ZCQMWU","","","img/flower4.png","74","2643.7000000011176","1","1","1","",""
"null","","html-keyboard-response","68","271247","0.0-68.0","3AWETUDC93EJN74H6Z6G1VST4VOIZG","ACSS93E03ZUGX","3A3KKYU7P33Z3BR9PPFZ5194ZCQMWU","","","<img src=""img/flower4.png"" style=""width:200px; border:14px solid green;"">","null","","","","","",""
"1328.9000000003725","","image-keyboard-response","69","272580","0.0-69.0","3AWETUDC93EJN74H6Z6G1VST4VOIZG","ACSS93E03ZUGX","3A3KKYU7P33Z3BR9PPFZ5194ZCQMWU","","","img/flower6.png","76","1332.199999999255","3","1","3","",""
"null","","html-keyboard-response","70","272886","0.0-70.0","3AWETUDC93EJN74H6Z6G1VST4VOIZG","ACSS93E03ZUGX","3A3KKYU7P33Z3BR9PPFZ5194ZCQMWU","","","<img src=""img/flower6.png"" style=""width:200px; border:14px solid green;"">","null","","","","","",""
"1921.699999999255","","image-keyboard-response","71","274813","0.0-71.0","3AWETUDC93EJN74H6Z6G1VST4VOIZG","ACSS93E03ZUGX","3A3KKYU7P33Z3BR9PPFZ5194ZCQMWU","","","img/flower5.png","75","1925.800000000745","2","1","2","",""
"null","","html-keyboard-response","72","275120","0.0-72.0","3AWETUDC93EJN74H6Z6G1VST4VOIZG","ACSS93E03ZUGX","3A3KKYU7P33Z3BR9PPFZ5194ZCQMWU","","","<img src=""img/flower5.png"" style=""width:200px; border:14px solid green;"">","null","","","","","",""
"1170.5","","image-keyboard-response","73","276295","0.0-73.0","3AWETUDC93EJN74H6Z6G1VST4VOIZG","ACSS93E03ZUGX","3A3KKYU7P33Z3BR9PPFZ5194ZCQMWU","","","img/flower6.png","76","1173.7999999988824","3","1","3","",""
"null","","html-keyboard-response","74","276606","0.0-74.0","3AWETUDC93EJN74H6Z6G1VST4VOIZG","ACSS93E03ZUGX","3A3KKYU7P33Z3BR9PPFZ5194ZCQMWU","","","<img src=""img/flower6.png"" style=""width:200px; border:14px solid green;"">","null","","","","","",""
"1062.7999999988824","","image-keyboard-response","75","277673","0.0-75.0","3AWETUDC93EJN74H6Z6G1VST4VOIZG","ACSS93E03ZUGX","3A3KKYU7P33Z3BR9PPFZ5194ZCQMWU","","","img/flower5.png","75","1066","2","1","2","",""
"null","","html-keyboard-response","76","277982","0.0-76.0","3AWETUDC93EJN74H6Z6G1VST4VOIZG","ACSS93E03ZUGX","3A3KKYU7P33Z3BR9PPFZ5194ZCQMWU","","","<img src=""img/flower5.png"" style=""width:200px; border:14px solid green;"">","null","","","","","",""
"1379.699999999255","","image-keyboard-response","77","279365","0.0-77.0","3AWETUDC93EJN74H6Z6G1VST4VOIZG","ACSS93E03ZUGX","3A3KKYU7P33Z3BR9PPFZ5194ZCQMWU","","","img/flower5.png","75","1383","2","0","2","",""
"null","","html-keyboard-response","78","279670","0.0-78.0","3AWETUDC93EJN74H6Z6G1VST4VOIZG","ACSS93E03ZUGX","3A3KKYU7P33Z3BR9PPFZ5194ZCQMWU","","","<img src=""img/flower5.png"" style=""width:200px;border:14px solid red;"">","null","","","","","",""
"1450.5","","image-keyboard-response","79","281124","0.0-79.0","3AWETUDC93EJN74H6Z6G1VST4VOIZG","ACSS93E03ZUGX","3A3KKYU7P33Z3BR9PPFZ5194ZCQMWU","","","img/flower5.png","75","1453.9000000003725","2","1","2","",""
"null","","html-keyboard-response","80","281430","0.0-80.0","3AWETUDC93EJN74H6Z6G1VST4VOIZG","ACSS93E03ZUGX","3A3KKYU7P33Z3BR9PPFZ5194ZCQMWU","","","<img src=""img/flower5.png"" style=""width:200px; border:14px solid green;"">","null","","","","","",""
"1576","","image-keyboard-response","81","283011","0.0-81.0","3AWETUDC93EJN74H6Z6G1VST4VOIZG","ACSS93E03ZUGX","3A3KKYU7P33Z3BR9PPFZ5194ZCQMWU","","","img/flower4.png","76","1580.300000000745","3","0","1","",""
"null","","html-keyboard-response","82","283318","0.0-82.0","3AWETUDC93EJN74H6Z6G1VST4VOIZG","ACSS93E03ZUGX","3A3KKYU7P33Z3BR9PPFZ5194ZCQMWU","","","<img src=""img/flower4.png"" style=""width:200px;border:14px solid red;"">","null","","","","","",""
"3072","","image-keyboard-response","83","286394","0.0-83.0","3AWETUDC93EJN74H6Z6G1VST4VOIZG","ACSS93E03ZUGX","3A3KKYU7P33Z3BR9PPFZ5194ZCQMWU","","","img/flower5.png","75","3075.2999999988824","2","1","2","",""
"null","","html-keyboard-response","84","286702","0.0-84.0","3AWETUDC93EJN74H6Z6G1VST4VOIZG","ACSS93E03ZUGX","3A3KKYU7P33Z3BR9PPFZ5194ZCQMWU","","","<img src=""img/flower5.png"" style=""width:200px; border:14px solid green;"">","null","","","","","",""
"1805.5","","image-keyboard-response","85","288511","0.0-85.0","3AWETUDC93EJN74H6Z6G1VST4VOIZG","ACSS93E03ZUGX","3A3KKYU7P33Z3BR9PPFZ5194ZCQMWU","","","img/flower4.png","75","1808.2000000011176","2","0","1","",""
"null","","html-keyboard-response","86","288822","0.0-86.0","3AWETUDC93EJN74H6Z6G1VST4VOIZG","ACSS93E03ZUGX","3A3KKYU7P33Z3BR9PPFZ5194ZCQMWU","","","<img src=""img/flower4.png"" style=""width:200px;border:14px solid red;"">","null","","","","","",""
"3887.5","","image-keyboard-response","87","292714","0.0-87.0","3AWETUDC93EJN74H6Z6G1VST4VOIZG","ACSS93E03ZUGX","3A3KKYU7P33Z3BR9PPFZ5194ZCQMWU","","","img/flower5.png","76","3891.300000000745","3","1","2","",""
"null","","html-keyboard-response","88","293023","0.0-88.0","3AWETUDC93EJN74H6Z6G1VST4VOIZG","ACSS93E03ZUGX","3A3KKYU7P33Z3BR9PPFZ5194ZCQMWU","","","<img src=""img/flower5.png"" style=""width:200px; border:14px solid green;"">","null","","","","","",""
"3069.5","","image-keyboard-response","89","296097","0.0-89.0","3AWETUDC93EJN74H6Z6G1VST4VOIZG","ACSS93E03ZUGX","3A3KKYU7P33Z3BR9PPFZ5194ZCQMWU","","","img/flower4.png","75","3072.9000000003725","2","1","1","",""
"null","","html-keyboard-response","90","296406","0.0-90.0","3AWETUDC93EJN74H6Z6G1VST4VOIZG","ACSS93E03ZUGX","3A3KKYU7P33Z3BR9PPFZ5194ZCQMWU","","","<img src=""img/flower4.png"" style=""width:200px; border:14px solid green;"">","null","","","","","",""
"2824","","image-keyboard-response","91","299234","0.0-91.0","3AWETUDC93EJN74H6Z6G1VST4VOIZG","ACSS93E03ZUGX","3A3KKYU7P33Z3BR9PPFZ5194ZCQMWU","","","img/flower4.png","75","2827.2999999988824","2","1","1","",""
"null","","html-keyboard-response","92","299543","0.0-92.0","3AWETUDC93EJN74H6Z6G1VST4VOIZG","ACSS93E03ZUGX","3A3KKYU7P33Z3BR9PPFZ5194ZCQMWU","","","<img src=""img/flower4.png"" style=""width:200px; border:14px solid green;"">","null","","","","","",""
"2175.199999999255","","image-keyboard-response","93","301722","0.0-93.0","3AWETUDC93EJN74H6Z6G1VST4VOIZG","ACSS93E03ZUGX","3A3KKYU7P33Z3BR9PPFZ5194ZCQMWU","","","img/flower5.png","75","2178.5","2","1","2","",""
"null","","html-keyboard-response","94","302030","0.0-94.0","3AWETUDC93EJN74H6Z6G1VST4VOIZG","ACSS93E03ZUGX","3A3KKYU7P33Z3BR9PPFZ5194ZCQMWU","","","<img src=""img/flower5.png"" style=""width:200px; border:14px solid green;"">","null","","","","","",""
"1661.0999999996275","","image-keyboard-response","95","303695","0.0-95.0","3AWETUDC93EJN74H6Z6G1VST4VOIZG","ACSS93E03ZUGX","3A3KKYU7P33Z3BR9PPFZ5194ZCQMWU","","","img/flower6.png","76","1664.4000000003725","3","1","3","",""
"null","","html-keyboard-response","96","304007","0.0-96.0","3AWETUDC93EJN74H6Z6G1VST4VOIZG","ACSS93E03ZUGX","3A3KKYU7P33Z3BR9PPFZ5194ZCQMWU","","","<img src=""img/flower6.png"" style=""width:200px; border:14px solid green;"">","null","","","","","",""
"1807.199999999255","","image-keyboard-response","97","305819","0.0-97.0","3AWETUDC93EJN74H6Z6G1VST4VOIZG","ACSS93E03ZUGX","3A3KKYU7P33Z3BR9PPFZ5194ZCQMWU","","","img/flower4.png","75","1811","2","1","1","",""
"null","","html-keyboard-response","98","306126","0.0-98.0","3AWETUDC93EJN74H6Z6G1VST4VOIZG","ACSS93E03ZUGX","3A3KKYU7P33Z3BR9PPFZ5194ZCQMWU","","","<img src=""img/flower4.png"" style=""width:200px; border:14px solid green;"">","null","","","","","",""
"1733.300000000745","","image-keyboard-response","99","307864","0.0-99.0","3AWETUDC93EJN74H6Z6G1VST4VOIZG","ACSS93E03ZUGX","3A3KKYU7P33Z3BR9PPFZ5194ZCQMWU","","","img/flower6.png","74","1736.4000000003725","1","1","3","",""
"null","","html-keyboard-response","100","308174","0.0-100.0","3AWETUDC93EJN74H6Z6G1VST4VOIZG","ACSS93E03ZUGX","3A3KKYU7P33Z3BR9PPFZ5194ZCQMWU","","","<img src=""img/flower6.png"" style=""width:200px; border:14px solid green;"">","null","","","","","",""
"1818.9000000003725","","image-keyboard-response","101","309997","0.0-101.0","3AWETUDC93EJN74H6Z6G1VST4VOIZG","ACSS93E03ZUGX","3A3KKYU7P33Z3BR9PPFZ5194ZCQMWU","","","img/flower4.png","74","1822.2999999988824","1","0","1","",""
"null","","html-keyboard-response","102","310302","0.0-102.0","3AWETUDC93EJN74H6Z6G1VST4VOIZG","ACSS93E03ZUGX","3A3KKYU7P33Z3BR9PPFZ5194ZCQMWU","","","<img src=""img/flower4.png"" style=""width:200px;border:14px solid red;"">","null","","","","","",""
"1295.9000000003725","","image-keyboard-response","103","311603","0.0-103.0","3AWETUDC93EJN74H6Z6G1VST4VOIZG","ACSS93E03ZUGX","3A3KKYU7P33Z3BR9PPFZ5194ZCQMWU","","","img/flower4.png","74","1300.5","1","1","1","",""
"null","","html-keyboard-response","104","311911","0.0-104.0","3AWETUDC93EJN74H6Z6G1VST4VOIZG","ACSS93E03ZUGX","3A3KKYU7P33Z3BR9PPFZ5194ZCQMWU","","","<img src=""img/flower4.png"" style=""width:200px; border:14px solid green;"">","null","","","","","",""
"961.0999999996275","","image-keyboard-response","105","312876","0.0-105.0","3AWETUDC93EJN74H6Z6G1VST4VOIZG","ACSS93E03ZUGX","3A3KKYU7P33Z3BR9PPFZ5194ZCQMWU","","","img/flower4.png","75","964.9000000003725","2","1","1","",""
"null","","html-keyboard-response","106","313183","0.0-106.0","3AWETUDC93EJN74H6Z6G1VST4VOIZG","ACSS93E03ZUGX","3A3KKYU7P33Z3BR9PPFZ5194ZCQMWU","","","<img src=""img/flower4.png"" style=""width:200px; border:14px solid green;"">","null","","","","","",""
"2116.300000000745","","image-keyboard-response","107","315303","0.0-107.0","3AWETUDC93EJN74H6Z6G1VST4VOIZG","ACSS93E03ZUGX","3A3KKYU7P33Z3BR9PPFZ5194ZCQMWU","","","img/flower5.png","75","2119.7000000011176","2","1","2","",""
"null","","html-keyboard-response","108","315615","0.0-108.0","3AWETUDC93EJN74H6Z6G1VST4VOIZG","ACSS93E03ZUGX","3A3KKYU7P33Z3BR9PPFZ5194ZCQMWU","","","<img src=""img/flower5.png"" style=""width:200px; border:14px solid green;"">","null","","","","","",""
"1284.7999999988824","","image-keyboard-response","109","316904","0.0-109.0","3AWETUDC93EJN74H6Z6G1VST4VOIZG","ACSS93E03ZUGX","3A3KKYU7P33Z3BR9PPFZ5194ZCQMWU","","","img/flower6.png","74","1288.5","1","1","3","",""
"null","","html-keyboard-response","110","317215","0.0-110.0","3AWETUDC93EJN74H6Z6G1VST4VOIZG","ACSS93E03ZUGX","3A3KKYU7P33Z3BR9PPFZ5194ZCQMWU","","","<img src=""img/flower6.png"" style=""width:200px; border:14px solid green;"">","null","","","","","",""
"1375","","image-keyboard-response","111","318594","0.0-111.0","3AWETUDC93EJN74H6Z6G1VST4VOIZG","ACSS93E03ZUGX","3A3KKYU7P33Z3BR9PPFZ5194ZCQMWU","","","img/flower4.png","75","1378.9000000003725","2","1","1","",""
"null","","html-keyboard-response","112","318903","0.0-112.0","3AWETUDC93EJN74H6Z6G1VST4VOIZG","ACSS93E03ZUGX","3A3KKYU7P33Z3BR9PPFZ5194ZCQMWU","","","<img src=""img/flower4.png"" style=""width:200px; border:14px solid green;"">","null","","","","","",""
"1198.7999999988824","","image-keyboard-response","113","320106","0.0-113.0","3AWETUDC93EJN74H6Z6G1VST4VOIZG","ACSS93E03ZUGX","3A3KKYU7P33Z3BR9PPFZ5194ZCQMWU","","","img/flower6.png","76","1202.4000000003725","3","0","3","",""
"null","","html-keyboard-response","114","320410","0.0-114.0","3AWETUDC93EJN74H6Z6G1VST4VOIZG","ACSS93E03ZUGX","3A3KKYU7P33Z3BR9PPFZ5194ZCQMWU","","","<img src=""img/flower6.png"" style=""width:200px;border:14px solid red;"">","null","","","","","",""
"1132.300000000745","","image-keyboard-response","115","321547","0.0-115.0","3AWETUDC93EJN74H6Z6G1VST4VOIZG","ACSS93E03ZUGX","3A3KKYU7P33Z3BR9PPFZ5194ZCQMWU","","","img/flower6.png","74","1135.6000000014901","1","1","3","",""
"null","","html-keyboard-response","116","321855","0.0-116.0","3AWETUDC93EJN74H6Z6G1VST4VOIZG","ACSS93E03ZUGX","3A3KKYU7P33Z3BR9PPFZ5194ZCQMWU","","","<img src=""img/flower6.png"" style=""width:200px; border:14px solid green;"">","null","","","","","",""
"1186.5999999996275","","image-keyboard-response","117","323046","0.0-117.0","3AWETUDC93EJN74H6Z6G1VST4VOIZG","ACSS93E03ZUGX","3A3KKYU7P33Z3BR9PPFZ5194ZCQMWU","","","img/flower6.png","76","1190.199999999255","3","0","3","",""
"null","","html-keyboard-response","118","323359","0.0-118.0","3AWETUDC93EJN74H6Z6G1VST4VOIZG","ACSS93E03ZUGX","3A3KKYU7P33Z3BR9PPFZ5194ZCQMWU","","","<img src=""img/flower6.png"" style=""width:200px;border:14px solid red;"">","null","","","","","",""
"2039.0999999996275","","image-keyboard-response","119","325402","0.0-119.0","3AWETUDC93EJN74H6Z6G1VST4VOIZG","ACSS93E03ZUGX","3A3KKYU7P33Z3BR9PPFZ5194ZCQMWU","","","img/flower5.png","75","2043.199999999255","2","1","2","",""
"null","","html-keyboard-response","120","325711","0.0-120.0","3AWETUDC93EJN74H6Z6G1VST4VOIZG","ACSS93E03ZUGX","3A3KKYU7P33Z3BR9PPFZ5194ZCQMWU","","","<img src=""img/flower5.png"" style=""width:200px; border:14px solid green;"">","null","","","","","",""
"1303.5","","image-keyboard-response","121","327018","0.0-121.0","3AWETUDC93EJN74H6Z6G1VST4VOIZG","ACSS93E03ZUGX","3A3KKYU7P33Z3BR9PPFZ5194ZCQMWU","","","img/flower6.png","76","1307.199999999255","3","1","3","",""
"null","","html-keyboard-response","122","327327","0.0-122.0","3AWETUDC93EJN74H6Z6G1VST4VOIZG","ACSS93E03ZUGX","3A3KKYU7P33Z3BR9PPFZ5194ZCQMWU","","","<img src=""img/flower6.png"" style=""width:200px; border:14px solid green;"">","null","","","","","",""
"2455.0999999996275","","image-keyboard-response","123","329786","0.0-123.0","3AWETUDC93EJN74H6Z6G1VST4VOIZG","ACSS93E03ZUGX","3A3KKYU7P33Z3BR9PPFZ5194ZCQMWU","","","img/flower6.png","74","2458.5","1","1","3","",""
"null","","html-keyboard-response","124","330095","0.0-124.0","3AWETUDC93EJN74H6Z6G1VST4VOIZG","ACSS93E03ZUGX","3A3KKYU7P33Z3BR9PPFZ5194ZCQMWU","","","<img src=""img/flower6.png"" style=""width:200px; border:14px solid green;"">","null","","","","","",""
"2729.7000000011176","","instructions","125","332827","0.0-125.0","3AWETUDC93EJN74H6Z6G1VST4VOIZG","ACSS93E03ZUGX","3A3KKYU7P33Z3BR9PPFZ5194ZCQMWU","","[{""page_index"":0,""viewing_time"":2728.5}]","","","","","","","",""
"2533.199999999255","","image-keyboard-response","126","335365","0.0-126.0","3AWETUDC93EJN74H6Z6G1VST4VOIZG","ACSS93E03ZUGX","3A3KKYU7P33Z3BR9PPFZ5194ZCQMWU","","","img/flower3.png","74","2537.5","1","1","1","1,1,0,0,1,1,1,0,1",""
"null","","html-keyboard-response","127","335678","0.0-127.0","3AWETUDC93EJN74H6Z6G1VST4VOIZG","ACSS93E03ZUGX","3A3KKYU7P33Z3BR9PPFZ5194ZCQMWU","","","<img src=""img/flower3.png"" style=""width:200px; border:14px solid green;"">","null","","","","","",""
"759.0999999996275","","image-keyboard-response","128","336442","0.0-128.0","3AWETUDC93EJN74H6Z6G1VST4VOIZG","ACSS93E03ZUGX","3A3KKYU7P33Z3BR9PPFZ5194ZCQMWU","","","img/flower3.png","74","762.9000000003725","1","1","1","1,1,0,0,1,1,1,0,1",""
"null","","html-keyboard-response","129","336752","0.0-129.0","3AWETUDC93EJN74H6Z6G1VST4VOIZG","ACSS93E03ZUGX","3A3KKYU7P33Z3BR9PPFZ5194ZCQMWU","","","<img src=""img/flower3.png"" style=""width:200px; border:14px solid green;"">","null","","","","","",""
"1183.9000000003725","","image-keyboard-response","130","337941","0.0-130.0","3AWETUDC93EJN74H6Z6G1VST4VOIZG","ACSS93E03ZUGX","3A3KKYU7P33Z3BR9PPFZ5194ZCQMWU","","","img/flower5.png","75","1188.2999999988824","2","1","2","1,1,0,0,1,1,1,0,1",""
"null","","html-keyboard-response","131","338247","0.0-131.0","3AWETUDC93EJN74H6Z6G1VST4VOIZG","ACSS93E03ZUGX","3A3KKYU7P33Z3BR9PPFZ5194ZCQMWU","","","<img src=""img/flower5.png"" style=""width:200px; border:14px solid green;"">","null","","","","","",""
"1281.3999999985099","","image-keyboard-response","132","339532","0.0-132.0","3AWETUDC93EJN74H6Z6G1VST4VOIZG","ACSS93E03ZUGX","3A3KKYU7P33Z3BR9PPFZ5194ZCQMWU","","","img/flower3.png","74","1284.7999999988824","1","1","1","1,1,0,0,1,1,1,0,1",""
"null","","html-keyboard-response","133","339838","0.0-133.0","3AWETUDC93EJN74H6Z6G1VST4VOIZG","ACSS93E03ZUGX","3A3KKYU7P33Z3BR9PPFZ5194ZCQMWU","","","<img src=""img/flower3.png"" style=""width:200px; border:14px solid green;"">","null","","","","","",""
"1095.800000000745","","image-keyboard-response","134","340938","0.0-134.0","3AWETUDC93EJN74H6Z6G1VST4VOIZG","ACSS93E03ZUGX","3A3KKYU7P33Z3BR9PPFZ5194ZCQMWU","","","img/flower3.png","74","1099.0999999996275","1","1","1","1,1,0,0,1,1,1,0,1",""
"null","","html-keyboard-response","135","341246","0.0-135.0","3AWETUDC93EJN74H6Z6G1VST4VOIZG","ACSS93E03ZUGX","3A3KKYU7P33Z3BR9PPFZ5194ZCQMWU","","","<img src=""img/flower3.png"" style=""width:200px; border:14px solid green;"">","null","","","","","",""
"2066.4000000003725","","image-keyboard-response","136","343316","0.0-136.0","3AWETUDC93EJN74H6Z6G1VST4VOIZG","ACSS93E03ZUGX","3A3KKYU7P33Z3BR9PPFZ5194ZCQMWU","","","img/flower3.png","74","2069.9000000003725","1","1","1","1,1,0,0,1,1,1,0,1",""
"null","","html-keyboard-response","137","343623","0.0-137.0","3AWETUDC93EJN74H6Z6G1VST4VOIZG","ACSS93E03ZUGX","3A3KKYU7P33Z3BR9PPFZ5194ZCQMWU","","","<img src=""img/flower3.png"" style=""width:200px; border:14px solid green;"">","null","","","","","",""
"793.2000000011176","","image-keyboard-response","138","344424","0.0-138.0","3AWETUDC93EJN74H6Z6G1VST4VOIZG","ACSS93E03ZUGX","3A3KKYU7P33Z3BR9PPFZ5194ZCQMWU","","","img/flower4.png","75","796.5","2","0","3","1,1,0,0,1,1,1,0,1",""
"null","","html-keyboard-response","139","344734","0.0-139.0","3AWETUDC93EJN74H6Z6G1VST4VOIZG","ACSS93E03ZUGX","3A3KKYU7P33Z3BR9PPFZ5194ZCQMWU","","","<img src=""img/flower4.png"" style=""width:200px;border:14px solid red;"">","null","","","","","",""
"788.1999999992549","","image-keyboard-response","140","345526","0.0-140.0","3AWETUDC93EJN74H6Z6G1VST4VOIZG","ACSS93E03ZUGX","3A3KKYU7P33Z3BR9PPFZ5194ZCQMWU","","","img/flower3.png","74","791.6999999992549","1","1","1","1,1,0,0,1,1,1,0,1",""
"null","","html-keyboard-response","141","345838","0.0-141.0","3AWETUDC93EJN74H6Z6G1VST4VOIZG","ACSS93E03ZUGX","3A3KKYU7P33Z3BR9PPFZ5194ZCQMWU","","","<img src=""img/flower3.png"" style=""width:200px; border:14px solid green;"">","null","","","","","",""
"1724","","image-keyboard-response","142","347566","0.0-142.0","3AWETUDC93EJN74H6Z6G1VST4VOIZG","ACSS93E03ZUGX","3A3KKYU7P33Z3BR9PPFZ5194ZCQMWU","","","img/flower3.png","74","1727.199999999255","1","1","1","1,1,0,0,1,1,1,0,1",""
"null","","html-keyboard-response","143","347879","0.0-143.0","3AWETUDC93EJN74H6Z6G1VST4VOIZG","ACSS93E03ZUGX","3A3KKYU7P33Z3BR9PPFZ5194ZCQMWU","","","<img src=""img/flower3.png"" style=""width:200px; border:14px solid green;"">","null","","","","","",""
"734.7000000011176","","image-keyboard-response","144","348618","0.0-144.0","3AWETUDC93EJN74H6Z6G1VST4VOIZG","ACSS93E03ZUGX","3A3KKYU7P33Z3BR9PPFZ5194ZCQMWU","","","img/flower5.png","76","738.6999999992549","3","1","2","1,1,0,0,1,1,1,0,1",""
"null","","html-keyboard-response","145","348926","0.0-145.0","3AWETUDC93EJN74H6Z6G1VST4VOIZG","ACSS93E03ZUGX","3A3KKYU7P33Z3BR9PPFZ5194ZCQMWU","","","<img src=""img/flower5.png"" style=""width:200px; border:14px solid green;"">","null","","","","","",""
"1765.5","","image-keyboard-response","146","350695","0.0-146.0","3AWETUDC93EJN74H6Z6G1VST4VOIZG","ACSS93E03ZUGX","3A3KKYU7P33Z3BR9PPFZ5194ZCQMWU","","","img/flower5.png","76","1768.5","3","1","2","1,1,0,0,1,1,1,0,1",""
"null","","html-keyboard-response","147","351007","0.0-147.0","3AWETUDC93EJN74H6Z6G1VST4VOIZG","ACSS93E03ZUGX","3A3KKYU7P33Z3BR9PPFZ5194ZCQMWU","","","<img src=""img/flower5.png"" style=""width:200px; border:14px solid green;"">","null","","","","","",""
"1206.9000000003725","","image-keyboard-response","148","352218","0.0-148.0","3AWETUDC93EJN74H6Z6G1VST4VOIZG","ACSS93E03ZUGX","3A3KKYU7P33Z3BR9PPFZ5194ZCQMWU","","","img/flower4.png","74","1210.2999999988824","1","1","3","1,1,0,0,1,1,1,0,1",""
"null","","html-keyboard-response","149","352527","0.0-149.0","3AWETUDC93EJN74H6Z6G1VST4VOIZG","ACSS93E03ZUGX","3A3KKYU7P33Z3BR9PPFZ5194ZCQMWU","","","<img src=""img/flower4.png"" style=""width:200px; border:14px solid green;"">","null","","","","","",""
"1492.300000000745","","image-keyboard-response","150","354023","0.0-150.0","3AWETUDC93EJN74H6Z6G1VST4VOIZG","ACSS93E03ZUGX","3A3KKYU7P33Z3BR9PPFZ5194ZCQMWU","","","img/flower3.png","74","1495.7000000011176","1","1","1","1,1,0,0,1,1,1,0,1",""
"null","","html-keyboard-response","151","354335","0.0-151.0","3AWETUDC93EJN74H6Z6G1VST4VOIZG","ACSS93E03ZUGX","3A3KKYU7P33Z3BR9PPFZ5194ZCQMWU","","","<img src=""img/flower3.png"" style=""width:200px; border:14px solid green;"">","null","","","","","",""
"960.2000000011176","","image-keyboard-response","152","355300","0.0-152.0","3AWETUDC93EJN74H6Z6G1VST4VOIZG","ACSS93E03ZUGX","3A3KKYU7P33Z3BR9PPFZ5194ZCQMWU","","","img/flower5.png","75","964","2","1","2","1,1,0,0,1,1,1,0,1",""
"null","","html-keyboard-response","153","355607","0.0-153.0","3AWETUDC93EJN74H6Z6G1VST4VOIZG","ACSS93E03ZUGX","3A3KKYU7P33Z3BR9PPFZ5194ZCQMWU","","","<img src=""img/flower5.png"" style=""width:200px; border:14px solid green;"">","null","","","","","",""
"959.1999999992549","","image-keyboard-response","154","356570","0.0-154.0","3AWETUDC93EJN74H6Z6G1VST4VOIZG","ACSS93E03ZUGX","3A3KKYU7P33Z3BR9PPFZ5194ZCQMWU","","","img/flower4.png","74","962.9000000003725","1","1","3","1,1,0,0,1,1,1,0,1",""
"null","","html-keyboard-response","155","356878","0.0-155.0","3AWETUDC93EJN74H6Z6G1VST4VOIZG","ACSS93E03ZUGX","3A3KKYU7P33Z3BR9PPFZ5194ZCQMWU","","","<img src=""img/flower4.png"" style=""width:200px; border:14px solid green;"">","null","","","","","",""
"912.8000000007451","","image-keyboard-response","156","357795","0.0-156.0","3AWETUDC93EJN74H6Z6G1VST4VOIZG","ACSS93E03ZUGX","3A3KKYU7P33Z3BR9PPFZ5194ZCQMWU","","","img/flower4.png","74","916","1","1","3","1,1,0,0,1,1,1,0,1",""
"null","","html-keyboard-response","157","358103","0.0-157.0","3AWETUDC93EJN74H6Z6G1VST4VOIZG","ACSS93E03ZUGX","3A3KKYU7P33Z3BR9PPFZ5194ZCQMWU","","","<img src=""img/flower4.png"" style=""width:200px; border:14px solid green;"">","null","","","","","",""
"1670.1000000014901","","image-keyboard-response","158","359777","0.0-158.0","3AWETUDC93EJN74H6Z6G1VST4VOIZG","ACSS93E03ZUGX","3A3KKYU7P33Z3BR9PPFZ5194ZCQMWU","","","img/flower3.png","74","1673.5","1","1","1","1,1,0,0,1,1,1,0,1",""
"null","","html-keyboard-response","159","360086","0.0-159.0","3AWETUDC93EJN74H6Z6G1VST4VOIZG","ACSS93E03ZUGX","3A3KKYU7P33Z3BR9PPFZ5194ZCQMWU","","","<img src=""img/flower3.png"" style=""width:200px; border:14px solid green;"">","null","","","","","",""
"1219.0999999996275","","image-keyboard-response","160","361310","0.0-160.0","3AWETUDC93EJN74H6Z6G1VST4VOIZG","ACSS93E03ZUGX","3A3KKYU7P33Z3BR9PPFZ5194ZCQMWU","","","img/flower5.png","75","1222.8999999985099","2","1","2","1,1,0,0,1,1,1,0,1",""
"null","","html-keyboard-response","161","361622","0.0-161.0","3AWETUDC93EJN74H6Z6G1VST4VOIZG","ACSS93E03ZUGX","3A3KKYU7P33Z3BR9PPFZ5194ZCQMWU","","","<img src=""img/flower5.png"" style=""width:200px; border:14px solid green;"">","null","","","","","",""
"825","","image-keyboard-response","162","362452","0.0-162.0","3AWETUDC93EJN74H6Z6G1VST4VOIZG","ACSS93E03ZUGX","3A3KKYU7P33Z3BR9PPFZ5194ZCQMWU","","","img/flower4.png","74","828.7000000011176","1","1","3","1,1,0,0,1,1,1,0,1",""
"null","","html-keyboard-response","163","362760","0.0-163.0","3AWETUDC93EJN74H6Z6G1VST4VOIZG","ACSS93E03ZUGX","3A3KKYU7P33Z3BR9PPFZ5194ZCQMWU","","","<img src=""img/flower4.png"" style=""width:200px; border:14px solid green;"">","null","","","","","",""
"1159.800000000745","","image-keyboard-response","164","363925","0.0-164.0","3AWETUDC93EJN74H6Z6G1VST4VOIZG","ACSS93E03ZUGX","3A3KKYU7P33Z3BR9PPFZ5194ZCQMWU","","","img/flower5.png","75","1164.199999999255","2","1","2","1,1,0,0,1,1,1,0,1",""
"null","","html-keyboard-response","165","364231","0.0-165.0","3AWETUDC93EJN74H6Z6G1VST4VOIZG","ACSS93E03ZUGX","3A3KKYU7P33Z3BR9PPFZ5194ZCQMWU","","","<img src=""img/flower5.png"" style=""width:200px; border:14px solid green;"">","null","","","","","",""
"720.5","","image-keyboard-response","166","364956","0.0-166.0","3AWETUDC93EJN74H6Z6G1VST4VOIZG","ACSS93E03ZUGX","3A3KKYU7P33Z3BR9PPFZ5194ZCQMWU","","","img/flower3.png","74","723.9000000003725","1","1","1","1,1,0,0,1,1,1,0,1",""
"null","","html-keyboard-response","167","365263","0.0-167.0","3AWETUDC93EJN74H6Z6G1VST4VOIZG","ACSS93E03ZUGX","3A3KKYU7P33Z3BR9PPFZ5194ZCQMWU","","","<img src=""img/flower3.png"" style=""width:200px; border:14px solid green;"">","null","","","","","",""
"822.6999999992549","","image-keyboard-response","168","366090","0.0-168.0","3AWETUDC93EJN74H6Z6G1VST4VOIZG","ACSS93E03ZUGX","3A3KKYU7P33Z3BR9PPFZ5194ZCQMWU","","","img/flower4.png","74","825.8999999985099","1","1","3","1,1,0,0,1,1,1,0,1",""
"null","","html-keyboard-response","169","366398","0.0-169.0","3AWETUDC93EJN74H6Z6G1VST4VOIZG","ACSS93E03ZUGX","3A3KKYU7P33Z3BR9PPFZ5194ZCQMWU","","","<img src=""img/flower4.png"" style=""width:200px; border:14px solid green;"">","null","","","","","",""
"2215.2999999988824","","image-keyboard-response","170","368617","0.0-170.0","3AWETUDC93EJN74H6Z6G1VST4VOIZG","ACSS93E03ZUGX","3A3KKYU7P33Z3BR9PPFZ5194ZCQMWU","","","img/flower5.png","76","2218.5","3","1","2","1,1,0,0,1,1,1,0,1",""
"null","","html-keyboard-response","171","368927","0.0-171.0","3AWETUDC93EJN74H6Z6G1VST4VOIZG","ACSS93E03ZUGX","3A3KKYU7P33Z3BR9PPFZ5194ZCQMWU","","","<img src=""img/flower5.png"" style=""width:200px; border:14px solid green;"">","null","","","","","",""
"1353.3999999985099","","image-keyboard-response","172","370286","0.0-172.0","3AWETUDC93EJN74H6Z6G1VST4VOIZG","ACSS93E03ZUGX","3A3KKYU7P33Z3BR9PPFZ5194ZCQMWU","","","img/flower5.png","76","1358.800000000745","3","1","2","1,1,0,0,1,1,1,0,1",""
"null","","html-keyboard-response","173","370599","0.0-173.0","3AWETUDC93EJN74H6Z6G1VST4VOIZG","ACSS93E03ZUGX","3A3KKYU7P33Z3BR9PPFZ5194ZCQMWU","","","<img src=""img/flower5.png"" style=""width:200px; border:14px solid green;"">","null","","","","","",""
"985.5","","image-keyboard-response","174","371589","0.0-174.0","3AWETUDC93EJN74H6Z6G1VST4VOIZG","ACSS93E03ZUGX","3A3KKYU7P33Z3BR9PPFZ5194ZCQMWU","","","img/flower4.png","74","988.7999999988824","1","1","3","1,1,0,0,1,1,1,0,1",""
"null","","html-keyboard-response","175","371896","0.0-175.0","3AWETUDC93EJN74H6Z6G1VST4VOIZG","ACSS93E03ZUGX","3A3KKYU7P33Z3BR9PPFZ5194ZCQMWU","","","<img src=""img/flower4.png"" style=""width:200px; border:14px solid green;"">","null","","","","","",""
"896.5","","image-keyboard-response","176","372800","0.0-176.0","3AWETUDC93EJN74H6Z6G1VST4VOIZG","ACSS93E03ZUGX","3A3KKYU7P33Z3BR9PPFZ5194ZCQMWU","","","img/flower5.png","76","900.5999999996275","3","1","2","1,1,0,0,1,1,1,0,1",""
"null","","html-keyboard-response","177","373111","0.0-177.0","3AWETUDC93EJN74H6Z6G1VST4VOIZG","ACSS93E03ZUGX","3A3KKYU7P33Z3BR9PPFZ5194ZCQMWU","","","<img src=""img/flower5.png"" style=""width:200px; border:14px solid green;"">","null","","","","","",""
"920","","image-keyboard-response","178","374035","0.0-178.0","3AWETUDC93EJN74H6Z6G1VST4VOIZG","ACSS93E03ZUGX","3A3KKYU7P33Z3BR9PPFZ5194ZCQMWU","","","img/flower3.png","74","923.8000000007451","1","1","1","1,1,0,0,1,1,1,0,1",""
"null","","html-keyboard-response","179","374343","0.0-179.0","3AWETUDC93EJN74H6Z6G1VST4VOIZG","ACSS93E03ZUGX","3A3KKYU7P33Z3BR9PPFZ5194ZCQMWU","","","<img src=""img/flower3.png"" style=""width:200px; border:14px solid green;"">","null","","","","","",""
"782.5999999996275","","image-keyboard-response","180","375130","0.0-180.0","3AWETUDC93EJN74H6Z6G1VST4VOIZG","ACSS93E03ZUGX","3A3KKYU7P33Z3BR9PPFZ5194ZCQMWU","","","img/flower4.png","74","786","1","1","3","1,1,0,0,1,1,1,0,1",""
"null","","html-keyboard-response","181","375441","0.0-181.0","3AWETUDC93EJN74H6Z6G1VST4VOIZG","ACSS93E03ZUGX","3A3KKYU7P33Z3BR9PPFZ5194ZCQMWU","","","<img src=""img/flower4.png"" style=""width:200px; border:14px solid green;"">","null","","","","","",""
"897","","image-keyboard-response","182","376342","0.0-182.0","3AWETUDC93EJN74H6Z6G1VST4VOIZG","ACSS93E03ZUGX","3A3KKYU7P33Z3BR9PPFZ5194ZCQMWU","","","img/flower4.png","74","900.5999999996275","1","1","3","1,1,0,0,1,1,1,0,1",""
"null","","html-keyboard-response","183","376655","0.0-183.0","3AWETUDC93EJN74H6Z6G1VST4VOIZG","ACSS93E03ZUGX","3A3KKYU7P33Z3BR9PPFZ5194ZCQMWU","","","<img src=""img/flower4.png"" style=""width:200px; border:14px solid green;"">","null","","","","","",""
"973.0999999996275","","image-keyboard-response","184","377632","0.0-184.0","3AWETUDC93EJN74H6Z6G1VST4VOIZG","ACSS93E03ZUGX","3A3KKYU7P33Z3BR9PPFZ5194ZCQMWU","","","img/flower4.png","74","976.5","1","1","3","1,1,0,0,1,1,1,0,1",""
"null","","html-keyboard-response","185","377942","0.0-185.0","3AWETUDC93EJN74H6Z6G1VST4VOIZG","ACSS93E03ZUGX","3A3KKYU7P33Z3BR9PPFZ5194ZCQMWU","","","<img src=""img/flower4.png"" style=""width:200px; border:14px solid green;"">","null","","","","","",""
"703.4000000003725","","image-keyboard-response","186","378650","0.0-186.0","3AWETUDC93EJN74H6Z6G1VST4VOIZG","ACSS93E03ZUGX","3A3KKYU7P33Z3BR9PPFZ5194ZCQMWU","","","img/flower5.png","74","706.5","1","0","2","1,1,0,0,1,1,1,0,1",""
"null","","html-keyboard-response","187","378959","0.0-187.0","3AWETUDC93EJN74H6Z6G1VST4VOIZG","ACSS93E03ZUGX","3A3KKYU7P33Z3BR9PPFZ5194ZCQMWU","","","<img src=""img/flower5.png"" style=""width:200px;border:14px solid red;"">","null","","","","","",""
"924","","image-keyboard-response","188","379887","0.0-188.0","3AWETUDC93EJN74H6Z6G1VST4VOIZG","ACSS93E03ZUGX","3A3KKYU7P33Z3BR9PPFZ5194ZCQMWU","","","img/flower4.png","74","927.4000000003725","1","1","3","1,1,0,0,1,1,1,0,1",""
"null","","html-keyboard-response","189","380199","0.0-189.0","3AWETUDC93EJN74H6Z6G1VST4VOIZG","ACSS93E03ZUGX","3A3KKYU7P33Z3BR9PPFZ5194ZCQMWU","","","<img src=""img/flower4.png"" style=""width:200px; border:14px solid green;"">","null","","","","","",""
"1034.5","","image-keyboard-response","190","381238","0.0-190.0","3AWETUDC93EJN74H6Z6G1VST4VOIZG","ACSS93E03ZUGX","3A3KKYU7P33Z3BR9PPFZ5194ZCQMWU","","","img/flower3.png","74","1038","1","1","1","1,1,0,0,1,1,1,0,1",""
"null","","html-keyboard-response","191","381542","0.0-191.0","3AWETUDC93EJN74H6Z6G1VST4VOIZG","ACSS93E03ZUGX","3A3KKYU7P33Z3BR9PPFZ5194ZCQMWU","","","<img src=""img/flower3.png"" style=""width:200px; border:14px solid green;"">","null","","","","","",""
"2222.2999999988824","","image-keyboard-response","192","383769","0.0-192.0","3AWETUDC93EJN74H6Z6G1VST4VOIZG","ACSS93E03ZUGX","3A3KKYU7P33Z3BR9PPFZ5194ZCQMWU","","","img/flower5.png","75","2226.0999999996275","2","1","2","1,1,0,0,1,1,1,0,1",""
"null","","html-keyboard-response","193","384078","0.0-193.0","3AWETUDC93EJN74H6Z6G1VST4VOIZG","ACSS93E03ZUGX","3A3KKYU7P33Z3BR9PPFZ5194ZCQMWU","","","<img src=""img/flower5.png"" style=""width:200px; border:14px solid green;"">","null","","","","","",""
"706.8999999985099","","image-keyboard-response","194","384789","0.0-194.0","3AWETUDC93EJN74H6Z6G1VST4VOIZG","ACSS93E03ZUGX","3A3KKYU7P33Z3BR9PPFZ5194ZCQMWU","","","img/flower4.png","74","710.2999999988824","1","1","3","1,1,0,0,1,1,1,0,1",""
"null","","html-keyboard-response","195","385094","0.0-195.0","3AWETUDC93EJN74H6Z6G1VST4VOIZG","ACSS93E03ZUGX","3A3KKYU7P33Z3BR9PPFZ5194ZCQMWU","","","<img src=""img/flower4.png"" style=""width:200px; border:14px solid green;"">","null","","","","","",""
"723.9000000003725","","image-keyboard-response","196","385822","0.0-196.0","3AWETUDC93EJN74H6Z6G1VST4VOIZG","ACSS93E03ZUGX","3A3KKYU7P33Z3BR9PPFZ5194ZCQMWU","","","img/flower3.png","74","727.0999999996275","1","1","1","1,1,0,0,1,1,1,0,1",""
"null","","html-keyboard-response","197","386126","0.0-197.0","3AWETUDC93EJN74H6Z6G1VST4VOIZG","ACSS93E03ZUGX","3A3KKYU7P33Z3BR9PPFZ5194ZCQMWU","","","<img src=""img/flower3.png"" style=""width:200px; border:14px solid green;"">","null","","","","","",""
"788.9000000003725","","image-keyboard-response","198","386919","0.0-198.0","3AWETUDC93EJN74H6Z6G1VST4VOIZG","ACSS93E03ZUGX","3A3KKYU7P33Z3BR9PPFZ5194ZCQMWU","","","img/flower4.png","75","792.1999999992549","2","0","3","1,1,0,0,1,1,1,0,1",""
"null","","html-keyboard-response","199","387230","0.0-199.0","3AWETUDC93EJN74H6Z6G1VST4VOIZG","ACSS93E03ZUGX","3A3KKYU7P33Z3BR9PPFZ5194ZCQMWU","","","<img src=""img/flower4.png"" style=""width:200px;border:14px solid red;"">","null","","","","","",""
"927.1999999992549","","image-keyboard-response","200","388161","0.0-200.0","3AWETUDC93EJN74H6Z6G1VST4VOIZG","ACSS93E03ZUGX","3A3KKYU7P33Z3BR9PPFZ5194ZCQMWU","","","img/flower4.png","74","930.3000000007451","1","1","3","1,1,0,0,1,1,1,0,1",""
"null","","html-keyboard-response","201","388470","0.0-201.0","3AWETUDC93EJN74H6Z6G1VST4VOIZG","ACSS93E03ZUGX","3A3KKYU7P33Z3BR9PPFZ5194ZCQMWU","","","<img src=""img/flower4.png"" style=""width:200px; border:14px solid green;"">","null","","","","","",""
"867.0999999996275","","image-keyboard-response","202","389341","0.0-202.0","3AWETUDC93EJN74H6Z6G1VST4VOIZG","ACSS93E03ZUGX","3A3KKYU7P33Z3BR9PPFZ5194ZCQMWU","","","img/flower4.png","74","870.3000000007451","1","1","3","1,1,0,0,1,1,1,0,1",""
"null","","html-keyboard-response","203","389646","0.0-203.0","3AWETUDC93EJN74H6Z6G1VST4VOIZG","ACSS93E03ZUGX","3A3KKYU7P33Z3BR9PPFZ5194ZCQMWU","","","<img src=""img/flower4.png"" style=""width:200px; border:14px solid green;"">","null","","","","","",""
"636.7000000011176","","image-keyboard-response","204","390287","0.0-204.0","3AWETUDC93EJN74H6Z6G1VST4VOIZG","ACSS93E03ZUGX","3A3KKYU7P33Z3BR9PPFZ5194ZCQMWU","","","img/flower5.png","76","639.9000000003725","3","1","2","1,1,0,0,1,1,1,0,1",""
"null","","html-keyboard-response","205","390598","0.0-205.0","3AWETUDC93EJN74H6Z6G1VST4VOIZG","ACSS93E03ZUGX","3A3KKYU7P33Z3BR9PPFZ5194ZCQMWU","","","<img src=""img/flower5.png"" style=""width:200px; border:14px solid green;"">","null","","","","","",""
"715.2000000011176","","image-keyboard-response","206","391317","0.0-206.0","3AWETUDC93EJN74H6Z6G1VST4VOIZG","ACSS93E03ZUGX","3A3KKYU7P33Z3BR9PPFZ5194ZCQMWU","","","img/flower5.png","76","718.0999999996275","3","1","2","1,1,0,0,1,1,1,0,1",""
"null","","html-keyboard-response","207","391622","0.0-207.0","3AWETUDC93EJN74H6Z6G1VST4VOIZG","ACSS93E03ZUGX","3A3KKYU7P33Z3BR9PPFZ5194ZCQMWU","","","<img src=""img/flower5.png"" style=""width:200px; border:14px solid green;"">","null","","","","","",""
"692.3000000007451","","image-keyboard-response","208","392318","0.0-208.0","3AWETUDC93EJN74H6Z6G1VST4VOIZG","ACSS93E03ZUGX","3A3KKYU7P33Z3BR9PPFZ5194ZCQMWU","","","img/flower4.png","74","695.7999999988824","1","1","3","1,1,0,0,1,1,1,0,1",""
"null","","html-keyboard-response","209","392630","0.0-209.0","3AWETUDC93EJN74H6Z6G1VST4VOIZG","ACSS93E03ZUGX","3A3KKYU7P33Z3BR9PPFZ5194ZCQMWU","","","<img src=""img/flower4.png"" style=""width:200px; border:14px solid green;"">","null","","","","","",""
"868.9000000003725","","image-keyboard-response","210","393503","0.0-210.0","3AWETUDC93EJN74H6Z6G1VST4VOIZG","ACSS93E03ZUGX","3A3KKYU7P33Z3BR9PPFZ5194ZCQMWU","","","img/flower3.png","74","872.2999999988824","1","1","1","1,1,0,0,1,1,1,0,1",""
"null","","html-keyboard-response","211","393814","0.0-211.0","3AWETUDC93EJN74H6Z6G1VST4VOIZG","ACSS93E03ZUGX","3A3KKYU7P33Z3BR9PPFZ5194ZCQMWU","","","<img src=""img/flower3.png"" style=""width:200px; border:14px solid green;"">","null","","","","","",""
"1787.300000000745","","image-keyboard-response","212","395605","0.0-212.0","3AWETUDC93EJN74H6Z6G1VST4VOIZG","ACSS93E03ZUGX","3A3KKYU7P33Z3BR9PPFZ5194ZCQMWU","","","img/flower5.png","75","1790.3999999985099","2","1","2","1,1,0,0,1,1,1,0,1",""
"null","","html-keyboard-response","213","395910","0.0-213.0","3AWETUDC93EJN74H6Z6G1VST4VOIZG","ACSS93E03ZUGX","3A3KKYU7P33Z3BR9PPFZ5194ZCQMWU","","","<img src=""img/flower5.png"" style=""width:200px; border:14px solid green;"">","null","","","","","",""
"1212.9000000003725","","image-keyboard-response","214","397126","0.0-214.0","3AWETUDC93EJN74H6Z6G1VST4VOIZG","ACSS93E03ZUGX","3A3KKYU7P33Z3BR9PPFZ5194ZCQMWU","","","img/flower5.png","75","1216","2","1","2","1,1,0,0,1,1,1,0,1",""
"null","","html-keyboard-response","215","397438","0.0-215.0","3AWETUDC93EJN74H6Z6G1VST4VOIZG","ACSS93E03ZUGX","3A3KKYU7P33Z3BR9PPFZ5194ZCQMWU","","","<img src=""img/flower5.png"" style=""width:200px; border:14px solid green;"">","null","","","","","",""
"861.1000000014901","","image-keyboard-response","216","398302","0.0-216.0","3AWETUDC93EJN74H6Z6G1VST4VOIZG","ACSS93E03ZUGX","3A3KKYU7P33Z3BR9PPFZ5194ZCQMWU","","","img/flower3.png","74","864","1","1","1","1,1,0,0,1,1,1,0,1",""
"null","","html-keyboard-response","217","398614","0.0-217.0","3AWETUDC93EJN74H6Z6G1VST4VOIZG","ACSS93E03ZUGX","3A3KKYU7P33Z3BR9PPFZ5194ZCQMWU","","","<img src=""img/flower3.png"" style=""width:200px; border:14px solid green;"">","null","","","","","",""
"655.3000000007451","","image-keyboard-response","218","399274","0.0-218.0","3AWETUDC93EJN74H6Z6G1VST4VOIZG","ACSS93E03ZUGX","3A3KKYU7P33Z3BR9PPFZ5194ZCQMWU","","","img/flower4.png","74","658.7000000011176","1","1","3","1,1,0,0,1,1,1,0,1",""
"null","","html-keyboard-response","219","399582","0.0-219.0","3AWETUDC93EJN74H6Z6G1VST4VOIZG","ACSS93E03ZUGX","3A3KKYU7P33Z3BR9PPFZ5194ZCQMWU","","","<img src=""img/flower4.png"" style=""width:200px; border:14px solid green;"">","null","","","","","",""
"1058","","image-keyboard-response","220","400644","0.0-220.0","3AWETUDC93EJN74H6Z6G1VST4VOIZG","ACSS93E03ZUGX","3A3KKYU7P33Z3BR9PPFZ5194ZCQMWU","","","img/flower5.png","75","1061.2000000011176","2","1","2","1,1,0,0,1,1,1,0,1",""
"null","","html-keyboard-response","221","400950","0.0-221.0","3AWETUDC93EJN74H6Z6G1VST4VOIZG","ACSS93E03ZUGX","3A3KKYU7P33Z3BR9PPFZ5194ZCQMWU","","","<img src=""img/flower5.png"" style=""width:200px; border:14px solid green;"">","null","","","","","",""
"597.1000000014901","","image-keyboard-response","222","401551","0.0-222.0","3AWETUDC93EJN74H6Z6G1VST4VOIZG","ACSS93E03ZUGX","3A3KKYU7P33Z3BR9PPFZ5194ZCQMWU","","","img/flower5.png","75","600.5","2","1","2","1,1,0,0,1,1,1,0,1",""
"null","","html-keyboard-response","223","401863","0.0-223.0","3AWETUDC93EJN74H6Z6G1VST4VOIZG","ACSS93E03ZUGX","3A3KKYU7P33Z3BR9PPFZ5194ZCQMWU","","","<img src=""img/flower5.png"" style=""width:200px; border:14px solid green;"">","null","","","","","",""
"844.5999999996275","","image-keyboard-response","224","402712","0.0-224.0","3AWETUDC93EJN74H6Z6G1VST4VOIZG","ACSS93E03ZUGX","3A3KKYU7P33Z3BR9PPFZ5194ZCQMWU","","","img/flower3.png","74","848.5","1","1","1","1,1,0,0,1,1,1,0,1",""
"null","","html-keyboard-response","225","403022","0.0-225.0","3AWETUDC93EJN74H6Z6G1VST4VOIZG","ACSS93E03ZUGX","3A3KKYU7P33Z3BR9PPFZ5194ZCQMWU","","","<img src=""img/flower3.png"" style=""width:200px; border:14px solid green;"">","null","","","","","",""
"621.6999999992549","","image-keyboard-response","226","403648","0.0-226.0","3AWETUDC93EJN74H6Z6G1VST4VOIZG","ACSS93E03ZUGX","3A3KKYU7P33Z3BR9PPFZ5194ZCQMWU","","","img/flower3.png","74","625.1000000014901","1","1","1","1,1,0,0,1,1,1,0,1",""
"null","","html-keyboard-response","227","403959","0.0-227.0","3AWETUDC93EJN74H6Z6G1VST4VOIZG","ACSS93E03ZUGX","3A3KKYU7P33Z3BR9PPFZ5194ZCQMWU","","","<img src=""img/flower3.png"" style=""width:200px; border:14px solid green;"">","null","","","","","",""
"1072.8999999985099","","image-keyboard-response","228","405036","0.0-228.0","3AWETUDC93EJN74H6Z6G1VST4VOIZG","ACSS93E03ZUGX","3A3KKYU7P33Z3BR9PPFZ5194ZCQMWU","","","img/flower5.png","75","1076.4000000022352","2","1","2","1,1,0,0,1,1,1,0,1",""
"null","","html-keyboard-response","229","405342","0.0-229.0","3AWETUDC93EJN74H6Z6G1VST4VOIZG","ACSS93E03ZUGX","3A3KKYU7P33Z3BR9PPFZ5194ZCQMWU","","","<img src=""img/flower5.png"" style=""width:200px; border:14px solid green;"">","null","","","","","",""
"1362.6000000014901","","image-keyboard-response","230","406709","0.0-230.0","3AWETUDC93EJN74H6Z6G1VST4VOIZG","ACSS93E03ZUGX","3A3KKYU7P33Z3BR9PPFZ5194ZCQMWU","","","img/flower4.png","74","1366.1000000014901","1","1","3","1,1,0,0,1,1,1,0,1",""
"null","","html-keyboard-response","231","407014","0.0-231.0","3AWETUDC93EJN74H6Z6G1VST4VOIZG","ACSS93E03ZUGX","3A3KKYU7P33Z3BR9PPFZ5194ZCQMWU","","","<img src=""img/flower4.png"" style=""width:200px; border:14px solid green;"">","null","","","","","",""
"924.0999999977648","","image-keyboard-response","232","407942","0.0-232.0","3AWETUDC93EJN74H6Z6G1VST4VOIZG","ACSS93E03ZUGX","3A3KKYU7P33Z3BR9PPFZ5194ZCQMWU","","","img/flower5.png","75","927.3000000007451","2","1","2","1,1,0,0,1,1,1,0,1",""
"null","","html-keyboard-response","233","408253","0.0-233.0","3AWETUDC93EJN74H6Z6G1VST4VOIZG","ACSS93E03ZUGX","3A3KKYU7P33Z3BR9PPFZ5194ZCQMWU","","","<img src=""img/flower5.png"" style=""width:200px; border:14px solid green;"">","null","","","","","",""
"803.5","","image-keyboard-response","234","409061","0.0-234.0","3AWETUDC93EJN74H6Z6G1VST4VOIZG","ACSS93E03ZUGX","3A3KKYU7P33Z3BR9PPFZ5194ZCQMWU","","","img/flower4.png","74","807.5","1","1","3","1,1,0,0,1,1,1,0,1",""
"null","","html-keyboard-response","235","409367","0.0-235.0","3AWETUDC93EJN74H6Z6G1VST4VOIZG","ACSS93E03ZUGX","3A3KKYU7P33Z3BR9PPFZ5194ZCQMWU","","","<img src=""img/flower4.png"" style=""width:200px; border:14px solid green;"">","null","","","","","",""
"728.6000000014901","","image-keyboard-response","236","410101","0.0-236.0","3AWETUDC93EJN74H6Z6G1VST4VOIZG","ACSS93E03ZUGX","3A3KKYU7P33Z3BR9PPFZ5194ZCQMWU","","","img/flower4.png","74","732.5","1","1","3","1,1,0,0,1,1,1,0,1",""
"null","","html-keyboard-response","237","410407","0.0-237.0","3AWETUDC93EJN74H6Z6G1VST4VOIZG","ACSS93E03ZUGX","3A3KKYU7P33Z3BR9PPFZ5194ZCQMWU","","","<img src=""img/flower4.png"" style=""width:200px; border:14px solid green;"">","null","","","","","",""
"525.4000000022352","","image-keyboard-response","238","410937","0.0-238.0","3AWETUDC93EJN74H6Z6G1VST4VOIZG","ACSS93E03ZUGX","3A3KKYU7P33Z3BR9PPFZ5194ZCQMWU","","","img/flower4.png","74","529.1999999992549","1","1","3","1,1,0,0,1,1,1,0,1",""
"null","","html-keyboard-response","239","411247","0.0-239.0","3AWETUDC93EJN74H6Z6G1VST4VOIZG","ACSS93E03ZUGX","3A3KKYU7P33Z3BR9PPFZ5194ZCQMWU","","","<img src=""img/flower4.png"" style=""width:200px; border:14px solid green;"">","null","","","","","",""
"786.1000000014901","","image-keyboard-response","240","412037","0.0-240.0","3AWETUDC93EJN74H6Z6G1VST4VOIZG","ACSS93E03ZUGX","3A3KKYU7P33Z3BR9PPFZ5194ZCQMWU","","","img/flower3.png","74","789.3999999985099","1","1","1","1,1,0,0,1,1,1,0,1",""
"null","","html-keyboard-response","241","412343","0.0-241.0","3AWETUDC93EJN74H6Z6G1VST4VOIZG","ACSS93E03ZUGX","3A3KKYU7P33Z3BR9PPFZ5194ZCQMWU","","","<img src=""img/flower3.png"" style=""width:200px; border:14px solid green;"">","null","","","","","",""
"879","","image-keyboard-response","242","413226","0.0-242.0","3AWETUDC93EJN74H6Z6G1VST4VOIZG","ACSS93E03ZUGX","3A3KKYU7P33Z3BR9PPFZ5194ZCQMWU","","","img/flower5.png","75","882.5","2","1","2","1,1,0,0,1,1,1,0,1",""
"null","","html-keyboard-response","243","413534","0.0-243.0","3AWETUDC93EJN74H6Z6G1VST4VOIZG","ACSS93E03ZUGX","3A3KKYU7P33Z3BR9PPFZ5194ZCQMWU","","","<img src=""img/flower5.png"" style=""width:200px; border:14px solid green;"">","null","","","","","",""
"1065.5999999977648","","image-keyboard-response","244","414604","0.0-244.0","3AWETUDC93EJN74H6Z6G1VST4VOIZG","ACSS93E03ZUGX","3A3KKYU7P33Z3BR9PPFZ5194ZCQMWU","","","img/flower3.png","74","1069.5","1","1","1","1,1,0,0,1,1,1,0,1",""
"null","","html-keyboard-response","245","414911","0.0-245.0","3AWETUDC93EJN74H6Z6G1VST4VOIZG","ACSS93E03ZUGX","3A3KKYU7P33Z3BR9PPFZ5194ZCQMWU","","","<img src=""img/flower3.png"" style=""width:200px; border:14px solid green;"">","null","","","","","",""
"966.9000000022352","","image-keyboard-response","246","415882","0.0-246.0","3AWETUDC93EJN74H6Z6G1VST4VOIZG","ACSS93E03ZUGX","3A3KKYU7P33Z3BR9PPFZ5194ZCQMWU","","","img/flower4.png","74","970.1999999992549","1","1","3","1,1,0,0,1,1,1,0,1",""
"null","","html-keyboard-response","247","416190","0.0-247.0","3AWETUDC93EJN74H6Z6G1VST4VOIZG","ACSS93E03ZUGX","3A3KKYU7P33Z3BR9PPFZ5194ZCQMWU","","","<img src=""img/flower4.png"" style=""width:200px; border:14px solid green;"">","null","","","","","",""
"898","","image-keyboard-response","248","417093","0.0-248.0","3AWETUDC93EJN74H6Z6G1VST4VOIZG","ACSS93E03ZUGX","3A3KKYU7P33Z3BR9PPFZ5194ZCQMWU","","","img/flower4.png","74","902.0999999977648","1","1","3","1,1,0,0,1,1,1,0,1",""
"null","","html-keyboard-response","249","417398","0.0-249.0","3AWETUDC93EJN74H6Z6G1VST4VOIZG","ACSS93E03ZUGX","3A3KKYU7P33Z3BR9PPFZ5194ZCQMWU","","","<img src=""img/flower4.png"" style=""width:200px; border:14px solid green;"">","null","","","","","",""
"875.8000000007451","","image-keyboard-response","250","418279","0.0-250.0","3AWETUDC93EJN74H6Z6G1VST4VOIZG","ACSS93E03ZUGX","3A3KKYU7P33Z3BR9PPFZ5194ZCQMWU","","","img/flower5.png","75","879.2999999970198","2","1","2","1,1,0,0,1,1,1,0,1",""
"null","","html-keyboard-response","251","418590","0.0-251.0","3AWETUDC93EJN74H6Z6G1VST4VOIZG","ACSS93E03ZUGX","3A3KKYU7P33Z3BR9PPFZ5194ZCQMWU","","","<img src=""img/flower5.png"" style=""width:200px; border:14px solid green;"">","null","","","","","",""
"631.3999999985099","","image-keyboard-response","252","419226","0.0-252.0","3AWETUDC93EJN74H6Z6G1VST4VOIZG","ACSS93E03ZUGX","3A3KKYU7P33Z3BR9PPFZ5194ZCQMWU","","","img/flower3.png","74","634.6999999992549","1","1","1","1,1,0,0,1,1,1,0,1",""
"null","","html-keyboard-response","253","419535","0.0-253.0","3AWETUDC93EJN74H6Z6G1VST4VOIZG","ACSS93E03ZUGX","3A3KKYU7P33Z3BR9PPFZ5194ZCQMWU","","","<img src=""img/flower3.png"" style=""width:200px; border:14px solid green;"">","null","","","","","",""
"1014","","image-keyboard-response","254","420553","0.0-254.0","3AWETUDC93EJN74H6Z6G1VST4VOIZG","ACSS93E03ZUGX","3A3KKYU7P33Z3BR9PPFZ5194ZCQMWU","","","img/flower4.png","74","1017.3999999985099","1","1","3","1,1,0,0,1,1,1,0,1",""
"null","","html-keyboard-response","255","420862","0.0-255.0","3AWETUDC93EJN74H6Z6G1VST4VOIZG","ACSS93E03ZUGX","3A3KKYU7P33Z3BR9PPFZ5194ZCQMWU","","","<img src=""img/flower4.png"" style=""width:200px; border:14px solid green;"">","null","","","","","",""
"783.8000000007451","","image-keyboard-response","256","421651","0.0-256.0","3AWETUDC93EJN74H6Z6G1VST4VOIZG","ACSS93E03ZUGX","3A3KKYU7P33Z3BR9PPFZ5194ZCQMWU","","","img/flower3.png","74","787.5999999977648","1","1","1","1,1,0,0,1,1,1,0,1",""
"null","","html-keyboard-response","257","421959","0.0-257.0","3AWETUDC93EJN74H6Z6G1VST4VOIZG","ACSS93E03ZUGX","3A3KKYU7P33Z3BR9PPFZ5194ZCQMWU","","","<img src=""img/flower3.png"" style=""width:200px; border:14px solid green;"">","null","","","","","",""
"537.3999999985099","","image-keyboard-response","258","422502","0.0-258.0","3AWETUDC93EJN74H6Z6G1VST4VOIZG","ACSS93E03ZUGX","3A3KKYU7P33Z3BR9PPFZ5194ZCQMWU","","","img/flower3.png","74","542","1","1","1","1,1,0,0,1,1,1,0,1",""
"null","","html-keyboard-response","259","422815","0.0-259.0","3AWETUDC93EJN74H6Z6G1VST4VOIZG","ACSS93E03ZUGX","3A3KKYU7P33Z3BR9PPFZ5194ZCQMWU","","","<img src=""img/flower3.png"" style=""width:200px; border:14px solid green;"">","null","","","","","",""
"760.9000000022352","","image-keyboard-response","260","423580","0.0-260.0","3AWETUDC93EJN74H6Z6G1VST4VOIZG","ACSS93E03ZUGX","3A3KKYU7P33Z3BR9PPFZ5194ZCQMWU","","","img/flower4.png","74","764.3999999985099","1","1","3","1,1,0,0,1,1,1,0,1",""
"null","","html-keyboard-response","261","423887","0.0-261.0","3AWETUDC93EJN74H6Z6G1VST4VOIZG","ACSS93E03ZUGX","3A3KKYU7P33Z3BR9PPFZ5194ZCQMWU","","","<img src=""img/flower4.png"" style=""width:200px; border:14px solid green;"">","null","","","","","",""
"708","","image-keyboard-response","262","424600","0.0-262.0","3AWETUDC93EJN74H6Z6G1VST4VOIZG","ACSS93E03ZUGX","3A3KKYU7P33Z3BR9PPFZ5194ZCQMWU","","","img/flower4.png","74","711.8000000007451","1","1","3","1,1,0,0,1,1,1,0,1",""
"null","","html-keyboard-response","263","424911","0.0-263.0","3AWETUDC93EJN74H6Z6G1VST4VOIZG","ACSS93E03ZUGX","3A3KKYU7P33Z3BR9PPFZ5194ZCQMWU","","","<img src=""img/flower4.png"" style=""width:200px; border:14px solid green;"">","null","","","","","",""
"685.1999999992549","","image-keyboard-response","264","425600","0.0-264.0","3AWETUDC93EJN74H6Z6G1VST4VOIZG","ACSS93E03ZUGX","3A3KKYU7P33Z3BR9PPFZ5194ZCQMWU","","","img/flower3.png","74","688.5","1","1","1","1,1,0,0,1,1,1,0,1",""
"null","","html-keyboard-response","265","425910","0.0-265.0","3AWETUDC93EJN74H6Z6G1VST4VOIZG","ACSS93E03ZUGX","3A3KKYU7P33Z3BR9PPFZ5194ZCQMWU","","","<img src=""img/flower3.png"" style=""width:200px; border:14px solid green;"">","null","","","","","",""
"537.8000000007451","","image-keyboard-response","266","426451","0.0-266.0","3AWETUDC93EJN74H6Z6G1VST4VOIZG","ACSS93E03ZUGX","3A3KKYU7P33Z3BR9PPFZ5194ZCQMWU","","","img/flower3.png","74","540.5","1","1","1","1,1,0,0,1,1,1,0,1",""
"null","","html-keyboard-response","267","426758","0.0-267.0","3AWETUDC93EJN74H6Z6G1VST4VOIZG","ACSS93E03ZUGX","3A3KKYU7P33Z3BR9PPFZ5194ZCQMWU","","","<img src=""img/flower3.png"" style=""width:200px; border:14px solid green;"">","null","","","","","",""
"1070.800000000745","","image-keyboard-response","268","427833","0.0-268.0","3AWETUDC93EJN74H6Z6G1VST4VOIZG","ACSS93E03ZUGX","3A3KKYU7P33Z3BR9PPFZ5194ZCQMWU","","","img/flower5.png","75","1074.300000000745","2","1","2","1,1,0,0,1,1,1,0,1",""
"null","","html-keyboard-response","269","428143","0.0-269.0","3AWETUDC93EJN74H6Z6G1VST4VOIZG","ACSS93E03ZUGX","3A3KKYU7P33Z3BR9PPFZ5194ZCQMWU","","","<img src=""img/flower5.png"" style=""width:200px; border:14px solid green;"">","null","","","","","",""
"950.4000000022352","","image-keyboard-response","270","429098","0.0-270.0","3AWETUDC93EJN74H6Z6G1VST4VOIZG","ACSS93E03ZUGX","3A3KKYU7P33Z3BR9PPFZ5194ZCQMWU","","","img/flower4.png","74","954.3000000007451","1","1","3","1,1,0,0,1,1,1,0,1",""
"null","","html-keyboard-response","271","429406","0.0-271.0","3AWETUDC93EJN74H6Z6G1VST4VOIZG","ACSS93E03ZUGX","3A3KKYU7P33Z3BR9PPFZ5194ZCQMWU","","","<img src=""img/flower4.png"" style=""width:200px; border:14px solid green;"">","null","","","","","",""
"628","","image-keyboard-response","272","430038","0.0-272.0","3AWETUDC93EJN74H6Z6G1VST4VOIZG","ACSS93E03ZUGX","3A3KKYU7P33Z3BR9PPFZ5194ZCQMWU","","","img/flower3.png","74","631.5","1","1","1","1,1,0,0,1,1,1,0,1",""
"null","","html-keyboard-response","273","430350","0.0-273.0","3AWETUDC93EJN74H6Z6G1VST4VOIZG","ACSS93E03ZUGX","3A3KKYU7P33Z3BR9PPFZ5194ZCQMWU","","","<img src=""img/flower3.png"" style=""width:200px; border:14px solid green;"">","null","","","","","",""
"864.6000000014901","","image-keyboard-response","274","431219","0.0-274.0","3AWETUDC93EJN74H6Z6G1VST4VOIZG","ACSS93E03ZUGX","3A3KKYU7P33Z3BR9PPFZ5194ZCQMWU","","","img/flower5.png","75","867.7999999970198","2","1","2","1,1,0,0,1,1,1,0,1",""
"null","","html-keyboard-response","275","431526","0.0-275.0","3AWETUDC93EJN74H6Z6G1VST4VOIZG","ACSS93E03ZUGX","3A3KKYU7P33Z3BR9PPFZ5194ZCQMWU","","","<img src=""img/flower5.png"" style=""width:200px; border:14px solid green;"">","null","","","","","",""
"843","","image-keyboard-response","276","432373","0.0-276.0","3AWETUDC93EJN74H6Z6G1VST4VOIZG","ACSS93E03ZUGX","3A3KKYU7P33Z3BR9PPFZ5194ZCQMWU","","","img/flower3.png","74","846.2000000029802","1","1","1","1,1,0,0,1,1,1,0,1",""
"null","","html-keyboard-response","277","432679","0.0-277.0","3AWETUDC93EJN74H6Z6G1VST4VOIZG","ACSS93E03ZUGX","3A3KKYU7P33Z3BR9PPFZ5194ZCQMWU","","","<img src=""img/flower3.png"" style=""width:200px; border:14px solid green;"">","null","","","","","",""
"1545.6000000014901","","image-keyboard-response","278","434229","0.0-278.0","3AWETUDC93EJN74H6Z6G1VST4VOIZG","ACSS93E03ZUGX","3A3KKYU7P33Z3BR9PPFZ5194ZCQMWU","","","img/flower5.png","74","1549.1000000014901","1","0","2","1,1,0,0,1,1,1,0,1",""
"null","","html-keyboard-response","279","434542","0.0-279.0","3AWETUDC93EJN74H6Z6G1VST4VOIZG","ACSS93E03ZUGX","3A3KKYU7P33Z3BR9PPFZ5194ZCQMWU","","","<img src=""img/flower5.png"" style=""width:200px;border:14px solid red;"">","null","","","","","",""
"664.8000000007451","","image-keyboard-response","280","435210","0.0-280.0","3AWETUDC93EJN74H6Z6G1VST4VOIZG","ACSS93E03ZUGX","3A3KKYU7P33Z3BR9PPFZ5194ZCQMWU","","","img/flower3.png","74","667.6999999992549","1","1","1","1,1,0,0,1,1,1,0,1",""
"null","","html-keyboard-response","281","435519","0.0-281.0","3AWETUDC93EJN74H6Z6G1VST4VOIZG","ACSS93E03ZUGX","3A3KKYU7P33Z3BR9PPFZ5194ZCQMWU","","","<img src=""img/flower3.png"" style=""width:200px; border:14px solid green;"">","null","","","","","",""
"711.5","","image-keyboard-response","282","436235","0.0-282.0","3AWETUDC93EJN74H6Z6G1VST4VOIZG","ACSS93E03ZUGX","3A3KKYU7P33Z3BR9PPFZ5194ZCQMWU","","","img/flower5.png","75","715.5999999977648","2","1","2","1,1,0,0,1,1,1,0,1",""
"null","","html-keyboard-response","283","436543","0.0-283.0","3AWETUDC93EJN74H6Z6G1VST4VOIZG","ACSS93E03ZUGX","3A3KKYU7P33Z3BR9PPFZ5194ZCQMWU","","","<img src=""img/flower5.png"" style=""width:200px; border:14px solid green;"">","null","","","","","",""
"648.3999999985099","","image-keyboard-response","284","437198","0.0-284.0","3AWETUDC93EJN74H6Z6G1VST4VOIZG","ACSS93E03ZUGX","3A3KKYU7P33Z3BR9PPFZ5194ZCQMWU","","","img/flower4.png","74","652.1999999992549","1","1","3","1,1,0,0,1,1,1,0,1",""
"null","","html-keyboard-response","285","437510","0.0-285.0","3AWETUDC93EJN74H6Z6G1VST4VOIZG","ACSS93E03ZUGX","3A3KKYU7P33Z3BR9PPFZ5194ZCQMWU","","","<img src=""img/flower4.png"" style=""width:200px; border:14px solid green;"">","null","","","","","",""
"825","","image-keyboard-response","286","438339","0.0-286.0","3AWETUDC93EJN74H6Z6G1VST4VOIZG","ACSS93E03ZUGX","3A3KKYU7P33Z3BR9PPFZ5194ZCQMWU","","","img/flower5.png","75","828.3999999985099","2","1","2","1,1,0,0,1,1,1,0,1",""
"null","","html-keyboard-response","287","438647","0.0-287.0","3AWETUDC93EJN74H6Z6G1VST4VOIZG","ACSS93E03ZUGX","3A3KKYU7P33Z3BR9PPFZ5194ZCQMWU","","","<img src=""img/flower5.png"" style=""width:200px; border:14px solid green;"">","null","","","","","",""
"954.6000000014901","","image-keyboard-response","288","439605","0.0-288.0","3AWETUDC93EJN74H6Z6G1VST4VOIZG","ACSS93E03ZUGX","3A3KKYU7P33Z3BR9PPFZ5194ZCQMWU","","","img/flower5.png","75","957.8000000007451","2","1","2","1,1,0,0,1,1,1,0,1",""
"null","","html-keyboard-response","289","439910","0.0-289.0","3AWETUDC93EJN74H6Z6G1VST4VOIZG","ACSS93E03ZUGX","3A3KKYU7P33Z3BR9PPFZ5194ZCQMWU","","","<img src=""img/flower5.png"" style=""width:200px; border:14px solid green;"">","null","","","","","",""
"469.69999999925494","","image-keyboard-response","290","440384","0.0-290.0","3AWETUDC93EJN74H6Z6G1VST4VOIZG","ACSS93E03ZUGX","3A3KKYU7P33Z3BR9PPFZ5194ZCQMWU","","","img/flower5.png","75","473.0999999977648","2","1","2","1,1,0,0,1,1,1,0,1",""
"null","","html-keyboard-response","291","440695","0.0-291.0","3AWETUDC93EJN74H6Z6G1VST4VOIZG","ACSS93E03ZUGX","3A3KKYU7P33Z3BR9PPFZ5194ZCQMWU","","","<img src=""img/flower5.png"" style=""width:200px; border:14px solid green;"">","null","","","","","",""
"583","","image-keyboard-response","292","441282","0.0-292.0","3AWETUDC93EJN74H6Z6G1VST4VOIZG","ACSS93E03ZUGX","3A3KKYU7P33Z3BR9PPFZ5194ZCQMWU","","","img/flower3.png","74","586.8999999985099","1","1","1","1,1,0,0,1,1,1,0,1",""
"null","","html-keyboard-response","293","441590","0.0-293.0","3AWETUDC93EJN74H6Z6G1VST4VOIZG","ACSS93E03ZUGX","3A3KKYU7P33Z3BR9PPFZ5194ZCQMWU","","","<img src=""img/flower3.png"" style=""width:200px; border:14px solid green;"">","null","","","","","",""
"999.6999999992549","","image-keyboard-response","294","442594","0.0-294.0","3AWETUDC93EJN74H6Z6G1VST4VOIZG","ACSS93E03ZUGX","3A3KKYU7P33Z3BR9PPFZ5194ZCQMWU","","","img/flower5.png","75","1003.2000000029802","2","1","2","1,1,0,0,1,1,1,0,1",""
"null","","html-keyboard-response","295","442903","0.0-295.0","3AWETUDC93EJN74H6Z6G1VST4VOIZG","ACSS93E03ZUGX","3A3KKYU7P33Z3BR9PPFZ5194ZCQMWU","","","<img src=""img/flower5.png"" style=""width:200px; border:14px solid green;"">","null","","","","","",""
"720.6999999992549","","image-keyboard-response","296","443628","0.0-296.0","3AWETUDC93EJN74H6Z6G1VST4VOIZG","ACSS93E03ZUGX","3A3KKYU7P33Z3BR9PPFZ5194ZCQMWU","","","img/flower3.png","74","724","1","1","1","1,1,0,0,1,1,1,0,1",""
"null","","html-keyboard-response","297","443935","0.0-297.0","3AWETUDC93EJN74H6Z6G1VST4VOIZG","ACSS93E03ZUGX","3A3KKYU7P33Z3BR9PPFZ5194ZCQMWU","","","<img src=""img/flower3.png"" style=""width:200px; border:14px solid green;"">","null","","","","","",""
"629.2999999970198","","image-keyboard-response","298","444569","0.0-298.0","3AWETUDC93EJN74H6Z6G1VST4VOIZG","ACSS93E03ZUGX","3A3KKYU7P33Z3BR9PPFZ5194ZCQMWU","","","img/flower3.png","74","632.8999999985099","1","1","1","1,1,0,0,1,1,1,0,1",""
"null","","html-keyboard-response","299","444879","0.0-299.0","3AWETUDC93EJN74H6Z6G1VST4VOIZG","ACSS93E03ZUGX","3A3KKYU7P33Z3BR9PPFZ5194ZCQMWU","","","<img src=""img/flower3.png"" style=""width:200px; border:14px solid green;"">","null","","","","","",""
"1017.8000000007451","","image-keyboard-response","300","445901","0.0-300.0","3AWETUDC93EJN74H6Z6G1VST4VOIZG","ACSS93E03ZUGX","3A3KKYU7P33Z3BR9PPFZ5194ZCQMWU","","","img/flower4.png","74","1021.1999999992549","1","1","3","1,1,0,0,1,1,1,0,1",""
"null","","html-keyboard-response","301","446206","0.0-301.0","3AWETUDC93EJN74H6Z6G1VST4VOIZG","ACSS93E03ZUGX","3A3KKYU7P33Z3BR9PPFZ5194ZCQMWU","","","<img src=""img/flower4.png"" style=""width:200px; border:14px solid green;"">","null","","","","","",""
"763.3000000007451","","image-keyboard-response","302","446974","0.0-302.0","3AWETUDC93EJN74H6Z6G1VST4VOIZG","ACSS93E03ZUGX","3A3KKYU7P33Z3BR9PPFZ5194ZCQMWU","","","img/flower5.png","75","766.7999999970198","2","1","2","1,1,0,0,1,1,1,0,1",""
"null","","html-keyboard-response","303","447287","0.0-303.0","3AWETUDC93EJN74H6Z6G1VST4VOIZG","ACSS93E03ZUGX","3A3KKYU7P33Z3BR9PPFZ5194ZCQMWU","","","<img src=""img/flower5.png"" style=""width:200px; border:14px solid green;"">","null","","","","","",""
"837.4000000022352","","image-keyboard-response","304","448128","0.0-304.0","3AWETUDC93EJN74H6Z6G1VST4VOIZG","ACSS93E03ZUGX","3A3KKYU7P33Z3BR9PPFZ5194ZCQMWU","","","img/flower4.png","74","841","1","1","3","1,1,0,0,1,1,1,0,1",""
"null","","html-keyboard-response","305","448439","0.0-305.0","3AWETUDC93EJN74H6Z6G1VST4VOIZG","ACSS93E03ZUGX","3A3KKYU7P33Z3BR9PPFZ5194ZCQMWU","","","<img src=""img/flower4.png"" style=""width:200px; border:14px solid green;"">","null","","","","","",""
"","","html-keyboard-response","306","450658","0.0-306.0","3AWETUDC93EJN74H6Z6G1VST4VOIZG","ACSS93E03ZUGX","3A3KKYU7P33Z3BR9PPFZ5194ZCQMWU","","","","","","","","","",""
"1289.3999999985099","","image-keyboard-response","307","451953","0.0-307.0","3AWETUDC93EJN74H6Z6G1VST4VOIZG","ACSS93E03ZUGX","3A3KKYU7P33Z3BR9PPFZ5194ZCQMWU","","","img/flower6.png","76","1294.8999999985099","3","0","1","1,0.5,0.5,0.5,1,0.5,0.5,0.5,1",""
"null","","html-keyboard-response","308","452263","0.0-308.0","3AWETUDC93EJN74H6Z6G1VST4VOIZG","ACSS93E03ZUGX","3A3KKYU7P33Z3BR9PPFZ5194ZCQMWU","","","<img src=""img/flower6.png"" style=""width:200px;border:14px solid red;"">","null","","","","","",""
"1403.199999999255","","image-keyboard-response","309","453673","0.0-309.0","3AWETUDC93EJN74H6Z6G1VST4VOIZG","ACSS93E03ZUGX","3A3KKYU7P33Z3BR9PPFZ5194ZCQMWU","","","img/flower6.png","76","1408.1000000014901","3","1","1","1,0.5,0.5,0.5,1,0.5,0.5,0.5,1",""
"null","","html-keyboard-response","310","453983","0.0-310.0","3AWETUDC93EJN74H6Z6G1VST4VOIZG","ACSS93E03ZUGX","3A3KKYU7P33Z3BR9PPFZ5194ZCQMWU","","","<img src=""img/flower6.png"" style=""width:200px; border:14px solid green;"">","null","","","","","",""
"1700.9000000022352","","image-keyboard-response","311","455688","0.0-311.0","3AWETUDC93EJN74H6Z6G1VST4VOIZG","ACSS93E03ZUGX","3A3KKYU7P33Z3BR9PPFZ5194ZCQMWU","","","img/flower2.png","75","1704.9000000022352","2","0","3","1,0.5,0.5,0.5,1,0.5,0.5,0.5,1",""
"null","","html-keyboard-response","312","455998","0.0-312.0","3AWETUDC93EJN74H6Z6G1VST4VOIZG","ACSS93E03ZUGX","3A3KKYU7P33Z3BR9PPFZ5194ZCQMWU","","","<img src=""img/flower2.png"" style=""width:200px;border:14px solid red;"">","null","","","","","",""
"808.1000000014901","","image-keyboard-response","313","456810","0.0-313.0","3AWETUDC93EJN74H6Z6G1VST4VOIZG","ACSS93E03ZUGX","3A3KKYU7P33Z3BR9PPFZ5194ZCQMWU","","","img/flower6.png","76","811.5999999977648","3","1","1","1,0.5,0.5,0.5,1,0.5,0.5,0.5,1",""
"null","","html-keyboard-response","314","457119","0.0-314.0","3AWETUDC93EJN74H6Z6G1VST4VOIZG","ACSS93E03ZUGX","3A3KKYU7P33Z3BR9PPFZ5194ZCQMWU","","","<img src=""img/flower6.png"" style=""width:200px; border:14px solid green;"">","null","","","","","",""
"2196","","image-keyboard-response","315","459319","0.0-315.0","3AWETUDC93EJN74H6Z6G1VST4VOIZG","ACSS93E03ZUGX","3A3KKYU7P33Z3BR9PPFZ5194ZCQMWU","","","img/flower1.png","75","2199.599999997765","2","1","2","1,0.5,0.5,0.5,1,0.5,0.5,0.5,1",""
"null","","html-keyboard-response","316","459631","0.0-316.0","3AWETUDC93EJN74H6Z6G1VST4VOIZG","ACSS93E03ZUGX","3A3KKYU7P33Z3BR9PPFZ5194ZCQMWU","","","<img src=""img/flower1.png"" style=""width:200px; border:14px solid green;"">","null","","","","","",""
"1670.5","","image-keyboard-response","317","461305","0.0-317.0","3AWETUDC93EJN74H6Z6G1VST4VOIZG","ACSS93E03ZUGX","3A3KKYU7P33Z3BR9PPFZ5194ZCQMWU","","","img/flower1.png","75","1673.9000000022352","2","1","2","1,0.5,0.5,0.5,1,0.5,0.5,0.5,1",""
"null","","html-keyboard-response","318","461615","0.0-318.0","3AWETUDC93EJN74H6Z6G1VST4VOIZG","ACSS93E03ZUGX","3A3KKYU7P33Z3BR9PPFZ5194ZCQMWU","","","<img src=""img/flower1.png"" style=""width:200px; border:14px solid green;"">","null","","","","","",""
"776.1999999992549","","image-keyboard-response","319","462396","0.0-319.0","3AWETUDC93EJN74H6Z6G1VST4VOIZG","ACSS93E03ZUGX","3A3KKYU7P33Z3BR9PPFZ5194ZCQMWU","","","img/flower6.png","76","780.3000000007451","3","1","1","1,0.5,0.5,0.5,1,0.5,0.5,0.5,1",""
"null","","html-keyboard-response","320","462703","0.0-320.0","3AWETUDC93EJN74H6Z6G1VST4VOIZG","ACSS93E03ZUGX","3A3KKYU7P33Z3BR9PPFZ5194ZCQMWU","","","<img src=""img/flower6.png"" style=""width:200px; border:14px solid green;"">","null","","","","","",""
"1206.4000000022352","","image-keyboard-response","321","463913","0.0-321.0","3AWETUDC93EJN74H6Z6G1VST4VOIZG","ACSS93E03ZUGX","3A3KKYU7P33Z3BR9PPFZ5194ZCQMWU","","","img/flower6.png","76","1209.5","3","0","1","1,0.5,0.5,0.5,1,0.5,0.5,0.5,1",""
"null","","html-keyboard-response","322","464223","0.0-322.0","3AWETUDC93EJN74H6Z6G1VST4VOIZG","ACSS93E03ZUGX","3A3KKYU7P33Z3BR9PPFZ5194ZCQMWU","","","<img src=""img/flower6.png"" style=""width:200px;border:14px solid red;"">","null","","","","","",""
"902.3000000007451","","image-keyboard-response","323","465129","0.0-323.0","3AWETUDC93EJN74H6Z6G1VST4VOIZG","ACSS93E03ZUGX","3A3KKYU7P33Z3BR9PPFZ5194ZCQMWU","","","img/flower1.png","74","905.5","1","1","2","1,0.5,0.5,0.5,1,0.5,0.5,0.5,1",""
"null","","html-keyboard-response","324","465438","0.0-324.0","3AWETUDC93EJN74H6Z6G1VST4VOIZG","ACSS93E03ZUGX","3A3KKYU7P33Z3BR9PPFZ5194ZCQMWU","","","<img src=""img/flower1.png"" style=""width:200px; border:14px solid green;"">","null","","","","","",""
"1245.300000000745","","image-keyboard-response","325","466688","0.0-325.0","3AWETUDC93EJN74H6Z6G1VST4VOIZG","ACSS93E03ZUGX","3A3KKYU7P33Z3BR9PPFZ5194ZCQMWU","","","img/flower2.png","76","1248.699999999255","3","1","3","1,0.5,0.5,0.5,1,0.5,0.5,0.5,1",""
"null","","html-keyboard-response","326","466995","0.0-326.0","3AWETUDC93EJN74H6Z6G1VST4VOIZG","ACSS93E03ZUGX","3A3KKYU7P33Z3BR9PPFZ5194ZCQMWU","","","<img src=""img/flower2.png"" style=""width:200px; border:14px solid green;"">","null","","","","","",""
"1013.6000000014901","","image-keyboard-response","327","468013","0.0-327.0","3AWETUDC93EJN74H6Z6G1VST4VOIZG","ACSS93E03ZUGX","3A3KKYU7P33Z3BR9PPFZ5194ZCQMWU","","","img/flower1.png","74","1016.8999999985099","1","0","2","1,0.5,0.5,0.5,1,0.5,0.5,0.5,1",""
"null","","html-keyboard-response","328","468318","0.0-328.0","3AWETUDC93EJN74H6Z6G1VST4VOIZG","ACSS93E03ZUGX","3A3KKYU7P33Z3BR9PPFZ5194ZCQMWU","","","<img src=""img/flower1.png"" style=""width:200px;border:14px solid red;"">","null","","","","","",""
"803","","image-keyboard-response","329","469125","0.0-329.0","3AWETUDC93EJN74H6Z6G1VST4VOIZG","ACSS93E03ZUGX","3A3KKYU7P33Z3BR9PPFZ5194ZCQMWU","","","img/flower2.png","76","806.3000000007451","3","1","3","1,0.5,0.5,0.5,1,0.5,0.5,0.5,1",""
"null","","html-keyboard-response","330","469431","0.0-330.0","3AWETUDC93EJN74H6Z6G1VST4VOIZG","ACSS93E03ZUGX","3A3KKYU7P33Z3BR9PPFZ5194ZCQMWU","","","<img src=""img/flower2.png"" style=""width:200px; border:14px solid green;"">","null","","","","","",""
"771.6000000014901","","image-keyboard-response","331","470207","0.0-331.0","3AWETUDC93EJN74H6Z6G1VST4VOIZG","ACSS93E03ZUGX","3A3KKYU7P33Z3BR9PPFZ5194ZCQMWU","","","img/flower2.png","76","775.1999999992549","3","1","3","1,0.5,0.5,0.5,1,0.5,0.5,0.5,1",""
"null","","html-keyboard-response","332","470518","0.0-332.0","3AWETUDC93EJN74H6Z6G1VST4VOIZG","ACSS93E03ZUGX","3A3KKYU7P33Z3BR9PPFZ5194ZCQMWU","","","<img src=""img/flower2.png"" style=""width:200px; border:14px solid green;"">","null","","","","","",""
"805","","image-keyboard-response","333","471327","0.0-333.0","3AWETUDC93EJN74H6Z6G1VST4VOIZG","ACSS93E03ZUGX","3A3KKYU7P33Z3BR9PPFZ5194ZCQMWU","","","img/flower6.png","76","808.6000000014901","3","1","1","1,0.5,0.5,0.5,1,0.5,0.5,0.5,1",""
"null","","html-keyboard-response","334","471639","0.0-334.0","3AWETUDC93EJN74H6Z6G1VST4VOIZG","ACSS93E03ZUGX","3A3KKYU7P33Z3BR9PPFZ5194ZCQMWU","","","<img src=""img/flower6.png"" style=""width:200px; border:14px solid green;"">","null","","","","","",""
"588.8999999985099","","image-keyboard-response","335","472232","0.0-335.0","3AWETUDC93EJN74H6Z6G1VST4VOIZG","ACSS93E03ZUGX","3A3KKYU7P33Z3BR9PPFZ5194ZCQMWU","","","img/flower2.png","76","592.5","3","1","3","1,0.5,0.5,0.5,1,0.5,0.5,0.5,1",""
"null","","html-keyboard-response","336","472542","0.0-336.0","3AWETUDC93EJN74H6Z6G1VST4VOIZG","ACSS93E03ZUGX","3A3KKYU7P33Z3BR9PPFZ5194ZCQMWU","","","<img src=""img/flower2.png"" style=""width:200px; border:14px solid green;"">","null","","","","","",""
"1096","","image-keyboard-response","337","473642","0.0-337.0","3AWETUDC93EJN74H6Z6G1VST4VOIZG","ACSS93E03ZUGX","3A3KKYU7P33Z3BR9PPFZ5194ZCQMWU","","","img/flower1.png","74","1099.9000000022352","1","0","2","1,0.5,0.5,0.5,1,0.5,0.5,0.5,1",""
"null","","html-keyboard-response","338","473951","0.0-338.0","3AWETUDC93EJN74H6Z6G1VST4VOIZG","ACSS93E03ZUGX","3A3KKYU7P33Z3BR9PPFZ5194ZCQMWU","","","<img src=""img/flower1.png"" style=""width:200px;border:14px solid red;"">","null","","","","","",""
"893.1000000014901","","image-keyboard-response","339","474848","0.0-339.0","3AWETUDC93EJN74H6Z6G1VST4VOIZG","ACSS93E03ZUGX","3A3KKYU7P33Z3BR9PPFZ5194ZCQMWU","","","img/flower2.png","76","896.6999999992549","3","1","3","1,0.5,0.5,0.5,1,0.5,0.5,0.5,1",""
"null","","html-keyboard-response","340","475159","0.0-340.0","3AWETUDC93EJN74H6Z6G1VST4VOIZG","ACSS93E03ZUGX","3A3KKYU7P33Z3BR9PPFZ5194ZCQMWU","","","<img src=""img/flower2.png"" style=""width:200px; border:14px solid green;"">","null","","","","","",""
"709.1999999992549","","image-keyboard-response","341","475873","0.0-341.0","3AWETUDC93EJN74H6Z6G1VST4VOIZG","ACSS93E03ZUGX","3A3KKYU7P33Z3BR9PPFZ5194ZCQMWU","","","img/flower1.png","75","713.2999999970198","2","1","2","1,0.5,0.5,0.5,1,0.5,0.5,0.5,1",""
"null","","html-keyboard-response","342","476183","0.0-342.0","3AWETUDC93EJN74H6Z6G1VST4VOIZG","ACSS93E03ZUGX","3A3KKYU7P33Z3BR9PPFZ5194ZCQMWU","","","<img src=""img/flower1.png"" style=""width:200px; border:14px solid green;"">","null","","","","","",""
"727","","image-keyboard-response","343","476914","0.0-343.0","3AWETUDC93EJN74H6Z6G1VST4VOIZG","ACSS93E03ZUGX","3A3KKYU7P33Z3BR9PPFZ5194ZCQMWU","","","img/flower1.png","75","730.5999999977648","2","1","2","1,0.5,0.5,0.5,1,0.5,0.5,0.5,1",""
"null","","html-keyboard-response","344","477222","0.0-344.0","3AWETUDC93EJN74H6Z6G1VST4VOIZG","ACSS93E03ZUGX","3A3KKYU7P33Z3BR9PPFZ5194ZCQMWU","","","<img src=""img/flower1.png"" style=""width:200px; border:14px solid green;"">","null","","","","","",""
"694.8999999985099","","image-keyboard-response","345","477921","0.0-345.0","3AWETUDC93EJN74H6Z6G1VST4VOIZG","ACSS93E03ZUGX","3A3KKYU7P33Z3BR9PPFZ5194ZCQMWU","","","img/flower1.png","75","699","2","1","2","1,0.5,0.5,0.5,1,0.5,0.5,0.5,1",""
"null","","html-keyboard-response","346","478231","0.0-346.0","3AWETUDC93EJN74H6Z6G1VST4VOIZG","ACSS93E03ZUGX","3A3KKYU7P33Z3BR9PPFZ5194ZCQMWU","","","<img src=""img/flower1.png"" style=""width:200px; border:14px solid green;"">","null","","","","","",""
"745.7000000029802","","image-keyboard-response","347","478982","0.0-347.0","3AWETUDC93EJN74H6Z6G1VST4VOIZG","ACSS93E03ZUGX","3A3KKYU7P33Z3BR9PPFZ5194ZCQMWU","","","img/flower1.png","75","750.5999999977648","2","1","2","1,0.5,0.5,0.5,1,0.5,0.5,0.5,1",""
"null","","html-keyboard-response","348","479294","0.0-348.0","3AWETUDC93EJN74H6Z6G1VST4VOIZG","ACSS93E03ZUGX","3A3KKYU7P33Z3BR9PPFZ5194ZCQMWU","","","<img src=""img/flower1.png"" style=""width:200px; border:14px solid green;"">","null","","","","","",""
"601.1999999992549","","image-keyboard-response","349","479899","0.0-349.0","3AWETUDC93EJN74H6Z6G1VST4VOIZG","ACSS93E03ZUGX","3A3KKYU7P33Z3BR9PPFZ5194ZCQMWU","","","img/flower2.png","76","604.5","3","1","3","1,0.5,0.5,0.5,1,0.5,0.5,0.5,1",""
"null","","html-keyboard-response","350","480207","0.0-350.0","3AWETUDC93EJN74H6Z6G1VST4VOIZG","ACSS93E03ZUGX","3A3KKYU7P33Z3BR9PPFZ5194ZCQMWU","","","<img src=""img/flower2.png"" style=""width:200px; border:14px solid green;"">","null","","","","","",""
"737.5999999977648","","image-keyboard-response","351","480949","0.0-351.0","3AWETUDC93EJN74H6Z6G1VST4VOIZG","ACSS93E03ZUGX","3A3KKYU7P33Z3BR9PPFZ5194ZCQMWU","","","img/flower6.png","76","741","3","1","1","1,0.5,0.5,0.5,1,0.5,0.5,0.5,1",""
"null","","html-keyboard-response","352","481255","0.0-352.0","3AWETUDC93EJN74H6Z6G1VST4VOIZG","ACSS93E03ZUGX","3A3KKYU7P33Z3BR9PPFZ5194ZCQMWU","","","<img src=""img/flower6.png"" style=""width:200px; border:14px solid green;"">","null","","","","","",""
"564.3999999985099","","image-keyboard-response","353","481824","0.0-353.0","3AWETUDC93EJN74H6Z6G1VST4VOIZG","ACSS93E03ZUGX","3A3KKYU7P33Z3BR9PPFZ5194ZCQMWU","","","img/flower2.png","76","568.5","3","1","3","1,0.5,0.5,0.5,1,0.5,0.5,0.5,1",""
"null","","html-keyboard-response","354","482134","0.0-354.0","3AWETUDC93EJN74H6Z6G1VST4VOIZG","ACSS93E03ZUGX","3A3KKYU7P33Z3BR9PPFZ5194ZCQMWU","","","<img src=""img/flower2.png"" style=""width:200px; border:14px solid green;"">","null","","","","","",""
"678.4000000022352","","image-keyboard-response","355","482816","0.0-355.0","3AWETUDC93EJN74H6Z6G1VST4VOIZG","ACSS93E03ZUGX","3A3KKYU7P33Z3BR9PPFZ5194ZCQMWU","","","img/flower1.png","75","681.5","2","1","2","1,0.5,0.5,0.5,1,0.5,0.5,0.5,1",""
"null","","html-keyboard-response","356","483126","0.0-356.0","3AWETUDC93EJN74H6Z6G1VST4VOIZG","ACSS93E03ZUGX","3A3KKYU7P33Z3BR9PPFZ5194ZCQMWU","","","<img src=""img/flower1.png"" style=""width:200px; border:14px solid green;"">","null","","","","","",""
"660.7999999970198","","image-keyboard-response","357","483791","0.0-357.0","3AWETUDC93EJN74H6Z6G1VST4VOIZG","ACSS93E03ZUGX","3A3KKYU7P33Z3BR9PPFZ5194ZCQMWU","","","img/flower6.png","76","664.1999999992549","3","1","1","1,0.5,0.5,0.5,1,0.5,0.5,0.5,1",""
"null","","html-keyboard-response","358","484102","0.0-358.0","3AWETUDC93EJN74H6Z6G1VST4VOIZG","ACSS93E03ZUGX","3A3KKYU7P33Z3BR9PPFZ5194ZCQMWU","","","<img src=""img/flower6.png"" style=""width:200px; border:14px solid green;"">","null","","","","","",""
"654.5","","image-keyboard-response","359","484760","0.0-359.0","3AWETUDC93EJN74H6Z6G1VST4VOIZG","ACSS93E03ZUGX","3A3KKYU7P33Z3BR9PPFZ5194ZCQMWU","","","img/flower6.png","76","657.6999999992549","3","0","1","1,0.5,0.5,0.5,1,0.5,0.5,0.5,1",""
"null","","html-keyboard-response","360","485070","0.0-360.0","3AWETUDC93EJN74H6Z6G1VST4VOIZG","ACSS93E03ZUGX","3A3KKYU7P33Z3BR9PPFZ5194ZCQMWU","","","<img src=""img/flower6.png"" style=""width:200px;border:14px solid red;"">","null","","","","","",""
"1368.5","","image-keyboard-response","361","486442","0.0-361.0","3AWETUDC93EJN74H6Z6G1VST4VOIZG","ACSS93E03ZUGX","3A3KKYU7P33Z3BR9PPFZ5194ZCQMWU","","","img/flower2.png","75","1371.5","2","0","3","1,0.5,0.5,0.5,1,0.5,0.5,0.5,1",""
"null","","html-keyboard-response","362","486750","0.0-362.0","3AWETUDC93EJN74H6Z6G1VST4VOIZG","ACSS93E03ZUGX","3A3KKYU7P33Z3BR9PPFZ5194ZCQMWU","","","<img src=""img/flower2.png"" style=""width:200px;border:14px solid red;"">","null","","","","","",""
"1007.8000000007451","","image-keyboard-response","363","487762","0.0-363.0","3AWETUDC93EJN74H6Z6G1VST4VOIZG","ACSS93E03ZUGX","3A3KKYU7P33Z3BR9PPFZ5194ZCQMWU","","","img/flower1.png","75","1011","2","1","2","1,0.5,0.5,0.5,1,0.5,0.5,0.5,1",""
"null","","html-keyboard-response","364","488070","0.0-364.0","3AWETUDC93EJN74H6Z6G1VST4VOIZG","ACSS93E03ZUGX","3A3KKYU7P33Z3BR9PPFZ5194ZCQMWU","","","<img src=""img/flower1.png"" style=""width:200px; border:14px solid green;"">","null","","","","","",""
"828.6000000014901","","image-keyboard-response","365","488903","0.0-365.0","3AWETUDC93EJN74H6Z6G1VST4VOIZG","ACSS93E03ZUGX","3A3KKYU7P33Z3BR9PPFZ5194ZCQMWU","","","img/flower1.png","75","831.8999999985099","2","1","2","1,0.5,0.5,0.5,1,0.5,0.5,0.5,1",""
"null","","html-keyboard-response","366","489214","0.0-366.0","3AWETUDC93EJN74H6Z6G1VST4VOIZG","ACSS93E03ZUGX","3A3KKYU7P33Z3BR9PPFZ5194ZCQMWU","","","<img src=""img/flower1.png"" style=""width:200px; border:14px solid green;"">","null","","","","","",""
"692.6000000014901","","image-keyboard-response","367","489911","0.0-367.0","3AWETUDC93EJN74H6Z6G1VST4VOIZG","ACSS93E03ZUGX","3A3KKYU7P33Z3BR9PPFZ5194ZCQMWU","","","img/flower1.png","75","695.8999999985099","2","1","2","1,0.5,0.5,0.5,1,0.5,0.5,0.5,1",""
"null","","html-keyboard-response","368","490222","0.0-368.0","3AWETUDC93EJN74H6Z6G1VST4VOIZG","ACSS93E03ZUGX","3A3KKYU7P33Z3BR9PPFZ5194ZCQMWU","","","<img src=""img/flower1.png"" style=""width:200px; border:14px solid green;"">","null","","","","","",""
"1383.5","","image-keyboard-response","369","491610","0.0-369.0","3AWETUDC93EJN74H6Z6G1VST4VOIZG","ACSS93E03ZUGX","3A3KKYU7P33Z3BR9PPFZ5194ZCQMWU","","","img/flower2.png","76","1386.800000000745","3","1","3","1,0.5,0.5,0.5,1,0.5,0.5,0.5,1",""
"null","","html-keyboard-response","370","491919","0.0-370.0","3AWETUDC93EJN74H6Z6G1VST4VOIZG","ACSS93E03ZUGX","3A3KKYU7P33Z3BR9PPFZ5194ZCQMWU","","","<img src=""img/flower2.png"" style=""width:200px; border:14px solid green;"">","null","","","","","",""
"2179.699999999255","","image-keyboard-response","371","494103","0.0-371.0","3AWETUDC93EJN74H6Z6G1VST4VOIZG","ACSS93E03ZUGX","3A3KKYU7P33Z3BR9PPFZ5194ZCQMWU","","","img/flower2.png","76","2183.10000000149","3","1","3","1,0.5,0.5,0.5,1,0.5,0.5,0.5,1",""
"null","","html-keyboard-response","372","494411","0.0-372.0","3AWETUDC93EJN74H6Z6G1VST4VOIZG","ACSS93E03ZUGX","3A3KKYU7P33Z3BR9PPFZ5194ZCQMWU","","","<img src=""img/flower2.png"" style=""width:200px; border:14px solid green;"">","null","","","","","",""
"1048.9000000022352","","image-keyboard-response","373","495466","0.0-373.0","3AWETUDC93EJN74H6Z6G1VST4VOIZG","ACSS93E03ZUGX","3A3KKYU7P33Z3BR9PPFZ5194ZCQMWU","","","img/flower1.png","75","1053.3999999985099","2","1","2","1,0.5,0.5,0.5,1,0.5,0.5,0.5,1",""
"null","","html-keyboard-response","374","495774","0.0-374.0","3AWETUDC93EJN74H6Z6G1VST4VOIZG","ACSS93E03ZUGX","3A3KKYU7P33Z3BR9PPFZ5194ZCQMWU","","","<img src=""img/flower1.png"" style=""width:200px; border:14px solid green;"">","null","","","","","",""
"1976","","image-keyboard-response","375","497754","0.0-375.0","3AWETUDC93EJN74H6Z6G1VST4VOIZG","ACSS93E03ZUGX","3A3KKYU7P33Z3BR9PPFZ5194ZCQMWU","","","img/flower1.png","75","1979.8999999985099","2","1","2","1,0.5,0.5,0.5,1,0.5,0.5,0.5,1",""
"null","","html-keyboard-response","376","498063","0.0-376.0","3AWETUDC93EJN74H6Z6G1VST4VOIZG","ACSS93E03ZUGX","3A3KKYU7P33Z3BR9PPFZ5194ZCQMWU","","","<img src=""img/flower1.png"" style=""width:200px; border:14px solid green;"">","null","","","","","",""
"833","","image-keyboard-response","377","498901","0.0-377.0","3AWETUDC93EJN74H6Z6G1VST4VOIZG","ACSS93E03ZUGX","3A3KKYU7P33Z3BR9PPFZ5194ZCQMWU","","","img/flower6.png","76","837.1000000014901","3","1","1","1,0.5,0.5,0.5,1,0.5,0.5,0.5,1",""
"null","","html-keyboard-response","378","499207","0.0-378.0","3AWETUDC93EJN74H6Z6G1VST4VOIZG","ACSS93E03ZUGX","3A3KKYU7P33Z3BR9PPFZ5194ZCQMWU","","","<img src=""img/flower6.png"" style=""width:200px; border:14px solid green;"">","null","","","","","",""
"1309.5","","image-keyboard-response","379","500521","0.0-379.0","3AWETUDC93EJN74H6Z6G1VST4VOIZG","ACSS93E03ZUGX","3A3KKYU7P33Z3BR9PPFZ5194ZCQMWU","","","img/flower6.png","76","1313.1000000014901","3","1","1","1,0.5,0.5,0.5,1,0.5,0.5,0.5,1",""
"null","","html-keyboard-response","380","500830","0.0-380.0","3AWETUDC93EJN74H6Z6G1VST4VOIZG","ACSS93E03ZUGX","3A3KKYU7P33Z3BR9PPFZ5194ZCQMWU","","","<img src=""img/flower6.png"" style=""width:200px; border:14px solid green;"">","null","","","","","",""
"1022.0999999977648","","image-keyboard-response","381","501856","0.0-381.0","3AWETUDC93EJN74H6Z6G1VST4VOIZG","ACSS93E03ZUGX","3A3KKYU7P33Z3BR9PPFZ5194ZCQMWU","","","img/flower1.png","75","1025.5","2","1","2","1,0.5,0.5,0.5,1,0.5,0.5,0.5,1",""
"null","","html-keyboard-response","382","502166","0.0-382.0","3AWETUDC93EJN74H6Z6G1VST4VOIZG","ACSS93E03ZUGX","3A3KKYU7P33Z3BR9PPFZ5194ZCQMWU","","","<img src=""img/flower1.png"" style=""width:200px; border:14px solid green;"">","null","","","","","",""
"806.7000000029802","","image-keyboard-response","383","502977","0.0-383.0","3AWETUDC93EJN74H6Z6G1VST4VOIZG","ACSS93E03ZUGX","3A3KKYU7P33Z3BR9PPFZ5194ZCQMWU","","","img/flower2.png","76","810.5","3","1","3","1,0.5,0.5,0.5,1,0.5,0.5,0.5,1",""
"null","","html-keyboard-response","384","503287","0.0-384.0","3AWETUDC93EJN74H6Z6G1VST4VOIZG","ACSS93E03ZUGX","3A3KKYU7P33Z3BR9PPFZ5194ZCQMWU","","","<img src=""img/flower2.png"" style=""width:200px; border:14px solid green;"">","null","","","","","",""
"804.6000000014901","","image-keyboard-response","385","504096","0.0-385.0","3AWETUDC93EJN74H6Z6G1VST4VOIZG","ACSS93E03ZUGX","3A3KKYU7P33Z3BR9PPFZ5194ZCQMWU","","","img/flower2.png","76","808","3","1","3","1,0.5,0.5,0.5,1,0.5,0.5,0.5,1",""
"null","","html-keyboard-response","386","504407","0.0-386.0","3AWETUDC93EJN74H6Z6G1VST4VOIZG","ACSS93E03ZUGX","3A3KKYU7P33Z3BR9PPFZ5194ZCQMWU","","","<img src=""img/flower2.png"" style=""width:200px; border:14px solid green;"">","null","","","","","",""
"744.1999999992549","","image-keyboard-response","387","505156","0.0-387.0","3AWETUDC93EJN74H6Z6G1VST4VOIZG","ACSS93E03ZUGX","3A3KKYU7P33Z3BR9PPFZ5194ZCQMWU","","","img/flower6.png","76","748","3","0","1","1,0.5,0.5,0.5,1,0.5,0.5,0.5,1",""
"null","","html-keyboard-response","388","505462","0.0-388.0","3AWETUDC93EJN74H6Z6G1VST4VOIZG","ACSS93E03ZUGX","3A3KKYU7P33Z3BR9PPFZ5194ZCQMWU","","","<img src=""img/flower6.png"" style=""width:200px;border:14px solid red;"">","null","","","","","",""
"909.6999999992549","","image-keyboard-response","389","506376","0.0-389.0","3AWETUDC93EJN74H6Z6G1VST4VOIZG","ACSS93E03ZUGX","3A3KKYU7P33Z3BR9PPFZ5194ZCQMWU","","","img/flower2.png","76","913.3000000007451","3","1","3","1,0.5,0.5,0.5,1,0.5,0.5,0.5,1",""
"null","","html-keyboard-response","390","506687","0.0-390.0","3AWETUDC93EJN74H6Z6G1VST4VOIZG","ACSS93E03ZUGX","3A3KKYU7P33Z3BR9PPFZ5194ZCQMWU","","","<img src=""img/flower2.png"" style=""width:200px; border:14px solid green;"">","null","","","","","",""
"785.6000000014901","","image-keyboard-response","391","507477","0.0-391.0","3AWETUDC93EJN74H6Z6G1VST4VOIZG","ACSS93E03ZUGX","3A3KKYU7P33Z3BR9PPFZ5194ZCQMWU","","","img/flower6.png","76","789.6000000014901","3","1","1","1,0.5,0.5,0.5,1,0.5,0.5,0.5,1",""
"null","","html-keyboard-response","392","507783","0.0-392.0","3AWETUDC93EJN74H6Z6G1VST4VOIZG","ACSS93E03ZUGX","3A3KKYU7P33Z3BR9PPFZ5194ZCQMWU","","","<img src=""img/flower6.png"" style=""width:200px; border:14px solid green;"">","null","","","","","",""
"819.6000000014901","","image-keyboard-response","393","508607","0.0-393.0","3AWETUDC93EJN74H6Z6G1VST4VOIZG","ACSS93E03ZUGX","3A3KKYU7P33Z3BR9PPFZ5194ZCQMWU","","","img/flower1.png","75","823.1000000014901","2","1","2","1,0.5,0.5,0.5,1,0.5,0.5,0.5,1",""
"null","","html-keyboard-response","394","508918","0.0-394.0","3AWETUDC93EJN74H6Z6G1VST4VOIZG","ACSS93E03ZUGX","3A3KKYU7P33Z3BR9PPFZ5194ZCQMWU","","","<img src=""img/flower1.png"" style=""width:200px; border:14px solid green;"">","null","","","","","",""
"1076.5","","image-keyboard-response","395","510000","0.0-395.0","3AWETUDC93EJN74H6Z6G1VST4VOIZG","ACSS93E03ZUGX","3A3KKYU7P33Z3BR9PPFZ5194ZCQMWU","","","img/flower6.png","76","1080.4000000022352","3","0","1","1,0.5,0.5,0.5,1,0.5,0.5,0.5,1",""
"null","","html-keyboard-response","396","510311","0.0-396.0","3AWETUDC93EJN74H6Z6G1VST4VOIZG","ACSS93E03ZUGX","3A3KKYU7P33Z3BR9PPFZ5194ZCQMWU","","","<img src=""img/flower6.png"" style=""width:200px;border:14px solid red;"">","null","","","","","",""
"2146.60000000149","","image-keyboard-response","397","512461","0.0-397.0","3AWETUDC93EJN74H6Z6G1VST4VOIZG","ACSS93E03ZUGX","3A3KKYU7P33Z3BR9PPFZ5194ZCQMWU","","","img/flower1.png","75","2150.099999997765","2","1","2","1,0.5,0.5,0.5,1,0.5,0.5,0.5,1",""
"null","","html-keyboard-response","398","512766","0.0-398.0","3AWETUDC93EJN74H6Z6G1VST4VOIZG","ACSS93E03ZUGX","3A3KKYU7P33Z3BR9PPFZ5194ZCQMWU","","","<img src=""img/flower1.png"" style=""width:200px; border:14px solid green;"">","null","","","","","",""
"787.8000000007451","","image-keyboard-response","399","513559","0.0-399.0","3AWETUDC93EJN74H6Z6G1VST4VOIZG","ACSS93E03ZUGX","3A3KKYU7P33Z3BR9PPFZ5194ZCQMWU","","","img/flower6.png","76","791.7000000029802","3","1","1","1,0.5,0.5,0.5,1,0.5,0.5,0.5,1",""
"null","","html-keyboard-response","400","513871","0.0-400.0","3AWETUDC93EJN74H6Z6G1VST4VOIZG","ACSS93E03ZUGX","3A3KKYU7P33Z3BR9PPFZ5194ZCQMWU","","","<img src=""img/flower6.png"" style=""width:200px; border:14px solid green;"">","null","","","","","",""
"1680.4000000022352","","image-keyboard-response","401","515555","0.0-401.0","3AWETUDC93EJN74H6Z6G1VST4VOIZG","ACSS93E03ZUGX","3A3KKYU7P33Z3BR9PPFZ5194ZCQMWU","","","img/flower2.png","76","1683.5","3","1","3","1,0.5,0.5,0.5,1,0.5,0.5,0.5,1",""
"null","","html-keyboard-response","402","515862","0.0-402.0","3AWETUDC93EJN74H6Z6G1VST4VOIZG","ACSS93E03ZUGX","3A3KKYU7P33Z3BR9PPFZ5194ZCQMWU","","","<img src=""img/flower2.png"" style=""width:200px; border:14px solid green;"">","null","","","","","",""
"1249.800000000745","","image-keyboard-response","403","517115","0.0-403.0","3AWETUDC93EJN74H6Z6G1VST4VOIZG","ACSS93E03ZUGX","3A3KKYU7P33Z3BR9PPFZ5194ZCQMWU","","","img/flower6.png","76","1252.9000000022352","3","0","1","1,0.5,0.5,0.5,1,0.5,0.5,0.5,1",""
"null","","html-keyboard-response","404","517423","0.0-404.0","3AWETUDC93EJN74H6Z6G1VST4VOIZG","ACSS93E03ZUGX","3A3KKYU7P33Z3BR9PPFZ5194ZCQMWU","","","<img src=""img/flower6.png"" style=""width:200px;border:14px solid red;"">","null","","","","","",""
"989.8000000007451","","image-keyboard-response","405","518418","0.0-405.0","3AWETUDC93EJN74H6Z6G1VST4VOIZG","ACSS93E03ZUGX","3A3KKYU7P33Z3BR9PPFZ5194ZCQMWU","","","img/flower1.png","75","993.9000000022352","2","1","2","1,0.5,0.5,0.5,1,0.5,0.5,0.5,1",""
"null","","html-keyboard-response","406","518727","0.0-406.0","3AWETUDC93EJN74H6Z6G1VST4VOIZG","ACSS93E03ZUGX","3A3KKYU7P33Z3BR9PPFZ5194ZCQMWU","","","<img src=""img/flower1.png"" style=""width:200px; border:14px solid green;"">","null","","","","","",""
"854.1999999992549","","image-keyboard-response","407","519586","0.0-407.0","3AWETUDC93EJN74H6Z6G1VST4VOIZG","ACSS93E03ZUGX","3A3KKYU7P33Z3BR9PPFZ5194ZCQMWU","","","img/flower1.png","75","858.2999999970198","2","1","2","1,0.5,0.5,0.5,1,0.5,0.5,0.5,1",""
"null","","html-keyboard-response","408","519895","0.0-408.0","3AWETUDC93EJN74H6Z6G1VST4VOIZG","ACSS93E03ZUGX","3A3KKYU7P33Z3BR9PPFZ5194ZCQMWU","","","<img src=""img/flower1.png"" style=""width:200px; border:14px solid green;"">","null","","","","","",""
