"success","trial_type","trial_index","time_elapsed","internal_node_id","assignmentID","mturkID","hitID","view_history","rt","stimulus","key_press","reactionTime","a","r","s","cond","reward_cond","reward_cond_actual","reward_matrix_idx","responses"
"true","fullscreen","0","2489","0.0-0.0","3KYQYYSHYWTQGSAOCCUOU05CVJ8ODA","AEK2SAEL9GG39","3SA4EMRVJVOCGON1OYE6FAUV3KKP05","","","","","","","","","","","","",""
"","instructions","1","49840","0.0-1.0","3KYQYYSHYWTQGSAOCCUOU05CVJ8ODA","AEK2SAEL9GG39","3SA4EMRVJVOCGON1OYE6FAUV3KKP05","[{""page_index"":0,""viewing_time"":2735.899999976158},{""page_index"":1,""viewing_time"":7749.900000035763},{""page_index"":2,""viewing_time"":3137.899999976158},{""page_index"":3,""viewing_time"":24972.100000023842},{""page_index"":4,""viewing_time"":3804},{""page_index"":5,""viewing_time"":1804},{""page_index"":6,""viewing_time"":2212},{""page_index"":7,""viewing_time"":934}]","47350.09999996424","","","","","","","","","","",""
"","image-keyboard-response","2","50832","0.0-2.0","3KYQYYSHYWTQGSAOCCUOU05CVJ8ODA","AEK2SAEL9GG39","3SA4EMRVJVOCGON1OYE6FAUV3KKP05","","990.8999999761581","img/flower4.png","74","992","1","1","2","2","1,0,0,1,1,0,1,0,1","0,0,1,1,0,1,0,1,1","2",""
"","html-keyboard-response","3","51135","0.0-3.0","3KYQYYSHYWTQGSAOCCUOU05CVJ8ODA","AEK2SAEL9GG39","3SA4EMRVJVOCGON1OYE6FAUV3KKP05","","null","<img src=""img/flower4.png"" style=""width:200px; border:14px solid green;"">","null","","","","","","","","",""
"","image-keyboard-response","4","51440","0.0-4.0","3KYQYYSHYWTQGSAOCCUOU05CVJ8ODA","AEK2SAEL9GG39","3SA4EMRVJVOCGON1OYE6FAUV3KKP05","","304.19999998807907","img/flower4.png","75","304.80000001192093","2","0","2","2","1,0,0,1,1,0,1,0,1","0,0,1,1,0,1,0,1,1","2",""
"","html-keyboard-response","5","51742","0.0-5.0","3KYQYYSHYWTQGSAOCCUOU05CVJ8ODA","AEK2SAEL9GG39","3SA4EMRVJVOCGON1OYE6FAUV3KKP05","","null","<img src=""img/flower4.png"" style=""width:200px;border:14px solid red;"">","null","","","","","","","","",""
"","image-keyboard-response","6","52080","0.0-6.0","3KYQYYSHYWTQGSAOCCUOU05CVJ8ODA","AEK2SAEL9GG39","3SA4EMRVJVOCGON1OYE6FAUV3KKP05","","336.80000001192093","img/flower1.png","76","337.5","3","1","1","2","1,0,0,1,1,0,1,0,1","0,0,1,1,0,1,0,1,1","2",""
"","html-keyboard-response","7","52381","0.0-7.0","3KYQYYSHYWTQGSAOCCUOU05CVJ8ODA","AEK2SAEL9GG39","3SA4EMRVJVOCGON1OYE6FAUV3KKP05","","null","<img src=""img/flower1.png"" style=""width:200px; border:14px solid green;"">","null","","","","","","","","",""
"","image-keyboard-response","8","52712","0.0-8.0","3KYQYYSHYWTQGSAOCCUOU05CVJ8ODA","AEK2SAEL9GG39","3SA4EMRVJVOCGON1OYE6FAUV3KKP05","","329.80000001192093","img/flower4.png","75","330.4000000357628","2","0","2","2","1,0,0,1,1,0,1,0,1","0,0,1,1,0,1,0,1,1","2",""
"","html-keyboard-response","9","53014","0.0-9.0","3KYQYYSHYWTQGSAOCCUOU05CVJ8ODA","AEK2SAEL9GG39","3SA4EMRVJVOCGON1OYE6FAUV3KKP05","","null","<img src=""img/flower4.png"" style=""width:200px;border:14px solid red;"">","null","","","","","","","","",""
"","image-keyboard-response","10","53272","0.0-10.0","3KYQYYSHYWTQGSAOCCUOU05CVJ8ODA","AEK2SAEL9GG39","3SA4EMRVJVOCGON1OYE6FAUV3KKP05","","257.60000002384186","img/flower3.png","74","258.19999998807907","1","0","3","2","1,0,0,1,1,0,1,0,1","0,0,1,1,0,1,0,1,1","2",""
"","html-keyboard-response","11","53573","0.0-11.0","3KYQYYSHYWTQGSAOCCUOU05CVJ8ODA","AEK2SAEL9GG39","3SA4EMRVJVOCGON1OYE6FAUV3KKP05","","null","<img src=""img/flower3.png"" style=""width:200px;border:14px solid red;"">","null","","","","","","","","",""
"","image-keyboard-response","12","53832","0.0-12.0","3KYQYYSHYWTQGSAOCCUOU05CVJ8ODA","AEK2SAEL9GG39","3SA4EMRVJVOCGON1OYE6FAUV3KKP05","","258","img/flower3.png","75","258.60000002384186","2","1","3","2","1,0,0,1,1,0,1,0,1","0,0,1,1,0,1,0,1,1","2",""
"","html-keyboard-response","13","54133","0.0-13.0","3KYQYYSHYWTQGSAOCCUOU05CVJ8ODA","AEK2SAEL9GG39","3SA4EMRVJVOCGON1OYE6FAUV3KKP05","","null","<img src=""img/flower3.png"" style=""width:200px; border:14px solid green;"">","null","","","","","","","","",""
"","image-keyboard-response","14","54416","0.0-14.0","3KYQYYSHYWTQGSAOCCUOU05CVJ8ODA","AEK2SAEL9GG39","3SA4EMRVJVOCGON1OYE6FAUV3KKP05","","282.4000000357628","img/flower4.png","76","283","3","1","2","2","1,0,0,1,1,0,1,0,1","0,0,1,1,0,1,0,1,1","2",""
"","html-keyboard-response","15","54717","0.0-15.0","3KYQYYSHYWTQGSAOCCUOU05CVJ8ODA","AEK2SAEL9GG39","3SA4EMRVJVOCGON1OYE6FAUV3KKP05","","null","<img src=""img/flower4.png"" style=""width:200px; border:14px solid green;"">","null","","","","","","","","",""
"","image-keyboard-response","16","54936","0.0-16.0","3KYQYYSHYWTQGSAOCCUOU05CVJ8ODA","AEK2SAEL9GG39","3SA4EMRVJVOCGON1OYE6FAUV3KKP05","","218.5","img/flower3.png","75","219","2","1","3","2","1,0,0,1,1,0,1,0,1","0,0,1,1,0,1,0,1,1","2",""
"","html-keyboard-response","17","55237","0.0-17.0","3KYQYYSHYWTQGSAOCCUOU05CVJ8ODA","AEK2SAEL9GG39","3SA4EMRVJVOCGON1OYE6FAUV3KKP05","","null","<img src=""img/flower3.png"" style=""width:200px; border:14px solid green;"">","null","","","","","","","","",""
"","image-keyboard-response","18","55456","0.0-18.0","3KYQYYSHYWTQGSAOCCUOU05CVJ8ODA","AEK2SAEL9GG39","3SA4EMRVJVOCGON1OYE6FAUV3KKP05","","216.69999998807907","img/flower4.png","74","218.4000000357628","1","1","2","2","1,0,0,1,1,0,1,0,1","0,0,1,1,0,1,0,1,1","2",""
"","html-keyboard-response","19","55758","0.0-19.0","3KYQYYSHYWTQGSAOCCUOU05CVJ8ODA","AEK2SAEL9GG39","3SA4EMRVJVOCGON1OYE6FAUV3KKP05","","null","<img src=""img/flower4.png"" style=""width:200px; border:14px solid green;"">","null","","","","","","","","",""
"","image-keyboard-response","20","56016","0.0-20.0","3KYQYYSHYWTQGSAOCCUOU05CVJ8ODA","AEK2SAEL9GG39","3SA4EMRVJVOCGON1OYE6FAUV3KKP05","","256.5999999642372","img/flower3.png","75","258.2999999523163","2","1","3","2","1,0,0,1,1,0,1,0,1","0,0,1,1,0,1,0,1,1","2",""
"","html-keyboard-response","21","56317","0.0-21.0","3KYQYYSHYWTQGSAOCCUOU05CVJ8ODA","AEK2SAEL9GG39","3SA4EMRVJVOCGON1OYE6FAUV3KKP05","","null","<img src=""img/flower3.png"" style=""width:200px; border:14px solid green;"">","null","","","","","","","","",""
"","image-keyboard-response","22","56576","0.0-22.0","3KYQYYSHYWTQGSAOCCUOU05CVJ8ODA","AEK2SAEL9GG39","3SA4EMRVJVOCGON1OYE6FAUV3KKP05","","257.80000001192093","img/flower3.png","76","258.4000000357628","3","1","3","2","1,0,0,1,1,0,1,0,1","0,0,1,1,0,1,0,1,1","2",""
"","html-keyboard-response","23","56877","0.0-23.0","3KYQYYSHYWTQGSAOCCUOU05CVJ8ODA","AEK2SAEL9GG39","3SA4EMRVJVOCGON1OYE6FAUV3KKP05","","null","<img src=""img/flower3.png"" style=""width:200px; border:14px solid green;"">","null","","","","","","","","",""
"","image-keyboard-response","24","57104","0.0-24.0","3KYQYYSHYWTQGSAOCCUOU05CVJ8ODA","AEK2SAEL9GG39","3SA4EMRVJVOCGON1OYE6FAUV3KKP05","","226.20000004768372","img/flower4.png","75","226.80000001192093","2","0","2","2","1,0,0,1,1,0,1,0,1","0,0,1,1,0,1,0,1,1","2",""
"","html-keyboard-response","25","57405","0.0-25.0","3KYQYYSHYWTQGSAOCCUOU05CVJ8ODA","AEK2SAEL9GG39","3SA4EMRVJVOCGON1OYE6FAUV3KKP05","","null","<img src=""img/flower4.png"" style=""width:200px;border:14px solid red;"">","null","","","","","","","","",""
"","image-keyboard-response","26","57648","0.0-26.0","3KYQYYSHYWTQGSAOCCUOU05CVJ8ODA","AEK2SAEL9GG39","3SA4EMRVJVOCGON1OYE6FAUV3KKP05","","242.0999999642372","img/flower1.png","74","242.5999999642372","1","0","1","2","1,0,0,1,1,0,1,0,1","0,0,1,1,0,1,0,1,1","2",""
"","html-keyboard-response","27","57949","0.0-27.0","3KYQYYSHYWTQGSAOCCUOU05CVJ8ODA","AEK2SAEL9GG39","3SA4EMRVJVOCGON1OYE6FAUV3KKP05","","null","<img src=""img/flower1.png"" style=""width:200px;border:14px solid red;"">","null","","","","","","","","",""
"","image-keyboard-response","28","58121","0.0-28.0","3KYQYYSHYWTQGSAOCCUOU05CVJ8ODA","AEK2SAEL9GG39","3SA4EMRVJVOCGON1OYE6FAUV3KKP05","","170.69999998807907","img/flower3.png","75","171.4000000357628","2","1","3","2","1,0,0,1,1,0,1,0,1","0,0,1,1,0,1,0,1,1","2",""
"","html-keyboard-response","29","58422","0.0-29.0","3KYQYYSHYWTQGSAOCCUOU05CVJ8ODA","AEK2SAEL9GG39","3SA4EMRVJVOCGON1OYE6FAUV3KKP05","","null","<img src=""img/flower3.png"" style=""width:200px; border:14px solid green;"">","null","","","","","","","","",""
"","image-keyboard-response","30","58624","0.0-30.0","3KYQYYSHYWTQGSAOCCUOU05CVJ8ODA","AEK2SAEL9GG39","3SA4EMRVJVOCGON1OYE6FAUV3KKP05","","201.5","img/flower1.png","76","202.10000002384186","3","1","1","2","1,0,0,1,1,0,1,0,1","0,0,1,1,0,1,0,1,1","2",""
"","html-keyboard-response","31","58926","0.0-31.0","3KYQYYSHYWTQGSAOCCUOU05CVJ8ODA","AEK2SAEL9GG39","3SA4EMRVJVOCGON1OYE6FAUV3KKP05","","null","<img src=""img/flower1.png"" style=""width:200px; border:14px solid green;"">","null","","","","","","","","",""
"","image-keyboard-response","32","59081","0.0-32.0","3KYQYYSHYWTQGSAOCCUOU05CVJ8ODA","AEK2SAEL9GG39","3SA4EMRVJVOCGON1OYE6FAUV3KKP05","","155","img/flower4.png","75","155.5","2","0","2","2","1,0,0,1,1,0,1,0,1","0,0,1,1,0,1,0,1,1","2",""
"","html-keyboard-response","33","59383","0.0-33.0","3KYQYYSHYWTQGSAOCCUOU05CVJ8ODA","AEK2SAEL9GG39","3SA4EMRVJVOCGON1OYE6FAUV3KKP05","","null","<img src=""img/flower4.png"" style=""width:200px;border:14px solid red;"">","null","","","","","","","","",""
"","image-keyboard-response","34","59608","0.0-34.0","3KYQYYSHYWTQGSAOCCUOU05CVJ8ODA","AEK2SAEL9GG39","3SA4EMRVJVOCGON1OYE6FAUV3KKP05","","224.80000001192093","img/flower1.png","74","225.4000000357628","1","0","1","2","1,0,0,1,1,0,1,0,1","0,0,1,1,0,1,0,1,1","2",""
"","html-keyboard-response","35","59910","0.0-35.0","3KYQYYSHYWTQGSAOCCUOU05CVJ8ODA","AEK2SAEL9GG39","3SA4EMRVJVOCGON1OYE6FAUV3KKP05","","null","<img src=""img/flower1.png"" style=""width:200px;border:14px solid red;"">","null","","","","","","","","",""
"","image-keyboard-response","36","60088","0.0-36.0","3KYQYYSHYWTQGSAOCCUOU05CVJ8ODA","AEK2SAEL9GG39","3SA4EMRVJVOCGON1OYE6FAUV3KKP05","","177.20000004768372","img/flower4.png","75","177.80000001192093","2","0","2","2","1,0,0,1,1,0,1,0,1","0,0,1,1,0,1,0,1,1","2",""
"","html-keyboard-response","37","60390","0.0-37.0","3KYQYYSHYWTQGSAOCCUOU05CVJ8ODA","AEK2SAEL9GG39","3SA4EMRVJVOCGON1OYE6FAUV3KKP05","","null","<img src=""img/flower4.png"" style=""width:200px;border:14px solid red;"">","null","","","","","","","","",""
"","image-keyboard-response","38","60608","0.0-38.0","3KYQYYSHYWTQGSAOCCUOU05CVJ8ODA","AEK2SAEL9GG39","3SA4EMRVJVOCGON1OYE6FAUV3KKP05","","217.5","img/flower1.png","76","218.10000002384186","3","1","1","2","1,0,0,1,1,0,1,0,1","0,0,1,1,0,1,0,1,1","2",""
"","html-keyboard-response","39","60910","0.0-39.0","3KYQYYSHYWTQGSAOCCUOU05CVJ8ODA","AEK2SAEL9GG39","3SA4EMRVJVOCGON1OYE6FAUV3KKP05","","null","<img src=""img/flower1.png"" style=""width:200px; border:14px solid green;"">","null","","","","","","","","",""
"","image-keyboard-response","40","61064","0.0-40.0","3KYQYYSHYWTQGSAOCCUOU05CVJ8ODA","AEK2SAEL9GG39","3SA4EMRVJVOCGON1OYE6FAUV3KKP05","","153.5","img/flower4.png","75","153.89999997615814","2","0","2","2","1,0,0,1,1,0,1,0,1","0,0,1,1,0,1,0,1,1","2",""
"","html-keyboard-response","41","61365","0.0-41.0","3KYQYYSHYWTQGSAOCCUOU05CVJ8ODA","AEK2SAEL9GG39","3SA4EMRVJVOCGON1OYE6FAUV3KKP05","","null","<img src=""img/flower4.png"" style=""width:200px;border:14px solid red;"">","null","","","","","","","","",""
"","image-keyboard-response","42","61561","0.0-42.0","3KYQYYSHYWTQGSAOCCUOU05CVJ8ODA","AEK2SAEL9GG39","3SA4EMRVJVOCGON1OYE6FAUV3KKP05","","194.4000000357628","img/flower4.png","74","196","1","1","2","2","1,0,0,1,1,0,1,0,1","0,0,1,1,0,1,0,1,1","2",""
"","html-keyboard-response","43","61864","0.0-43.0","3KYQYYSHYWTQGSAOCCUOU05CVJ8ODA","AEK2SAEL9GG39","3SA4EMRVJVOCGON1OYE6FAUV3KKP05","","null","<img src=""img/flower4.png"" style=""width:200px; border:14px solid green;"">","null","","","","","","","","",""
"","image-keyboard-response","44","62072","0.0-44.0","3KYQYYSHYWTQGSAOCCUOU05CVJ8ODA","AEK2SAEL9GG39","3SA4EMRVJVOCGON1OYE6FAUV3KKP05","","207.19999998807907","img/flower4.png","75","207.80000001192093","2","0","2","2","1,0,0,1,1,0,1,0,1","0,0,1,1,0,1,0,1,1","2",""
"","html-keyboard-response","45","62375","0.0-45.0","3KYQYYSHYWTQGSAOCCUOU05CVJ8ODA","AEK2SAEL9GG39","3SA4EMRVJVOCGON1OYE6FAUV3KKP05","","null","<img src=""img/flower4.png"" style=""width:200px;border:14px solid red;"">","null","","","","","","","","",""
"","image-keyboard-response","46","62552","0.0-46.0","3KYQYYSHYWTQGSAOCCUOU05CVJ8ODA","AEK2SAEL9GG39","3SA4EMRVJVOCGON1OYE6FAUV3KKP05","","176.20000004768372","img/flower3.png","76","176.9000000357628","3","1","3","2","1,0,0,1,1,0,1,0,1","0,0,1,1,0,1,0,1,1","2",""
"","html-keyboard-response","47","62855","0.0-47.0","3KYQYYSHYWTQGSAOCCUOU05CVJ8ODA","AEK2SAEL9GG39","3SA4EMRVJVOCGON1OYE6FAUV3KKP05","","null","<img src=""img/flower3.png"" style=""width:200px; border:14px solid green;"">","null","","","","","","","","",""
"","image-keyboard-response","48","63096","0.0-48.0","3KYQYYSHYWTQGSAOCCUOU05CVJ8ODA","AEK2SAEL9GG39","3SA4EMRVJVOCGON1OYE6FAUV3KKP05","","240.10000002384186","img/flower3.png","75","240.9000000357628","2","1","3","2","1,0,0,1,1,0,1,0,1","0,0,1,1,0,1,0,1,1","2",""
"","html-keyboard-response","49","63397","0.0-49.0","3KYQYYSHYWTQGSAOCCUOU05CVJ8ODA","AEK2SAEL9GG39","3SA4EMRVJVOCGON1OYE6FAUV3KKP05","","null","<img src=""img/flower3.png"" style=""width:200px; border:14px solid green;"">","null","","","","","","","","",""
"","image-keyboard-response","50","63600","0.0-50.0","3KYQYYSHYWTQGSAOCCUOU05CVJ8ODA","AEK2SAEL9GG39","3SA4EMRVJVOCGON1OYE6FAUV3KKP05","","202","img/flower3.png","74","202.69999998807907","1","0","3","2","1,0,0,1,1,0,1,0,1","0,0,1,1,0,1,0,1,1","2",""
"","html-keyboard-response","51","63902","0.0-51.0","3KYQYYSHYWTQGSAOCCUOU05CVJ8ODA","AEK2SAEL9GG39","3SA4EMRVJVOCGON1OYE6FAUV3KKP05","","null","<img src=""img/flower3.png"" style=""width:200px;border:14px solid red;"">","null","","","","","","","","",""
"","image-keyboard-response","52","64137","0.0-52.0","3KYQYYSHYWTQGSAOCCUOU05CVJ8ODA","AEK2SAEL9GG39","3SA4EMRVJVOCGON1OYE6FAUV3KKP05","","234","img/flower4.png","75","234.69999998807907","2","0","2","2","1,0,0,1,1,0,1,0,1","0,0,1,1,0,1,0,1,1","2",""
"","html-keyboard-response","53","64437","0.0-53.0","3KYQYYSHYWTQGSAOCCUOU05CVJ8ODA","AEK2SAEL9GG39","3SA4EMRVJVOCGON1OYE6FAUV3KKP05","","null","<img src=""img/flower4.png"" style=""width:200px;border:14px solid red;"">","null","","","","","","","","",""
"","image-keyboard-response","54","64624","0.0-54.0","3KYQYYSHYWTQGSAOCCUOU05CVJ8ODA","AEK2SAEL9GG39","3SA4EMRVJVOCGON1OYE6FAUV3KKP05","","185.79999995231628","img/flower1.png","76","186.5","3","1","1","2","1,0,0,1,1,0,1,0,1","0,0,1,1,0,1,0,1,1","2",""
"","html-keyboard-response","55","64925","0.0-55.0","3KYQYYSHYWTQGSAOCCUOU05CVJ8ODA","AEK2SAEL9GG39","3SA4EMRVJVOCGON1OYE6FAUV3KKP05","","null","<img src=""img/flower1.png"" style=""width:200px; border:14px solid green;"">","null","","","","","","","","",""
"","image-keyboard-response","56","65104","0.0-56.0","3KYQYYSHYWTQGSAOCCUOU05CVJ8ODA","AEK2SAEL9GG39","3SA4EMRVJVOCGON1OYE6FAUV3KKP05","","178.70000004768372","img/flower1.png","75","179.30000001192093","2","0","1","2","1,0,0,1,1,0,1,0,1","0,0,1,1,0,1,0,1,1","2",""
"","html-keyboard-response","57","65405","0.0-57.0","3KYQYYSHYWTQGSAOCCUOU05CVJ8ODA","AEK2SAEL9GG39","3SA4EMRVJVOCGON1OYE6FAUV3KKP05","","null","<img src=""img/flower1.png"" style=""width:200px;border:14px solid red;"">","null","","","","","","","","",""
"","image-keyboard-response","58","65584","0.0-58.0","3KYQYYSHYWTQGSAOCCUOU05CVJ8ODA","AEK2SAEL9GG39","3SA4EMRVJVOCGON1OYE6FAUV3KKP05","","178.0999999642372","img/flower4.png","74","178.60000002384186","1","1","2","2","1,0,0,1,1,0,1,0,1","0,0,1,1,0,1,0,1,1","2",""
"","html-keyboard-response","59","65886","0.0-59.0","3KYQYYSHYWTQGSAOCCUOU05CVJ8ODA","AEK2SAEL9GG39","3SA4EMRVJVOCGON1OYE6FAUV3KKP05","","null","<img src=""img/flower4.png"" style=""width:200px; border:14px solid green;"">","null","","","","","","","","",""
"","image-keyboard-response","60","65977","0.0-60.0","3KYQYYSHYWTQGSAOCCUOU05CVJ8ODA","AEK2SAEL9GG39","3SA4EMRVJVOCGON1OYE6FAUV3KKP05","","90.5","img/flower3.png","75","91.09999996423721","2","1","3","2","1,0,0,1,1,0,1,0,1","0,0,1,1,0,1,0,1,1","2",""
"","html-keyboard-response","61","66279","0.0-61.0","3KYQYYSHYWTQGSAOCCUOU05CVJ8ODA","AEK2SAEL9GG39","3SA4EMRVJVOCGON1OYE6FAUV3KKP05","","null","<img src=""img/flower3.png"" style=""width:200px; border:14px solid green;"">","null","","","","","","","","",""
"","image-keyboard-response","62","66488","0.0-62.0","3KYQYYSHYWTQGSAOCCUOU05CVJ8ODA","AEK2SAEL9GG39","3SA4EMRVJVOCGON1OYE6FAUV3KKP05","","208","img/flower1.png","76","208.5","3","1","1","2","1,0,0,1,1,0,1,0,1","0,0,1,1,0,1,0,1,1","2",""
"","html-keyboard-response","63","66790","0.0-63.0","3KYQYYSHYWTQGSAOCCUOU05CVJ8ODA","AEK2SAEL9GG39","3SA4EMRVJVOCGON1OYE6FAUV3KKP05","","null","<img src=""img/flower1.png"" style=""width:200px; border:14px solid green;"">","null","","","","","","","","",""
"","image-keyboard-response","64","66952","0.0-64.0","3KYQYYSHYWTQGSAOCCUOU05CVJ8ODA","AEK2SAEL9GG39","3SA4EMRVJVOCGON1OYE6FAUV3KKP05","","161.10000002384186","img/flower3.png","75","161.69999998807907","2","1","3","2","1,0,0,1,1,0,1,0,1","0,0,1,1,0,1,0,1,1","2",""
"","html-keyboard-response","65","67254","0.0-65.0","3KYQYYSHYWTQGSAOCCUOU05CVJ8ODA","AEK2SAEL9GG39","3SA4EMRVJVOCGON1OYE6FAUV3KKP05","","null","<img src=""img/flower3.png"" style=""width:200px; border:14px solid green;"">","null","","","","","","","","",""
"","image-keyboard-response","66","67384","0.0-66.0","3KYQYYSHYWTQGSAOCCUOU05CVJ8ODA","AEK2SAEL9GG39","3SA4EMRVJVOCGON1OYE6FAUV3KKP05","","129.4000000357628","img/flower1.png","74","129.9000000357628","1","0","1","2","1,0,0,1,1,0,1,0,1","0,0,1,1,0,1,0,1,1","2",""
"","html-keyboard-response","67","67685","0.0-67.0","3KYQYYSHYWTQGSAOCCUOU05CVJ8ODA","AEK2SAEL9GG39","3SA4EMRVJVOCGON1OYE6FAUV3KKP05","","null","<img src=""img/flower1.png"" style=""width:200px;border:14px solid red;"">","null","","","","","","","","",""
"","image-keyboard-response","68","67824","0.0-68.0","3KYQYYSHYWTQGSAOCCUOU05CVJ8ODA","AEK2SAEL9GG39","3SA4EMRVJVOCGON1OYE6FAUV3KKP05","","138.10000002384186","img/flower3.png","75","138.79999995231628","2","1","3","2","1,0,0,1,1,0,1,0,1","0,0,1,1,0,1,0,1,1","2",""
"","html-keyboard-response","69","68126","0.0-69.0","3KYQYYSHYWTQGSAOCCUOU05CVJ8ODA","AEK2SAEL9GG39","3SA4EMRVJVOCGON1OYE6FAUV3KKP05","","null","<img src=""img/flower3.png"" style=""width:200px; border:14px solid green;"">","null","","","","","","","","",""
"","image-keyboard-response","70","68272","0.0-70.0","3KYQYYSHYWTQGSAOCCUOU05CVJ8ODA","AEK2SAEL9GG39","3SA4EMRVJVOCGON1OYE6FAUV3KKP05","","145.70000004768372","img/flower3.png","76","146.30000001192093","3","1","3","2","1,0,0,1,1,0,1,0,1","0,0,1,1,0,1,0,1,1","2",""
"","html-keyboard-response","71","68574","0.0-71.0","3KYQYYSHYWTQGSAOCCUOU05CVJ8ODA","AEK2SAEL9GG39","3SA4EMRVJVOCGON1OYE6FAUV3KKP05","","null","<img src=""img/flower3.png"" style=""width:200px; border:14px solid green;"">","null","","","","","","","","",""
"","image-keyboard-response","72","68744","0.0-72.0","3KYQYYSHYWTQGSAOCCUOU05CVJ8ODA","AEK2SAEL9GG39","3SA4EMRVJVOCGON1OYE6FAUV3KKP05","","169.4000000357628","img/flower3.png","75","169.89999997615814","2","1","3","2","1,0,0,1,1,0,1,0,1","0,0,1,1,0,1,0,1,1","2",""
"","html-keyboard-response","73","69046","0.0-73.0","3KYQYYSHYWTQGSAOCCUOU05CVJ8ODA","AEK2SAEL9GG39","3SA4EMRVJVOCGON1OYE6FAUV3KKP05","","null","<img src=""img/flower3.png"" style=""width:200px; border:14px solid green;"">","null","","","","","","","","",""
"","image-keyboard-response","74","69184","0.0-74.0","3KYQYYSHYWTQGSAOCCUOU05CVJ8ODA","AEK2SAEL9GG39","3SA4EMRVJVOCGON1OYE6FAUV3KKP05","","137.30000001192093","img/flower1.png","74","137.9000000357628","1","0","1","2","1,0,0,1,1,0,1,0,1","0,0,1,1,0,1,0,1,1","2",""
"","html-keyboard-response","75","69485","0.0-75.0","3KYQYYSHYWTQGSAOCCUOU05CVJ8ODA","AEK2SAEL9GG39","3SA4EMRVJVOCGON1OYE6FAUV3KKP05","","null","<img src=""img/flower1.png"" style=""width:200px;border:14px solid red;"">","null","","","","","","","","",""
"","image-keyboard-response","76","69696","0.0-76.0","3KYQYYSHYWTQGSAOCCUOU05CVJ8ODA","AEK2SAEL9GG39","3SA4EMRVJVOCGON1OYE6FAUV3KKP05","","210.19999998807907","img/flower1.png","75","210.9000000357628","2","0","1","2","1,0,0,1,1,0,1,0,1","0,0,1,1,0,1,0,1,1","2",""
"","html-keyboard-response","77","69998","0.0-77.0","3KYQYYSHYWTQGSAOCCUOU05CVJ8ODA","AEK2SAEL9GG39","3SA4EMRVJVOCGON1OYE6FAUV3KKP05","","null","<img src=""img/flower1.png"" style=""width:200px;border:14px solid red;"">","null","","","","","","","","",""
"","image-keyboard-response","78","70128","0.0-78.0","3KYQYYSHYWTQGSAOCCUOU05CVJ8ODA","AEK2SAEL9GG39","3SA4EMRVJVOCGON1OYE6FAUV3KKP05","","129.60000002384186","img/flower1.png","76","130.19999998807907","3","1","1","2","1,0,0,1,1,0,1,0,1","0,0,1,1,0,1,0,1,1","2",""
"","html-keyboard-response","79","70430","0.0-79.0","3KYQYYSHYWTQGSAOCCUOU05CVJ8ODA","AEK2SAEL9GG39","3SA4EMRVJVOCGON1OYE6FAUV3KKP05","","null","<img src=""img/flower1.png"" style=""width:200px; border:14px solid green;"">","null","","","","","","","","",""
"","image-keyboard-response","80","70664","0.0-80.0","3KYQYYSHYWTQGSAOCCUOU05CVJ8ODA","AEK2SAEL9GG39","3SA4EMRVJVOCGON1OYE6FAUV3KKP05","","233.69999998807907","img/flower4.png","75","234.30000001192093","2","0","2","2","1,0,0,1,1,0,1,0,1","0,0,1,1,0,1,0,1,1","2",""
"","html-keyboard-response","81","70966","0.0-81.0","3KYQYYSHYWTQGSAOCCUOU05CVJ8ODA","AEK2SAEL9GG39","3SA4EMRVJVOCGON1OYE6FAUV3KKP05","","null","<img src=""img/flower4.png"" style=""width:200px;border:14px solid red;"">","null","","","","","","","","",""
"","image-keyboard-response","82","71113","0.0-82.0","3KYQYYSHYWTQGSAOCCUOU05CVJ8ODA","AEK2SAEL9GG39","3SA4EMRVJVOCGON1OYE6FAUV3KKP05","","145.5999999642372","img/flower1.png","74","146.30000001192093","1","0","1","2","1,0,0,1,1,0,1,0,1","0,0,1,1,0,1,0,1,1","2",""
"","html-keyboard-response","83","71414","0.0-83.0","3KYQYYSHYWTQGSAOCCUOU05CVJ8ODA","AEK2SAEL9GG39","3SA4EMRVJVOCGON1OYE6FAUV3KKP05","","null","<img src=""img/flower1.png"" style=""width:200px;border:14px solid red;"">","null","","","","","","","","",""
"","image-keyboard-response","84","71600","0.0-84.0","3KYQYYSHYWTQGSAOCCUOU05CVJ8ODA","AEK2SAEL9GG39","3SA4EMRVJVOCGON1OYE6FAUV3KKP05","","185.5","img/flower1.png","75","186.20000004768372","2","0","1","2","1,0,0,1,1,0,1,0,1","0,0,1,1,0,1,0,1,1","2",""
"","html-keyboard-response","85","71901","0.0-85.0","3KYQYYSHYWTQGSAOCCUOU05CVJ8ODA","AEK2SAEL9GG39","3SA4EMRVJVOCGON1OYE6FAUV3KKP05","","null","<img src=""img/flower1.png"" style=""width:200px;border:14px solid red;"">","null","","","","","","","","",""
"","image-keyboard-response","86","72080","0.0-86.0","3KYQYYSHYWTQGSAOCCUOU05CVJ8ODA","AEK2SAEL9GG39","3SA4EMRVJVOCGON1OYE6FAUV3KKP05","","178","img/flower1.png","76","178.5999999642372","3","1","1","2","1,0,0,1,1,0,1,0,1","0,0,1,1,0,1,0,1,1","2",""
"","html-keyboard-response","87","72382","0.0-87.0","3KYQYYSHYWTQGSAOCCUOU05CVJ8ODA","AEK2SAEL9GG39","3SA4EMRVJVOCGON1OYE6FAUV3KKP05","","null","<img src=""img/flower1.png"" style=""width:200px; border:14px solid green;"">","null","","","","","","","","",""
"","image-keyboard-response","88","72576","0.0-88.0","3KYQYYSHYWTQGSAOCCUOU05CVJ8ODA","AEK2SAEL9GG39","3SA4EMRVJVOCGON1OYE6FAUV3KKP05","","193.60000002384186","img/flower4.png","75","194.10000002384186","2","0","2","2","1,0,0,1,1,0,1,0,1","0,0,1,1,0,1,0,1,1","2",""
"","html-keyboard-response","89","72877","0.0-89.0","3KYQYYSHYWTQGSAOCCUOU05CVJ8ODA","AEK2SAEL9GG39","3SA4EMRVJVOCGON1OYE6FAUV3KKP05","","null","<img src=""img/flower4.png"" style=""width:200px;border:14px solid red;"">","null","","","","","","","","",""
"","image-keyboard-response","90","73064","0.0-90.0","3KYQYYSHYWTQGSAOCCUOU05CVJ8ODA","AEK2SAEL9GG39","3SA4EMRVJVOCGON1OYE6FAUV3KKP05","","186.10000002384186","img/flower4.png","74","186.5999999642372","1","1","2","2","1,0,0,1,1,0,1,0,1","0,0,1,1,0,1,0,1,1","2",""
"","html-keyboard-response","91","73366","0.0-91.0","3KYQYYSHYWTQGSAOCCUOU05CVJ8ODA","AEK2SAEL9GG39","3SA4EMRVJVOCGON1OYE6FAUV3KKP05","","null","<img src=""img/flower4.png"" style=""width:200px; border:14px solid green;"">","null","","","","","","","","",""
"","image-keyboard-response","92","73553","0.0-92.0","3KYQYYSHYWTQGSAOCCUOU05CVJ8ODA","AEK2SAEL9GG39","3SA4EMRVJVOCGON1OYE6FAUV3KKP05","","186.39999997615814","img/flower1.png","75","187.10000002384186","2","0","1","2","1,0,0,1,1,0,1,0,1","0,0,1,1,0,1,0,1,1","2",""
"","html-keyboard-response","93","73854","0.0-93.0","3KYQYYSHYWTQGSAOCCUOU05CVJ8ODA","AEK2SAEL9GG39","3SA4EMRVJVOCGON1OYE6FAUV3KKP05","","null","<img src=""img/flower1.png"" style=""width:200px;border:14px solid red;"">","null","","","","","","","","",""
"","image-keyboard-response","94","74024","0.0-94.0","3KYQYYSHYWTQGSAOCCUOU05CVJ8ODA","AEK2SAEL9GG39","3SA4EMRVJVOCGON1OYE6FAUV3KKP05","","169.10000002384186","img/flower3.png","76","169.80000001192093","3","1","3","2","1,0,0,1,1,0,1,0,1","0,0,1,1,0,1,0,1,1","2",""
"","html-keyboard-response","95","74341","0.0-95.0","3KYQYYSHYWTQGSAOCCUOU05CVJ8ODA","AEK2SAEL9GG39","3SA4EMRVJVOCGON1OYE6FAUV3KKP05","","null","<img src=""img/flower3.png"" style=""width:200px; border:14px solid green;"">","null","","","","","","","","",""
"","image-keyboard-response","96","74504","0.0-96.0","3KYQYYSHYWTQGSAOCCUOU05CVJ8ODA","AEK2SAEL9GG39","3SA4EMRVJVOCGON1OYE6FAUV3KKP05","","162.70000004768372","img/flower3.png","75","163.19999998807907","2","1","3","2","1,0,0,1,1,0,1,0,1","0,0,1,1,0,1,0,1,1","2",""
"","html-keyboard-response","97","74806","0.0-97.0","3KYQYYSHYWTQGSAOCCUOU05CVJ8ODA","AEK2SAEL9GG39","3SA4EMRVJVOCGON1OYE6FAUV3KKP05","","null","<img src=""img/flower3.png"" style=""width:200px; border:14px solid green;"">","null","","","","","","","","",""
"","image-keyboard-response","98","74960","0.0-98.0","3KYQYYSHYWTQGSAOCCUOU05CVJ8ODA","AEK2SAEL9GG39","3SA4EMRVJVOCGON1OYE6FAUV3KKP05","","153.10000002384186","img/flower3.png","74","153.5999999642372","1","0","3","2","1,0,0,1,1,0,1,0,1","0,0,1,1,0,1,0,1,1","2",""
"","html-keyboard-response","99","75262","0.0-99.0","3KYQYYSHYWTQGSAOCCUOU05CVJ8ODA","AEK2SAEL9GG39","3SA4EMRVJVOCGON1OYE6FAUV3KKP05","","null","<img src=""img/flower3.png"" style=""width:200px;border:14px solid red;"">","null","","","","","","","","",""
"","image-keyboard-response","100","75424","0.0-100.0","3KYQYYSHYWTQGSAOCCUOU05CVJ8ODA","AEK2SAEL9GG39","3SA4EMRVJVOCGON1OYE6FAUV3KKP05","","161.30000001192093","img/flower1.png","75","161.89999997615814","2","0","1","2","1,0,0,1,1,0,1,0,1","0,0,1,1,0,1,0,1,1","2",""
"","html-keyboard-response","101","75725","0.0-101.0","3KYQYYSHYWTQGSAOCCUOU05CVJ8ODA","AEK2SAEL9GG39","3SA4EMRVJVOCGON1OYE6FAUV3KKP05","","null","<img src=""img/flower1.png"" style=""width:200px;border:14px solid red;"">","null","","","","","","","","",""
"","image-keyboard-response","102","75864","0.0-102.0","3KYQYYSHYWTQGSAOCCUOU05CVJ8ODA","AEK2SAEL9GG39","3SA4EMRVJVOCGON1OYE6FAUV3KKP05","","137.19999998807907","img/flower4.png","76","138.60000002384186","3","1","2","2","1,0,0,1,1,0,1,0,1","0,0,1,1,0,1,0,1,1","2",""
"","html-keyboard-response","103","76165","0.0-103.0","3KYQYYSHYWTQGSAOCCUOU05CVJ8ODA","AEK2SAEL9GG39","3SA4EMRVJVOCGON1OYE6FAUV3KKP05","","null","<img src=""img/flower4.png"" style=""width:200px; border:14px solid green;"">","null","","","","","","","","",""
"","image-keyboard-response","104","76352","0.0-104.0","3KYQYYSHYWTQGSAOCCUOU05CVJ8ODA","AEK2SAEL9GG39","3SA4EMRVJVOCGON1OYE6FAUV3KKP05","","184.79999995231628","img/flower1.png","75","186.39999997615814","2","0","1","2","1,0,0,1,1,0,1,0,1","0,0,1,1,0,1,0,1,1","2",""
"","html-keyboard-response","105","76655","0.0-105.0","3KYQYYSHYWTQGSAOCCUOU05CVJ8ODA","AEK2SAEL9GG39","3SA4EMRVJVOCGON1OYE6FAUV3KKP05","","null","<img src=""img/flower1.png"" style=""width:200px;border:14px solid red;"">","null","","","","","","","","",""
"","image-keyboard-response","106","76776","0.0-106.0","3KYQYYSHYWTQGSAOCCUOU05CVJ8ODA","AEK2SAEL9GG39","3SA4EMRVJVOCGON1OYE6FAUV3KKP05","","121","img/flower3.png","74","121.39999997615814","1","0","3","2","1,0,0,1,1,0,1,0,1","0,0,1,1,0,1,0,1,1","2",""
"","html-keyboard-response","107","77078","0.0-107.0","3KYQYYSHYWTQGSAOCCUOU05CVJ8ODA","AEK2SAEL9GG39","3SA4EMRVJVOCGON1OYE6FAUV3KKP05","","null","<img src=""img/flower3.png"" style=""width:200px;border:14px solid red;"">","null","","","","","","","","",""
"","image-keyboard-response","108","77280","0.0-108.0","3KYQYYSHYWTQGSAOCCUOU05CVJ8ODA","AEK2SAEL9GG39","3SA4EMRVJVOCGON1OYE6FAUV3KKP05","","201.60000002384186","img/flower1.png","75","202.30000001192093","2","0","1","2","1,0,0,1,1,0,1,0,1","0,0,1,1,0,1,0,1,1","2",""
"","html-keyboard-response","109","77582","0.0-109.0","3KYQYYSHYWTQGSAOCCUOU05CVJ8ODA","AEK2SAEL9GG39","3SA4EMRVJVOCGON1OYE6FAUV3KKP05","","null","<img src=""img/flower1.png"" style=""width:200px;border:14px solid red;"">","null","","","","","","","","",""
"","image-keyboard-response","110","77729","0.0-110.0","3KYQYYSHYWTQGSAOCCUOU05CVJ8ODA","AEK2SAEL9GG39","3SA4EMRVJVOCGON1OYE6FAUV3KKP05","","146","img/flower1.png","76","146.69999998807907","3","1","1","2","1,0,0,1,1,0,1,0,1","0,0,1,1,0,1,0,1,1","2",""
"","html-keyboard-response","111","78030","0.0-111.0","3KYQYYSHYWTQGSAOCCUOU05CVJ8ODA","AEK2SAEL9GG39","3SA4EMRVJVOCGON1OYE6FAUV3KKP05","","null","<img src=""img/flower1.png"" style=""width:200px; border:14px solid green;"">","null","","","","","","","","",""
"","image-keyboard-response","112","78192","0.0-112.0","3KYQYYSHYWTQGSAOCCUOU05CVJ8ODA","AEK2SAEL9GG39","3SA4EMRVJVOCGON1OYE6FAUV3KKP05","","161.69999998807907","img/flower4.png","75","162.20000004768372","2","0","2","2","1,0,0,1,1,0,1,0,1","0,0,1,1,0,1,0,1,1","2",""
"","html-keyboard-response","113","78493","0.0-113.0","3KYQYYSHYWTQGSAOCCUOU05CVJ8ODA","AEK2SAEL9GG39","3SA4EMRVJVOCGON1OYE6FAUV3KKP05","","null","<img src=""img/flower4.png"" style=""width:200px;border:14px solid red;"">","null","","","","","","","","",""
"","image-keyboard-response","114","78688","0.0-114.0","3KYQYYSHYWTQGSAOCCUOU05CVJ8ODA","AEK2SAEL9GG39","3SA4EMRVJVOCGON1OYE6FAUV3KKP05","","195","img/flower4.png","74","195.30000001192093","1","1","2","2","1,0,0,1,1,0,1,0,1","0,0,1,1,0,1,0,1,1","2",""
"","html-keyboard-response","115","78989","0.0-115.0","3KYQYYSHYWTQGSAOCCUOU05CVJ8ODA","AEK2SAEL9GG39","3SA4EMRVJVOCGON1OYE6FAUV3KKP05","","null","<img src=""img/flower4.png"" style=""width:200px; border:14px solid green;"">","null","","","","","","","","",""
"","image-keyboard-response","116","79169","0.0-116.0","3KYQYYSHYWTQGSAOCCUOU05CVJ8ODA","AEK2SAEL9GG39","3SA4EMRVJVOCGON1OYE6FAUV3KKP05","","178.60000002384186","img/flower1.png","75","179.4000000357628","2","0","1","2","1,0,0,1,1,0,1,0,1","0,0,1,1,0,1,0,1,1","2",""
"","html-keyboard-response","117","79470","0.0-117.0","3KYQYYSHYWTQGSAOCCUOU05CVJ8ODA","AEK2SAEL9GG39","3SA4EMRVJVOCGON1OYE6FAUV3KKP05","","null","<img src=""img/flower1.png"" style=""width:200px;border:14px solid red;"">","null","","","","","","","","",""
"","image-keyboard-response","118","79664","0.0-118.0","3KYQYYSHYWTQGSAOCCUOU05CVJ8ODA","AEK2SAEL9GG39","3SA4EMRVJVOCGON1OYE6FAUV3KKP05","","193.80000001192093","img/flower1.png","76","194.30000001192093","3","1","1","2","1,0,0,1,1,0,1,0,1","0,0,1,1,0,1,0,1,1","2",""
"","html-keyboard-response","119","79965","0.0-119.0","3KYQYYSHYWTQGSAOCCUOU05CVJ8ODA","AEK2SAEL9GG39","3SA4EMRVJVOCGON1OYE6FAUV3KKP05","","null","<img src=""img/flower1.png"" style=""width:200px; border:14px solid green;"">","null","","","","","","","","",""
"","image-keyboard-response","120","80169","0.0-120.0","3KYQYYSHYWTQGSAOCCUOU05CVJ8ODA","AEK2SAEL9GG39","3SA4EMRVJVOCGON1OYE6FAUV3KKP05","","203.19999998807907","img/flower1.png","75","204","2","0","1","2","1,0,0,1,1,0,1,0,1","0,0,1,1,0,1,0,1,1","2",""
"","html-keyboard-response","121","80471","0.0-121.0","3KYQYYSHYWTQGSAOCCUOU05CVJ8ODA","AEK2SAEL9GG39","3SA4EMRVJVOCGON1OYE6FAUV3KKP05","","null","<img src=""img/flower1.png"" style=""width:200px;border:14px solid red;"">","null","","","","","","","","",""
"","image-keyboard-response","122","80656","0.0-122.0","3KYQYYSHYWTQGSAOCCUOU05CVJ8ODA","AEK2SAEL9GG39","3SA4EMRVJVOCGON1OYE6FAUV3KKP05","","184.70000004768372","img/flower3.png","74","185.0999999642372","1","0","3","2","1,0,0,1,1,0,1,0,1","0,0,1,1,0,1,0,1,1","2",""
"","html-keyboard-response","123","80958","0.0-123.0","3KYQYYSHYWTQGSAOCCUOU05CVJ8ODA","AEK2SAEL9GG39","3SA4EMRVJVOCGON1OYE6FAUV3KKP05","","null","<img src=""img/flower3.png"" style=""width:200px;border:14px solid red;"">","null","","","","","","","","",""
"","image-keyboard-response","124","81192","0.0-124.0","3KYQYYSHYWTQGSAOCCUOU05CVJ8ODA","AEK2SAEL9GG39","3SA4EMRVJVOCGON1OYE6FAUV3KKP05","","233.60000002384186","img/flower4.png","75","234.10000002384186","2","0","2","2","1,0,0,1,1,0,1,0,1","0,0,1,1,0,1,0,1,1","2",""
"","html-keyboard-response","125","81493","0.0-125.0","3KYQYYSHYWTQGSAOCCUOU05CVJ8ODA","AEK2SAEL9GG39","3SA4EMRVJVOCGON1OYE6FAUV3KKP05","","null","<img src=""img/flower4.png"" style=""width:200px;border:14px solid red;"">","null","","","","","","","","",""
"","image-keyboard-response","126","81672","0.0-126.0","3KYQYYSHYWTQGSAOCCUOU05CVJ8ODA","AEK2SAEL9GG39","3SA4EMRVJVOCGON1OYE6FAUV3KKP05","","178.80000001192093","img/flower4.png","76","179.19999998807907","3","1","2","2","1,0,0,1,1,0,1,0,1","0,0,1,1,0,1,0,1,1","2",""
"","html-keyboard-response","127","81974","0.0-127.0","3KYQYYSHYWTQGSAOCCUOU05CVJ8ODA","AEK2SAEL9GG39","3SA4EMRVJVOCGON1OYE6FAUV3KKP05","","null","<img src=""img/flower4.png"" style=""width:200px; border:14px solid green;"">","null","","","","","","","","",""
"","image-keyboard-response","128","82160","0.0-128.0","3KYQYYSHYWTQGSAOCCUOU05CVJ8ODA","AEK2SAEL9GG39","3SA4EMRVJVOCGON1OYE6FAUV3KKP05","","185.39999997615814","img/flower4.png","75","185.9000000357628","2","0","2","2","1,0,0,1,1,0,1,0,1","0,0,1,1,0,1,0,1,1","2",""
"","html-keyboard-response","129","82463","0.0-129.0","3KYQYYSHYWTQGSAOCCUOU05CVJ8ODA","AEK2SAEL9GG39","3SA4EMRVJVOCGON1OYE6FAUV3KKP05","","null","<img src=""img/flower4.png"" style=""width:200px;border:14px solid red;"">","null","","","","","","","","",""
"","image-keyboard-response","130","82632","0.0-130.0","3KYQYYSHYWTQGSAOCCUOU05CVJ8ODA","AEK2SAEL9GG39","3SA4EMRVJVOCGON1OYE6FAUV3KKP05","","168.60000002384186","img/flower3.png","74","169","1","0","3","2","1,0,0,1,1,0,1,0,1","0,0,1,1,0,1,0,1,1","2",""
"","html-keyboard-response","131","82934","0.0-131.0","3KYQYYSHYWTQGSAOCCUOU05CVJ8ODA","AEK2SAEL9GG39","3SA4EMRVJVOCGON1OYE6FAUV3KKP05","","null","<img src=""img/flower3.png"" style=""width:200px;border:14px solid red;"">","null","","","","","","","","",""
"","image-keyboard-response","132","83104","0.0-132.0","3KYQYYSHYWTQGSAOCCUOU05CVJ8ODA","AEK2SAEL9GG39","3SA4EMRVJVOCGON1OYE6FAUV3KKP05","","169.30000001192093","img/flower3.png","75","169.9000000357628","2","1","3","2","1,0,0,1,1,0,1,0,1","0,0,1,1,0,1,0,1,1","2",""
"","html-keyboard-response","133","83405","0.0-133.0","3KYQYYSHYWTQGSAOCCUOU05CVJ8ODA","AEK2SAEL9GG39","3SA4EMRVJVOCGON1OYE6FAUV3KKP05","","null","<img src=""img/flower3.png"" style=""width:200px; border:14px solid green;"">","null","","","","","","","","",""
"","image-keyboard-response","134","83544","0.0-134.0","3KYQYYSHYWTQGSAOCCUOU05CVJ8ODA","AEK2SAEL9GG39","3SA4EMRVJVOCGON1OYE6FAUV3KKP05","","138.30000001192093","img/flower1.png","76","138.80000001192093","3","1","1","2","1,0,0,1,1,0,1,0,1","0,0,1,1,0,1,0,1,1","2",""
"","html-keyboard-response","135","83846","0.0-135.0","3KYQYYSHYWTQGSAOCCUOU05CVJ8ODA","AEK2SAEL9GG39","3SA4EMRVJVOCGON1OYE6FAUV3KKP05","","null","<img src=""img/flower1.png"" style=""width:200px; border:14px solid green;"">","null","","","","","","","","",""
"","image-keyboard-response","136","84056","0.0-136.0","3KYQYYSHYWTQGSAOCCUOU05CVJ8ODA","AEK2SAEL9GG39","3SA4EMRVJVOCGON1OYE6FAUV3KKP05","","209.89999997615814","img/flower4.png","75","210.5","2","0","2","2","1,0,0,1,1,0,1,0,1","0,0,1,1,0,1,0,1,1","2",""
"","html-keyboard-response","137","84358","0.0-137.0","3KYQYYSHYWTQGSAOCCUOU05CVJ8ODA","AEK2SAEL9GG39","3SA4EMRVJVOCGON1OYE6FAUV3KKP05","","null","<img src=""img/flower4.png"" style=""width:200px;border:14px solid red;"">","null","","","","","","","","",""
"","image-keyboard-response","138","84504","0.0-138.0","3KYQYYSHYWTQGSAOCCUOU05CVJ8ODA","AEK2SAEL9GG39","3SA4EMRVJVOCGON1OYE6FAUV3KKP05","","145.89999997615814","img/flower3.png","74","146.5","1","0","3","2","1,0,0,1,1,0,1,0,1","0,0,1,1,0,1,0,1,1","2",""
"","html-keyboard-response","139","84805","0.0-139.0","3KYQYYSHYWTQGSAOCCUOU05CVJ8ODA","AEK2SAEL9GG39","3SA4EMRVJVOCGON1OYE6FAUV3KKP05","","null","<img src=""img/flower3.png"" style=""width:200px;border:14px solid red;"">","null","","","","","","","","",""
"","image-keyboard-response","140","84976","0.0-140.0","3KYQYYSHYWTQGSAOCCUOU05CVJ8ODA","AEK2SAEL9GG39","3SA4EMRVJVOCGON1OYE6FAUV3KKP05","","170.4000000357628","img/flower1.png","75","170.89999997615814","2","0","1","2","1,0,0,1,1,0,1,0,1","0,0,1,1,0,1,0,1,1","2",""
"","html-keyboard-response","141","85278","0.0-141.0","3KYQYYSHYWTQGSAOCCUOU05CVJ8ODA","AEK2SAEL9GG39","3SA4EMRVJVOCGON1OYE6FAUV3KKP05","","null","<img src=""img/flower1.png"" style=""width:200px;border:14px solid red;"">","null","","","","","","","","",""
"","image-keyboard-response","142","85416","0.0-142.0","3KYQYYSHYWTQGSAOCCUOU05CVJ8ODA","AEK2SAEL9GG39","3SA4EMRVJVOCGON1OYE6FAUV3KKP05","","137.39999997615814","img/flower3.png","76","138","3","1","3","2","1,0,0,1,1,0,1,0,1","0,0,1,1,0,1,0,1,1","2",""
"","html-keyboard-response","143","85718","0.0-143.0","3KYQYYSHYWTQGSAOCCUOU05CVJ8ODA","AEK2SAEL9GG39","3SA4EMRVJVOCGON1OYE6FAUV3KKP05","","null","<img src=""img/flower3.png"" style=""width:200px; border:14px solid green;"">","null","","","","","","","","",""
"","image-keyboard-response","144","85896","0.0-144.0","3KYQYYSHYWTQGSAOCCUOU05CVJ8ODA","AEK2SAEL9GG39","3SA4EMRVJVOCGON1OYE6FAUV3KKP05","","177.30000001192093","img/flower4.png","75","177.9000000357628","2","0","2","2","1,0,0,1,1,0,1,0,1","0,0,1,1,0,1,0,1,1","2",""
"","html-keyboard-response","145","86198","0.0-145.0","3KYQYYSHYWTQGSAOCCUOU05CVJ8ODA","AEK2SAEL9GG39","3SA4EMRVJVOCGON1OYE6FAUV3KKP05","","null","<img src=""img/flower4.png"" style=""width:200px;border:14px solid red;"">","null","","","","","","","","",""
"","image-keyboard-response","146","86376","0.0-146.0","3KYQYYSHYWTQGSAOCCUOU05CVJ8ODA","AEK2SAEL9GG39","3SA4EMRVJVOCGON1OYE6FAUV3KKP05","","177.20000004768372","img/flower3.png","74","177.80000001192093","1","0","3","2","1,0,0,1,1,0,1,0,1","0,0,1,1,0,1,0,1,1","2",""
"","html-keyboard-response","147","86678","0.0-147.0","3KYQYYSHYWTQGSAOCCUOU05CVJ8ODA","AEK2SAEL9GG39","3SA4EMRVJVOCGON1OYE6FAUV3KKP05","","null","<img src=""img/flower3.png"" style=""width:200px;border:14px solid red;"">","null","","","","","","","","",""
"","image-keyboard-response","148","86856","0.0-148.0","3KYQYYSHYWTQGSAOCCUOU05CVJ8ODA","AEK2SAEL9GG39","3SA4EMRVJVOCGON1OYE6FAUV3KKP05","","177.9000000357628","img/flower3.png","75","178.4000000357628","2","1","3","2","1,0,0,1,1,0,1,0,1","0,0,1,1,0,1,0,1,1","2",""
"","html-keyboard-response","149","87158","0.0-149.0","3KYQYYSHYWTQGSAOCCUOU05CVJ8ODA","AEK2SAEL9GG39","3SA4EMRVJVOCGON1OYE6FAUV3KKP05","","null","<img src=""img/flower3.png"" style=""width:200px; border:14px solid green;"">","null","","","","","","","","",""
"","image-keyboard-response","150","87368","0.0-150.0","3KYQYYSHYWTQGSAOCCUOU05CVJ8ODA","AEK2SAEL9GG39","3SA4EMRVJVOCGON1OYE6FAUV3KKP05","","209.5","img/flower4.png","76","210.0999999642372","3","1","2","2","1,0,0,1,1,0,1,0,1","0,0,1,1,0,1,0,1,1","2",""
"","html-keyboard-response","151","87669","0.0-151.0","3KYQYYSHYWTQGSAOCCUOU05CVJ8ODA","AEK2SAEL9GG39","3SA4EMRVJVOCGON1OYE6FAUV3KKP05","","null","<img src=""img/flower4.png"" style=""width:200px; border:14px solid green;"">","null","","","","","","","","",""
"","image-keyboard-response","152","87928","0.0-152.0","3KYQYYSHYWTQGSAOCCUOU05CVJ8ODA","AEK2SAEL9GG39","3SA4EMRVJVOCGON1OYE6FAUV3KKP05","","258.2000000476837","img/flower3.png","75","258.80000001192093","2","1","3","2","1,0,0,1,1,0,1,0,1","0,0,1,1,0,1,0,1,1","2",""
"","html-keyboard-response","153","88230","0.0-153.0","3KYQYYSHYWTQGSAOCCUOU05CVJ8ODA","AEK2SAEL9GG39","3SA4EMRVJVOCGON1OYE6FAUV3KKP05","","null","<img src=""img/flower3.png"" style=""width:200px; border:14px solid green;"">","null","","","","","","","","",""
"","image-keyboard-response","154","88465","0.0-154.0","3KYQYYSHYWTQGSAOCCUOU05CVJ8ODA","AEK2SAEL9GG39","3SA4EMRVJVOCGON1OYE6FAUV3KKP05","","234.29999995231628","img/flower1.png","74","235","1","0","1","2","1,0,0,1,1,0,1,0,1","0,0,1,1,0,1,0,1,1","2",""
"","html-keyboard-response","155","88767","0.0-155.0","3KYQYYSHYWTQGSAOCCUOU05CVJ8ODA","AEK2SAEL9GG39","3SA4EMRVJVOCGON1OYE6FAUV3KKP05","","null","<img src=""img/flower1.png"" style=""width:200px;border:14px solid red;"">","null","","","","","","","","",""
"","image-keyboard-response","156","88976","0.0-156.0","3KYQYYSHYWTQGSAOCCUOU05CVJ8ODA","AEK2SAEL9GG39","3SA4EMRVJVOCGON1OYE6FAUV3KKP05","","208.80000001192093","img/flower4.png","75","209.30000001192093","2","0","2","2","1,0,0,1,1,0,1,0,1","0,0,1,1,0,1,0,1,1","2",""
"","html-keyboard-response","157","89277","0.0-157.0","3KYQYYSHYWTQGSAOCCUOU05CVJ8ODA","AEK2SAEL9GG39","3SA4EMRVJVOCGON1OYE6FAUV3KKP05","","null","<img src=""img/flower4.png"" style=""width:200px;border:14px solid red;"">","null","","","","","","","","",""
"","image-keyboard-response","158","89440","0.0-158.0","3KYQYYSHYWTQGSAOCCUOU05CVJ8ODA","AEK2SAEL9GG39","3SA4EMRVJVOCGON1OYE6FAUV3KKP05","","161.60000002384186","img/flower1.png","76","163","3","1","1","2","1,0,0,1,1,0,1,0,1","0,0,1,1,0,1,0,1,1","2",""
"","html-keyboard-response","159","89742","0.0-159.0","3KYQYYSHYWTQGSAOCCUOU05CVJ8ODA","AEK2SAEL9GG39","3SA4EMRVJVOCGON1OYE6FAUV3KKP05","","null","<img src=""img/flower1.png"" style=""width:200px; border:14px solid green;"">","null","","","","","","","","",""
"","image-keyboard-response","160","89905","0.0-160.0","3KYQYYSHYWTQGSAOCCUOU05CVJ8ODA","AEK2SAEL9GG39","3SA4EMRVJVOCGON1OYE6FAUV3KKP05","","161.10000002384186","img/flower1.png","75","162.30000001192093","2","0","1","2","1,0,0,1,1,0,1,0,1","0,0,1,1,0,1,0,1,1","2",""
"","html-keyboard-response","161","90207","0.0-161.0","3KYQYYSHYWTQGSAOCCUOU05CVJ8ODA","AEK2SAEL9GG39","3SA4EMRVJVOCGON1OYE6FAUV3KKP05","","null","<img src=""img/flower1.png"" style=""width:200px;border:14px solid red;"">","null","","","","","","","","",""
"","image-keyboard-response","162","90360","0.0-162.0","3KYQYYSHYWTQGSAOCCUOU05CVJ8ODA","AEK2SAEL9GG39","3SA4EMRVJVOCGON1OYE6FAUV3KKP05","","152.80000001192093","img/flower4.png","74","153.39999997615814","1","1","2","2","1,0,0,1,1,0,1,0,1","0,0,1,1,0,1,0,1,1","2",""
"","html-keyboard-response","163","90662","0.0-163.0","3KYQYYSHYWTQGSAOCCUOU05CVJ8ODA","AEK2SAEL9GG39","3SA4EMRVJVOCGON1OYE6FAUV3KKP05","","null","<img src=""img/flower4.png"" style=""width:200px; border:14px solid green;"">","null","","","","","","","","",""
"","image-keyboard-response","164","90872","0.0-164.0","3KYQYYSHYWTQGSAOCCUOU05CVJ8ODA","AEK2SAEL9GG39","3SA4EMRVJVOCGON1OYE6FAUV3KKP05","","209.5","img/flower4.png","75","210","2","0","2","2","1,0,0,1,1,0,1,0,1","0,0,1,1,0,1,0,1,1","2",""
"","html-keyboard-response","165","91173","0.0-165.0","3KYQYYSHYWTQGSAOCCUOU05CVJ8ODA","AEK2SAEL9GG39","3SA4EMRVJVOCGON1OYE6FAUV3KKP05","","null","<img src=""img/flower4.png"" style=""width:200px;border:14px solid red;"">","null","","","","","","","","",""
"","image-keyboard-response","166","91328","0.0-166.0","3KYQYYSHYWTQGSAOCCUOU05CVJ8ODA","AEK2SAEL9GG39","3SA4EMRVJVOCGON1OYE6FAUV3KKP05","","154.30000001192093","img/flower3.png","76","154.80000001192093","3","1","3","2","1,0,0,1,1,0,1,0,1","0,0,1,1,0,1,0,1,1","2",""
"","html-keyboard-response","167","91629","0.0-167.0","3KYQYYSHYWTQGSAOCCUOU05CVJ8ODA","AEK2SAEL9GG39","3SA4EMRVJVOCGON1OYE6FAUV3KKP05","","null","<img src=""img/flower3.png"" style=""width:200px; border:14px solid green;"">","null","","","","","","","","",""
"","image-keyboard-response","168","91824","0.0-168.0","3KYQYYSHYWTQGSAOCCUOU05CVJ8ODA","AEK2SAEL9GG39","3SA4EMRVJVOCGON1OYE6FAUV3KKP05","","194.30000001192093","img/flower3.png","75","194.80000001192093","2","1","3","2","1,0,0,1,1,0,1,0,1","0,0,1,1,0,1,0,1,1","2",""
"","html-keyboard-response","169","92126","0.0-169.0","3KYQYYSHYWTQGSAOCCUOU05CVJ8ODA","AEK2SAEL9GG39","3SA4EMRVJVOCGON1OYE6FAUV3KKP05","","null","<img src=""img/flower3.png"" style=""width:200px; border:14px solid green;"">","null","","","","","","","","",""
"","image-keyboard-response","170","92296","0.0-170.0","3KYQYYSHYWTQGSAOCCUOU05CVJ8ODA","AEK2SAEL9GG39","3SA4EMRVJVOCGON1OYE6FAUV3KKP05","","169.10000002384186","img/flower1.png","74","169.5","1","0","1","2","1,0,0,1,1,0,1,0,1","0,0,1,1,0,1,0,1,1","2",""
"","html-keyboard-response","171","92597","0.0-171.0","3KYQYYSHYWTQGSAOCCUOU05CVJ8ODA","AEK2SAEL9GG39","3SA4EMRVJVOCGON1OYE6FAUV3KKP05","","null","<img src=""img/flower1.png"" style=""width:200px;border:14px solid red;"">","null","","","","","","","","",""
"","image-keyboard-response","172","92784","0.0-172.0","3KYQYYSHYWTQGSAOCCUOU05CVJ8ODA","AEK2SAEL9GG39","3SA4EMRVJVOCGON1OYE6FAUV3KKP05","","185.89999997615814","img/flower3.png","75","186.5","2","1","3","2","1,0,0,1,1,0,1,0,1","0,0,1,1,0,1,0,1,1","2",""
"","html-keyboard-response","173","93086","0.0-173.0","3KYQYYSHYWTQGSAOCCUOU05CVJ8ODA","AEK2SAEL9GG39","3SA4EMRVJVOCGON1OYE6FAUV3KKP05","","null","<img src=""img/flower3.png"" style=""width:200px; border:14px solid green;"">","null","","","","","","","","",""
"","image-keyboard-response","174","93240","0.0-174.0","3KYQYYSHYWTQGSAOCCUOU05CVJ8ODA","AEK2SAEL9GG39","3SA4EMRVJVOCGON1OYE6FAUV3KKP05","","154.19999998807907","img/flower1.png","76","155.5","3","1","1","2","1,0,0,1,1,0,1,0,1","0,0,1,1,0,1,0,1,1","2",""
"","html-keyboard-response","175","93542","0.0-175.0","3KYQYYSHYWTQGSAOCCUOU05CVJ8ODA","AEK2SAEL9GG39","3SA4EMRVJVOCGON1OYE6FAUV3KKP05","","null","<img src=""img/flower1.png"" style=""width:200px; border:14px solid green;"">","null","","","","","","","","",""
"","image-keyboard-response","176","93816","0.0-176.0","3KYQYYSHYWTQGSAOCCUOU05CVJ8ODA","AEK2SAEL9GG39","3SA4EMRVJVOCGON1OYE6FAUV3KKP05","","273.19999998807907","img/flower4.png","75","273.80000001192093","2","0","2","2","1,0,0,1,1,0,1,0,1","0,0,1,1,0,1,0,1,1","2",""
"","html-keyboard-response","177","94117","0.0-177.0","3KYQYYSHYWTQGSAOCCUOU05CVJ8ODA","AEK2SAEL9GG39","3SA4EMRVJVOCGON1OYE6FAUV3KKP05","","null","<img src=""img/flower4.png"" style=""width:200px;border:14px solid red;"">","null","","","","","","","","",""
"","image-keyboard-response","178","94264","0.0-178.0","3KYQYYSHYWTQGSAOCCUOU05CVJ8ODA","AEK2SAEL9GG39","3SA4EMRVJVOCGON1OYE6FAUV3KKP05","","146.39999997615814","img/flower3.png","74","147.10000002384186","1","0","3","2","1,0,0,1,1,0,1,0,1","0,0,1,1,0,1,0,1,1","2",""
"","html-keyboard-response","179","94565","0.0-179.0","3KYQYYSHYWTQGSAOCCUOU05CVJ8ODA","AEK2SAEL9GG39","3SA4EMRVJVOCGON1OYE6FAUV3KKP05","","null","<img src=""img/flower3.png"" style=""width:200px;border:14px solid red;"">","null","","","","","","","","",""
"","image-keyboard-response","180","94768","0.0-180.0","3KYQYYSHYWTQGSAOCCUOU05CVJ8ODA","AEK2SAEL9GG39","3SA4EMRVJVOCGON1OYE6FAUV3KKP05","","202.60000002384186","img/flower4.png","75","203","2","0","2","2","1,0,0,1,1,0,1,0,1","0,0,1,1,0,1,0,1,1","2",""
"","html-keyboard-response","181","95070","0.0-181.0","3KYQYYSHYWTQGSAOCCUOU05CVJ8ODA","AEK2SAEL9GG39","3SA4EMRVJVOCGON1OYE6FAUV3KKP05","","null","<img src=""img/flower4.png"" style=""width:200px;border:14px solid red;"">","null","","","","","","","","",""
"","image-keyboard-response","182","95241","0.0-182.0","3KYQYYSHYWTQGSAOCCUOU05CVJ8ODA","AEK2SAEL9GG39","3SA4EMRVJVOCGON1OYE6FAUV3KKP05","","170.30000001192093","img/flower6.png","76","171","3","1","3","1","1,0.333,0.333,0.333,1,0.333,0.333,0.333,1","1,0.333,0.333,0.333,1,0.333,0.333,0.333,1","1",""
"","html-keyboard-response","183","95543","0.0-183.0","3KYQYYSHYWTQGSAOCCUOU05CVJ8ODA","AEK2SAEL9GG39","3SA4EMRVJVOCGON1OYE6FAUV3KKP05","","null","<img src=""img/flower6.png"" style=""width:200px; border:14px solid green;"">","null","","","","","","","","",""
"","image-keyboard-response","184","95848","0.0-184.0","3KYQYYSHYWTQGSAOCCUOU05CVJ8ODA","AEK2SAEL9GG39","3SA4EMRVJVOCGON1OYE6FAUV3KKP05","","304.89999997615814","img/flower6.png","75","305.60000002384186","2","0","3","1","1,0.333,0.333,0.333,1,0.333,0.333,0.333,1","1,0.333,0.333,0.333,1,0.333,0.333,0.333,1","1",""
"","html-keyboard-response","185","96150","0.0-185.0","3KYQYYSHYWTQGSAOCCUOU05CVJ8ODA","AEK2SAEL9GG39","3SA4EMRVJVOCGON1OYE6FAUV3KKP05","","null","<img src=""img/flower6.png"" style=""width:200px;border:14px solid red;"">","null","","","","","","","","",""
"","image-keyboard-response","186","96232","0.0-186.0","3KYQYYSHYWTQGSAOCCUOU05CVJ8ODA","AEK2SAEL9GG39","3SA4EMRVJVOCGON1OYE6FAUV3KKP05","","81.10000002384186","img/flower5.png","74","81.69999998807907","1","1","2","1","1,0.333,0.333,0.333,1,0.333,0.333,0.333,1","1,0.333,0.333,0.333,1,0.333,0.333,0.333,1","1",""
"","html-keyboard-response","187","96534","0.0-187.0","3KYQYYSHYWTQGSAOCCUOU05CVJ8ODA","AEK2SAEL9GG39","3SA4EMRVJVOCGON1OYE6FAUV3KKP05","","null","<img src=""img/flower5.png"" style=""width:200px; border:14px solid green;"">","null","","","","","","","","",""
"","image-keyboard-response","188","96776","0.0-188.0","3KYQYYSHYWTQGSAOCCUOU05CVJ8ODA","AEK2SAEL9GG39","3SA4EMRVJVOCGON1OYE6FAUV3KKP05","","241.20000004768372","img/flower2.png","75","241.9000000357628","2","1","1","1","1,0.333,0.333,0.333,1,0.333,0.333,0.333,1","1,0.333,0.333,0.333,1,0.333,0.333,0.333,1","1",""
"","html-keyboard-response","189","97078","0.0-189.0","3KYQYYSHYWTQGSAOCCUOU05CVJ8ODA","AEK2SAEL9GG39","3SA4EMRVJVOCGON1OYE6FAUV3KKP05","","null","<img src=""img/flower2.png"" style=""width:200px; border:14px solid green;"">","null","","","","","","","","",""
"","image-keyboard-response","190","97256","0.0-190.0","3KYQYYSHYWTQGSAOCCUOU05CVJ8ODA","AEK2SAEL9GG39","3SA4EMRVJVOCGON1OYE6FAUV3KKP05","","177.20000004768372","img/flower5.png","76","177.5999999642372","3","0","2","1","1,0.333,0.333,0.333,1,0.333,0.333,0.333,1","1,0.333,0.333,0.333,1,0.333,0.333,0.333,1","1",""
"","html-keyboard-response","191","97557","0.0-191.0","3KYQYYSHYWTQGSAOCCUOU05CVJ8ODA","AEK2SAEL9GG39","3SA4EMRVJVOCGON1OYE6FAUV3KKP05","","null","<img src=""img/flower5.png"" style=""width:200px;border:14px solid red;"">","null","","","","","","","","",""
"","image-keyboard-response","192","97760","0.0-192.0","3KYQYYSHYWTQGSAOCCUOU05CVJ8ODA","AEK2SAEL9GG39","3SA4EMRVJVOCGON1OYE6FAUV3KKP05","","202.30000001192093","img/flower6.png","75","202.9000000357628","2","1","3","1","1,0.333,0.333,0.333,1,0.333,0.333,0.333,1","1,0.333,0.333,0.333,1,0.333,0.333,0.333,1","1",""
"","html-keyboard-response","193","98063","0.0-193.0","3KYQYYSHYWTQGSAOCCUOU05CVJ8ODA","AEK2SAEL9GG39","3SA4EMRVJVOCGON1OYE6FAUV3KKP05","","null","<img src=""img/flower6.png"" style=""width:200px; border:14px solid green;"">","null","","","","","","","","",""
"","image-keyboard-response","194","98208","0.0-194.0","3KYQYYSHYWTQGSAOCCUOU05CVJ8ODA","AEK2SAEL9GG39","3SA4EMRVJVOCGON1OYE6FAUV3KKP05","","144.60000002384186","img/flower2.png","74","145.19999998807907","1","1","1","1","1,0.333,0.333,0.333,1,0.333,0.333,0.333,1","1,0.333,0.333,0.333,1,0.333,0.333,0.333,1","1",""
"","html-keyboard-response","195","98510","0.0-195.0","3KYQYYSHYWTQGSAOCCUOU05CVJ8ODA","AEK2SAEL9GG39","3SA4EMRVJVOCGON1OYE6FAUV3KKP05","","null","<img src=""img/flower2.png"" style=""width:200px; border:14px solid green;"">","null","","","","","","","","",""
"","image-keyboard-response","196","98728","0.0-196.0","3KYQYYSHYWTQGSAOCCUOU05CVJ8ODA","AEK2SAEL9GG39","3SA4EMRVJVOCGON1OYE6FAUV3KKP05","","217.9000000357628","img/flower2.png","75","218.39999997615814","2","0","1","1","1,0.333,0.333,0.333,1,0.333,0.333,0.333,1","1,0.333,0.333,0.333,1,0.333,0.333,0.333,1","1",""
"","html-keyboard-response","197","99030","0.0-197.0","3KYQYYSHYWTQGSAOCCUOU05CVJ8ODA","AEK2SAEL9GG39","3SA4EMRVJVOCGON1OYE6FAUV3KKP05","","null","<img src=""img/flower2.png"" style=""width:200px;border:14px solid red;"">","null","","","","","","","","",""
"","image-keyboard-response","198","99240","0.0-198.0","3KYQYYSHYWTQGSAOCCUOU05CVJ8ODA","AEK2SAEL9GG39","3SA4EMRVJVOCGON1OYE6FAUV3KKP05","","209.80000001192093","img/flower6.png","76","210.30000001192093","3","1","3","1","1,0.333,0.333,0.333,1,0.333,0.333,0.333,1","1,0.333,0.333,0.333,1,0.333,0.333,0.333,1","1",""
"","html-keyboard-response","199","99542","0.0-199.0","3KYQYYSHYWTQGSAOCCUOU05CVJ8ODA","AEK2SAEL9GG39","3SA4EMRVJVOCGON1OYE6FAUV3KKP05","","null","<img src=""img/flower6.png"" style=""width:200px; border:14px solid green;"">","null","","","","","","","","",""
"","image-keyboard-response","200","99784","0.0-200.0","3KYQYYSHYWTQGSAOCCUOU05CVJ8ODA","AEK2SAEL9GG39","3SA4EMRVJVOCGON1OYE6FAUV3KKP05","","241.69999998807907","img/flower2.png","75","242.39999997615814","2","0","1","1","1,0.333,0.333,0.333,1,0.333,0.333,0.333,1","1,0.333,0.333,0.333,1,0.333,0.333,0.333,1","1",""
"","html-keyboard-response","201","100085","0.0-201.0","3KYQYYSHYWTQGSAOCCUOU05CVJ8ODA","AEK2SAEL9GG39","3SA4EMRVJVOCGON1OYE6FAUV3KKP05","","null","<img src=""img/flower2.png"" style=""width:200px;border:14px solid red;"">","null","","","","","","","","",""
"","image-keyboard-response","202","100272","0.0-202.0","3KYQYYSHYWTQGSAOCCUOU05CVJ8ODA","AEK2SAEL9GG39","3SA4EMRVJVOCGON1OYE6FAUV3KKP05","","186.30000001192093","img/flower5.png","74","186.69999998807907","1","1","2","1","1,0.333,0.333,0.333,1,0.333,0.333,0.333,1","1,0.333,0.333,0.333,1,0.333,0.333,0.333,1","1",""
"","html-keyboard-response","203","100573","0.0-203.0","3KYQYYSHYWTQGSAOCCUOU05CVJ8ODA","AEK2SAEL9GG39","3SA4EMRVJVOCGON1OYE6FAUV3KKP05","","null","<img src=""img/flower5.png"" style=""width:200px; border:14px solid green;"">","null","","","","","","","","",""
"","image-keyboard-response","204","100857","0.0-204.0","3KYQYYSHYWTQGSAOCCUOU05CVJ8ODA","AEK2SAEL9GG39","3SA4EMRVJVOCGON1OYE6FAUV3KKP05","","282.80000001192093","img/flower2.png","75","283.4000000357628","2","0","1","1","1,0.333,0.333,0.333,1,0.333,0.333,0.333,1","1,0.333,0.333,0.333,1,0.333,0.333,0.333,1","1",""
"","html-keyboard-response","205","101158","0.0-205.0","3KYQYYSHYWTQGSAOCCUOU05CVJ8ODA","AEK2SAEL9GG39","3SA4EMRVJVOCGON1OYE6FAUV3KKP05","","null","<img src=""img/flower2.png"" style=""width:200px;border:14px solid red;"">","null","","","","","","","","",""
"","image-keyboard-response","206","101344","0.0-206.0","3KYQYYSHYWTQGSAOCCUOU05CVJ8ODA","AEK2SAEL9GG39","3SA4EMRVJVOCGON1OYE6FAUV3KKP05","","185.70000004768372","img/flower2.png","76","186.19999998807907","3","0","1","1","1,0.333,0.333,0.333,1,0.333,0.333,0.333,1","1,0.333,0.333,0.333,1,0.333,0.333,0.333,1","1",""
"","html-keyboard-response","207","101646","0.0-207.0","3KYQYYSHYWTQGSAOCCUOU05CVJ8ODA","AEK2SAEL9GG39","3SA4EMRVJVOCGON1OYE6FAUV3KKP05","","null","<img src=""img/flower2.png"" style=""width:200px;border:14px solid red;"">","null","","","","","","","","",""
"","image-keyboard-response","208","101840","0.0-208.0","3KYQYYSHYWTQGSAOCCUOU05CVJ8ODA","AEK2SAEL9GG39","3SA4EMRVJVOCGON1OYE6FAUV3KKP05","","193.80000001192093","img/flower2.png","75","194.19999998807907","2","0","1","1","1,0.333,0.333,0.333,1,0.333,0.333,0.333,1","1,0.333,0.333,0.333,1,0.333,0.333,0.333,1","1",""
"","html-keyboard-response","209","102142","0.0-209.0","3KYQYYSHYWTQGSAOCCUOU05CVJ8ODA","AEK2SAEL9GG39","3SA4EMRVJVOCGON1OYE6FAUV3KKP05","","null","<img src=""img/flower2.png"" style=""width:200px;border:14px solid red;"">","null","","","","","","","","",""
"","image-keyboard-response","210","102288","0.0-210.0","3KYQYYSHYWTQGSAOCCUOU05CVJ8ODA","AEK2SAEL9GG39","3SA4EMRVJVOCGON1OYE6FAUV3KKP05","","145.80000001192093","img/flower2.png","74","146.4000000357628","1","1","1","1","1,0.333,0.333,0.333,1,0.333,0.333,0.333,1","1,0.333,0.333,0.333,1,0.333,0.333,0.333,1","1",""
"","html-keyboard-response","211","102590","0.0-211.0","3KYQYYSHYWTQGSAOCCUOU05CVJ8ODA","AEK2SAEL9GG39","3SA4EMRVJVOCGON1OYE6FAUV3KKP05","","null","<img src=""img/flower2.png"" style=""width:200px; border:14px solid green;"">","null","","","","","","","","",""
"","image-keyboard-response","212","102768","0.0-212.0","3KYQYYSHYWTQGSAOCCUOU05CVJ8ODA","AEK2SAEL9GG39","3SA4EMRVJVOCGON1OYE6FAUV3KKP05","","177.30000001192093","img/flower5.png","75","177.69999998807907","2","1","2","1","1,0.333,0.333,0.333,1,0.333,0.333,0.333,1","1,0.333,0.333,0.333,1,0.333,0.333,0.333,1","1",""
"","html-keyboard-response","213","103070","0.0-213.0","3KYQYYSHYWTQGSAOCCUOU05CVJ8ODA","AEK2SAEL9GG39","3SA4EMRVJVOCGON1OYE6FAUV3KKP05","","null","<img src=""img/flower5.png"" style=""width:200px; border:14px solid green;"">","null","","","","","","","","",""
"","image-keyboard-response","214","103217","0.0-214.0","3KYQYYSHYWTQGSAOCCUOU05CVJ8ODA","AEK2SAEL9GG39","3SA4EMRVJVOCGON1OYE6FAUV3KKP05","","145.89999997615814","img/flower5.png","76","146.69999998807907","3","0","2","1","1,0.333,0.333,0.333,1,0.333,0.333,0.333,1","1,0.333,0.333,0.333,1,0.333,0.333,0.333,1","1",""
"","html-keyboard-response","215","103518","0.0-215.0","3KYQYYSHYWTQGSAOCCUOU05CVJ8ODA","AEK2SAEL9GG39","3SA4EMRVJVOCGON1OYE6FAUV3KKP05","","null","<img src=""img/flower5.png"" style=""width:200px;border:14px solid red;"">","null","","","","","","","","",""
"","image-keyboard-response","216","103712","0.0-216.0","3KYQYYSHYWTQGSAOCCUOU05CVJ8ODA","AEK2SAEL9GG39","3SA4EMRVJVOCGON1OYE6FAUV3KKP05","","193","img/flower2.png","75","193.5999999642372","2","1","1","1","1,0.333,0.333,0.333,1,0.333,0.333,0.333,1","1,0.333,0.333,0.333,1,0.333,0.333,0.333,1","1",""
"","html-keyboard-response","217","104014","0.0-217.0","3KYQYYSHYWTQGSAOCCUOU05CVJ8ODA","AEK2SAEL9GG39","3SA4EMRVJVOCGON1OYE6FAUV3KKP05","","null","<img src=""img/flower2.png"" style=""width:200px; border:14px solid green;"">","null","","","","","","","","",""
"","image-keyboard-response","218","104192","0.0-218.0","3KYQYYSHYWTQGSAOCCUOU05CVJ8ODA","AEK2SAEL9GG39","3SA4EMRVJVOCGON1OYE6FAUV3KKP05","","177.4000000357628","img/flower6.png","74","177.80000001192093","1","0","3","1","1,0.333,0.333,0.333,1,0.333,0.333,0.333,1","1,0.333,0.333,0.333,1,0.333,0.333,0.333,1","1",""
"","html-keyboard-response","219","104494","0.0-219.0","3KYQYYSHYWTQGSAOCCUOU05CVJ8ODA","AEK2SAEL9GG39","3SA4EMRVJVOCGON1OYE6FAUV3KKP05","","null","<img src=""img/flower6.png"" style=""width:200px;border:14px solid red;"">","null","","","","","","","","",""
"","image-keyboard-response","220","104656","0.0-220.0","3KYQYYSHYWTQGSAOCCUOU05CVJ8ODA","AEK2SAEL9GG39","3SA4EMRVJVOCGON1OYE6FAUV3KKP05","","161.4000000357628","img/flower6.png","75","162.4000000357628","2","1","3","1","1,0.333,0.333,0.333,1,0.333,0.333,0.333,1","1,0.333,0.333,0.333,1,0.333,0.333,0.333,1","1",""
"","html-keyboard-response","221","104968","0.0-221.0","3KYQYYSHYWTQGSAOCCUOU05CVJ8ODA","AEK2SAEL9GG39","3SA4EMRVJVOCGON1OYE6FAUV3KKP05","","null","<img src=""img/flower6.png"" style=""width:200px; border:14px solid green;"">","null","","","","","","","","",""
"","image-keyboard-response","222","105200","0.0-222.0","3KYQYYSHYWTQGSAOCCUOU05CVJ8ODA","AEK2SAEL9GG39","3SA4EMRVJVOCGON1OYE6FAUV3KKP05","","231.10000002384186","img/flower2.png","76","231.60000002384186","3","0","1","1","1,0.333,0.333,0.333,1,0.333,0.333,0.333,1","1,0.333,0.333,0.333,1,0.333,0.333,0.333,1","1",""
"","html-keyboard-response","223","105503","0.0-223.0","3KYQYYSHYWTQGSAOCCUOU05CVJ8ODA","AEK2SAEL9GG39","3SA4EMRVJVOCGON1OYE6FAUV3KKP05","","null","<img src=""img/flower2.png"" style=""width:200px;border:14px solid red;"">","null","","","","","","","","",""
"","image-keyboard-response","224","105696","0.0-224.0","3KYQYYSHYWTQGSAOCCUOU05CVJ8ODA","AEK2SAEL9GG39","3SA4EMRVJVOCGON1OYE6FAUV3KKP05","","192.9000000357628","img/flower2.png","75","193.5999999642372","2","0","1","1","1,0.333,0.333,0.333,1,0.333,0.333,0.333,1","1,0.333,0.333,0.333,1,0.333,0.333,0.333,1","1",""
"","html-keyboard-response","225","105998","0.0-225.0","3KYQYYSHYWTQGSAOCCUOU05CVJ8ODA","AEK2SAEL9GG39","3SA4EMRVJVOCGON1OYE6FAUV3KKP05","","null","<img src=""img/flower2.png"" style=""width:200px;border:14px solid red;"">","null","","","","","","","","",""
"","image-keyboard-response","226","106176","0.0-226.0","3KYQYYSHYWTQGSAOCCUOU05CVJ8ODA","AEK2SAEL9GG39","3SA4EMRVJVOCGON1OYE6FAUV3KKP05","","177.30000001192093","img/flower2.png","74","178","1","1","1","1","1,0.333,0.333,0.333,1,0.333,0.333,0.333,1","1,0.333,0.333,0.333,1,0.333,0.333,0.333,1","1",""
"","html-keyboard-response","227","106479","0.0-227.0","3KYQYYSHYWTQGSAOCCUOU05CVJ8ODA","AEK2SAEL9GG39","3SA4EMRVJVOCGON1OYE6FAUV3KKP05","","null","<img src=""img/flower2.png"" style=""width:200px; border:14px solid green;"">","null","","","","","","","","",""
"","image-keyboard-response","228","106712","0.0-228.0","3KYQYYSHYWTQGSAOCCUOU05CVJ8ODA","AEK2SAEL9GG39","3SA4EMRVJVOCGON1OYE6FAUV3KKP05","","232.69999998807907","img/flower6.png","75","233.19999998807907","2","1","3","1","1,0.333,0.333,0.333,1,0.333,0.333,0.333,1","1,0.333,0.333,0.333,1,0.333,0.333,0.333,1","1",""
"","html-keyboard-response","229","107013","0.0-229.0","3KYQYYSHYWTQGSAOCCUOU05CVJ8ODA","AEK2SAEL9GG39","3SA4EMRVJVOCGON1OYE6FAUV3KKP05","","null","<img src=""img/flower6.png"" style=""width:200px; border:14px solid green;"">","null","","","","","","","","",""
"","image-keyboard-response","230","107144","0.0-230.0","3KYQYYSHYWTQGSAOCCUOU05CVJ8ODA","AEK2SAEL9GG39","3SA4EMRVJVOCGON1OYE6FAUV3KKP05","","130.30000001192093","img/flower2.png","76","131","3","0","1","1","1,0.333,0.333,0.333,1,0.333,0.333,0.333,1","1,0.333,0.333,0.333,1,0.333,0.333,0.333,1","1",""
"","html-keyboard-response","231","107445","0.0-231.0","3KYQYYSHYWTQGSAOCCUOU05CVJ8ODA","AEK2SAEL9GG39","3SA4EMRVJVOCGON1OYE6FAUV3KKP05","","null","<img src=""img/flower2.png"" style=""width:200px;border:14px solid red;"">","null","","","","","","","","",""
"","image-keyboard-response","232","107672","0.0-232.0","3KYQYYSHYWTQGSAOCCUOU05CVJ8ODA","AEK2SAEL9GG39","3SA4EMRVJVOCGON1OYE6FAUV3KKP05","","226.5999999642372","img/flower6.png","75","227","2","1","3","1","1,0.333,0.333,0.333,1,0.333,0.333,0.333,1","1,0.333,0.333,0.333,1,0.333,0.333,0.333,1","1",""
"","html-keyboard-response","233","107974","0.0-233.0","3KYQYYSHYWTQGSAOCCUOU05CVJ8ODA","AEK2SAEL9GG39","3SA4EMRVJVOCGON1OYE6FAUV3KKP05","","null","<img src=""img/flower6.png"" style=""width:200px; border:14px solid green;"">","null","","","","","","","","",""
"","image-keyboard-response","234","108176","0.0-234.0","3KYQYYSHYWTQGSAOCCUOU05CVJ8ODA","AEK2SAEL9GG39","3SA4EMRVJVOCGON1OYE6FAUV3KKP05","","201.30000001192093","img/flower6.png","74","202","1","0","3","1","1,0.333,0.333,0.333,1,0.333,0.333,0.333,1","1,0.333,0.333,0.333,1,0.333,0.333,0.333,1","1",""
"","html-keyboard-response","235","108477","0.0-235.0","3KYQYYSHYWTQGSAOCCUOU05CVJ8ODA","AEK2SAEL9GG39","3SA4EMRVJVOCGON1OYE6FAUV3KKP05","","null","<img src=""img/flower6.png"" style=""width:200px;border:14px solid red;"">","null","","","","","","","","",""
"","image-keyboard-response","236","108744","0.0-236.0","3KYQYYSHYWTQGSAOCCUOU05CVJ8ODA","AEK2SAEL9GG39","3SA4EMRVJVOCGON1OYE6FAUV3KKP05","","266.19999998807907","img/flower6.png","75","266.69999998807907","2","1","3","1","1,0.333,0.333,0.333,1,0.333,0.333,0.333,1","1,0.333,0.333,0.333,1,0.333,0.333,0.333,1","1",""
"","html-keyboard-response","237","109053","0.0-237.0","3KYQYYSHYWTQGSAOCCUOU05CVJ8ODA","AEK2SAEL9GG39","3SA4EMRVJVOCGON1OYE6FAUV3KKP05","","null","<img src=""img/flower6.png"" style=""width:200px; border:14px solid green;"">","null","","","","","","","","",""
"","image-keyboard-response","238","109224","0.0-238.0","3KYQYYSHYWTQGSAOCCUOU05CVJ8ODA","AEK2SAEL9GG39","3SA4EMRVJVOCGON1OYE6FAUV3KKP05","","170.30000001192093","img/flower2.png","76","171","3","0","1","1","1,0.333,0.333,0.333,1,0.333,0.333,0.333,1","1,0.333,0.333,0.333,1,0.333,0.333,0.333,1","1",""
"","html-keyboard-response","239","109526","0.0-239.0","3KYQYYSHYWTQGSAOCCUOU05CVJ8ODA","AEK2SAEL9GG39","3SA4EMRVJVOCGON1OYE6FAUV3KKP05","","null","<img src=""img/flower2.png"" style=""width:200px;border:14px solid red;"">","null","","","","","","","","",""
"","image-keyboard-response","240","109776","0.0-240.0","3KYQYYSHYWTQGSAOCCUOU05CVJ8ODA","AEK2SAEL9GG39","3SA4EMRVJVOCGON1OYE6FAUV3KKP05","","249.39999997615814","img/flower5.png","75","250","2","1","2","1","1,0.333,0.333,0.333,1,0.333,0.333,0.333,1","1,0.333,0.333,0.333,1,0.333,0.333,0.333,1","1",""
"","html-keyboard-response","241","110078","0.0-241.0","3KYQYYSHYWTQGSAOCCUOU05CVJ8ODA","AEK2SAEL9GG39","3SA4EMRVJVOCGON1OYE6FAUV3KKP05","","null","<img src=""img/flower5.png"" style=""width:200px; border:14px solid green;"">","null","","","","","","","","",""
"","image-keyboard-response","242","110288","0.0-242.0","3KYQYYSHYWTQGSAOCCUOU05CVJ8ODA","AEK2SAEL9GG39","3SA4EMRVJVOCGON1OYE6FAUV3KKP05","","209.80000001192093","img/flower5.png","74","210.5","1","1","2","1","1,0.333,0.333,0.333,1,0.333,0.333,0.333,1","1,0.333,0.333,0.333,1,0.333,0.333,0.333,1","1",""
"","html-keyboard-response","243","110590","0.0-243.0","3KYQYYSHYWTQGSAOCCUOU05CVJ8ODA","AEK2SAEL9GG39","3SA4EMRVJVOCGON1OYE6FAUV3KKP05","","null","<img src=""img/flower5.png"" style=""width:200px; border:14px solid green;"">","null","","","","","","","","",""
"","image-keyboard-response","244","110736","0.0-244.0","3KYQYYSHYWTQGSAOCCUOU05CVJ8ODA","AEK2SAEL9GG39","3SA4EMRVJVOCGON1OYE6FAUV3KKP05","","145.39999997615814","img/flower2.png","75","145.89999997615814","2","0","1","1","1,0.333,0.333,0.333,1,0.333,0.333,0.333,1","1,0.333,0.333,0.333,1,0.333,0.333,0.333,1","1",""
"","html-keyboard-response","245","111037","0.0-245.0","3KYQYYSHYWTQGSAOCCUOU05CVJ8ODA","AEK2SAEL9GG39","3SA4EMRVJVOCGON1OYE6FAUV3KKP05","","null","<img src=""img/flower2.png"" style=""width:200px;border:14px solid red;"">","null","","","","","","","","",""
"","image-keyboard-response","246","111224","0.0-246.0","3KYQYYSHYWTQGSAOCCUOU05CVJ8ODA","AEK2SAEL9GG39","3SA4EMRVJVOCGON1OYE6FAUV3KKP05","","186.5","img/flower6.png","76","187.0999999642372","3","1","3","1","1,0.333,0.333,0.333,1,0.333,0.333,0.333,1","1,0.333,0.333,0.333,1,0.333,0.333,0.333,1","1",""
"","html-keyboard-response","247","111525","0.0-247.0","3KYQYYSHYWTQGSAOCCUOU05CVJ8ODA","AEK2SAEL9GG39","3SA4EMRVJVOCGON1OYE6FAUV3KKP05","","null","<img src=""img/flower6.png"" style=""width:200px; border:14px solid green;"">","null","","","","","","","","",""
"","image-keyboard-response","248","111648","0.0-248.0","3KYQYYSHYWTQGSAOCCUOU05CVJ8ODA","AEK2SAEL9GG39","3SA4EMRVJVOCGON1OYE6FAUV3KKP05","","121.30000001192093","img/flower5.png","75","122.90000003576279","2","1","2","1","1,0.333,0.333,0.333,1,0.333,0.333,0.333,1","1,0.333,0.333,0.333,1,0.333,0.333,0.333,1","1",""
"","html-keyboard-response","249","111950","0.0-249.0","3KYQYYSHYWTQGSAOCCUOU05CVJ8ODA","AEK2SAEL9GG39","3SA4EMRVJVOCGON1OYE6FAUV3KKP05","","null","<img src=""img/flower5.png"" style=""width:200px; border:14px solid green;"">","null","","","","","","","","",""
"","image-keyboard-response","250","112112","0.0-250.0","3KYQYYSHYWTQGSAOCCUOU05CVJ8ODA","AEK2SAEL9GG39","3SA4EMRVJVOCGON1OYE6FAUV3KKP05","","161.80000001192093","img/flower2.png","74","162.60000002384186","1","1","1","1","1,0.333,0.333,0.333,1,0.333,0.333,0.333,1","1,0.333,0.333,0.333,1,0.333,0.333,0.333,1","1",""
"","html-keyboard-response","251","112415","0.0-251.0","3KYQYYSHYWTQGSAOCCUOU05CVJ8ODA","AEK2SAEL9GG39","3SA4EMRVJVOCGON1OYE6FAUV3KKP05","","null","<img src=""img/flower2.png"" style=""width:200px; border:14px solid green;"">","null","","","","","","","","",""
"","image-keyboard-response","252","112696","0.0-252.0","3KYQYYSHYWTQGSAOCCUOU05CVJ8ODA","AEK2SAEL9GG39","3SA4EMRVJVOCGON1OYE6FAUV3KKP05","","280.89999997615814","img/flower6.png","75","281.4000000357628","2","1","3","1","1,0.333,0.333,0.333,1,0.333,0.333,0.333,1","1,0.333,0.333,0.333,1,0.333,0.333,0.333,1","1",""
"","html-keyboard-response","253","112997","0.0-253.0","3KYQYYSHYWTQGSAOCCUOU05CVJ8ODA","AEK2SAEL9GG39","3SA4EMRVJVOCGON1OYE6FAUV3KKP05","","null","<img src=""img/flower6.png"" style=""width:200px; border:14px solid green;"">","null","","","","","","","","",""
"","image-keyboard-response","254","113224","0.0-254.0","3KYQYYSHYWTQGSAOCCUOU05CVJ8ODA","AEK2SAEL9GG39","3SA4EMRVJVOCGON1OYE6FAUV3KKP05","","225.89999997615814","img/flower2.png","76","226.5","3","1","1","1","1,0.333,0.333,0.333,1,0.333,0.333,0.333,1","1,0.333,0.333,0.333,1,0.333,0.333,0.333,1","1",""
"","html-keyboard-response","255","113525","0.0-255.0","3KYQYYSHYWTQGSAOCCUOU05CVJ8ODA","AEK2SAEL9GG39","3SA4EMRVJVOCGON1OYE6FAUV3KKP05","","null","<img src=""img/flower2.png"" style=""width:200px; border:14px solid green;"">","null","","","","","","","","",""
"","image-keyboard-response","256","113704","0.0-256.0","3KYQYYSHYWTQGSAOCCUOU05CVJ8ODA","AEK2SAEL9GG39","3SA4EMRVJVOCGON1OYE6FAUV3KKP05","","178.10000002384186","img/flower2.png","75","178.69999998807907","2","0","1","1","1,0.333,0.333,0.333,1,0.333,0.333,0.333,1","1,0.333,0.333,0.333,1,0.333,0.333,0.333,1","1",""
"","html-keyboard-response","257","114006","0.0-257.0","3KYQYYSHYWTQGSAOCCUOU05CVJ8ODA","AEK2SAEL9GG39","3SA4EMRVJVOCGON1OYE6FAUV3KKP05","","null","<img src=""img/flower2.png"" style=""width:200px;border:14px solid red;"">","null","","","","","","","","",""
"","image-keyboard-response","258","114152","0.0-258.0","3KYQYYSHYWTQGSAOCCUOU05CVJ8ODA","AEK2SAEL9GG39","3SA4EMRVJVOCGON1OYE6FAUV3KKP05","","145.60000002384186","img/flower5.png","74","146.30000001192093","1","0","2","1","1,0.333,0.333,0.333,1,0.333,0.333,0.333,1","1,0.333,0.333,0.333,1,0.333,0.333,0.333,1","1",""
"","html-keyboard-response","259","114454","0.0-259.0","3KYQYYSHYWTQGSAOCCUOU05CVJ8ODA","AEK2SAEL9GG39","3SA4EMRVJVOCGON1OYE6FAUV3KKP05","","null","<img src=""img/flower5.png"" style=""width:200px;border:14px solid red;"">","null","","","","","","","","",""
"","image-keyboard-response","260","114712","0.0-260.0","3KYQYYSHYWTQGSAOCCUOU05CVJ8ODA","AEK2SAEL9GG39","3SA4EMRVJVOCGON1OYE6FAUV3KKP05","","257.5","img/flower5.png","75","258.10000002384186","2","1","2","1","1,0.333,0.333,0.333,1,0.333,0.333,0.333,1","1,0.333,0.333,0.333,1,0.333,0.333,0.333,1","1",""
"","html-keyboard-response","261","115013","0.0-261.0","3KYQYYSHYWTQGSAOCCUOU05CVJ8ODA","AEK2SAEL9GG39","3SA4EMRVJVOCGON1OYE6FAUV3KKP05","","null","<img src=""img/flower5.png"" style=""width:200px; border:14px solid green;"">","null","","","","","","","","",""
"","image-keyboard-response","262","115168","0.0-262.0","3KYQYYSHYWTQGSAOCCUOU05CVJ8ODA","AEK2SAEL9GG39","3SA4EMRVJVOCGON1OYE6FAUV3KKP05","","154.69999998807907","img/flower5.png","76","155.39999997615814","3","0","2","1","1,0.333,0.333,0.333,1,0.333,0.333,0.333,1","1,0.333,0.333,0.333,1,0.333,0.333,0.333,1","1",""
"","html-keyboard-response","263","115474","0.0-263.0","3KYQYYSHYWTQGSAOCCUOU05CVJ8ODA","AEK2SAEL9GG39","3SA4EMRVJVOCGON1OYE6FAUV3KKP05","","null","<img src=""img/flower5.png"" style=""width:200px;border:14px solid red;"">","null","","","","","","","","",""
"","image-keyboard-response","264","115696","0.0-264.0","3KYQYYSHYWTQGSAOCCUOU05CVJ8ODA","AEK2SAEL9GG39","3SA4EMRVJVOCGON1OYE6FAUV3KKP05","","220.60000002384186","img/flower6.png","75","221.19999998807907","2","0","3","1","1,0.333,0.333,0.333,1,0.333,0.333,0.333,1","1,0.333,0.333,0.333,1,0.333,0.333,0.333,1","1",""
"","html-keyboard-response","265","115997","0.0-265.0","3KYQYYSHYWTQGSAOCCUOU05CVJ8ODA","AEK2SAEL9GG39","3SA4EMRVJVOCGON1OYE6FAUV3KKP05","","null","<img src=""img/flower6.png"" style=""width:200px;border:14px solid red;"">","null","","","","","","","","",""
"","image-keyboard-response","266","116160","0.0-266.0","3KYQYYSHYWTQGSAOCCUOU05CVJ8ODA","AEK2SAEL9GG39","3SA4EMRVJVOCGON1OYE6FAUV3KKP05","","162.19999998807907","img/flower2.png","74","162.80000001192093","1","1","1","1","1,0.333,0.333,0.333,1,0.333,0.333,0.333,1","1,0.333,0.333,0.333,1,0.333,0.333,0.333,1","1",""
"","html-keyboard-response","267","116462","0.0-267.0","3KYQYYSHYWTQGSAOCCUOU05CVJ8ODA","AEK2SAEL9GG39","3SA4EMRVJVOCGON1OYE6FAUV3KKP05","","null","<img src=""img/flower2.png"" style=""width:200px; border:14px solid green;"">","null","","","","","","","","",""
"","image-keyboard-response","268","116680","0.0-268.0","3KYQYYSHYWTQGSAOCCUOU05CVJ8ODA","AEK2SAEL9GG39","3SA4EMRVJVOCGON1OYE6FAUV3KKP05","","217.60000002384186","img/flower5.png","75","218.0999999642372","2","1","2","1","1,0.333,0.333,0.333,1,0.333,0.333,0.333,1","1,0.333,0.333,0.333,1,0.333,0.333,0.333,1","1",""
"","html-keyboard-response","269","116982","0.0-269.0","3KYQYYSHYWTQGSAOCCUOU05CVJ8ODA","AEK2SAEL9GG39","3SA4EMRVJVOCGON1OYE6FAUV3KKP05","","null","<img src=""img/flower5.png"" style=""width:200px; border:14px solid green;"">","null","","","","","","","","",""
"","image-keyboard-response","270","117064","0.0-270.0","3KYQYYSHYWTQGSAOCCUOU05CVJ8ODA","AEK2SAEL9GG39","3SA4EMRVJVOCGON1OYE6FAUV3KKP05","","81.19999998807907","img/flower6.png","76","81.90000003576279","3","1","3","1","1,0.333,0.333,0.333,1,0.333,0.333,0.333,1","1,0.333,0.333,0.333,1,0.333,0.333,0.333,1","1",""
"","html-keyboard-response","271","117365","0.0-271.0","3KYQYYSHYWTQGSAOCCUOU05CVJ8ODA","AEK2SAEL9GG39","3SA4EMRVJVOCGON1OYE6FAUV3KKP05","","null","<img src=""img/flower6.png"" style=""width:200px; border:14px solid green;"">","null","","","","","","","","",""
"","image-keyboard-response","272","117520","0.0-272.0","3KYQYYSHYWTQGSAOCCUOU05CVJ8ODA","AEK2SAEL9GG39","3SA4EMRVJVOCGON1OYE6FAUV3KKP05","","154.5","img/flower6.png","75","155","2","0","3","1","1,0.333,0.333,0.333,1,0.333,0.333,0.333,1","1,0.333,0.333,0.333,1,0.333,0.333,0.333,1","1",""
"","html-keyboard-response","273","117822","0.0-273.0","3KYQYYSHYWTQGSAOCCUOU05CVJ8ODA","AEK2SAEL9GG39","3SA4EMRVJVOCGON1OYE6FAUV3KKP05","","null","<img src=""img/flower6.png"" style=""width:200px;border:14px solid red;"">","null","","","","","","","","",""
"","image-keyboard-response","274","117952","0.0-274.0","3KYQYYSHYWTQGSAOCCUOU05CVJ8ODA","AEK2SAEL9GG39","3SA4EMRVJVOCGON1OYE6FAUV3KKP05","","129.10000002384186","img/flower6.png","74","129.5999999642372","1","1","3","1","1,0.333,0.333,0.333,1,0.333,0.333,0.333,1","1,0.333,0.333,0.333,1,0.333,0.333,0.333,1","1",""
"","html-keyboard-response","275","118254","0.0-275.0","3KYQYYSHYWTQGSAOCCUOU05CVJ8ODA","AEK2SAEL9GG39","3SA4EMRVJVOCGON1OYE6FAUV3KKP05","","null","<img src=""img/flower6.png"" style=""width:200px; border:14px solid green;"">","null","","","","","","","","",""
"","image-keyboard-response","276","118449","0.0-276.0","3KYQYYSHYWTQGSAOCCUOU05CVJ8ODA","AEK2SAEL9GG39","3SA4EMRVJVOCGON1OYE6FAUV3KKP05","","193.5999999642372","img/flower5.png","75","195","2","1","2","1","1,0.333,0.333,0.333,1,0.333,0.333,0.333,1","1,0.333,0.333,0.333,1,0.333,0.333,0.333,1","1",""
"","html-keyboard-response","277","118751","0.0-277.0","3KYQYYSHYWTQGSAOCCUOU05CVJ8ODA","AEK2SAEL9GG39","3SA4EMRVJVOCGON1OYE6FAUV3KKP05","","null","<img src=""img/flower5.png"" style=""width:200px; border:14px solid green;"">","null","","","","","","","","",""
"","image-keyboard-response","278","118856","0.0-278.0","3KYQYYSHYWTQGSAOCCUOU05CVJ8ODA","AEK2SAEL9GG39","3SA4EMRVJVOCGON1OYE6FAUV3KKP05","","104.30000001192093","img/flower6.png","76","104.89999997615814","3","1","3","1","1,0.333,0.333,0.333,1,0.333,0.333,0.333,1","1,0.333,0.333,0.333,1,0.333,0.333,0.333,1","1",""
"","html-keyboard-response","279","119158","0.0-279.0","3KYQYYSHYWTQGSAOCCUOU05CVJ8ODA","AEK2SAEL9GG39","3SA4EMRVJVOCGON1OYE6FAUV3KKP05","","null","<img src=""img/flower6.png"" style=""width:200px; border:14px solid green;"">","null","","","","","","","","",""
"","image-keyboard-response","280","119352","0.0-280.0","3KYQYYSHYWTQGSAOCCUOU05CVJ8ODA","AEK2SAEL9GG39","3SA4EMRVJVOCGON1OYE6FAUV3KKP05","","193.19999998807907","img/flower5.png","75","193.80000001192093","2","1","2","1","1,0.333,0.333,0.333,1,0.333,0.333,0.333,1","1,0.333,0.333,0.333,1,0.333,0.333,0.333,1","1",""
"","html-keyboard-response","281","119653","0.0-281.0","3KYQYYSHYWTQGSAOCCUOU05CVJ8ODA","AEK2SAEL9GG39","3SA4EMRVJVOCGON1OYE6FAUV3KKP05","","null","<img src=""img/flower5.png"" style=""width:200px; border:14px solid green;"">","null","","","","","","","","",""
"","image-keyboard-response","282","119768","0.0-282.0","3KYQYYSHYWTQGSAOCCUOU05CVJ8ODA","AEK2SAEL9GG39","3SA4EMRVJVOCGON1OYE6FAUV3KKP05","","114.59999996423721","img/flower5.png","74","115.30000001192093","1","1","2","1","1,0.333,0.333,0.333,1,0.333,0.333,0.333,1","1,0.333,0.333,0.333,1,0.333,0.333,0.333,1","1",""
"","html-keyboard-response","283","120071","0.0-283.0","3KYQYYSHYWTQGSAOCCUOU05CVJ8ODA","AEK2SAEL9GG39","3SA4EMRVJVOCGON1OYE6FAUV3KKP05","","null","<img src=""img/flower5.png"" style=""width:200px; border:14px solid green;"">","null","","","","","","","","",""
"","image-keyboard-response","284","120304","0.0-284.0","3KYQYYSHYWTQGSAOCCUOU05CVJ8ODA","AEK2SAEL9GG39","3SA4EMRVJVOCGON1OYE6FAUV3KKP05","","232.30000001192093","img/flower2.png","75","232.9000000357628","2","0","1","1","1,0.333,0.333,0.333,1,0.333,0.333,0.333,1","1,0.333,0.333,0.333,1,0.333,0.333,0.333,1","1",""
"","html-keyboard-response","285","120606","0.0-285.0","3KYQYYSHYWTQGSAOCCUOU05CVJ8ODA","AEK2SAEL9GG39","3SA4EMRVJVOCGON1OYE6FAUV3KKP05","","null","<img src=""img/flower2.png"" style=""width:200px;border:14px solid red;"">","null","","","","","","","","",""
"","image-keyboard-response","286","120696","0.0-286.0","3KYQYYSHYWTQGSAOCCUOU05CVJ8ODA","AEK2SAEL9GG39","3SA4EMRVJVOCGON1OYE6FAUV3KKP05","","89.69999998807907","img/flower2.png","76","90.30000001192093","3","0","1","1","1,0.333,0.333,0.333,1,0.333,0.333,0.333,1","1,0.333,0.333,0.333,1,0.333,0.333,0.333,1","1",""
"","html-keyboard-response","287","120998","0.0-287.0","3KYQYYSHYWTQGSAOCCUOU05CVJ8ODA","AEK2SAEL9GG39","3SA4EMRVJVOCGON1OYE6FAUV3KKP05","","null","<img src=""img/flower2.png"" style=""width:200px;border:14px solid red;"">","null","","","","","","","","",""
"","image-keyboard-response","288","121280","0.0-288.0","3KYQYYSHYWTQGSAOCCUOU05CVJ8ODA","AEK2SAEL9GG39","3SA4EMRVJVOCGON1OYE6FAUV3KKP05","","281.7000000476837","img/flower2.png","75","282.19999998807907","2","1","1","1","1,0.333,0.333,0.333,1,0.333,0.333,0.333,1","1,0.333,0.333,0.333,1,0.333,0.333,0.333,1","1",""
"","html-keyboard-response","289","121582","0.0-289.0","3KYQYYSHYWTQGSAOCCUOU05CVJ8ODA","AEK2SAEL9GG39","3SA4EMRVJVOCGON1OYE6FAUV3KKP05","","null","<img src=""img/flower2.png"" style=""width:200px; border:14px solid green;"">","null","","","","","","","","",""
"","image-keyboard-response","290","121640","0.0-290.0","3KYQYYSHYWTQGSAOCCUOU05CVJ8ODA","AEK2SAEL9GG39","3SA4EMRVJVOCGON1OYE6FAUV3KKP05","","57.90000003576279","img/flower6.png","74","58.5","1","0","3","1","1,0.333,0.333,0.333,1,0.333,0.333,0.333,1","1,0.333,0.333,0.333,1,0.333,0.333,0.333,1","1",""
"","html-keyboard-response","291","121941","0.0-291.0","3KYQYYSHYWTQGSAOCCUOU05CVJ8ODA","AEK2SAEL9GG39","3SA4EMRVJVOCGON1OYE6FAUV3KKP05","","null","<img src=""img/flower6.png"" style=""width:200px;border:14px solid red;"">","null","","","","","","","","",""
"","image-keyboard-response","292","122528","0.0-292.0","3KYQYYSHYWTQGSAOCCUOU05CVJ8ODA","AEK2SAEL9GG39","3SA4EMRVJVOCGON1OYE6FAUV3KKP05","","586","img/flower5.png","75","586.5999999642372","2","1","2","1","1,0.333,0.333,0.333,1,0.333,0.333,0.333,1","1,0.333,0.333,0.333,1,0.333,0.333,0.333,1","1",""
"","html-keyboard-response","293","122830","0.0-293.0","3KYQYYSHYWTQGSAOCCUOU05CVJ8ODA","AEK2SAEL9GG39","3SA4EMRVJVOCGON1OYE6FAUV3KKP05","","null","<img src=""img/flower5.png"" style=""width:200px; border:14px solid green;"">","null","","","","","","","","",""
"","image-keyboard-response","294","123000","0.0-294.0","3KYQYYSHYWTQGSAOCCUOU05CVJ8ODA","AEK2SAEL9GG39","3SA4EMRVJVOCGON1OYE6FAUV3KKP05","","169.60000002384186","img/flower5.png","76","170.30000001192093","3","0","2","1","1,0.333,0.333,0.333,1,0.333,0.333,0.333,1","1,0.333,0.333,0.333,1,0.333,0.333,0.333,1","1",""
"","html-keyboard-response","295","123302","0.0-295.0","3KYQYYSHYWTQGSAOCCUOU05CVJ8ODA","AEK2SAEL9GG39","3SA4EMRVJVOCGON1OYE6FAUV3KKP05","","null","<img src=""img/flower5.png"" style=""width:200px;border:14px solid red;"">","null","","","","","","","","",""
"","image-keyboard-response","296","123480","0.0-296.0","3KYQYYSHYWTQGSAOCCUOU05CVJ8ODA","AEK2SAEL9GG39","3SA4EMRVJVOCGON1OYE6FAUV3KKP05","","177.4000000357628","img/flower5.png","75","178.0999999642372","2","1","2","1","1,0.333,0.333,0.333,1,0.333,0.333,0.333,1","1,0.333,0.333,0.333,1,0.333,0.333,0.333,1","1",""
"","html-keyboard-response","297","123781","0.0-297.0","3KYQYYSHYWTQGSAOCCUOU05CVJ8ODA","AEK2SAEL9GG39","3SA4EMRVJVOCGON1OYE6FAUV3KKP05","","null","<img src=""img/flower5.png"" style=""width:200px; border:14px solid green;"">","null","","","","","","","","",""
"","image-keyboard-response","298","123848","0.0-298.0","3KYQYYSHYWTQGSAOCCUOU05CVJ8ODA","AEK2SAEL9GG39","3SA4EMRVJVOCGON1OYE6FAUV3KKP05","","66.40000003576279","img/flower6.png","74","66.80000001192093","1","1","3","1","1,0.333,0.333,0.333,1,0.333,0.333,0.333,1","1,0.333,0.333,0.333,1,0.333,0.333,0.333,1","1",""
"","html-keyboard-response","299","124149","0.0-299.0","3KYQYYSHYWTQGSAOCCUOU05CVJ8ODA","AEK2SAEL9GG39","3SA4EMRVJVOCGON1OYE6FAUV3KKP05","","null","<img src=""img/flower6.png"" style=""width:200px; border:14px solid green;"">","null","","","","","","","","",""
"","image-keyboard-response","300","124360","0.0-300.0","3KYQYYSHYWTQGSAOCCUOU05CVJ8ODA","AEK2SAEL9GG39","3SA4EMRVJVOCGON1OYE6FAUV3KKP05","","210.39999997615814","img/flower6.png","75","211.10000002384186","2","0","3","1","1,0.333,0.333,0.333,1,0.333,0.333,0.333,1","1,0.333,0.333,0.333,1,0.333,0.333,0.333,1","1",""
"","html-keyboard-response","301","124662","0.0-301.0","3KYQYYSHYWTQGSAOCCUOU05CVJ8ODA","AEK2SAEL9GG39","3SA4EMRVJVOCGON1OYE6FAUV3KKP05","","null","<img src=""img/flower6.png"" style=""width:200px;border:14px solid red;"">","null","","","","","","","","",""
"","image-keyboard-response","302","124785","0.0-302.0","3KYQYYSHYWTQGSAOCCUOU05CVJ8ODA","AEK2SAEL9GG39","3SA4EMRVJVOCGON1OYE6FAUV3KKP05","","122.20000004768372","img/flower6.png","76","122.80000001192093","3","1","3","1","1,0.333,0.333,0.333,1,0.333,0.333,0.333,1","1,0.333,0.333,0.333,1,0.333,0.333,0.333,1","1",""
"","html-keyboard-response","303","125086","0.0-303.0","3KYQYYSHYWTQGSAOCCUOU05CVJ8ODA","AEK2SAEL9GG39","3SA4EMRVJVOCGON1OYE6FAUV3KKP05","","null","<img src=""img/flower6.png"" style=""width:200px; border:14px solid green;"">","null","","","","","","","","",""
"","image-keyboard-response","304","125312","0.0-304.0","3KYQYYSHYWTQGSAOCCUOU05CVJ8ODA","AEK2SAEL9GG39","3SA4EMRVJVOCGON1OYE6FAUV3KKP05","","225","img/flower6.png","75","225.5","2","1","3","1","1,0.333,0.333,0.333,1,0.333,0.333,0.333,1","1,0.333,0.333,0.333,1,0.333,0.333,0.333,1","1",""
"","html-keyboard-response","305","125614","0.0-305.0","3KYQYYSHYWTQGSAOCCUOU05CVJ8ODA","AEK2SAEL9GG39","3SA4EMRVJVOCGON1OYE6FAUV3KKP05","","null","<img src=""img/flower6.png"" style=""width:200px; border:14px solid green;"">","null","","","","","","","","",""
"","image-keyboard-response","306","125800","0.0-306.0","3KYQYYSHYWTQGSAOCCUOU05CVJ8ODA","AEK2SAEL9GG39","3SA4EMRVJVOCGON1OYE6FAUV3KKP05","","185.70000004768372","img/flower2.png","74","186.30000001192093","1","1","1","1","1,0.333,0.333,0.333,1,0.333,0.333,0.333,1","1,0.333,0.333,0.333,1,0.333,0.333,0.333,1","1",""
"","html-keyboard-response","307","126102","0.0-307.0","3KYQYYSHYWTQGSAOCCUOU05CVJ8ODA","AEK2SAEL9GG39","3SA4EMRVJVOCGON1OYE6FAUV3KKP05","","null","<img src=""img/flower2.png"" style=""width:200px; border:14px solid green;"">","null","","","","","","","","",""
"","image-keyboard-response","308","126305","0.0-308.0","3KYQYYSHYWTQGSAOCCUOU05CVJ8ODA","AEK2SAEL9GG39","3SA4EMRVJVOCGON1OYE6FAUV3KKP05","","201.80000001192093","img/flower5.png","75","203.30000001192093","2","1","2","1","1,0.333,0.333,0.333,1,0.333,0.333,0.333,1","1,0.333,0.333,0.333,1,0.333,0.333,0.333,1","1",""
"","html-keyboard-response","309","126606","0.0-309.0","3KYQYYSHYWTQGSAOCCUOU05CVJ8ODA","AEK2SAEL9GG39","3SA4EMRVJVOCGON1OYE6FAUV3KKP05","","null","<img src=""img/flower5.png"" style=""width:200px; border:14px solid green;"">","null","","","","","","","","",""
"","image-keyboard-response","310","126880","0.0-310.0","3KYQYYSHYWTQGSAOCCUOU05CVJ8ODA","AEK2SAEL9GG39","3SA4EMRVJVOCGON1OYE6FAUV3KKP05","","273","img/flower6.png","76","273.69999998807907","3","1","3","1","1,0.333,0.333,0.333,1,0.333,0.333,0.333,1","1,0.333,0.333,0.333,1,0.333,0.333,0.333,1","1",""
"","html-keyboard-response","311","127182","0.0-311.0","3KYQYYSHYWTQGSAOCCUOU05CVJ8ODA","AEK2SAEL9GG39","3SA4EMRVJVOCGON1OYE6FAUV3KKP05","","null","<img src=""img/flower6.png"" style=""width:200px; border:14px solid green;"">","null","","","","","","","","",""
"","image-keyboard-response","312","127424","0.0-312.0","3KYQYYSHYWTQGSAOCCUOU05CVJ8ODA","AEK2SAEL9GG39","3SA4EMRVJVOCGON1OYE6FAUV3KKP05","","241.4000000357628","img/flower5.png","75","242.0999999642372","2","1","2","1","1,0.333,0.333,0.333,1,0.333,0.333,0.333,1","1,0.333,0.333,0.333,1,0.333,0.333,0.333,1","1",""
"","html-keyboard-response","313","127726","0.0-313.0","3KYQYYSHYWTQGSAOCCUOU05CVJ8ODA","AEK2SAEL9GG39","3SA4EMRVJVOCGON1OYE6FAUV3KKP05","","null","<img src=""img/flower5.png"" style=""width:200px; border:14px solid green;"">","null","","","","","","","","",""
"","image-keyboard-response","314","127952","0.0-314.0","3KYQYYSHYWTQGSAOCCUOU05CVJ8ODA","AEK2SAEL9GG39","3SA4EMRVJVOCGON1OYE6FAUV3KKP05","","225.10000002384186","img/flower5.png","74","225.69999998807907","1","0","2","1","1,0.333,0.333,0.333,1,0.333,0.333,0.333,1","1,0.333,0.333,0.333,1,0.333,0.333,0.333,1","1",""
"","html-keyboard-response","315","128254","0.0-315.0","3KYQYYSHYWTQGSAOCCUOU05CVJ8ODA","AEK2SAEL9GG39","3SA4EMRVJVOCGON1OYE6FAUV3KKP05","","null","<img src=""img/flower5.png"" style=""width:200px;border:14px solid red;"">","null","","","","","","","","",""
"","image-keyboard-response","316","128456","0.0-316.0","3KYQYYSHYWTQGSAOCCUOU05CVJ8ODA","AEK2SAEL9GG39","3SA4EMRVJVOCGON1OYE6FAUV3KKP05","","201.10000002384186","img/flower5.png","75","201.80000001192093","2","1","2","1","1,0.333,0.333,0.333,1,0.333,0.333,0.333,1","1,0.333,0.333,0.333,1,0.333,0.333,0.333,1","1",""
"","html-keyboard-response","317","128758","0.0-317.0","3KYQYYSHYWTQGSAOCCUOU05CVJ8ODA","AEK2SAEL9GG39","3SA4EMRVJVOCGON1OYE6FAUV3KKP05","","null","<img src=""img/flower5.png"" style=""width:200px; border:14px solid green;"">","null","","","","","","","","",""
"","image-keyboard-response","318","128904","0.0-318.0","3KYQYYSHYWTQGSAOCCUOU05CVJ8ODA","AEK2SAEL9GG39","3SA4EMRVJVOCGON1OYE6FAUV3KKP05","","144.60000002384186","img/flower5.png","76","145.9000000357628","3","0","2","1","1,0.333,0.333,0.333,1,0.333,0.333,0.333,1","1,0.333,0.333,0.333,1,0.333,0.333,0.333,1","1",""
"","html-keyboard-response","319","129205","0.0-319.0","3KYQYYSHYWTQGSAOCCUOU05CVJ8ODA","AEK2SAEL9GG39","3SA4EMRVJVOCGON1OYE6FAUV3KKP05","","null","<img src=""img/flower5.png"" style=""width:200px;border:14px solid red;"">","null","","","","","","","","",""
"","image-keyboard-response","320","129352","0.0-320.0","3KYQYYSHYWTQGSAOCCUOU05CVJ8ODA","AEK2SAEL9GG39","3SA4EMRVJVOCGON1OYE6FAUV3KKP05","","146.10000002384186","img/flower6.png","75","146.60000002384186","2","0","3","1","1,0.333,0.333,0.333,1,0.333,0.333,0.333,1","1,0.333,0.333,0.333,1,0.333,0.333,0.333,1","1",""
"","html-keyboard-response","321","129654","0.0-321.0","3KYQYYSHYWTQGSAOCCUOU05CVJ8ODA","AEK2SAEL9GG39","3SA4EMRVJVOCGON1OYE6FAUV3KKP05","","null","<img src=""img/flower6.png"" style=""width:200px;border:14px solid red;"">","null","","","","","","","","",""
"","image-keyboard-response","322","129776","0.0-322.0","3KYQYYSHYWTQGSAOCCUOU05CVJ8ODA","AEK2SAEL9GG39","3SA4EMRVJVOCGON1OYE6FAUV3KKP05","","121.10000002384186","img/flower5.png","74","121.80000001192093","1","0","2","1","1,0.333,0.333,0.333,1,0.333,0.333,0.333,1","1,0.333,0.333,0.333,1,0.333,0.333,0.333,1","1",""
"","html-keyboard-response","323","130078","0.0-323.0","3KYQYYSHYWTQGSAOCCUOU05CVJ8ODA","AEK2SAEL9GG39","3SA4EMRVJVOCGON1OYE6FAUV3KKP05","","null","<img src=""img/flower5.png"" style=""width:200px;border:14px solid red;"">","null","","","","","","","","",""
"","image-keyboard-response","324","130256","0.0-324.0","3KYQYYSHYWTQGSAOCCUOU05CVJ8ODA","AEK2SAEL9GG39","3SA4EMRVJVOCGON1OYE6FAUV3KKP05","","176.20000004768372","img/flower5.png","75","177.69999998807907","2","1","2","1","1,0.333,0.333,0.333,1,0.333,0.333,0.333,1","1,0.333,0.333,0.333,1,0.333,0.333,0.333,1","1",""
"","html-keyboard-response","325","130558","0.0-325.0","3KYQYYSHYWTQGSAOCCUOU05CVJ8ODA","AEK2SAEL9GG39","3SA4EMRVJVOCGON1OYE6FAUV3KKP05","","null","<img src=""img/flower5.png"" style=""width:200px; border:14px solid green;"">","null","","","","","","","","",""
"","image-keyboard-response","326","130696","0.0-326.0","3KYQYYSHYWTQGSAOCCUOU05CVJ8ODA","AEK2SAEL9GG39","3SA4EMRVJVOCGON1OYE6FAUV3KKP05","","137.80000001192093","img/flower5.png","76","138.39999997615814","3","1","2","1","1,0.333,0.333,0.333,1,0.333,0.333,0.333,1","1,0.333,0.333,0.333,1,0.333,0.333,0.333,1","1",""
"","html-keyboard-response","327","130998","0.0-327.0","3KYQYYSHYWTQGSAOCCUOU05CVJ8ODA","AEK2SAEL9GG39","3SA4EMRVJVOCGON1OYE6FAUV3KKP05","","null","<img src=""img/flower5.png"" style=""width:200px; border:14px solid green;"">","null","","","","","","","","",""
"","image-keyboard-response","328","131136","0.0-328.0","3KYQYYSHYWTQGSAOCCUOU05CVJ8ODA","AEK2SAEL9GG39","3SA4EMRVJVOCGON1OYE6FAUV3KKP05","","137.80000001192093","img/flower2.png","75","138.30000001192093","2","0","1","1","1,0.333,0.333,0.333,1,0.333,0.333,0.333,1","1,0.333,0.333,0.333,1,0.333,0.333,0.333,1","1",""
"","html-keyboard-response","329","131437","0.0-329.0","3KYQYYSHYWTQGSAOCCUOU05CVJ8ODA","AEK2SAEL9GG39","3SA4EMRVJVOCGON1OYE6FAUV3KKP05","","null","<img src=""img/flower2.png"" style=""width:200px;border:14px solid red;"">","null","","","","","","","","",""
"","image-keyboard-response","330","131552","0.0-330.0","3KYQYYSHYWTQGSAOCCUOU05CVJ8ODA","AEK2SAEL9GG39","3SA4EMRVJVOCGON1OYE6FAUV3KKP05","","114.30000001192093","img/flower2.png","74","115","1","1","1","1","1,0.333,0.333,0.333,1,0.333,0.333,0.333,1","1,0.333,0.333,0.333,1,0.333,0.333,0.333,1","1",""
"","html-keyboard-response","331","131854","0.0-331.0","3KYQYYSHYWTQGSAOCCUOU05CVJ8ODA","AEK2SAEL9GG39","3SA4EMRVJVOCGON1OYE6FAUV3KKP05","","null","<img src=""img/flower2.png"" style=""width:200px; border:14px solid green;"">","null","","","","","","","","",""
"","image-keyboard-response","332","132024","0.0-332.0","3KYQYYSHYWTQGSAOCCUOU05CVJ8ODA","AEK2SAEL9GG39","3SA4EMRVJVOCGON1OYE6FAUV3KKP05","","169.19999998807907","img/flower2.png","75","169.69999998807907","2","0","1","1","1,0.333,0.333,0.333,1,0.333,0.333,0.333,1","1,0.333,0.333,0.333,1,0.333,0.333,0.333,1","1",""
"","html-keyboard-response","333","132325","0.0-333.0","3KYQYYSHYWTQGSAOCCUOU05CVJ8ODA","AEK2SAEL9GG39","3SA4EMRVJVOCGON1OYE6FAUV3KKP05","","null","<img src=""img/flower2.png"" style=""width:200px;border:14px solid red;"">","null","","","","","","","","",""
"","image-keyboard-response","334","132472","0.0-334.0","3KYQYYSHYWTQGSAOCCUOU05CVJ8ODA","AEK2SAEL9GG39","3SA4EMRVJVOCGON1OYE6FAUV3KKP05","","146.19999998807907","img/flower2.png","76","146.69999998807907","3","0","1","1","1,0.333,0.333,0.333,1,0.333,0.333,0.333,1","1,0.333,0.333,0.333,1,0.333,0.333,0.333,1","1",""
"","html-keyboard-response","335","132774","0.0-335.0","3KYQYYSHYWTQGSAOCCUOU05CVJ8ODA","AEK2SAEL9GG39","3SA4EMRVJVOCGON1OYE6FAUV3KKP05","","null","<img src=""img/flower2.png"" style=""width:200px;border:14px solid red;"">","null","","","","","","","","",""
"","image-keyboard-response","336","132928","0.0-336.0","3KYQYYSHYWTQGSAOCCUOU05CVJ8ODA","AEK2SAEL9GG39","3SA4EMRVJVOCGON1OYE6FAUV3KKP05","","153.30000001192093","img/flower6.png","75","153.69999998807907","2","1","3","1","1,0.333,0.333,0.333,1,0.333,0.333,0.333,1","1,0.333,0.333,0.333,1,0.333,0.333,0.333,1","1",""
"","html-keyboard-response","337","133231","0.0-337.0","3KYQYYSHYWTQGSAOCCUOU05CVJ8ODA","AEK2SAEL9GG39","3SA4EMRVJVOCGON1OYE6FAUV3KKP05","","null","<img src=""img/flower6.png"" style=""width:200px; border:14px solid green;"">","null","","","","","","","","",""
"","image-keyboard-response","338","133352","0.0-338.0","3KYQYYSHYWTQGSAOCCUOU05CVJ8ODA","AEK2SAEL9GG39","3SA4EMRVJVOCGON1OYE6FAUV3KKP05","","120.5","img/flower5.png","74","121.10000002384186","1","0","2","1","1,0.333,0.333,0.333,1,0.333,0.333,0.333,1","1,0.333,0.333,0.333,1,0.333,0.333,0.333,1","1",""
"","html-keyboard-response","339","133654","0.0-339.0","3KYQYYSHYWTQGSAOCCUOU05CVJ8ODA","AEK2SAEL9GG39","3SA4EMRVJVOCGON1OYE6FAUV3KKP05","","null","<img src=""img/flower5.png"" style=""width:200px;border:14px solid red;"">","null","","","","","","","","",""
"","image-keyboard-response","340","133808","0.0-340.0","3KYQYYSHYWTQGSAOCCUOU05CVJ8ODA","AEK2SAEL9GG39","3SA4EMRVJVOCGON1OYE6FAUV3KKP05","","152.70000004768372","img/flower6.png","75","153.4000000357628","2","0","3","1","1,0.333,0.333,0.333,1,0.333,0.333,0.333,1","1,0.333,0.333,0.333,1,0.333,0.333,0.333,1","1",""
"","html-keyboard-response","341","134109","0.0-341.0","3KYQYYSHYWTQGSAOCCUOU05CVJ8ODA","AEK2SAEL9GG39","3SA4EMRVJVOCGON1OYE6FAUV3KKP05","","null","<img src=""img/flower6.png"" style=""width:200px;border:14px solid red;"">","null","","","","","","","","",""
"","image-keyboard-response","342","134160","0.0-342.0","3KYQYYSHYWTQGSAOCCUOU05CVJ8ODA","AEK2SAEL9GG39","3SA4EMRVJVOCGON1OYE6FAUV3KKP05","","50.10000002384186","img/flower2.png","76","50.80000001192093","3","0","1","1","1,0.333,0.333,0.333,1,0.333,0.333,0.333,1","1,0.333,0.333,0.333,1,0.333,0.333,0.333,1","1",""
"","html-keyboard-response","343","134463","0.0-343.0","3KYQYYSHYWTQGSAOCCUOU05CVJ8ODA","AEK2SAEL9GG39","3SA4EMRVJVOCGON1OYE6FAUV3KKP05","","null","<img src=""img/flower2.png"" style=""width:200px;border:14px solid red;"">","null","","","","","","","","",""
"","image-keyboard-response","344","134632","0.0-344.0","3KYQYYSHYWTQGSAOCCUOU05CVJ8ODA","AEK2SAEL9GG39","3SA4EMRVJVOCGON1OYE6FAUV3KKP05","","168.80000001192093","img/flower2.png","75","169.39999997615814","2","0","1","1","1,0.333,0.333,0.333,1,0.333,0.333,0.333,1","1,0.333,0.333,0.333,1,0.333,0.333,0.333,1","1",""
"","html-keyboard-response","345","134935","0.0-345.0","3KYQYYSHYWTQGSAOCCUOU05CVJ8ODA","AEK2SAEL9GG39","3SA4EMRVJVOCGON1OYE6FAUV3KKP05","","null","<img src=""img/flower2.png"" style=""width:200px;border:14px solid red;"">","null","","","","","","","","",""
"","image-keyboard-response","346","135072","0.0-346.0","3KYQYYSHYWTQGSAOCCUOU05CVJ8ODA","AEK2SAEL9GG39","3SA4EMRVJVOCGON1OYE6FAUV3KKP05","","136.19999998807907","img/flower6.png","74","136.80000001192093","1","0","3","1","1,0.333,0.333,0.333,1,0.333,0.333,0.333,1","1,0.333,0.333,0.333,1,0.333,0.333,0.333,1","1",""
"","html-keyboard-response","347","135375","0.0-347.0","3KYQYYSHYWTQGSAOCCUOU05CVJ8ODA","AEK2SAEL9GG39","3SA4EMRVJVOCGON1OYE6FAUV3KKP05","","null","<img src=""img/flower6.png"" style=""width:200px;border:14px solid red;"">","null","","","","","","","","",""
"","image-keyboard-response","348","135496","0.0-348.0","3KYQYYSHYWTQGSAOCCUOU05CVJ8ODA","AEK2SAEL9GG39","3SA4EMRVJVOCGON1OYE6FAUV3KKP05","","119.89999997615814","img/flower5.png","75","120.89999997615814","2","1","2","1","1,0.333,0.333,0.333,1,0.333,0.333,0.333,1","1,0.333,0.333,0.333,1,0.333,0.333,0.333,1","1",""
"","html-keyboard-response","349","135798","0.0-349.0","3KYQYYSHYWTQGSAOCCUOU05CVJ8ODA","AEK2SAEL9GG39","3SA4EMRVJVOCGON1OYE6FAUV3KKP05","","null","<img src=""img/flower5.png"" style=""width:200px; border:14px solid green;"">","null","","","","","","","","",""
"","image-keyboard-response","350","135864","0.0-350.0","3KYQYYSHYWTQGSAOCCUOU05CVJ8ODA","AEK2SAEL9GG39","3SA4EMRVJVOCGON1OYE6FAUV3KKP05","","65","img/flower6.png","76","65.5","3","1","3","1","1,0.333,0.333,0.333,1,0.333,0.333,0.333,1","1,0.333,0.333,0.333,1,0.333,0.333,0.333,1","1",""
"","html-keyboard-response","351","136165","0.0-351.0","3KYQYYSHYWTQGSAOCCUOU05CVJ8ODA","AEK2SAEL9GG39","3SA4EMRVJVOCGON1OYE6FAUV3KKP05","","null","<img src=""img/flower6.png"" style=""width:200px; border:14px solid green;"">","null","","","","","","","","",""
"","image-keyboard-response","352","136272","0.0-352.0","3KYQYYSHYWTQGSAOCCUOU05CVJ8ODA","AEK2SAEL9GG39","3SA4EMRVJVOCGON1OYE6FAUV3KKP05","","106.60000002384186","img/flower5.png","75","107.09999996423721","2","1","2","1","1,0.333,0.333,0.333,1,0.333,0.333,0.333,1","1,0.333,0.333,0.333,1,0.333,0.333,0.333,1","1",""
"","html-keyboard-response","353","136574","0.0-353.0","3KYQYYSHYWTQGSAOCCUOU05CVJ8ODA","AEK2SAEL9GG39","3SA4EMRVJVOCGON1OYE6FAUV3KKP05","","null","<img src=""img/flower5.png"" style=""width:200px; border:14px solid green;"">","null","","","","","","","","",""
"","image-keyboard-response","354","136656","0.0-354.0","3KYQYYSHYWTQGSAOCCUOU05CVJ8ODA","AEK2SAEL9GG39","3SA4EMRVJVOCGON1OYE6FAUV3KKP05","","80.89999997615814","img/flower2.png","74","82.39999997615814","1","1","1","1","1,0.333,0.333,0.333,1,0.333,0.333,0.333,1","1,0.333,0.333,0.333,1,0.333,0.333,0.333,1","1",""
"","html-keyboard-response","355","136957","0.0-355.0","3KYQYYSHYWTQGSAOCCUOU05CVJ8ODA","AEK2SAEL9GG39","3SA4EMRVJVOCGON1OYE6FAUV3KKP05","","null","<img src=""img/flower2.png"" style=""width:200px; border:14px solid green;"">","null","","","","","","","","",""
"","image-keyboard-response","356","137088","0.0-356.0","3KYQYYSHYWTQGSAOCCUOU05CVJ8ODA","AEK2SAEL9GG39","3SA4EMRVJVOCGON1OYE6FAUV3KKP05","","129.89999997615814","img/flower6.png","75","130.60000002384186","2","0","3","1","1,0.333,0.333,0.333,1,0.333,0.333,0.333,1","1,0.333,0.333,0.333,1,0.333,0.333,0.333,1","1",""
"","html-keyboard-response","357","137390","0.0-357.0","3KYQYYSHYWTQGSAOCCUOU05CVJ8ODA","AEK2SAEL9GG39","3SA4EMRVJVOCGON1OYE6FAUV3KKP05","","null","<img src=""img/flower6.png"" style=""width:200px;border:14px solid red;"">","null","","","","","","","","",""
"","image-keyboard-response","358","137488","0.0-358.0","3KYQYYSHYWTQGSAOCCUOU05CVJ8ODA","AEK2SAEL9GG39","3SA4EMRVJVOCGON1OYE6FAUV3KKP05","","97","img/flower6.png","76","97.69999998807907","3","1","3","1","1,0.333,0.333,0.333,1,0.333,0.333,0.333,1","1,0.333,0.333,0.333,1,0.333,0.333,0.333,1","1",""
"","html-keyboard-response","359","137791","0.0-359.0","3KYQYYSHYWTQGSAOCCUOU05CVJ8ODA","AEK2SAEL9GG39","3SA4EMRVJVOCGON1OYE6FAUV3KKP05","","null","<img src=""img/flower6.png"" style=""width:200px; border:14px solid green;"">","null","","","","","","","","",""
"","image-keyboard-response","360","137864","0.0-360.0","3KYQYYSHYWTQGSAOCCUOU05CVJ8ODA","AEK2SAEL9GG39","3SA4EMRVJVOCGON1OYE6FAUV3KKP05","","72.80000001192093","img/flower5.png","75","73.5","2","1","2","1","1,0.333,0.333,0.333,1,0.333,0.333,0.333,1","1,0.333,0.333,0.333,1,0.333,0.333,0.333,1","1",""
"","html-keyboard-response","361","138166","0.0-361.0","3KYQYYSHYWTQGSAOCCUOU05CVJ8ODA","AEK2SAEL9GG39","3SA4EMRVJVOCGON1OYE6FAUV3KKP05","","null","<img src=""img/flower5.png"" style=""width:200px; border:14px solid green;"">","null","","","","","","","","",""
"","html-keyboard-response","362","152072","0.0-362.0","3KYQYYSHYWTQGSAOCCUOU05CVJ8ODA","AEK2SAEL9GG39","3SA4EMRVJVOCGON1OYE6FAUV3KKP05","","","","","","","","","","","","",""
"","instructions","363","155264","0.0-363.0","3KYQYYSHYWTQGSAOCCUOU05CVJ8ODA","AEK2SAEL9GG39","3SA4EMRVJVOCGON1OYE6FAUV3KKP05","[{""page_index"":0,""viewing_time"":3191.199999988079}]","3191.5","","","","","","","","","","",""
"","survey-text","364","158293","0.0-364.0","3KYQYYSHYWTQGSAOCCUOU05CVJ8ODA","AEK2SAEL9GG39","3SA4EMRVJVOCGON1OYE6FAUV3KKP05","","3025.2000000476837","","","","","","","","","","","{""Q0"":""AEK2SAEL9GG39""}"
