"success","trial_type","trial_index","time_elapsed","internal_node_id","assignmentID","mturkID","hitID","view_history","rt","stimulus","key_press","reactionTime","a","r","s","cond","reward_cond","reward_cond_actual","reward_matrix_idx","responses"
"true","fullscreen","0","4736","0.0-0.0","33M4IA01QHN7BB7LV4C4I2D9MLCRXQ","AFEPFMO9863WA","3JUDR1D0D6D4CARU3YX9Y3DK5DJ2QK","","","","","","","","","","","","",""
"","instructions","1","53513","0.0-1.0","33M4IA01QHN7BB7LV4C4I2D9MLCRXQ","AFEPFMO9863WA","3JUDR1D0D6D4CARU3YX9Y3DK5DJ2QK","[{""page_index"":0,""viewing_time"":11353},{""page_index"":1,""viewing_time"":919.4000000953674},{""page_index"":2,""viewing_time"":920.2000000476837},{""page_index"":3,""viewing_time"":472.69999980926514},{""page_index"":4,""viewing_time"":23876.400000095367},{""page_index"":5,""viewing_time"":4522.799999952316},{""page_index"":6,""viewing_time"":3623.2000000476837},{""page_index"":7,""viewing_time"":3085.4000000953674}]","48773.700000047684","","","","","","","","","","",""
"","image-keyboard-response","2","54908","0.0-2.0","33M4IA01QHN7BB7LV4C4I2D9MLCRXQ","AFEPFMO9863WA","3JUDR1D0D6D4CARU3YX9Y3DK5DJ2QK","","1387.3999998569489","img/flower5.png","75","1391.0999999046326","2","1","1","1","1,0.333,0.333,0.333,1,0.333,0.333,0.333,1","1,0.333,0.333,0.333,1,0.333,0.333,0.333,1","1",""
"","html-keyboard-response","3","55216","0.0-3.0","33M4IA01QHN7BB7LV4C4I2D9MLCRXQ","AFEPFMO9863WA","3JUDR1D0D6D4CARU3YX9Y3DK5DJ2QK","","null","<img src=""img/flower5.png"" style=""width:200px; border:14px solid green;"">","null","","","","","","","","",""
"","image-keyboard-response","4","55468","0.0-4.0","33M4IA01QHN7BB7LV4C4I2D9MLCRXQ","AFEPFMO9863WA","3JUDR1D0D6D4CARU3YX9Y3DK5DJ2QK","","249","img/flower5.png","75","250.70000004768372","2","1","1","1","1,0.333,0.333,0.333,1,0.333,0.333,0.333,1","1,0.333,0.333,0.333,1,0.333,0.333,0.333,1","1",""
"","html-keyboard-response","5","55776","0.0-5.0","33M4IA01QHN7BB7LV4C4I2D9MLCRXQ","AFEPFMO9863WA","3JUDR1D0D6D4CARU3YX9Y3DK5DJ2QK","","null","<img src=""img/flower5.png"" style=""width:200px; border:14px solid green;"">","null","","","","","","","","",""
"","image-keyboard-response","6","55959","0.0-6.0","33M4IA01QHN7BB7LV4C4I2D9MLCRXQ","AFEPFMO9863WA","3JUDR1D0D6D4CARU3YX9Y3DK5DJ2QK","","180.70000004768372","img/flower5.png","75","183.29999995231628","2","1","1","1","1,0.333,0.333,0.333,1,0.333,0.333,0.333,1","1,0.333,0.333,0.333,1,0.333,0.333,0.333,1","1",""
"","html-keyboard-response","7","56263","0.0-7.0","33M4IA01QHN7BB7LV4C4I2D9MLCRXQ","AFEPFMO9863WA","3JUDR1D0D6D4CARU3YX9Y3DK5DJ2QK","","null","<img src=""img/flower5.png"" style=""width:200px; border:14px solid green;"">","null","","","","","","","","",""
"","image-keyboard-response","8","56494","0.0-8.0","33M4IA01QHN7BB7LV4C4I2D9MLCRXQ","AFEPFMO9863WA","3JUDR1D0D6D4CARU3YX9Y3DK5DJ2QK","","229.09999990463257","img/flower5.png","75","230.59999990463257","2","0","1","1","1,0.333,0.333,0.333,1,0.333,0.333,0.333,1","1,0.333,0.333,0.333,1,0.333,0.333,0.333,1","1",""
"","html-keyboard-response","9","56800","0.0-9.0","33M4IA01QHN7BB7LV4C4I2D9MLCRXQ","AFEPFMO9863WA","3JUDR1D0D6D4CARU3YX9Y3DK5DJ2QK","","null","<img src=""img/flower5.png"" style=""width:200px;border:14px solid red;"">","null","","","","","","","","",""
"","image-keyboard-response","10","56976","0.0-10.0","33M4IA01QHN7BB7LV4C4I2D9MLCRXQ","AFEPFMO9863WA","3JUDR1D0D6D4CARU3YX9Y3DK5DJ2QK","","173.90000009536743","img/flower1.png","74","175.59999990463257","1","0","3","1","1,0.333,0.333,0.333,1,0.333,0.333,0.333,1","1,0.333,0.333,0.333,1,0.333,0.333,0.333,1","1",""
"","html-keyboard-response","11","57279","0.0-11.0","33M4IA01QHN7BB7LV4C4I2D9MLCRXQ","AFEPFMO9863WA","3JUDR1D0D6D4CARU3YX9Y3DK5DJ2QK","","null","<img src=""img/flower1.png"" style=""width:200px;border:14px solid red;"">","null","","","","","","","","",""
"","image-keyboard-response","12","57378","0.0-12.0","33M4IA01QHN7BB7LV4C4I2D9MLCRXQ","AFEPFMO9863WA","3JUDR1D0D6D4CARU3YX9Y3DK5DJ2QK","","97.5","img/flower1.png","75","98.70000004768372","2","0","3","1","1,0.333,0.333,0.333,1,0.333,0.333,0.333,1","1,0.333,0.333,0.333,1,0.333,0.333,0.333,1","1",""
"","html-keyboard-response","13","57683","0.0-13.0","33M4IA01QHN7BB7LV4C4I2D9MLCRXQ","AFEPFMO9863WA","3JUDR1D0D6D4CARU3YX9Y3DK5DJ2QK","","null","<img src=""img/flower1.png"" style=""width:200px;border:14px solid red;"">","null","","","","","","","","",""
"","image-keyboard-response","14","57715","0.0-14.0","33M4IA01QHN7BB7LV4C4I2D9MLCRXQ","AFEPFMO9863WA","3JUDR1D0D6D4CARU3YX9Y3DK5DJ2QK","","29.799999952316284","img/flower3.png","76","31.200000047683716","3","0","2","1","1,0.333,0.333,0.333,1,0.333,0.333,0.333,1","1,0.333,0.333,0.333,1,0.333,0.333,0.333,1","1",""
"","html-keyboard-response","15","58023","0.0-15.0","33M4IA01QHN7BB7LV4C4I2D9MLCRXQ","AFEPFMO9863WA","3JUDR1D0D6D4CARU3YX9Y3DK5DJ2QK","","null","<img src=""img/flower3.png"" style=""width:200px;border:14px solid red;"">","null","","","","","","","","",""
"","image-keyboard-response","16","58075","0.0-16.0","33M4IA01QHN7BB7LV4C4I2D9MLCRXQ","AFEPFMO9863WA","3JUDR1D0D6D4CARU3YX9Y3DK5DJ2QK","","49.40000009536743","img/flower5.png","76","51","3","0","1","1","1,0.333,0.333,0.333,1,0.333,0.333,0.333,1","1,0.333,0.333,0.333,1,0.333,0.333,0.333,1","1",""
"","html-keyboard-response","17","58384","0.0-17.0","33M4IA01QHN7BB7LV4C4I2D9MLCRXQ","AFEPFMO9863WA","3JUDR1D0D6D4CARU3YX9Y3DK5DJ2QK","","null","<img src=""img/flower5.png"" style=""width:200px;border:14px solid red;"">","null","","","","","","","","",""
"","image-keyboard-response","18","58401","0.0-18.0","33M4IA01QHN7BB7LV4C4I2D9MLCRXQ","AFEPFMO9863WA","3JUDR1D0D6D4CARU3YX9Y3DK5DJ2QK","","15.400000095367432","img/flower5.png","74","16.700000047683716","1","1","1","1","1,0.333,0.333,0.333,1,0.333,0.333,0.333,1","1,0.333,0.333,0.333,1,0.333,0.333,0.333,1","1",""
"","html-keyboard-response","19","58704","0.0-19.0","33M4IA01QHN7BB7LV4C4I2D9MLCRXQ","AFEPFMO9863WA","3JUDR1D0D6D4CARU3YX9Y3DK5DJ2QK","","null","<img src=""img/flower5.png"" style=""width:200px; border:14px solid green;"">","null","","","","","","","","",""
"","image-keyboard-response","20","59012","0.0-20.0","33M4IA01QHN7BB7LV4C4I2D9MLCRXQ","AFEPFMO9863WA","3JUDR1D0D6D4CARU3YX9Y3DK5DJ2QK","","306.59999990463257","img/flower1.png","74","308.2000000476837","1","0","3","1","1,0.333,0.333,0.333,1,0.333,0.333,0.333,1","1,0.333,0.333,0.333,1,0.333,0.333,0.333,1","1",""
"","html-keyboard-response","21","59320","0.0-21.0","33M4IA01QHN7BB7LV4C4I2D9MLCRXQ","AFEPFMO9863WA","3JUDR1D0D6D4CARU3YX9Y3DK5DJ2QK","","null","<img src=""img/flower1.png"" style=""width:200px;border:14px solid red;"">","null","","","","","","","","",""
"","image-keyboard-response","22","59376","0.0-22.0","33M4IA01QHN7BB7LV4C4I2D9MLCRXQ","AFEPFMO9863WA","3JUDR1D0D6D4CARU3YX9Y3DK5DJ2QK","","53","img/flower3.png","74","56.5","1","1","2","1","1,0.333,0.333,0.333,1,0.333,0.333,0.333,1","1,0.333,0.333,0.333,1,0.333,0.333,0.333,1","1",""
"","html-keyboard-response","23","59680","0.0-23.0","33M4IA01QHN7BB7LV4C4I2D9MLCRXQ","AFEPFMO9863WA","3JUDR1D0D6D4CARU3YX9Y3DK5DJ2QK","","null","<img src=""img/flower3.png"" style=""width:200px; border:14px solid green;"">","null","","","","","","","","",""
"","image-keyboard-response","24","59683","0.0-24.0","33M4IA01QHN7BB7LV4C4I2D9MLCRXQ","AFEPFMO9863WA","3JUDR1D0D6D4CARU3YX9Y3DK5DJ2QK","","1.5","img/flower5.png","76","2.799999952316284","3","0","1","1","1,0.333,0.333,0.333,1,0.333,0.333,0.333,1","1,0.333,0.333,0.333,1,0.333,0.333,0.333,1","1",""
"","html-keyboard-response","25","59993","0.0-25.0","33M4IA01QHN7BB7LV4C4I2D9MLCRXQ","AFEPFMO9863WA","3JUDR1D0D6D4CARU3YX9Y3DK5DJ2QK","","null","<img src=""img/flower5.png"" style=""width:200px;border:14px solid red;"">","null","","","","","","","","",""
"","image-keyboard-response","26","60078","0.0-26.0","33M4IA01QHN7BB7LV4C4I2D9MLCRXQ","AFEPFMO9863WA","3JUDR1D0D6D4CARU3YX9Y3DK5DJ2QK","","81.90000009536743","img/flower3.png","74","83.70000004768372","1","1","2","1","1,0.333,0.333,0.333,1,0.333,0.333,0.333,1","1,0.333,0.333,0.333,1,0.333,0.333,0.333,1","1",""
"","html-keyboard-response","27","60384","0.0-27.0","33M4IA01QHN7BB7LV4C4I2D9MLCRXQ","AFEPFMO9863WA","3JUDR1D0D6D4CARU3YX9Y3DK5DJ2QK","","null","<img src=""img/flower3.png"" style=""width:200px; border:14px solid green;"">","null","","","","","","","","",""
"","image-keyboard-response","28","60669","0.0-28.0","33M4IA01QHN7BB7LV4C4I2D9MLCRXQ","AFEPFMO9863WA","3JUDR1D0D6D4CARU3YX9Y3DK5DJ2QK","","283.59999990463257","img/flower1.png","75","284.7999999523163","2","1","3","1","1,0.333,0.333,0.333,1,0.333,0.333,0.333,1","1,0.333,0.333,0.333,1,0.333,0.333,0.333,1","1",""
"","html-keyboard-response","29","60976","0.0-29.0","33M4IA01QHN7BB7LV4C4I2D9MLCRXQ","AFEPFMO9863WA","3JUDR1D0D6D4CARU3YX9Y3DK5DJ2QK","","null","<img src=""img/flower1.png"" style=""width:200px; border:14px solid green;"">","null","","","","","","","","",""
"","image-keyboard-response","30","61070","0.0-30.0","33M4IA01QHN7BB7LV4C4I2D9MLCRXQ","AFEPFMO9863WA","3JUDR1D0D6D4CARU3YX9Y3DK5DJ2QK","","93.29999995231628","img/flower1.png","74","94.5","1","0","3","1","1,0.333,0.333,0.333,1,0.333,0.333,0.333,1","1,0.333,0.333,0.333,1,0.333,0.333,0.333,1","1",""
"","html-keyboard-response","31","61376","0.0-31.0","33M4IA01QHN7BB7LV4C4I2D9MLCRXQ","AFEPFMO9863WA","3JUDR1D0D6D4CARU3YX9Y3DK5DJ2QK","","null","<img src=""img/flower1.png"" style=""width:200px;border:14px solid red;"">","null","","","","","","","","",""
"","image-keyboard-response","32","61724","0.0-32.0","33M4IA01QHN7BB7LV4C4I2D9MLCRXQ","AFEPFMO9863WA","3JUDR1D0D6D4CARU3YX9Y3DK5DJ2QK","","347.40000009536743","img/flower3.png","76","348.59999990463257","3","1","2","1","1,0.333,0.333,0.333,1,0.333,0.333,0.333,1","1,0.333,0.333,0.333,1,0.333,0.333,0.333,1","1",""
"","html-keyboard-response","33","62032","0.0-33.0","33M4IA01QHN7BB7LV4C4I2D9MLCRXQ","AFEPFMO9863WA","3JUDR1D0D6D4CARU3YX9Y3DK5DJ2QK","","null","<img src=""img/flower3.png"" style=""width:200px; border:14px solid green;"">","null","","","","","","","","",""
"","image-keyboard-response","34","62088","0.0-34.0","33M4IA01QHN7BB7LV4C4I2D9MLCRXQ","AFEPFMO9863WA","3JUDR1D0D6D4CARU3YX9Y3DK5DJ2QK","","54.89999985694885","img/flower1.png","75","56.59999990463257","2","0","3","1","1,0.333,0.333,0.333,1,0.333,0.333,0.333,1","1,0.333,0.333,0.333,1,0.333,0.333,0.333,1","1",""
"","html-keyboard-response","35","62392","0.0-35.0","33M4IA01QHN7BB7LV4C4I2D9MLCRXQ","AFEPFMO9863WA","3JUDR1D0D6D4CARU3YX9Y3DK5DJ2QK","","null","<img src=""img/flower1.png"" style=""width:200px;border:14px solid red;"">","null","","","","","","","","",""
"","image-keyboard-response","36","62461","0.0-36.0","33M4IA01QHN7BB7LV4C4I2D9MLCRXQ","AFEPFMO9863WA","3JUDR1D0D6D4CARU3YX9Y3DK5DJ2QK","","67.29999995231628","img/flower3.png","76","68.5","3","0","2","1","1,0.333,0.333,0.333,1,0.333,0.333,0.333,1","1,0.333,0.333,0.333,1,0.333,0.333,0.333,1","1",""
"","html-keyboard-response","37","62768","0.0-37.0","33M4IA01QHN7BB7LV4C4I2D9MLCRXQ","AFEPFMO9863WA","3JUDR1D0D6D4CARU3YX9Y3DK5DJ2QK","","null","<img src=""img/flower3.png"" style=""width:200px;border:14px solid red;"">","null","","","","","","","","",""
"","image-keyboard-response","38","63005","0.0-38.0","33M4IA01QHN7BB7LV4C4I2D9MLCRXQ","AFEPFMO9863WA","3JUDR1D0D6D4CARU3YX9Y3DK5DJ2QK","","235.29999995231628","img/flower3.png","74","236.5","1","0","2","1","1,0.333,0.333,0.333,1,0.333,0.333,0.333,1","1,0.333,0.333,0.333,1,0.333,0.333,0.333,1","1",""
"","html-keyboard-response","39","63311","0.0-39.0","33M4IA01QHN7BB7LV4C4I2D9MLCRXQ","AFEPFMO9863WA","3JUDR1D0D6D4CARU3YX9Y3DK5DJ2QK","","null","<img src=""img/flower3.png"" style=""width:200px;border:14px solid red;"">","null","","","","","","","","",""
"","image-keyboard-response","40","63352","0.0-40.0","33M4IA01QHN7BB7LV4C4I2D9MLCRXQ","AFEPFMO9863WA","3JUDR1D0D6D4CARU3YX9Y3DK5DJ2QK","","38.89999985694885","img/flower1.png","74","40.09999990463257","1","0","3","1","1,0.333,0.333,0.333,1,0.333,0.333,0.333,1","1,0.333,0.333,0.333,1,0.333,0.333,0.333,1","1",""
"","html-keyboard-response","41","63655","0.0-41.0","33M4IA01QHN7BB7LV4C4I2D9MLCRXQ","AFEPFMO9863WA","3JUDR1D0D6D4CARU3YX9Y3DK5DJ2QK","","null","<img src=""img/flower1.png"" style=""width:200px;border:14px solid red;"">","null","","","","","","","","",""
"","image-keyboard-response","42","63672","0.0-42.0","33M4IA01QHN7BB7LV4C4I2D9MLCRXQ","AFEPFMO9863WA","3JUDR1D0D6D4CARU3YX9Y3DK5DJ2QK","","14.900000095367432","img/flower3.png","75","16.09999990463257","2","1","2","1","1,0.333,0.333,0.333,1,0.333,0.333,0.333,1","1,0.333,0.333,0.333,1,0.333,0.333,0.333,1","1",""
"","html-keyboard-response","43","63975","0.0-43.0","33M4IA01QHN7BB7LV4C4I2D9MLCRXQ","AFEPFMO9863WA","3JUDR1D0D6D4CARU3YX9Y3DK5DJ2QK","","null","<img src=""img/flower3.png"" style=""width:200px; border:14px solid green;"">","null","","","","","","","","",""
"","image-keyboard-response","44","63981","0.0-44.0","33M4IA01QHN7BB7LV4C4I2D9MLCRXQ","AFEPFMO9863WA","3JUDR1D0D6D4CARU3YX9Y3DK5DJ2QK","","3.299999952316284","img/flower1.png","75","5.099999904632568","2","0","3","1","1,0.333,0.333,0.333,1,0.333,0.333,0.333,1","1,0.333,0.333,0.333,1,0.333,0.333,0.333,1","1",""
"","html-keyboard-response","45","64288","0.0-45.0","33M4IA01QHN7BB7LV4C4I2D9MLCRXQ","AFEPFMO9863WA","3JUDR1D0D6D4CARU3YX9Y3DK5DJ2QK","","null","<img src=""img/flower1.png"" style=""width:200px;border:14px solid red;"">","null","","","","","","","","",""
"","image-keyboard-response","46","64532","0.0-46.0","33M4IA01QHN7BB7LV4C4I2D9MLCRXQ","AFEPFMO9863WA","3JUDR1D0D6D4CARU3YX9Y3DK5DJ2QK","","242.79999995231628","img/flower1.png","74","244.19999980926514","1","0","3","1","1,0.333,0.333,0.333,1,0.333,0.333,0.333,1","1,0.333,0.333,0.333,1,0.333,0.333,0.333,1","1",""
"","html-keyboard-response","47","64840","0.0-47.0","33M4IA01QHN7BB7LV4C4I2D9MLCRXQ","AFEPFMO9863WA","3JUDR1D0D6D4CARU3YX9Y3DK5DJ2QK","","null","<img src=""img/flower1.png"" style=""width:200px;border:14px solid red;"">","null","","","","","","","","",""
"","image-keyboard-response","48","64886","0.0-48.0","33M4IA01QHN7BB7LV4C4I2D9MLCRXQ","AFEPFMO9863WA","3JUDR1D0D6D4CARU3YX9Y3DK5DJ2QK","","44.799999952316284","img/flower5.png","74","46","1","1","1","1","1,0.333,0.333,0.333,1,0.333,0.333,0.333,1","1,0.333,0.333,0.333,1,0.333,0.333,0.333,1","1",""
"","html-keyboard-response","49","65191","0.0-49.0","33M4IA01QHN7BB7LV4C4I2D9MLCRXQ","AFEPFMO9863WA","3JUDR1D0D6D4CARU3YX9Y3DK5DJ2QK","","null","<img src=""img/flower5.png"" style=""width:200px; border:14px solid green;"">","null","","","","","","","","",""
"","image-keyboard-response","50","65193","0.0-50.0","33M4IA01QHN7BB7LV4C4I2D9MLCRXQ","AFEPFMO9863WA","3JUDR1D0D6D4CARU3YX9Y3DK5DJ2QK","","0.5","img/flower3.png","76","1.5","3","0","2","1","1,0.333,0.333,0.333,1,0.333,0.333,0.333,1","1,0.333,0.333,0.333,1,0.333,0.333,0.333,1","1",""
"","html-keyboard-response","51","65495","0.0-51.0","33M4IA01QHN7BB7LV4C4I2D9MLCRXQ","AFEPFMO9863WA","3JUDR1D0D6D4CARU3YX9Y3DK5DJ2QK","","null","<img src=""img/flower3.png"" style=""width:200px;border:14px solid red;"">","null","","","","","","","","",""
"","image-keyboard-response","52","65766","0.0-52.0","33M4IA01QHN7BB7LV4C4I2D9MLCRXQ","AFEPFMO9863WA","3JUDR1D0D6D4CARU3YX9Y3DK5DJ2QK","","269.40000009536743","img/flower3.png","76","270.5","3","1","2","1","1,0.333,0.333,0.333,1,0.333,0.333,0.333,1","1,0.333,0.333,0.333,1,0.333,0.333,0.333,1","1",""
"","html-keyboard-response","53","66071","0.0-53.0","33M4IA01QHN7BB7LV4C4I2D9MLCRXQ","AFEPFMO9863WA","3JUDR1D0D6D4CARU3YX9Y3DK5DJ2QK","","null","<img src=""img/flower3.png"" style=""width:200px; border:14px solid green;"">","null","","","","","","","","",""
"","image-keyboard-response","54","66078","0.0-54.0","33M4IA01QHN7BB7LV4C4I2D9MLCRXQ","AFEPFMO9863WA","3JUDR1D0D6D4CARU3YX9Y3DK5DJ2QK","","5.599999904632568","img/flower1.png","74","6.800000190734863","1","0","3","1","1,0.333,0.333,0.333,1,0.333,0.333,0.333,1","1,0.333,0.333,0.333,1,0.333,0.333,0.333,1","1",""
"","html-keyboard-response","55","66383","0.0-55.0","33M4IA01QHN7BB7LV4C4I2D9MLCRXQ","AFEPFMO9863WA","3JUDR1D0D6D4CARU3YX9Y3DK5DJ2QK","","null","<img src=""img/flower1.png"" style=""width:200px;border:14px solid red;"">","null","","","","","","","","",""
"","image-keyboard-response","56","66704","0.0-56.0","33M4IA01QHN7BB7LV4C4I2D9MLCRXQ","AFEPFMO9863WA","3JUDR1D0D6D4CARU3YX9Y3DK5DJ2QK","","319.09999990463257","img/flower3.png","74","320.5","1","0","2","1","1,0.333,0.333,0.333,1,0.333,0.333,0.333,1","1,0.333,0.333,0.333,1,0.333,0.333,0.333,1","1",""
"","html-keyboard-response","57","67008","0.0-57.0","33M4IA01QHN7BB7LV4C4I2D9MLCRXQ","AFEPFMO9863WA","3JUDR1D0D6D4CARU3YX9Y3DK5DJ2QK","","null","<img src=""img/flower3.png"" style=""width:200px;border:14px solid red;"">","null","","","","","","","","",""
"","image-keyboard-response","58","67021","0.0-58.0","33M4IA01QHN7BB7LV4C4I2D9MLCRXQ","AFEPFMO9863WA","3JUDR1D0D6D4CARU3YX9Y3DK5DJ2QK","","12","img/flower3.png","76","13.299999952316284","3","0","2","1","1,0.333,0.333,0.333,1,0.333,0.333,0.333,1","1,0.333,0.333,0.333,1,0.333,0.333,0.333,1","1",""
"","html-keyboard-response","59","67328","0.0-59.0","33M4IA01QHN7BB7LV4C4I2D9MLCRXQ","AFEPFMO9863WA","3JUDR1D0D6D4CARU3YX9Y3DK5DJ2QK","","null","<img src=""img/flower3.png"" style=""width:200px;border:14px solid red;"">","null","","","","","","","","",""
"","image-keyboard-response","60","67331","0.0-60.0","33M4IA01QHN7BB7LV4C4I2D9MLCRXQ","AFEPFMO9863WA","3JUDR1D0D6D4CARU3YX9Y3DK5DJ2QK","","0.5999999046325684","img/flower5.png","76","2.5999999046325684","3","0","1","1","1,0.333,0.333,0.333,1,0.333,0.333,0.333,1","1,0.333,0.333,0.333,1,0.333,0.333,0.333,1","1",""
"","html-keyboard-response","61","67640","0.0-61.0","33M4IA01QHN7BB7LV4C4I2D9MLCRXQ","AFEPFMO9863WA","3JUDR1D0D6D4CARU3YX9Y3DK5DJ2QK","","null","<img src=""img/flower5.png"" style=""width:200px;border:14px solid red;"">","null","","","","","","","","",""
"","image-keyboard-response","62","67975","0.0-62.0","33M4IA01QHN7BB7LV4C4I2D9MLCRXQ","AFEPFMO9863WA","3JUDR1D0D6D4CARU3YX9Y3DK5DJ2QK","","333.69999980926514","img/flower5.png","76","335","3","0","1","1","1,0.333,0.333,0.333,1,0.333,0.333,0.333,1","1,0.333,0.333,0.333,1,0.333,0.333,0.333,1","1",""
"","html-keyboard-response","63","68280","0.0-63.0","33M4IA01QHN7BB7LV4C4I2D9MLCRXQ","AFEPFMO9863WA","3JUDR1D0D6D4CARU3YX9Y3DK5DJ2QK","","null","<img src=""img/flower5.png"" style=""width:200px;border:14px solid red;"">","null","","","","","","","","",""
"","image-keyboard-response","64","68560","0.0-64.0","33M4IA01QHN7BB7LV4C4I2D9MLCRXQ","AFEPFMO9863WA","3JUDR1D0D6D4CARU3YX9Y3DK5DJ2QK","","278.7999999523163","img/flower1.png","75","291.80000019073486","2","1","3","1","1,0.333,0.333,0.333,1,0.333,0.333,0.333,1","1,0.333,0.333,0.333,1,0.333,0.333,0.333,1","1",""
"","html-keyboard-response","65","68880","0.0-65.0","33M4IA01QHN7BB7LV4C4I2D9MLCRXQ","AFEPFMO9863WA","3JUDR1D0D6D4CARU3YX9Y3DK5DJ2QK","","null","<img src=""img/flower1.png"" style=""width:200px; border:14px solid green;"">","null","","","","","","","","",""
"","image-keyboard-response","66","68907","0.0-66.0","33M4IA01QHN7BB7LV4C4I2D9MLCRXQ","AFEPFMO9863WA","3JUDR1D0D6D4CARU3YX9Y3DK5DJ2QK","","25.700000047683716","img/flower1.png","75","26.90000009536743","2","1","3","1","1,0.333,0.333,0.333,1,0.333,0.333,0.333,1","1,0.333,0.333,0.333,1,0.333,0.333,0.333,1","1",""
"","html-keyboard-response","67","69216","0.0-67.0","33M4IA01QHN7BB7LV4C4I2D9MLCRXQ","AFEPFMO9863WA","3JUDR1D0D6D4CARU3YX9Y3DK5DJ2QK","","null","<img src=""img/flower1.png"" style=""width:200px; border:14px solid green;"">","null","","","","","","","","",""
"","image-keyboard-response","68","69226","0.0-68.0","33M4IA01QHN7BB7LV4C4I2D9MLCRXQ","AFEPFMO9863WA","3JUDR1D0D6D4CARU3YX9Y3DK5DJ2QK","","8.799999952316284","img/flower1.png","75","10","2","0","3","1","1,0.333,0.333,0.333,1,0.333,0.333,0.333,1","1,0.333,0.333,0.333,1,0.333,0.333,0.333,1","1",""
"","html-keyboard-response","69","69536","0.0-69.0","33M4IA01QHN7BB7LV4C4I2D9MLCRXQ","AFEPFMO9863WA","3JUDR1D0D6D4CARU3YX9Y3DK5DJ2QK","","null","<img src=""img/flower1.png"" style=""width:200px;border:14px solid red;"">","null","","","","","","","","",""
"","image-keyboard-response","70","69551","0.0-70.0","33M4IA01QHN7BB7LV4C4I2D9MLCRXQ","AFEPFMO9863WA","3JUDR1D0D6D4CARU3YX9Y3DK5DJ2QK","","13.599999904632568","img/flower3.png","75","14.900000095367432","2","1","2","1","1,0.333,0.333,0.333,1,0.333,0.333,0.333,1","1,0.333,0.333,0.333,1,0.333,0.333,0.333,1","1",""
"","html-keyboard-response","71","69857","0.0-71.0","33M4IA01QHN7BB7LV4C4I2D9MLCRXQ","AFEPFMO9863WA","3JUDR1D0D6D4CARU3YX9Y3DK5DJ2QK","","null","<img src=""img/flower3.png"" style=""width:200px; border:14px solid green;"">","null","","","","","","","","",""
"","image-keyboard-response","72","70079","0.0-72.0","33M4IA01QHN7BB7LV4C4I2D9MLCRXQ","AFEPFMO9863WA","3JUDR1D0D6D4CARU3YX9Y3DK5DJ2QK","","220.5","img/flower3.png","75","222","2","1","2","1","1,0.333,0.333,0.333,1,0.333,0.333,0.333,1","1,0.333,0.333,0.333,1,0.333,0.333,0.333,1","1",""
"","html-keyboard-response","73","70384","0.0-73.0","33M4IA01QHN7BB7LV4C4I2D9MLCRXQ","AFEPFMO9863WA","3JUDR1D0D6D4CARU3YX9Y3DK5DJ2QK","","null","<img src=""img/flower3.png"" style=""width:200px; border:14px solid green;"">","null","","","","","","","","",""
"","image-keyboard-response","74","70404","0.0-74.0","33M4IA01QHN7BB7LV4C4I2D9MLCRXQ","AFEPFMO9863WA","3JUDR1D0D6D4CARU3YX9Y3DK5DJ2QK","","19","img/flower3.png","75","20.200000047683716","2","1","2","1","1,0.333,0.333,0.333,1,0.333,0.333,0.333,1","1,0.333,0.333,0.333,1,0.333,0.333,0.333,1","1",""
"","html-keyboard-response","75","70711","0.0-75.0","33M4IA01QHN7BB7LV4C4I2D9MLCRXQ","AFEPFMO9863WA","3JUDR1D0D6D4CARU3YX9Y3DK5DJ2QK","","null","<img src=""img/flower3.png"" style=""width:200px; border:14px solid green;"">","null","","","","","","","","",""
"","image-keyboard-response","76","70722","0.0-76.0","33M4IA01QHN7BB7LV4C4I2D9MLCRXQ","AFEPFMO9863WA","3JUDR1D0D6D4CARU3YX9Y3DK5DJ2QK","","9.099999904632568","img/flower3.png","75","10.700000047683716","2","1","2","1","1,0.333,0.333,0.333,1,0.333,0.333,0.333,1","1,0.333,0.333,0.333,1,0.333,0.333,0.333,1","1",""
"","html-keyboard-response","77","71032","0.0-77.0","33M4IA01QHN7BB7LV4C4I2D9MLCRXQ","AFEPFMO9863WA","3JUDR1D0D6D4CARU3YX9Y3DK5DJ2QK","","null","<img src=""img/flower3.png"" style=""width:200px; border:14px solid green;"">","null","","","","","","","","",""
"","image-keyboard-response","78","71386","0.0-78.0","33M4IA01QHN7BB7LV4C4I2D9MLCRXQ","AFEPFMO9863WA","3JUDR1D0D6D4CARU3YX9Y3DK5DJ2QK","","352.7999999523163","img/flower5.png","74","354.2999999523163","1","1","1","1","1,0.333,0.333,0.333,1,0.333,0.333,0.333,1","1,0.333,0.333,0.333,1,0.333,0.333,0.333,1","1",""
"","html-keyboard-response","79","71695","0.0-79.0","33M4IA01QHN7BB7LV4C4I2D9MLCRXQ","AFEPFMO9863WA","3JUDR1D0D6D4CARU3YX9Y3DK5DJ2QK","","null","<img src=""img/flower5.png"" style=""width:200px; border:14px solid green;"">","null","","","","","","","","",""
"","image-keyboard-response","80","71706","0.0-80.0","33M4IA01QHN7BB7LV4C4I2D9MLCRXQ","AFEPFMO9863WA","3JUDR1D0D6D4CARU3YX9Y3DK5DJ2QK","","9.200000047683716","img/flower5.png","74","10.599999904632568","1","1","1","1","1,0.333,0.333,0.333,1,0.333,0.333,0.333,1","1,0.333,0.333,0.333,1,0.333,0.333,0.333,1","1",""
"","html-keyboard-response","81","72008","0.0-81.0","33M4IA01QHN7BB7LV4C4I2D9MLCRXQ","AFEPFMO9863WA","3JUDR1D0D6D4CARU3YX9Y3DK5DJ2QK","","null","<img src=""img/flower5.png"" style=""width:200px; border:14px solid green;"">","null","","","","","","","","",""
"","image-keyboard-response","82","72332","0.0-82.0","33M4IA01QHN7BB7LV4C4I2D9MLCRXQ","AFEPFMO9863WA","3JUDR1D0D6D4CARU3YX9Y3DK5DJ2QK","","321.7999999523163","img/flower1.png","76","323.2000000476837","3","1","3","1","1,0.333,0.333,0.333,1,0.333,0.333,0.333,1","1,0.333,0.333,0.333,1,0.333,0.333,0.333,1","1",""
"","html-keyboard-response","83","72635","0.0-83.0","33M4IA01QHN7BB7LV4C4I2D9MLCRXQ","AFEPFMO9863WA","3JUDR1D0D6D4CARU3YX9Y3DK5DJ2QK","","null","<img src=""img/flower1.png"" style=""width:200px; border:14px solid green;"">","null","","","","","","","","",""
"","image-keyboard-response","84","72898","0.0-84.0","33M4IA01QHN7BB7LV4C4I2D9MLCRXQ","AFEPFMO9863WA","3JUDR1D0D6D4CARU3YX9Y3DK5DJ2QK","","261.40000009536743","img/flower3.png","76","263","3","0","2","1","1,0.333,0.333,0.333,1,0.333,0.333,0.333,1","1,0.333,0.333,0.333,1,0.333,0.333,0.333,1","1",""
"","html-keyboard-response","85","73207","0.0-85.0","33M4IA01QHN7BB7LV4C4I2D9MLCRXQ","AFEPFMO9863WA","3JUDR1D0D6D4CARU3YX9Y3DK5DJ2QK","","null","<img src=""img/flower3.png"" style=""width:200px;border:14px solid red;"">","null","","","","","","","","",""
"","image-keyboard-response","86","73235","0.0-86.0","33M4IA01QHN7BB7LV4C4I2D9MLCRXQ","AFEPFMO9863WA","3JUDR1D0D6D4CARU3YX9Y3DK5DJ2QK","","26.40000009536743","img/flower1.png","75","27.799999952316284","2","1","3","1","1,0.333,0.333,0.333,1,0.333,0.333,0.333,1","1,0.333,0.333,0.333,1,0.333,0.333,0.333,1","1",""
"","html-keyboard-response","87","73544","0.0-87.0","33M4IA01QHN7BB7LV4C4I2D9MLCRXQ","AFEPFMO9863WA","3JUDR1D0D6D4CARU3YX9Y3DK5DJ2QK","","null","<img src=""img/flower1.png"" style=""width:200px; border:14px solid green;"">","null","","","","","","","","",""
"","image-keyboard-response","88","73593","0.0-88.0","33M4IA01QHN7BB7LV4C4I2D9MLCRXQ","AFEPFMO9863WA","3JUDR1D0D6D4CARU3YX9Y3DK5DJ2QK","","47.39999985694885","img/flower5.png","75","49.09999990463257","2","1","1","1","1,0.333,0.333,0.333,1,0.333,0.333,0.333,1","1,0.333,0.333,0.333,1,0.333,0.333,0.333,1","1",""
"","html-keyboard-response","89","73896","0.0-89.0","33M4IA01QHN7BB7LV4C4I2D9MLCRXQ","AFEPFMO9863WA","3JUDR1D0D6D4CARU3YX9Y3DK5DJ2QK","","null","<img src=""img/flower5.png"" style=""width:200px; border:14px solid green;"">","null","","","","","","","","",""
"","image-keyboard-response","90","74119","0.0-90.0","33M4IA01QHN7BB7LV4C4I2D9MLCRXQ","AFEPFMO9863WA","3JUDR1D0D6D4CARU3YX9Y3DK5DJ2QK","","221.79999995231628","img/flower1.png","75","223.39999985694885","2","0","3","1","1,0.333,0.333,0.333,1,0.333,0.333,0.333,1","1,0.333,0.333,0.333,1,0.333,0.333,0.333,1","1",""
"","html-keyboard-response","91","74424","0.0-91.0","33M4IA01QHN7BB7LV4C4I2D9MLCRXQ","AFEPFMO9863WA","3JUDR1D0D6D4CARU3YX9Y3DK5DJ2QK","","null","<img src=""img/flower1.png"" style=""width:200px;border:14px solid red;"">","null","","","","","","","","",""
"","image-keyboard-response","92","74713","0.0-92.0","33M4IA01QHN7BB7LV4C4I2D9MLCRXQ","AFEPFMO9863WA","3JUDR1D0D6D4CARU3YX9Y3DK5DJ2QK","","288.10000014305115","img/flower5.png","74","289.40000009536743","1","1","1","1","1,0.333,0.333,0.333,1,0.333,0.333,0.333,1","1,0.333,0.333,0.333,1,0.333,0.333,0.333,1","1",""
"","html-keyboard-response","93","75015","0.0-93.0","33M4IA01QHN7BB7LV4C4I2D9MLCRXQ","AFEPFMO9863WA","3JUDR1D0D6D4CARU3YX9Y3DK5DJ2QK","","null","<img src=""img/flower5.png"" style=""width:200px; border:14px solid green;"">","null","","","","","","","","",""
"","image-keyboard-response","94","75309","0.0-94.0","33M4IA01QHN7BB7LV4C4I2D9MLCRXQ","AFEPFMO9863WA","3JUDR1D0D6D4CARU3YX9Y3DK5DJ2QK","","291.7999999523163","img/flower5.png","76","293.2999999523163","3","0","1","1","1,0.333,0.333,0.333,1,0.333,0.333,0.333,1","1,0.333,0.333,0.333,1,0.333,0.333,0.333,1","1",""
"","html-keyboard-response","95","75615","0.0-95.0","33M4IA01QHN7BB7LV4C4I2D9MLCRXQ","AFEPFMO9863WA","3JUDR1D0D6D4CARU3YX9Y3DK5DJ2QK","","null","<img src=""img/flower5.png"" style=""width:200px;border:14px solid red;"">","null","","","","","","","","",""
"","image-keyboard-response","96","75635","0.0-96.0","33M4IA01QHN7BB7LV4C4I2D9MLCRXQ","AFEPFMO9863WA","3JUDR1D0D6D4CARU3YX9Y3DK5DJ2QK","","17.700000047683716","img/flower5.png","76","19.100000143051147","3","0","1","1","1,0.333,0.333,0.333,1,0.333,0.333,0.333,1","1,0.333,0.333,0.333,1,0.333,0.333,0.333,1","1",""
"","html-keyboard-response","97","75944","0.0-97.0","33M4IA01QHN7BB7LV4C4I2D9MLCRXQ","AFEPFMO9863WA","3JUDR1D0D6D4CARU3YX9Y3DK5DJ2QK","","null","<img src=""img/flower5.png"" style=""width:200px;border:14px solid red;"">","null","","","","","","","","",""
"","image-keyboard-response","98","76208","0.0-98.0","33M4IA01QHN7BB7LV4C4I2D9MLCRXQ","AFEPFMO9863WA","3JUDR1D0D6D4CARU3YX9Y3DK5DJ2QK","","263","img/flower5.png","75","264.60000014305115","2","1","1","1","1,0.333,0.333,0.333,1,0.333,0.333,0.333,1","1,0.333,0.333,0.333,1,0.333,0.333,0.333,1","1",""
"","html-keyboard-response","99","76512","0.0-99.0","33M4IA01QHN7BB7LV4C4I2D9MLCRXQ","AFEPFMO9863WA","3JUDR1D0D6D4CARU3YX9Y3DK5DJ2QK","","null","<img src=""img/flower5.png"" style=""width:200px; border:14px solid green;"">","null","","","","","","","","",""
"","image-keyboard-response","100","76581","0.0-100.0","33M4IA01QHN7BB7LV4C4I2D9MLCRXQ","AFEPFMO9863WA","3JUDR1D0D6D4CARU3YX9Y3DK5DJ2QK","","68.40000009536743","img/flower1.png","74","69.59999990463257","1","0","3","1","1,0.333,0.333,0.333,1,0.333,0.333,0.333,1","1,0.333,0.333,0.333,1,0.333,0.333,0.333,1","1",""
"","html-keyboard-response","101","76888","0.0-101.0","33M4IA01QHN7BB7LV4C4I2D9MLCRXQ","AFEPFMO9863WA","3JUDR1D0D6D4CARU3YX9Y3DK5DJ2QK","","null","<img src=""img/flower1.png"" style=""width:200px;border:14px solid red;"">","null","","","","","","","","",""
"","image-keyboard-response","102","77148","0.0-102.0","33M4IA01QHN7BB7LV4C4I2D9MLCRXQ","AFEPFMO9863WA","3JUDR1D0D6D4CARU3YX9Y3DK5DJ2QK","","258.2000000476837","img/flower1.png","75","259.7000000476837","2","0","3","1","1,0.333,0.333,0.333,1,0.333,0.333,0.333,1","1,0.333,0.333,0.333,1,0.333,0.333,0.333,1","1",""
"","html-keyboard-response","103","77456","0.0-103.0","33M4IA01QHN7BB7LV4C4I2D9MLCRXQ","AFEPFMO9863WA","3JUDR1D0D6D4CARU3YX9Y3DK5DJ2QK","","null","<img src=""img/flower1.png"" style=""width:200px;border:14px solid red;"">","null","","","","","","","","",""
"","image-keyboard-response","104","77476","0.0-104.0","33M4IA01QHN7BB7LV4C4I2D9MLCRXQ","AFEPFMO9863WA","3JUDR1D0D6D4CARU3YX9Y3DK5DJ2QK","","18.899999856948853","img/flower3.png","75","20.100000143051147","2","1","2","1","1,0.333,0.333,0.333,1,0.333,0.333,0.333,1","1,0.333,0.333,0.333,1,0.333,0.333,0.333,1","1",""
"","html-keyboard-response","105","77784","0.0-105.0","33M4IA01QHN7BB7LV4C4I2D9MLCRXQ","AFEPFMO9863WA","3JUDR1D0D6D4CARU3YX9Y3DK5DJ2QK","","null","<img src=""img/flower3.png"" style=""width:200px; border:14px solid green;"">","null","","","","","","","","",""
"","image-keyboard-response","106","77834","0.0-106.0","33M4IA01QHN7BB7LV4C4I2D9MLCRXQ","AFEPFMO9863WA","3JUDR1D0D6D4CARU3YX9Y3DK5DJ2QK","","48.90000009536743","img/flower3.png","75","50.5","2","1","2","1","1,0.333,0.333,0.333,1,0.333,0.333,0.333,1","1,0.333,0.333,0.333,1,0.333,0.333,0.333,1","1",""
"","html-keyboard-response","107","78145","0.0-107.0","33M4IA01QHN7BB7LV4C4I2D9MLCRXQ","AFEPFMO9863WA","3JUDR1D0D6D4CARU3YX9Y3DK5DJ2QK","","null","<img src=""img/flower3.png"" style=""width:200px; border:14px solid green;"">","null","","","","","","","","",""
"","image-keyboard-response","108","78423","0.0-108.0","33M4IA01QHN7BB7LV4C4I2D9MLCRXQ","AFEPFMO9863WA","3JUDR1D0D6D4CARU3YX9Y3DK5DJ2QK","","275.90000009536743","img/flower5.png","76","277.39999985694885","3","0","1","1","1,0.333,0.333,0.333,1,0.333,0.333,0.333,1","1,0.333,0.333,0.333,1,0.333,0.333,0.333,1","1",""
"","html-keyboard-response","109","78728","0.0-109.0","33M4IA01QHN7BB7LV4C4I2D9MLCRXQ","AFEPFMO9863WA","3JUDR1D0D6D4CARU3YX9Y3DK5DJ2QK","","null","<img src=""img/flower5.png"" style=""width:200px;border:14px solid red;"">","null","","","","","","","","",""
"","image-keyboard-response","110","78922","0.0-110.0","33M4IA01QHN7BB7LV4C4I2D9MLCRXQ","AFEPFMO9863WA","3JUDR1D0D6D4CARU3YX9Y3DK5DJ2QK","","192.59999990463257","img/flower3.png","75","194","2","1","2","1","1,0.333,0.333,0.333,1,0.333,0.333,0.333,1","1,0.333,0.333,0.333,1,0.333,0.333,0.333,1","1",""
"","html-keyboard-response","111","79232","0.0-111.0","33M4IA01QHN7BB7LV4C4I2D9MLCRXQ","AFEPFMO9863WA","3JUDR1D0D6D4CARU3YX9Y3DK5DJ2QK","","null","<img src=""img/flower3.png"" style=""width:200px; border:14px solid green;"">","null","","","","","","","","",""
"","image-keyboard-response","112","79402","0.0-112.0","33M4IA01QHN7BB7LV4C4I2D9MLCRXQ","AFEPFMO9863WA","3JUDR1D0D6D4CARU3YX9Y3DK5DJ2QK","","168.79999995231628","img/flower1.png","75","170.30000019073486","2","0","3","1","1,0.333,0.333,0.333,1,0.333,0.333,0.333,1","1,0.333,0.333,0.333,1,0.333,0.333,0.333,1","1",""
"","html-keyboard-response","113","79711","0.0-113.0","33M4IA01QHN7BB7LV4C4I2D9MLCRXQ","AFEPFMO9863WA","3JUDR1D0D6D4CARU3YX9Y3DK5DJ2QK","","null","<img src=""img/flower1.png"" style=""width:200px;border:14px solid red;"">","null","","","","","","","","",""
"","image-keyboard-response","114","79846","0.0-114.0","33M4IA01QHN7BB7LV4C4I2D9MLCRXQ","AFEPFMO9863WA","3JUDR1D0D6D4CARU3YX9Y3DK5DJ2QK","","132.59999990463257","img/flower3.png","76","134.39999985694885","3","0","2","1","1,0.333,0.333,0.333,1,0.333,0.333,0.333,1","1,0.333,0.333,0.333,1,0.333,0.333,0.333,1","1",""
"","html-keyboard-response","115","80151","0.0-115.0","33M4IA01QHN7BB7LV4C4I2D9MLCRXQ","AFEPFMO9863WA","3JUDR1D0D6D4CARU3YX9Y3DK5DJ2QK","","null","<img src=""img/flower3.png"" style=""width:200px;border:14px solid red;"">","null","","","","","","","","",""
"","image-keyboard-response","116","80244","0.0-116.0","33M4IA01QHN7BB7LV4C4I2D9MLCRXQ","AFEPFMO9863WA","3JUDR1D0D6D4CARU3YX9Y3DK5DJ2QK","","91.40000009536743","img/flower5.png","74","92.59999990463257","1","1","1","1","1,0.333,0.333,0.333,1,0.333,0.333,0.333,1","1,0.333,0.333,0.333,1,0.333,0.333,0.333,1","1",""
"","html-keyboard-response","117","80552","0.0-117.0","33M4IA01QHN7BB7LV4C4I2D9MLCRXQ","AFEPFMO9863WA","3JUDR1D0D6D4CARU3YX9Y3DK5DJ2QK","","null","<img src=""img/flower5.png"" style=""width:200px; border:14px solid green;"">","null","","","","","","","","",""
"","image-keyboard-response","118","80606","0.0-118.0","33M4IA01QHN7BB7LV4C4I2D9MLCRXQ","AFEPFMO9863WA","3JUDR1D0D6D4CARU3YX9Y3DK5DJ2QK","","52.39999985694885","img/flower1.png","76","54","3","1","3","1","1,0.333,0.333,0.333,1,0.333,0.333,0.333,1","1,0.333,0.333,0.333,1,0.333,0.333,0.333,1","1",""
"","html-keyboard-response","119","80912","0.0-119.0","33M4IA01QHN7BB7LV4C4I2D9MLCRXQ","AFEPFMO9863WA","3JUDR1D0D6D4CARU3YX9Y3DK5DJ2QK","","null","<img src=""img/flower1.png"" style=""width:200px; border:14px solid green;"">","null","","","","","","","","",""
"","image-keyboard-response","120","81003","0.0-120.0","33M4IA01QHN7BB7LV4C4I2D9MLCRXQ","AFEPFMO9863WA","3JUDR1D0D6D4CARU3YX9Y3DK5DJ2QK","","89.09999990463257","img/flower1.png","74","90.70000004768372","1","0","3","1","1,0.333,0.333,0.333,1,0.333,0.333,0.333,1","1,0.333,0.333,0.333,1,0.333,0.333,0.333,1","1",""
"","html-keyboard-response","121","81312","0.0-121.0","33M4IA01QHN7BB7LV4C4I2D9MLCRXQ","AFEPFMO9863WA","3JUDR1D0D6D4CARU3YX9Y3DK5DJ2QK","","null","<img src=""img/flower1.png"" style=""width:200px;border:14px solid red;"">","null","","","","","","","","",""
"","image-keyboard-response","122","81496","0.0-122.0","33M4IA01QHN7BB7LV4C4I2D9MLCRXQ","AFEPFMO9863WA","3JUDR1D0D6D4CARU3YX9Y3DK5DJ2QK","","182.19999980926514","img/flower3.png","75","183.69999980926514","2","1","2","1","1,0.333,0.333,0.333,1,0.333,0.333,0.333,1","1,0.333,0.333,0.333,1,0.333,0.333,0.333,1","1",""
"","html-keyboard-response","123","81800","0.0-123.0","33M4IA01QHN7BB7LV4C4I2D9MLCRXQ","AFEPFMO9863WA","3JUDR1D0D6D4CARU3YX9Y3DK5DJ2QK","","null","<img src=""img/flower3.png"" style=""width:200px; border:14px solid green;"">","null","","","","","","","","",""
"","image-keyboard-response","124","81896","0.0-124.0","33M4IA01QHN7BB7LV4C4I2D9MLCRXQ","AFEPFMO9863WA","3JUDR1D0D6D4CARU3YX9Y3DK5DJ2QK","","94.59999990463257","img/flower5.png","76","95.79999995231628","3","1","1","1","1,0.333,0.333,0.333,1,0.333,0.333,0.333,1","1,0.333,0.333,0.333,1,0.333,0.333,0.333,1","1",""
"","html-keyboard-response","125","82216","0.0-125.0","33M4IA01QHN7BB7LV4C4I2D9MLCRXQ","AFEPFMO9863WA","3JUDR1D0D6D4CARU3YX9Y3DK5DJ2QK","","null","<img src=""img/flower5.png"" style=""width:200px; border:14px solid green;"">","null","","","","","","","","",""
"","image-keyboard-response","126","82272","0.0-126.0","33M4IA01QHN7BB7LV4C4I2D9MLCRXQ","AFEPFMO9863WA","3JUDR1D0D6D4CARU3YX9Y3DK5DJ2QK","","55.200000047683716","img/flower3.png","75","56.40000009536743","2","1","2","1","1,0.333,0.333,0.333,1,0.333,0.333,0.333,1","1,0.333,0.333,0.333,1,0.333,0.333,0.333,1","1",""
"","html-keyboard-response","127","82576","0.0-127.0","33M4IA01QHN7BB7LV4C4I2D9MLCRXQ","AFEPFMO9863WA","3JUDR1D0D6D4CARU3YX9Y3DK5DJ2QK","","null","<img src=""img/flower3.png"" style=""width:200px; border:14px solid green;"">","null","","","","","","","","",""
"","image-keyboard-response","128","82631","0.0-128.0","33M4IA01QHN7BB7LV4C4I2D9MLCRXQ","AFEPFMO9863WA","3JUDR1D0D6D4CARU3YX9Y3DK5DJ2QK","","53.90000009536743","img/flower1.png","74","55.299999952316284","1","0","3","1","1,0.333,0.333,0.333,1,0.333,0.333,0.333,1","1,0.333,0.333,0.333,1,0.333,0.333,0.333,1","1",""
"","html-keyboard-response","129","82935","0.0-129.0","33M4IA01QHN7BB7LV4C4I2D9MLCRXQ","AFEPFMO9863WA","3JUDR1D0D6D4CARU3YX9Y3DK5DJ2QK","","null","<img src=""img/flower1.png"" style=""width:200px;border:14px solid red;"">","null","","","","","","","","",""
"","image-keyboard-response","130","82966","0.0-130.0","33M4IA01QHN7BB7LV4C4I2D9MLCRXQ","AFEPFMO9863WA","3JUDR1D0D6D4CARU3YX9Y3DK5DJ2QK","","24.09999990463257","img/flower5.png","76","25.40000009536743","3","0","1","1","1,0.333,0.333,0.333,1,0.333,0.333,0.333,1","1,0.333,0.333,0.333,1,0.333,0.333,0.333,1","1",""
"","html-keyboard-response","131","83272","0.0-131.0","33M4IA01QHN7BB7LV4C4I2D9MLCRXQ","AFEPFMO9863WA","3JUDR1D0D6D4CARU3YX9Y3DK5DJ2QK","","null","<img src=""img/flower5.png"" style=""width:200px;border:14px solid red;"">","null","","","","","","","","",""
"","image-keyboard-response","132","83287","0.0-132.0","33M4IA01QHN7BB7LV4C4I2D9MLCRXQ","AFEPFMO9863WA","3JUDR1D0D6D4CARU3YX9Y3DK5DJ2QK","","13.5","img/flower3.png","75","14.799999952316284","2","1","2","1","1,0.333,0.333,0.333,1,0.333,0.333,0.333,1","1,0.333,0.333,0.333,1,0.333,0.333,0.333,1","1",""
"","html-keyboard-response","133","83592","0.0-133.0","33M4IA01QHN7BB7LV4C4I2D9MLCRXQ","AFEPFMO9863WA","3JUDR1D0D6D4CARU3YX9Y3DK5DJ2QK","","null","<img src=""img/flower3.png"" style=""width:200px; border:14px solid green;"">","null","","","","","","","","",""
"","image-keyboard-response","134","83919","0.0-134.0","33M4IA01QHN7BB7LV4C4I2D9MLCRXQ","AFEPFMO9863WA","3JUDR1D0D6D4CARU3YX9Y3DK5DJ2QK","","326.2999999523163","img/flower1.png","76","327.39999985694885","3","1","3","1","1,0.333,0.333,0.333,1,0.333,0.333,0.333,1","1,0.333,0.333,0.333,1,0.333,0.333,0.333,1","1",""
"","html-keyboard-response","135","84222","0.0-135.0","33M4IA01QHN7BB7LV4C4I2D9MLCRXQ","AFEPFMO9863WA","3JUDR1D0D6D4CARU3YX9Y3DK5DJ2QK","","null","<img src=""img/flower1.png"" style=""width:200px; border:14px solid green;"">","null","","","","","","","","",""
"","image-keyboard-response","136","84523","0.0-136.0","33M4IA01QHN7BB7LV4C4I2D9MLCRXQ","AFEPFMO9863WA","3JUDR1D0D6D4CARU3YX9Y3DK5DJ2QK","","299.2999999523163","img/flower3.png","75","300.5","2","1","2","1","1,0.333,0.333,0.333,1,0.333,0.333,0.333,1","1,0.333,0.333,0.333,1,0.333,0.333,0.333,1","1",""
"","html-keyboard-response","137","84831","0.0-137.0","33M4IA01QHN7BB7LV4C4I2D9MLCRXQ","AFEPFMO9863WA","3JUDR1D0D6D4CARU3YX9Y3DK5DJ2QK","","null","<img src=""img/flower3.png"" style=""width:200px; border:14px solid green;"">","null","","","","","","","","",""
"","image-keyboard-response","138","84839","0.0-138.0","33M4IA01QHN7BB7LV4C4I2D9MLCRXQ","AFEPFMO9863WA","3JUDR1D0D6D4CARU3YX9Y3DK5DJ2QK","","6.099999904632568","img/flower5.png","76","7.700000047683716","3","0","1","1","1,0.333,0.333,0.333,1,0.333,0.333,0.333,1","1,0.333,0.333,0.333,1,0.333,0.333,0.333,1","1",""
"","html-keyboard-response","139","85144","0.0-139.0","33M4IA01QHN7BB7LV4C4I2D9MLCRXQ","AFEPFMO9863WA","3JUDR1D0D6D4CARU3YX9Y3DK5DJ2QK","","null","<img src=""img/flower5.png"" style=""width:200px;border:14px solid red;"">","null","","","","","","","","",""
"","image-keyboard-response","140","85211","0.0-140.0","33M4IA01QHN7BB7LV4C4I2D9MLCRXQ","AFEPFMO9863WA","3JUDR1D0D6D4CARU3YX9Y3DK5DJ2QK","","66.29999995231628","img/flower5.png","75","67.69999980926514","2","0","1","1","1,0.333,0.333,0.333,1,0.333,0.333,0.333,1","1,0.333,0.333,0.333,1,0.333,0.333,0.333,1","1",""
"","html-keyboard-response","141","85519","0.0-141.0","33M4IA01QHN7BB7LV4C4I2D9MLCRXQ","AFEPFMO9863WA","3JUDR1D0D6D4CARU3YX9Y3DK5DJ2QK","","null","<img src=""img/flower5.png"" style=""width:200px;border:14px solid red;"">","null","","","","","","","","",""
"","image-keyboard-response","142","86013","0.0-142.0","33M4IA01QHN7BB7LV4C4I2D9MLCRXQ","AFEPFMO9863WA","3JUDR1D0D6D4CARU3YX9Y3DK5DJ2QK","","492.40000009536743","img/flower1.png","74","493.59999990463257","1","1","3","1","1,0.333,0.333,0.333,1,0.333,0.333,0.333,1","1,0.333,0.333,0.333,1,0.333,0.333,0.333,1","1",""
"","html-keyboard-response","143","86319","0.0-143.0","33M4IA01QHN7BB7LV4C4I2D9MLCRXQ","AFEPFMO9863WA","3JUDR1D0D6D4CARU3YX9Y3DK5DJ2QK","","null","<img src=""img/flower1.png"" style=""width:200px; border:14px solid green;"">","null","","","","","","","","",""
"","image-keyboard-response","144","86542","0.0-144.0","33M4IA01QHN7BB7LV4C4I2D9MLCRXQ","AFEPFMO9863WA","3JUDR1D0D6D4CARU3YX9Y3DK5DJ2QK","","221.19999980926514","img/flower3.png","74","222.30000019073486","1","0","2","1","1,0.333,0.333,0.333,1,0.333,0.333,0.333,1","1,0.333,0.333,0.333,1,0.333,0.333,0.333,1","1",""
"","html-keyboard-response","145","86847","0.0-145.0","33M4IA01QHN7BB7LV4C4I2D9MLCRXQ","AFEPFMO9863WA","3JUDR1D0D6D4CARU3YX9Y3DK5DJ2QK","","null","<img src=""img/flower3.png"" style=""width:200px;border:14px solid red;"">","null","","","","","","","","",""
"","image-keyboard-response","146","87145","0.0-146.0","33M4IA01QHN7BB7LV4C4I2D9MLCRXQ","AFEPFMO9863WA","3JUDR1D0D6D4CARU3YX9Y3DK5DJ2QK","","295.7999999523163","img/flower3.png","76","297","3","0","2","1","1,0.333,0.333,0.333,1,0.333,0.333,0.333,1","1,0.333,0.333,0.333,1,0.333,0.333,0.333,1","1",""
"","html-keyboard-response","147","87448","0.0-147.0","33M4IA01QHN7BB7LV4C4I2D9MLCRXQ","AFEPFMO9863WA","3JUDR1D0D6D4CARU3YX9Y3DK5DJ2QK","","null","<img src=""img/flower3.png"" style=""width:200px;border:14px solid red;"">","null","","","","","","","","",""
"","image-keyboard-response","148","87626","0.0-148.0","33M4IA01QHN7BB7LV4C4I2D9MLCRXQ","AFEPFMO9863WA","3JUDR1D0D6D4CARU3YX9Y3DK5DJ2QK","","176.30000019073486","img/flower3.png","75","177.5","2","1","2","1","1,0.333,0.333,0.333,1,0.333,0.333,0.333,1","1,0.333,0.333,0.333,1,0.333,0.333,0.333,1","1",""
"","html-keyboard-response","149","87927","0.0-149.0","33M4IA01QHN7BB7LV4C4I2D9MLCRXQ","AFEPFMO9863WA","3JUDR1D0D6D4CARU3YX9Y3DK5DJ2QK","","null","<img src=""img/flower3.png"" style=""width:200px; border:14px solid green;"">","null","","","","","","","","",""
"","image-keyboard-response","150","87947","0.0-150.0","33M4IA01QHN7BB7LV4C4I2D9MLCRXQ","AFEPFMO9863WA","3JUDR1D0D6D4CARU3YX9Y3DK5DJ2QK","","18.199999809265137","img/flower1.png","76","19.399999856948853","3","1","3","1","1,0.333,0.333,0.333,1,0.333,0.333,0.333,1","1,0.333,0.333,0.333,1,0.333,0.333,0.333,1","1",""
"","html-keyboard-response","151","88256","0.0-151.0","33M4IA01QHN7BB7LV4C4I2D9MLCRXQ","AFEPFMO9863WA","3JUDR1D0D6D4CARU3YX9Y3DK5DJ2QK","","null","<img src=""img/flower1.png"" style=""width:200px; border:14px solid green;"">","null","","","","","","","","",""
"","image-keyboard-response","152","88487","0.0-152.0","33M4IA01QHN7BB7LV4C4I2D9MLCRXQ","AFEPFMO9863WA","3JUDR1D0D6D4CARU3YX9Y3DK5DJ2QK","","227.5","img/flower5.png","76","229.5","3","0","1","1","1,0.333,0.333,0.333,1,0.333,0.333,0.333,1","1,0.333,0.333,0.333,1,0.333,0.333,0.333,1","1",""
"","html-keyboard-response","153","88792","0.0-153.0","33M4IA01QHN7BB7LV4C4I2D9MLCRXQ","AFEPFMO9863WA","3JUDR1D0D6D4CARU3YX9Y3DK5DJ2QK","","null","<img src=""img/flower5.png"" style=""width:200px;border:14px solid red;"">","null","","","","","","","","",""
"","image-keyboard-response","154","88999","0.0-154.0","33M4IA01QHN7BB7LV4C4I2D9MLCRXQ","AFEPFMO9863WA","3JUDR1D0D6D4CARU3YX9Y3DK5DJ2QK","","205.20000004768372","img/flower5.png","76","206.90000009536743","3","1","1","1","1,0.333,0.333,0.333,1,0.333,0.333,0.333,1","1,0.333,0.333,0.333,1,0.333,0.333,0.333,1","1",""
"","html-keyboard-response","155","89304","0.0-155.0","33M4IA01QHN7BB7LV4C4I2D9MLCRXQ","AFEPFMO9863WA","3JUDR1D0D6D4CARU3YX9Y3DK5DJ2QK","","null","<img src=""img/flower5.png"" style=""width:200px; border:14px solid green;"">","null","","","","","","","","",""
"","image-keyboard-response","156","89371","0.0-156.0","33M4IA01QHN7BB7LV4C4I2D9MLCRXQ","AFEPFMO9863WA","3JUDR1D0D6D4CARU3YX9Y3DK5DJ2QK","","66","img/flower5.png","75","67.29999995231628","2","1","1","1","1,0.333,0.333,0.333,1,0.333,0.333,0.333,1","1,0.333,0.333,0.333,1,0.333,0.333,0.333,1","1",""
"","html-keyboard-response","157","89679","0.0-157.0","33M4IA01QHN7BB7LV4C4I2D9MLCRXQ","AFEPFMO9863WA","3JUDR1D0D6D4CARU3YX9Y3DK5DJ2QK","","null","<img src=""img/flower5.png"" style=""width:200px; border:14px solid green;"">","null","","","","","","","","",""
"","image-keyboard-response","158","90003","0.0-158.0","33M4IA01QHN7BB7LV4C4I2D9MLCRXQ","AFEPFMO9863WA","3JUDR1D0D6D4CARU3YX9Y3DK5DJ2QK","","321.80000019073486","img/flower1.png","75","323","2","0","3","1","1,0.333,0.333,0.333,1,0.333,0.333,0.333,1","1,0.333,0.333,0.333,1,0.333,0.333,0.333,1","1",""
"","html-keyboard-response","159","90311","0.0-159.0","33M4IA01QHN7BB7LV4C4I2D9MLCRXQ","AFEPFMO9863WA","3JUDR1D0D6D4CARU3YX9Y3DK5DJ2QK","","null","<img src=""img/flower1.png"" style=""width:200px;border:14px solid red;"">","null","","","","","","","","",""
"","image-keyboard-response","160","90628","0.0-160.0","33M4IA01QHN7BB7LV4C4I2D9MLCRXQ","AFEPFMO9863WA","3JUDR1D0D6D4CARU3YX9Y3DK5DJ2QK","","314.2999999523163","img/flower3.png","75","315.60000014305115","2","1","2","1","1,0.333,0.333,0.333,1,0.333,0.333,0.333,1","1,0.333,0.333,0.333,1,0.333,0.333,0.333,1","1",""
"","html-keyboard-response","161","90935","0.0-161.0","33M4IA01QHN7BB7LV4C4I2D9MLCRXQ","AFEPFMO9863WA","3JUDR1D0D6D4CARU3YX9Y3DK5DJ2QK","","null","<img src=""img/flower3.png"" style=""width:200px; border:14px solid green;"">","null","","","","","","","","",""
"","image-keyboard-response","162","91090","0.0-162.0","33M4IA01QHN7BB7LV4C4I2D9MLCRXQ","AFEPFMO9863WA","3JUDR1D0D6D4CARU3YX9Y3DK5DJ2QK","","152","img/flower1.png","75","155","2","0","3","1","1,0.333,0.333,0.333,1,0.333,0.333,0.333,1","1,0.333,0.333,0.333,1,0.333,0.333,0.333,1","1",""
"","html-keyboard-response","163","91399","0.0-163.0","33M4IA01QHN7BB7LV4C4I2D9MLCRXQ","AFEPFMO9863WA","3JUDR1D0D6D4CARU3YX9Y3DK5DJ2QK","","null","<img src=""img/flower1.png"" style=""width:200px;border:14px solid red;"">","null","","","","","","","","",""
"","image-keyboard-response","164","91552","0.0-164.0","33M4IA01QHN7BB7LV4C4I2D9MLCRXQ","AFEPFMO9863WA","3JUDR1D0D6D4CARU3YX9Y3DK5DJ2QK","","151.70000004768372","img/flower3.png","75","152.79999995231628","2","1","2","1","1,0.333,0.333,0.333,1,0.333,0.333,0.333,1","1,0.333,0.333,0.333,1,0.333,0.333,0.333,1","1",""
"","html-keyboard-response","165","91856","0.0-165.0","33M4IA01QHN7BB7LV4C4I2D9MLCRXQ","AFEPFMO9863WA","3JUDR1D0D6D4CARU3YX9Y3DK5DJ2QK","","null","<img src=""img/flower3.png"" style=""width:200px; border:14px solid green;"">","null","","","","","","","","",""
"","image-keyboard-response","166","92029","0.0-166.0","33M4IA01QHN7BB7LV4C4I2D9MLCRXQ","AFEPFMO9863WA","3JUDR1D0D6D4CARU3YX9Y3DK5DJ2QK","","171.5","img/flower1.png","76","173","3","1","3","1","1,0.333,0.333,0.333,1,0.333,0.333,0.333,1","1,0.333,0.333,0.333,1,0.333,0.333,0.333,1","1",""
"","html-keyboard-response","167","92335","0.0-167.0","33M4IA01QHN7BB7LV4C4I2D9MLCRXQ","AFEPFMO9863WA","3JUDR1D0D6D4CARU3YX9Y3DK5DJ2QK","","null","<img src=""img/flower1.png"" style=""width:200px; border:14px solid green;"">","null","","","","","","","","",""
"","image-keyboard-response","168","92479","0.0-168.0","33M4IA01QHN7BB7LV4C4I2D9MLCRXQ","AFEPFMO9863WA","3JUDR1D0D6D4CARU3YX9Y3DK5DJ2QK","","142.70000004768372","img/flower5.png","75","143.89999985694885","2","1","1","1","1,0.333,0.333,0.333,1,0.333,0.333,0.333,1","1,0.333,0.333,0.333,1,0.333,0.333,0.333,1","1",""
"","html-keyboard-response","169","92783","0.0-169.0","33M4IA01QHN7BB7LV4C4I2D9MLCRXQ","AFEPFMO9863WA","3JUDR1D0D6D4CARU3YX9Y3DK5DJ2QK","","null","<img src=""img/flower5.png"" style=""width:200px; border:14px solid green;"">","null","","","","","","","","",""
"","image-keyboard-response","170","92826","0.0-170.0","33M4IA01QHN7BB7LV4C4I2D9MLCRXQ","AFEPFMO9863WA","3JUDR1D0D6D4CARU3YX9Y3DK5DJ2QK","","41.200000047683716","img/flower1.png","74","42.60000014305115","1","1","3","1","1,0.333,0.333,0.333,1,0.333,0.333,0.333,1","1,0.333,0.333,0.333,1,0.333,0.333,0.333,1","1",""
"","html-keyboard-response","171","93131","0.0-171.0","33M4IA01QHN7BB7LV4C4I2D9MLCRXQ","AFEPFMO9863WA","3JUDR1D0D6D4CARU3YX9Y3DK5DJ2QK","","null","<img src=""img/flower1.png"" style=""width:200px; border:14px solid green;"">","null","","","","","","","","",""
"","image-keyboard-response","172","93403","0.0-172.0","33M4IA01QHN7BB7LV4C4I2D9MLCRXQ","AFEPFMO9863WA","3JUDR1D0D6D4CARU3YX9Y3DK5DJ2QK","","270.5","img/flower5.png","75","272","2","0","1","1","1,0.333,0.333,0.333,1,0.333,0.333,0.333,1","1,0.333,0.333,0.333,1,0.333,0.333,0.333,1","1",""
"","html-keyboard-response","173","93711","0.0-173.0","33M4IA01QHN7BB7LV4C4I2D9MLCRXQ","AFEPFMO9863WA","3JUDR1D0D6D4CARU3YX9Y3DK5DJ2QK","","null","<img src=""img/flower5.png"" style=""width:200px;border:14px solid red;"">","null","","","","","","","","",""
"","image-keyboard-response","174","94074","0.0-174.0","33M4IA01QHN7BB7LV4C4I2D9MLCRXQ","AFEPFMO9863WA","3JUDR1D0D6D4CARU3YX9Y3DK5DJ2QK","","361.2999999523163","img/flower5.png","74","362.5","1","1","1","1","1,0.333,0.333,0.333,1,0.333,0.333,0.333,1","1,0.333,0.333,0.333,1,0.333,0.333,0.333,1","1",""
"","html-keyboard-response","175","94383","0.0-175.0","33M4IA01QHN7BB7LV4C4I2D9MLCRXQ","AFEPFMO9863WA","3JUDR1D0D6D4CARU3YX9Y3DK5DJ2QK","","null","<img src=""img/flower5.png"" style=""width:200px; border:14px solid green;"">","null","","","","","","","","",""
"","image-keyboard-response","176","94437","0.0-176.0","33M4IA01QHN7BB7LV4C4I2D9MLCRXQ","AFEPFMO9863WA","3JUDR1D0D6D4CARU3YX9Y3DK5DJ2QK","","52.299999952316284","img/flower1.png","76","53.60000014305115","3","1","3","1","1,0.333,0.333,0.333,1,0.333,0.333,0.333,1","1,0.333,0.333,0.333,1,0.333,0.333,0.333,1","1",""
"","html-keyboard-response","177","94744","0.0-177.0","33M4IA01QHN7BB7LV4C4I2D9MLCRXQ","AFEPFMO9863WA","3JUDR1D0D6D4CARU3YX9Y3DK5DJ2QK","","null","<img src=""img/flower1.png"" style=""width:200px; border:14px solid green;"">","null","","","","","","","","",""
"","image-keyboard-response","178","95099","0.0-178.0","33M4IA01QHN7BB7LV4C4I2D9MLCRXQ","AFEPFMO9863WA","3JUDR1D0D6D4CARU3YX9Y3DK5DJ2QK","","353.39999985694885","img/flower3.png","74","354.7000000476837","1","0","2","1","1,0.333,0.333,0.333,1,0.333,0.333,0.333,1","1,0.333,0.333,0.333,1,0.333,0.333,0.333,1","1",""
"","html-keyboard-response","179","95408","0.0-179.0","33M4IA01QHN7BB7LV4C4I2D9MLCRXQ","AFEPFMO9863WA","3JUDR1D0D6D4CARU3YX9Y3DK5DJ2QK","","null","<img src=""img/flower3.png"" style=""width:200px;border:14px solid red;"">","null","","","","","","","","",""
"","image-keyboard-response","180","95512","0.0-180.0","33M4IA01QHN7BB7LV4C4I2D9MLCRXQ","AFEPFMO9863WA","3JUDR1D0D6D4CARU3YX9Y3DK5DJ2QK","","102.09999990463257","img/flower5.png","75","103.70000004768372","2","0","1","1","1,0.333,0.333,0.333,1,0.333,0.333,0.333,1","1,0.333,0.333,0.333,1,0.333,0.333,0.333,1","1",""
"","html-keyboard-response","181","95816","0.0-181.0","33M4IA01QHN7BB7LV4C4I2D9MLCRXQ","AFEPFMO9863WA","3JUDR1D0D6D4CARU3YX9Y3DK5DJ2QK","","null","<img src=""img/flower5.png"" style=""width:200px;border:14px solid red;"">","null","","","","","","","","",""
"","html-keyboard-response","182","116831","0.0-182.0","33M4IA01QHN7BB7LV4C4I2D9MLCRXQ","AFEPFMO9863WA","3JUDR1D0D6D4CARU3YX9Y3DK5DJ2QK","","","","","","","","","","","","",""
"","image-keyboard-response","183","117162","0.0-183.0","33M4IA01QHN7BB7LV4C4I2D9MLCRXQ","AFEPFMO9863WA","3JUDR1D0D6D4CARU3YX9Y3DK5DJ2QK","","329","img/flower6.png","74","331","1","0","1","2","1,0,0,1,1,0,1,0,1","0,0,1,1,0,1,0,1,1","2",""
"","html-keyboard-response","184","117472","0.0-184.0","33M4IA01QHN7BB7LV4C4I2D9MLCRXQ","AFEPFMO9863WA","3JUDR1D0D6D4CARU3YX9Y3DK5DJ2QK","","null","<img src=""img/flower6.png"" style=""width:200px;border:14px solid red;"">","null","","","","","","","","",""
"","image-keyboard-response","185","117735","0.0-185.0","33M4IA01QHN7BB7LV4C4I2D9MLCRXQ","AFEPFMO9863WA","3JUDR1D0D6D4CARU3YX9Y3DK5DJ2QK","","261.5","img/flower2.png","75","263.2999999523163","2","0","2","2","1,0,0,1,1,0,1,0,1","0,0,1,1,0,1,0,1,1","2",""
"","html-keyboard-response","186","118040","0.0-186.0","33M4IA01QHN7BB7LV4C4I2D9MLCRXQ","AFEPFMO9863WA","3JUDR1D0D6D4CARU3YX9Y3DK5DJ2QK","","null","<img src=""img/flower2.png"" style=""width:200px;border:14px solid red;"">","null","","","","","","","","",""
"","image-keyboard-response","187","118324","0.0-187.0","33M4IA01QHN7BB7LV4C4I2D9MLCRXQ","AFEPFMO9863WA","3JUDR1D0D6D4CARU3YX9Y3DK5DJ2QK","","282.40000009536743","img/flower2.png","76","283.80000019073486","3","1","2","2","1,0,0,1,1,0,1,0,1","0,0,1,1,0,1,0,1,1","2",""
"","html-keyboard-response","188","118631","0.0-188.0","33M4IA01QHN7BB7LV4C4I2D9MLCRXQ","AFEPFMO9863WA","3JUDR1D0D6D4CARU3YX9Y3DK5DJ2QK","","null","<img src=""img/flower2.png"" style=""width:200px; border:14px solid green;"">","null","","","","","","","","",""
"","image-keyboard-response","189","118721","0.0-189.0","33M4IA01QHN7BB7LV4C4I2D9MLCRXQ","AFEPFMO9863WA","3JUDR1D0D6D4CARU3YX9Y3DK5DJ2QK","","88.20000004768372","img/flower6.png","74","89.79999995231628","1","0","1","2","1,0,0,1,1,0,1,0,1","0,0,1,1,0,1,0,1,1","2",""
"","html-keyboard-response","190","119023","0.0-190.0","33M4IA01QHN7BB7LV4C4I2D9MLCRXQ","AFEPFMO9863WA","3JUDR1D0D6D4CARU3YX9Y3DK5DJ2QK","","null","<img src=""img/flower6.png"" style=""width:200px;border:14px solid red;"">","null","","","","","","","","",""
"","image-keyboard-response","191","119057","0.0-191.0","33M4IA01QHN7BB7LV4C4I2D9MLCRXQ","AFEPFMO9863WA","3JUDR1D0D6D4CARU3YX9Y3DK5DJ2QK","","32.5","img/flower2.png","74","33.799999952316284","1","1","2","2","1,0,0,1,1,0,1,0,1","0,0,1,1,0,1,0,1,1","2",""
"","html-keyboard-response","192","119359","0.0-192.0","33M4IA01QHN7BB7LV4C4I2D9MLCRXQ","AFEPFMO9863WA","3JUDR1D0D6D4CARU3YX9Y3DK5DJ2QK","","null","<img src=""img/flower2.png"" style=""width:200px; border:14px solid green;"">","null","","","","","","","","",""
"","image-keyboard-response","193","119397","0.0-193.0","33M4IA01QHN7BB7LV4C4I2D9MLCRXQ","AFEPFMO9863WA","3JUDR1D0D6D4CARU3YX9Y3DK5DJ2QK","","36.299999952316284","img/flower4.png","75","37.5","2","1","3","2","1,0,0,1,1,0,1,0,1","0,0,1,1,0,1,0,1,1","2",""
"","html-keyboard-response","194","119703","0.0-194.0","33M4IA01QHN7BB7LV4C4I2D9MLCRXQ","AFEPFMO9863WA","3JUDR1D0D6D4CARU3YX9Y3DK5DJ2QK","","null","<img src=""img/flower4.png"" style=""width:200px; border:14px solid green;"">","null","","","","","","","","",""
"","image-keyboard-response","195","119782","0.0-195.0","33M4IA01QHN7BB7LV4C4I2D9MLCRXQ","AFEPFMO9863WA","3JUDR1D0D6D4CARU3YX9Y3DK5DJ2QK","","75.89999985694885","img/flower2.png","75","77.90000009536743","2","0","2","2","1,0,0,1,1,0,1,0,1","0,0,1,1,0,1,0,1,1","2",""
"","html-keyboard-response","196","120088","0.0-196.0","33M4IA01QHN7BB7LV4C4I2D9MLCRXQ","AFEPFMO9863WA","3JUDR1D0D6D4CARU3YX9Y3DK5DJ2QK","","null","<img src=""img/flower2.png"" style=""width:200px;border:14px solid red;"">","null","","","","","","","","",""
"","image-keyboard-response","197","120095","0.0-197.0","33M4IA01QHN7BB7LV4C4I2D9MLCRXQ","AFEPFMO9863WA","3JUDR1D0D6D4CARU3YX9Y3DK5DJ2QK","","6.099999904632568","img/flower4.png","76","7.5","3","1","3","2","1,0,0,1,1,0,1,0,1","0,0,1,1,0,1,0,1,1","2",""
"","html-keyboard-response","198","120400","0.0-198.0","33M4IA01QHN7BB7LV4C4I2D9MLCRXQ","AFEPFMO9863WA","3JUDR1D0D6D4CARU3YX9Y3DK5DJ2QK","","null","<img src=""img/flower4.png"" style=""width:200px; border:14px solid green;"">","null","","","","","","","","",""
"","image-keyboard-response","199","120490","0.0-199.0","33M4IA01QHN7BB7LV4C4I2D9MLCRXQ","AFEPFMO9863WA","3JUDR1D0D6D4CARU3YX9Y3DK5DJ2QK","","88.29999995231628","img/flower4.png","74","89.80000019073486","1","0","3","2","1,0,0,1,1,0,1,0,1","0,0,1,1,0,1,0,1,1","2",""
"","html-keyboard-response","200","120799","0.0-200.0","33M4IA01QHN7BB7LV4C4I2D9MLCRXQ","AFEPFMO9863WA","3JUDR1D0D6D4CARU3YX9Y3DK5DJ2QK","","null","<img src=""img/flower4.png"" style=""width:200px;border:14px solid red;"">","null","","","","","","","","",""
"","image-keyboard-response","201","121130","0.0-201.0","33M4IA01QHN7BB7LV4C4I2D9MLCRXQ","AFEPFMO9863WA","3JUDR1D0D6D4CARU3YX9Y3DK5DJ2QK","","329.19999980926514","img/flower6.png","76","330.2999999523163","3","1","1","2","1,0,0,1,1,0,1,0,1","0,0,1,1,0,1,0,1,1","2",""
"","html-keyboard-response","202","121442","0.0-202.0","33M4IA01QHN7BB7LV4C4I2D9MLCRXQ","AFEPFMO9863WA","3JUDR1D0D6D4CARU3YX9Y3DK5DJ2QK","","null","<img src=""img/flower6.png"" style=""width:200px; border:14px solid green;"">","null","","","","","","","","",""
"","image-keyboard-response","203","121474","0.0-203.0","33M4IA01QHN7BB7LV4C4I2D9MLCRXQ","AFEPFMO9863WA","3JUDR1D0D6D4CARU3YX9Y3DK5DJ2QK","","30.40000009536743","img/flower2.png","75","31.59999990463257","2","0","2","2","1,0,0,1,1,0,1,0,1","0,0,1,1,0,1,0,1,1","2",""
"","html-keyboard-response","204","121784","0.0-204.0","33M4IA01QHN7BB7LV4C4I2D9MLCRXQ","AFEPFMO9863WA","3JUDR1D0D6D4CARU3YX9Y3DK5DJ2QK","","null","<img src=""img/flower2.png"" style=""width:200px;border:14px solid red;"">","null","","","","","","","","",""
"","image-keyboard-response","205","121794","0.0-205.0","33M4IA01QHN7BB7LV4C4I2D9MLCRXQ","AFEPFMO9863WA","3JUDR1D0D6D4CARU3YX9Y3DK5DJ2QK","","8.900000095367432","img/flower4.png","75","10","2","1","3","2","1,0,0,1,1,0,1,0,1","0,0,1,1,0,1,0,1,1","2",""
"","html-keyboard-response","206","122103","0.0-206.0","33M4IA01QHN7BB7LV4C4I2D9MLCRXQ","AFEPFMO9863WA","3JUDR1D0D6D4CARU3YX9Y3DK5DJ2QK","","null","<img src=""img/flower4.png"" style=""width:200px; border:14px solid green;"">","null","","","","","","","","",""
"","image-keyboard-response","207","122179","0.0-207.0","33M4IA01QHN7BB7LV4C4I2D9MLCRXQ","AFEPFMO9863WA","3JUDR1D0D6D4CARU3YX9Y3DK5DJ2QK","","74.19999980926514","img/flower6.png","74","75.40000009536743","1","0","1","2","1,0,0,1,1,0,1,0,1","0,0,1,1,0,1,0,1,1","2",""
"","html-keyboard-response","208","122488","0.0-208.0","33M4IA01QHN7BB7LV4C4I2D9MLCRXQ","AFEPFMO9863WA","3JUDR1D0D6D4CARU3YX9Y3DK5DJ2QK","","null","<img src=""img/flower6.png"" style=""width:200px;border:14px solid red;"">","null","","","","","","","","",""
"","image-keyboard-response","209","122602","0.0-209.0","33M4IA01QHN7BB7LV4C4I2D9MLCRXQ","AFEPFMO9863WA","3JUDR1D0D6D4CARU3YX9Y3DK5DJ2QK","","112.29999995231628","img/flower6.png","74","114.20000004768372","1","0","1","2","1,0,0,1,1,0,1,0,1","0,0,1,1,0,1,0,1,1","2",""
"","html-keyboard-response","210","122912","0.0-210.0","33M4IA01QHN7BB7LV4C4I2D9MLCRXQ","AFEPFMO9863WA","3JUDR1D0D6D4CARU3YX9Y3DK5DJ2QK","","null","<img src=""img/flower6.png"" style=""width:200px;border:14px solid red;"">","null","","","","","","","","",""
"","image-keyboard-response","211","122950","0.0-211.0","33M4IA01QHN7BB7LV4C4I2D9MLCRXQ","AFEPFMO9863WA","3JUDR1D0D6D4CARU3YX9Y3DK5DJ2QK","","37.10000014305115","img/flower2.png","76","38.69999980926514","3","1","2","2","1,0,0,1,1,0,1,0,1","0,0,1,1,0,1,0,1,1","2",""
"","html-keyboard-response","212","123256","0.0-212.0","33M4IA01QHN7BB7LV4C4I2D9MLCRXQ","AFEPFMO9863WA","3JUDR1D0D6D4CARU3YX9Y3DK5DJ2QK","","null","<img src=""img/flower2.png"" style=""width:200px; border:14px solid green;"">","null","","","","","","","","",""
"","image-keyboard-response","213","123335","0.0-213.0","33M4IA01QHN7BB7LV4C4I2D9MLCRXQ","AFEPFMO9863WA","3JUDR1D0D6D4CARU3YX9Y3DK5DJ2QK","","77.29999995231628","img/flower4.png","76","78.90000009536743","3","1","3","2","1,0,0,1,1,0,1,0,1","0,0,1,1,0,1,0,1,1","2",""
"","html-keyboard-response","214","123639","0.0-214.0","33M4IA01QHN7BB7LV4C4I2D9MLCRXQ","AFEPFMO9863WA","3JUDR1D0D6D4CARU3YX9Y3DK5DJ2QK","","null","<img src=""img/flower4.png"" style=""width:200px; border:14px solid green;"">","null","","","","","","","","",""
"","image-keyboard-response","215","123724","0.0-215.0","33M4IA01QHN7BB7LV4C4I2D9MLCRXQ","AFEPFMO9863WA","3JUDR1D0D6D4CARU3YX9Y3DK5DJ2QK","","83.20000004768372","img/flower4.png","74","84.59999990463257","1","0","3","2","1,0,0,1,1,0,1,0,1","0,0,1,1,0,1,0,1,1","2",""
"","html-keyboard-response","216","124032","0.0-216.0","33M4IA01QHN7BB7LV4C4I2D9MLCRXQ","AFEPFMO9863WA","3JUDR1D0D6D4CARU3YX9Y3DK5DJ2QK","","null","<img src=""img/flower4.png"" style=""width:200px;border:14px solid red;"">","null","","","","","","","","",""
"","image-keyboard-response","217","124062","0.0-217.0","33M4IA01QHN7BB7LV4C4I2D9MLCRXQ","AFEPFMO9863WA","3JUDR1D0D6D4CARU3YX9Y3DK5DJ2QK","","28.5","img/flower4.png","76","30.09999990463257","3","1","3","2","1,0,0,1,1,0,1,0,1","0,0,1,1,0,1,0,1,1","2",""
"","html-keyboard-response","218","124368","0.0-218.0","33M4IA01QHN7BB7LV4C4I2D9MLCRXQ","AFEPFMO9863WA","3JUDR1D0D6D4CARU3YX9Y3DK5DJ2QK","","null","<img src=""img/flower4.png"" style=""width:200px; border:14px solid green;"">","null","","","","","","","","",""
"","image-keyboard-response","219","124428","0.0-219.0","33M4IA01QHN7BB7LV4C4I2D9MLCRXQ","AFEPFMO9863WA","3JUDR1D0D6D4CARU3YX9Y3DK5DJ2QK","","58.5","img/flower2.png","74","59.90000009536743","1","1","2","2","1,0,0,1,1,0,1,0,1","0,0,1,1,0,1,0,1,1","2",""
"","html-keyboard-response","220","124735","0.0-220.0","33M4IA01QHN7BB7LV4C4I2D9MLCRXQ","AFEPFMO9863WA","3JUDR1D0D6D4CARU3YX9Y3DK5DJ2QK","","null","<img src=""img/flower2.png"" style=""width:200px; border:14px solid green;"">","null","","","","","","","","",""
"","image-keyboard-response","221","124780","0.0-221.0","33M4IA01QHN7BB7LV4C4I2D9MLCRXQ","AFEPFMO9863WA","3JUDR1D0D6D4CARU3YX9Y3DK5DJ2QK","","43.40000009536743","img/flower2.png","76","45","3","1","2","2","1,0,0,1,1,0,1,0,1","0,0,1,1,0,1,0,1,1","2",""
"","html-keyboard-response","222","125088","0.0-222.0","33M4IA01QHN7BB7LV4C4I2D9MLCRXQ","AFEPFMO9863WA","3JUDR1D0D6D4CARU3YX9Y3DK5DJ2QK","","null","<img src=""img/flower2.png"" style=""width:200px; border:14px solid green;"">","null","","","","","","","","",""
"","image-keyboard-response","223","125161","0.0-223.0","33M4IA01QHN7BB7LV4C4I2D9MLCRXQ","AFEPFMO9863WA","3JUDR1D0D6D4CARU3YX9Y3DK5DJ2QK","","71.59999990463257","img/flower6.png","74","73","1","0","1","2","1,0,0,1,1,0,1,0,1","0,0,1,1,0,1,0,1,1","2",""
"","html-keyboard-response","224","125463","0.0-224.0","33M4IA01QHN7BB7LV4C4I2D9MLCRXQ","AFEPFMO9863WA","3JUDR1D0D6D4CARU3YX9Y3DK5DJ2QK","","null","<img src=""img/flower6.png"" style=""width:200px;border:14px solid red;"">","null","","","","","","","","",""
"","image-keyboard-response","225","125533","0.0-225.0","33M4IA01QHN7BB7LV4C4I2D9MLCRXQ","AFEPFMO9863WA","3JUDR1D0D6D4CARU3YX9Y3DK5DJ2QK","","68.19999980926514","img/flower4.png","75","69.60000014305115","2","1","3","2","1,0,0,1,1,0,1,0,1","0,0,1,1,0,1,0,1,1","2",""
"","html-keyboard-response","226","125840","0.0-226.0","33M4IA01QHN7BB7LV4C4I2D9MLCRXQ","AFEPFMO9863WA","3JUDR1D0D6D4CARU3YX9Y3DK5DJ2QK","","null","<img src=""img/flower4.png"" style=""width:200px; border:14px solid green;"">","null","","","","","","","","",""
"","image-keyboard-response","227","125911","0.0-227.0","33M4IA01QHN7BB7LV4C4I2D9MLCRXQ","AFEPFMO9863WA","3JUDR1D0D6D4CARU3YX9Y3DK5DJ2QK","","69.5","img/flower2.png","74","71.29999995231628","1","1","2","2","1,0,0,1,1,0,1,0,1","0,0,1,1,0,1,0,1,1","2",""
"","html-keyboard-response","228","126215","0.0-228.0","33M4IA01QHN7BB7LV4C4I2D9MLCRXQ","AFEPFMO9863WA","3JUDR1D0D6D4CARU3YX9Y3DK5DJ2QK","","null","<img src=""img/flower2.png"" style=""width:200px; border:14px solid green;"">","null","","","","","","","","",""
"","image-keyboard-response","229","126241","0.0-229.0","33M4IA01QHN7BB7LV4C4I2D9MLCRXQ","AFEPFMO9863WA","3JUDR1D0D6D4CARU3YX9Y3DK5DJ2QK","","24.399999856948853","img/flower6.png","75","25.700000047683716","2","0","1","2","1,0,0,1,1,0,1,0,1","0,0,1,1,0,1,0,1,1","2",""
"","html-keyboard-response","230","126552","0.0-230.0","33M4IA01QHN7BB7LV4C4I2D9MLCRXQ","AFEPFMO9863WA","3JUDR1D0D6D4CARU3YX9Y3DK5DJ2QK","","null","<img src=""img/flower6.png"" style=""width:200px;border:14px solid red;"">","null","","","","","","","","",""
"","image-keyboard-response","231","126596","0.0-231.0","33M4IA01QHN7BB7LV4C4I2D9MLCRXQ","AFEPFMO9863WA","3JUDR1D0D6D4CARU3YX9Y3DK5DJ2QK","","42.60000014305115","img/flower6.png","74","44.200000047683716","1","0","1","2","1,0,0,1,1,0,1,0,1","0,0,1,1,0,1,0,1,1","2",""
"","html-keyboard-response","232","126904","0.0-232.0","33M4IA01QHN7BB7LV4C4I2D9MLCRXQ","AFEPFMO9863WA","3JUDR1D0D6D4CARU3YX9Y3DK5DJ2QK","","null","<img src=""img/flower6.png"" style=""width:200px;border:14px solid red;"">","null","","","","","","","","",""
"","image-keyboard-response","233","126980","0.0-233.0","33M4IA01QHN7BB7LV4C4I2D9MLCRXQ","AFEPFMO9863WA","3JUDR1D0D6D4CARU3YX9Y3DK5DJ2QK","","74.90000009536743","img/flower6.png","76","76.29999995231628","3","1","1","2","1,0,0,1,1,0,1,0,1","0,0,1,1,0,1,0,1,1","2",""
"","html-keyboard-response","234","127288","0.0-234.0","33M4IA01QHN7BB7LV4C4I2D9MLCRXQ","AFEPFMO9863WA","3JUDR1D0D6D4CARU3YX9Y3DK5DJ2QK","","null","<img src=""img/flower6.png"" style=""width:200px; border:14px solid green;"">","null","","","","","","","","",""
"","image-keyboard-response","235","127306","0.0-235.0","33M4IA01QHN7BB7LV4C4I2D9MLCRXQ","AFEPFMO9863WA","3JUDR1D0D6D4CARU3YX9Y3DK5DJ2QK","","17.200000047683716","img/flower6.png","76","18.600000143051147","3","1","1","2","1,0,0,1,1,0,1,0,1","0,0,1,1,0,1,0,1,1","2",""
"","html-keyboard-response","236","127615","0.0-236.0","33M4IA01QHN7BB7LV4C4I2D9MLCRXQ","AFEPFMO9863WA","3JUDR1D0D6D4CARU3YX9Y3DK5DJ2QK","","null","<img src=""img/flower6.png"" style=""width:200px; border:14px solid green;"">","null","","","","","","","","",""
"","image-keyboard-response","237","127648","0.0-237.0","33M4IA01QHN7BB7LV4C4I2D9MLCRXQ","AFEPFMO9863WA","3JUDR1D0D6D4CARU3YX9Y3DK5DJ2QK","","30.700000047683716","img/flower6.png","76","32","3","1","1","2","1,0,0,1,1,0,1,0,1","0,0,1,1,0,1,0,1,1","2",""
"","html-keyboard-response","238","127951","0.0-238.0","33M4IA01QHN7BB7LV4C4I2D9MLCRXQ","AFEPFMO9863WA","3JUDR1D0D6D4CARU3YX9Y3DK5DJ2QK","","null","<img src=""img/flower6.png"" style=""width:200px; border:14px solid green;"">","null","","","","","","","","",""
"","image-keyboard-response","239","127990","0.0-239.0","33M4IA01QHN7BB7LV4C4I2D9MLCRXQ","AFEPFMO9863WA","3JUDR1D0D6D4CARU3YX9Y3DK5DJ2QK","","36.700000047683716","img/flower2.png","76","38.30000019073486","3","1","2","2","1,0,0,1,1,0,1,0,1","0,0,1,1,0,1,0,1,1","2",""
"","html-keyboard-response","240","128295","0.0-240.0","33M4IA01QHN7BB7LV4C4I2D9MLCRXQ","AFEPFMO9863WA","3JUDR1D0D6D4CARU3YX9Y3DK5DJ2QK","","null","<img src=""img/flower2.png"" style=""width:200px; border:14px solid green;"">","null","","","","","","","","",""
"","image-keyboard-response","241","128319","0.0-241.0","33M4IA01QHN7BB7LV4C4I2D9MLCRXQ","AFEPFMO9863WA","3JUDR1D0D6D4CARU3YX9Y3DK5DJ2QK","","22.200000047683716","img/flower2.png","75","23.700000047683716","2","0","2","2","1,0,0,1,1,0,1,0,1","0,0,1,1,0,1,0,1,1","2",""
"","html-keyboard-response","242","128623","0.0-242.0","33M4IA01QHN7BB7LV4C4I2D9MLCRXQ","AFEPFMO9863WA","3JUDR1D0D6D4CARU3YX9Y3DK5DJ2QK","","null","<img src=""img/flower2.png"" style=""width:200px;border:14px solid red;"">","null","","","","","","","","",""
"","image-keyboard-response","243","128638","0.0-243.0","33M4IA01QHN7BB7LV4C4I2D9MLCRXQ","AFEPFMO9863WA","3JUDR1D0D6D4CARU3YX9Y3DK5DJ2QK","","13.099999904632568","img/flower4.png","75","14.299999952316284","2","1","3","2","1,0,0,1,1,0,1,0,1","0,0,1,1,0,1,0,1,1","2",""
"","html-keyboard-response","244","128943","0.0-244.0","33M4IA01QHN7BB7LV4C4I2D9MLCRXQ","AFEPFMO9863WA","3JUDR1D0D6D4CARU3YX9Y3DK5DJ2QK","","null","<img src=""img/flower4.png"" style=""width:200px; border:14px solid green;"">","null","","","","","","","","",""
"","image-keyboard-response","245","128985","0.0-245.0","33M4IA01QHN7BB7LV4C4I2D9MLCRXQ","AFEPFMO9863WA","3JUDR1D0D6D4CARU3YX9Y3DK5DJ2QK","","40.200000047683716","img/flower4.png","75","41.5","2","1","3","2","1,0,0,1,1,0,1,0,1","0,0,1,1,0,1,0,1,1","2",""
"","html-keyboard-response","246","129288","0.0-246.0","33M4IA01QHN7BB7LV4C4I2D9MLCRXQ","AFEPFMO9863WA","3JUDR1D0D6D4CARU3YX9Y3DK5DJ2QK","","null","<img src=""img/flower4.png"" style=""width:200px; border:14px solid green;"">","null","","","","","","","","",""
"","image-keyboard-response","247","129307","0.0-247.0","33M4IA01QHN7BB7LV4C4I2D9MLCRXQ","AFEPFMO9863WA","3JUDR1D0D6D4CARU3YX9Y3DK5DJ2QK","","18.09999990463257","img/flower4.png","75","19.299999952316284","2","1","3","2","1,0,0,1,1,0,1,0,1","0,0,1,1,0,1,0,1,1","2",""
"","html-keyboard-response","248","129616","0.0-248.0","33M4IA01QHN7BB7LV4C4I2D9MLCRXQ","AFEPFMO9863WA","3JUDR1D0D6D4CARU3YX9Y3DK5DJ2QK","","null","<img src=""img/flower4.png"" style=""width:200px; border:14px solid green;"">","null","","","","","","","","",""
"","image-keyboard-response","249","129930","0.0-249.0","33M4IA01QHN7BB7LV4C4I2D9MLCRXQ","AFEPFMO9863WA","3JUDR1D0D6D4CARU3YX9Y3DK5DJ2QK","","313.2999999523163","img/flower6.png","76","314.39999985694885","3","1","1","2","1,0,0,1,1,0,1,0,1","0,0,1,1,0,1,0,1,1","2",""
"","html-keyboard-response","250","130239","0.0-250.0","33M4IA01QHN7BB7LV4C4I2D9MLCRXQ","AFEPFMO9863WA","3JUDR1D0D6D4CARU3YX9Y3DK5DJ2QK","","null","<img src=""img/flower6.png"" style=""width:200px; border:14px solid green;"">","null","","","","","","","","",""
"","image-keyboard-response","251","130308","0.0-251.0","33M4IA01QHN7BB7LV4C4I2D9MLCRXQ","AFEPFMO9863WA","3JUDR1D0D6D4CARU3YX9Y3DK5DJ2QK","","67","img/flower2.png","76","68.79999995231628","3","1","2","2","1,0,0,1,1,0,1,0,1","0,0,1,1,0,1,0,1,1","2",""
"","html-keyboard-response","252","130615","0.0-252.0","33M4IA01QHN7BB7LV4C4I2D9MLCRXQ","AFEPFMO9863WA","3JUDR1D0D6D4CARU3YX9Y3DK5DJ2QK","","null","<img src=""img/flower2.png"" style=""width:200px; border:14px solid green;"">","null","","","","","","","","",""
"","image-keyboard-response","253","130677","0.0-253.0","33M4IA01QHN7BB7LV4C4I2D9MLCRXQ","AFEPFMO9863WA","3JUDR1D0D6D4CARU3YX9Y3DK5DJ2QK","","59.90000009536743","img/flower2.png","75","61.59999990463257","2","0","2","2","1,0,0,1,1,0,1,0,1","0,0,1,1,0,1,0,1,1","2",""
"","html-keyboard-response","254","130983","0.0-254.0","33M4IA01QHN7BB7LV4C4I2D9MLCRXQ","AFEPFMO9863WA","3JUDR1D0D6D4CARU3YX9Y3DK5DJ2QK","","null","<img src=""img/flower2.png"" style=""width:200px;border:14px solid red;"">","null","","","","","","","","",""
"","image-keyboard-response","255","130991","0.0-255.0","33M4IA01QHN7BB7LV4C4I2D9MLCRXQ","AFEPFMO9863WA","3JUDR1D0D6D4CARU3YX9Y3DK5DJ2QK","","6","img/flower6.png","76","7.299999952316284","3","1","1","2","1,0,0,1,1,0,1,0,1","0,0,1,1,0,1,0,1,1","2",""
"","html-keyboard-response","256","131296","0.0-256.0","33M4IA01QHN7BB7LV4C4I2D9MLCRXQ","AFEPFMO9863WA","3JUDR1D0D6D4CARU3YX9Y3DK5DJ2QK","","null","<img src=""img/flower6.png"" style=""width:200px; border:14px solid green;"">","null","","","","","","","","",""
"","image-keyboard-response","257","131368","0.0-257.0","33M4IA01QHN7BB7LV4C4I2D9MLCRXQ","AFEPFMO9863WA","3JUDR1D0D6D4CARU3YX9Y3DK5DJ2QK","","71.09999990463257","img/flower4.png","76","72.40000009536743","3","1","3","2","1,0,0,1,1,0,1,0,1","0,0,1,1,0,1,0,1,1","2",""
"","html-keyboard-response","258","131672","0.0-258.0","33M4IA01QHN7BB7LV4C4I2D9MLCRXQ","AFEPFMO9863WA","3JUDR1D0D6D4CARU3YX9Y3DK5DJ2QK","","null","<img src=""img/flower4.png"" style=""width:200px; border:14px solid green;"">","null","","","","","","","","",""
"","image-keyboard-response","259","131771","0.0-259.0","33M4IA01QHN7BB7LV4C4I2D9MLCRXQ","AFEPFMO9863WA","3JUDR1D0D6D4CARU3YX9Y3DK5DJ2QK","","97.40000009536743","img/flower2.png","76","98.79999995231628","3","1","2","2","1,0,0,1,1,0,1,0,1","0,0,1,1,0,1,0,1,1","2",""
"","html-keyboard-response","260","132079","0.0-260.0","33M4IA01QHN7BB7LV4C4I2D9MLCRXQ","AFEPFMO9863WA","3JUDR1D0D6D4CARU3YX9Y3DK5DJ2QK","","null","<img src=""img/flower2.png"" style=""width:200px; border:14px solid green;"">","null","","","","","","","","",""
"","image-keyboard-response","261","132136","0.0-261.0","33M4IA01QHN7BB7LV4C4I2D9MLCRXQ","AFEPFMO9863WA","3JUDR1D0D6D4CARU3YX9Y3DK5DJ2QK","","55.40000009536743","img/flower6.png","75","56.90000009536743","2","0","1","2","1,0,0,1,1,0,1,0,1","0,0,1,1,0,1,0,1,1","2",""
"","html-keyboard-response","262","132439","0.0-262.0","33M4IA01QHN7BB7LV4C4I2D9MLCRXQ","AFEPFMO9863WA","3JUDR1D0D6D4CARU3YX9Y3DK5DJ2QK","","null","<img src=""img/flower6.png"" style=""width:200px;border:14px solid red;"">","null","","","","","","","","",""
"","image-keyboard-response","263","132469","0.0-263.0","33M4IA01QHN7BB7LV4C4I2D9MLCRXQ","AFEPFMO9863WA","3JUDR1D0D6D4CARU3YX9Y3DK5DJ2QK","","27.59999990463257","img/flower6.png","75","29.600000143051147","2","0","1","2","1,0,0,1,1,0,1,0,1","0,0,1,1,0,1,0,1,1","2",""
"","html-keyboard-response","264","132775","0.0-264.0","33M4IA01QHN7BB7LV4C4I2D9MLCRXQ","AFEPFMO9863WA","3JUDR1D0D6D4CARU3YX9Y3DK5DJ2QK","","null","<img src=""img/flower6.png"" style=""width:200px;border:14px solid red;"">","null","","","","","","","","",""
"","image-keyboard-response","265","132848","0.0-265.0","33M4IA01QHN7BB7LV4C4I2D9MLCRXQ","AFEPFMO9863WA","3JUDR1D0D6D4CARU3YX9Y3DK5DJ2QK","","71.20000004768372","img/flower2.png","75","72.60000014305115","2","0","2","2","1,0,0,1,1,0,1,0,1","0,0,1,1,0,1,0,1,1","2",""
"","html-keyboard-response","266","133152","0.0-266.0","33M4IA01QHN7BB7LV4C4I2D9MLCRXQ","AFEPFMO9863WA","3JUDR1D0D6D4CARU3YX9Y3DK5DJ2QK","","null","<img src=""img/flower2.png"" style=""width:200px;border:14px solid red;"">","null","","","","","","","","",""
"","image-keyboard-response","267","133461","0.0-267.0","33M4IA01QHN7BB7LV4C4I2D9MLCRXQ","AFEPFMO9863WA","3JUDR1D0D6D4CARU3YX9Y3DK5DJ2QK","","305.2999999523163","img/flower2.png","76","306.90000009536743","3","1","2","2","1,0,0,1,1,0,1,0,1","0,0,1,1,0,1,0,1,1","2",""
"","html-keyboard-response","268","133768","0.0-268.0","33M4IA01QHN7BB7LV4C4I2D9MLCRXQ","AFEPFMO9863WA","3JUDR1D0D6D4CARU3YX9Y3DK5DJ2QK","","null","<img src=""img/flower2.png"" style=""width:200px; border:14px solid green;"">","null","","","","","","","","",""
"","image-keyboard-response","269","133776","0.0-269.0","33M4IA01QHN7BB7LV4C4I2D9MLCRXQ","AFEPFMO9863WA","3JUDR1D0D6D4CARU3YX9Y3DK5DJ2QK","","7.1000001430511475","img/flower4.png","74","8.299999952316284","1","0","3","2","1,0,0,1,1,0,1,0,1","0,0,1,1,0,1,0,1,1","2",""
"","html-keyboard-response","270","134079","0.0-270.0","33M4IA01QHN7BB7LV4C4I2D9MLCRXQ","AFEPFMO9863WA","3JUDR1D0D6D4CARU3YX9Y3DK5DJ2QK","","null","<img src=""img/flower4.png"" style=""width:200px;border:14px solid red;"">","null","","","","","","","","",""
"","image-keyboard-response","271","134290","0.0-271.0","33M4IA01QHN7BB7LV4C4I2D9MLCRXQ","AFEPFMO9863WA","3JUDR1D0D6D4CARU3YX9Y3DK5DJ2QK","","208.5","img/flower2.png","74","210.5","1","1","2","2","1,0,0,1,1,0,1,0,1","0,0,1,1,0,1,0,1,1","2",""
"","html-keyboard-response","272","134600","0.0-272.0","33M4IA01QHN7BB7LV4C4I2D9MLCRXQ","AFEPFMO9863WA","3JUDR1D0D6D4CARU3YX9Y3DK5DJ2QK","","null","<img src=""img/flower2.png"" style=""width:200px; border:14px solid green;"">","null","","","","","","","","",""
"","image-keyboard-response","273","134695","0.0-273.0","33M4IA01QHN7BB7LV4C4I2D9MLCRXQ","AFEPFMO9863WA","3JUDR1D0D6D4CARU3YX9Y3DK5DJ2QK","","93.09999990463257","img/flower6.png","74","94.79999995231628","1","0","1","2","1,0,0,1,1,0,1,0,1","0,0,1,1,0,1,0,1,1","2",""
"","html-keyboard-response","274","134999","0.0-274.0","33M4IA01QHN7BB7LV4C4I2D9MLCRXQ","AFEPFMO9863WA","3JUDR1D0D6D4CARU3YX9Y3DK5DJ2QK","","null","<img src=""img/flower6.png"" style=""width:200px;border:14px solid red;"">","null","","","","","","","","",""
"","image-keyboard-response","275","135049","0.0-275.0","33M4IA01QHN7BB7LV4C4I2D9MLCRXQ","AFEPFMO9863WA","3JUDR1D0D6D4CARU3YX9Y3DK5DJ2QK","","49.09999990463257","img/flower6.png","76","52.5","3","1","1","2","1,0,0,1,1,0,1,0,1","0,0,1,1,0,1,0,1,1","2",""
"","html-keyboard-response","276","135361","0.0-276.0","33M4IA01QHN7BB7LV4C4I2D9MLCRXQ","AFEPFMO9863WA","3JUDR1D0D6D4CARU3YX9Y3DK5DJ2QK","","null","<img src=""img/flower6.png"" style=""width:200px; border:14px solid green;"">","null","","","","","","","","",""
"","image-keyboard-response","277","135405","0.0-277.0","33M4IA01QHN7BB7LV4C4I2D9MLCRXQ","AFEPFMO9863WA","3JUDR1D0D6D4CARU3YX9Y3DK5DJ2QK","","42","img/flower2.png","75","43.59999990463257","2","0","2","2","1,0,0,1,1,0,1,0,1","0,0,1,1,0,1,0,1,1","2",""
"","html-keyboard-response","278","135712","0.0-278.0","33M4IA01QHN7BB7LV4C4I2D9MLCRXQ","AFEPFMO9863WA","3JUDR1D0D6D4CARU3YX9Y3DK5DJ2QK","","null","<img src=""img/flower2.png"" style=""width:200px;border:14px solid red;"">","null","","","","","","","","",""
"","image-keyboard-response","279","135909","0.0-279.0","33M4IA01QHN7BB7LV4C4I2D9MLCRXQ","AFEPFMO9863WA","3JUDR1D0D6D4CARU3YX9Y3DK5DJ2QK","","195","img/flower2.png","76","196.60000014305115","3","1","2","2","1,0,0,1,1,0,1,0,1","0,0,1,1,0,1,0,1,1","2",""
"","html-keyboard-response","280","136216","0.0-280.0","33M4IA01QHN7BB7LV4C4I2D9MLCRXQ","AFEPFMO9863WA","3JUDR1D0D6D4CARU3YX9Y3DK5DJ2QK","","null","<img src=""img/flower2.png"" style=""width:200px; border:14px solid green;"">","null","","","","","","","","",""
"","image-keyboard-response","281","136246","0.0-281.0","33M4IA01QHN7BB7LV4C4I2D9MLCRXQ","AFEPFMO9863WA","3JUDR1D0D6D4CARU3YX9Y3DK5DJ2QK","","29","img/flower4.png","76","30.5","3","1","3","2","1,0,0,1,1,0,1,0,1","0,0,1,1,0,1,0,1,1","2",""
"","html-keyboard-response","282","136551","0.0-282.0","33M4IA01QHN7BB7LV4C4I2D9MLCRXQ","AFEPFMO9863WA","3JUDR1D0D6D4CARU3YX9Y3DK5DJ2QK","","null","<img src=""img/flower4.png"" style=""width:200px; border:14px solid green;"">","null","","","","","","","","",""
"","image-keyboard-response","283","136819","0.0-283.0","33M4IA01QHN7BB7LV4C4I2D9MLCRXQ","AFEPFMO9863WA","3JUDR1D0D6D4CARU3YX9Y3DK5DJ2QK","","266.09999990463257","img/flower4.png","76","267.39999985694885","3","1","3","2","1,0,0,1,1,0,1,0,1","0,0,1,1,0,1,0,1,1","2",""
"","html-keyboard-response","284","137127","0.0-284.0","33M4IA01QHN7BB7LV4C4I2D9MLCRXQ","AFEPFMO9863WA","3JUDR1D0D6D4CARU3YX9Y3DK5DJ2QK","","null","<img src=""img/flower4.png"" style=""width:200px; border:14px solid green;"">","null","","","","","","","","",""
"","image-keyboard-response","285","137212","0.0-285.0","33M4IA01QHN7BB7LV4C4I2D9MLCRXQ","AFEPFMO9863WA","3JUDR1D0D6D4CARU3YX9Y3DK5DJ2QK","","82.60000014305115","img/flower4.png","74","84","1","0","3","2","1,0,0,1,1,0,1,0,1","0,0,1,1,0,1,0,1,1","2",""
"","html-keyboard-response","286","137520","0.0-286.0","33M4IA01QHN7BB7LV4C4I2D9MLCRXQ","AFEPFMO9863WA","3JUDR1D0D6D4CARU3YX9Y3DK5DJ2QK","","null","<img src=""img/flower4.png"" style=""width:200px;border:14px solid red;"">","null","","","","","","","","",""
"","image-keyboard-response","287","137805","0.0-287.0","33M4IA01QHN7BB7LV4C4I2D9MLCRXQ","AFEPFMO9863WA","3JUDR1D0D6D4CARU3YX9Y3DK5DJ2QK","","283.60000014305115","img/flower6.png","76","285.09999990463257","3","1","1","2","1,0,0,1,1,0,1,0,1","0,0,1,1,0,1,0,1,1","2",""
"","html-keyboard-response","288","138112","0.0-288.0","33M4IA01QHN7BB7LV4C4I2D9MLCRXQ","AFEPFMO9863WA","3JUDR1D0D6D4CARU3YX9Y3DK5DJ2QK","","null","<img src=""img/flower6.png"" style=""width:200px; border:14px solid green;"">","null","","","","","","","","",""
"","image-keyboard-response","289","138316","0.0-289.0","33M4IA01QHN7BB7LV4C4I2D9MLCRXQ","AFEPFMO9863WA","3JUDR1D0D6D4CARU3YX9Y3DK5DJ2QK","","202.20000004768372","img/flower4.png","76","203.40000009536743","3","1","3","2","1,0,0,1,1,0,1,0,1","0,0,1,1,0,1,0,1,1","2",""
"","html-keyboard-response","290","138624","0.0-290.0","33M4IA01QHN7BB7LV4C4I2D9MLCRXQ","AFEPFMO9863WA","3JUDR1D0D6D4CARU3YX9Y3DK5DJ2QK","","null","<img src=""img/flower4.png"" style=""width:200px; border:14px solid green;"">","null","","","","","","","","",""
"","image-keyboard-response","291","138755","0.0-291.0","33M4IA01QHN7BB7LV4C4I2D9MLCRXQ","AFEPFMO9863WA","3JUDR1D0D6D4CARU3YX9Y3DK5DJ2QK","","129.70000004768372","img/flower4.png","75","131.20000004768372","2","1","3","2","1,0,0,1,1,0,1,0,1","0,0,1,1,0,1,0,1,1","2",""
"","html-keyboard-response","292","139064","0.0-292.0","33M4IA01QHN7BB7LV4C4I2D9MLCRXQ","AFEPFMO9863WA","3JUDR1D0D6D4CARU3YX9Y3DK5DJ2QK","","null","<img src=""img/flower4.png"" style=""width:200px; border:14px solid green;"">","null","","","","","","","","",""
"","image-keyboard-response","293","139355","0.0-293.0","33M4IA01QHN7BB7LV4C4I2D9MLCRXQ","AFEPFMO9863WA","3JUDR1D0D6D4CARU3YX9Y3DK5DJ2QK","","290","img/flower6.png","76","291.2999999523163","3","1","1","2","1,0,0,1,1,0,1,0,1","0,0,1,1,0,1,0,1,1","2",""
"","html-keyboard-response","294","139664","0.0-294.0","33M4IA01QHN7BB7LV4C4I2D9MLCRXQ","AFEPFMO9863WA","3JUDR1D0D6D4CARU3YX9Y3DK5DJ2QK","","null","<img src=""img/flower6.png"" style=""width:200px; border:14px solid green;"">","null","","","","","","","","",""
"","image-keyboard-response","295","139698","0.0-295.0","33M4IA01QHN7BB7LV4C4I2D9MLCRXQ","AFEPFMO9863WA","3JUDR1D0D6D4CARU3YX9Y3DK5DJ2QK","","32.19999980926514","img/flower2.png","75","33.60000014305115","2","0","2","2","1,0,0,1,1,0,1,0,1","0,0,1,1,0,1,0,1,1","2",""
"","html-keyboard-response","296","140000","0.0-296.0","33M4IA01QHN7BB7LV4C4I2D9MLCRXQ","AFEPFMO9863WA","3JUDR1D0D6D4CARU3YX9Y3DK5DJ2QK","","null","<img src=""img/flower2.png"" style=""width:200px;border:14px solid red;"">","null","","","","","","","","",""
"","image-keyboard-response","297","140063","0.0-297.0","33M4IA01QHN7BB7LV4C4I2D9MLCRXQ","AFEPFMO9863WA","3JUDR1D0D6D4CARU3YX9Y3DK5DJ2QK","","60.700000047683716","img/flower4.png","76","62.19999980926514","3","1","3","2","1,0,0,1,1,0,1,0,1","0,0,1,1,0,1,0,1,1","2",""
"","html-keyboard-response","298","140368","0.0-298.0","33M4IA01QHN7BB7LV4C4I2D9MLCRXQ","AFEPFMO9863WA","3JUDR1D0D6D4CARU3YX9Y3DK5DJ2QK","","null","<img src=""img/flower4.png"" style=""width:200px; border:14px solid green;"">","null","","","","","","","","",""
"","image-keyboard-response","299","140429","0.0-299.0","33M4IA01QHN7BB7LV4C4I2D9MLCRXQ","AFEPFMO9863WA","3JUDR1D0D6D4CARU3YX9Y3DK5DJ2QK","","59.40000009536743","img/flower6.png","76","60.90000009536743","3","1","1","2","1,0,0,1,1,0,1,0,1","0,0,1,1,0,1,0,1,1","2",""
"","html-keyboard-response","300","140735","0.0-300.0","33M4IA01QHN7BB7LV4C4I2D9MLCRXQ","AFEPFMO9863WA","3JUDR1D0D6D4CARU3YX9Y3DK5DJ2QK","","null","<img src=""img/flower6.png"" style=""width:200px; border:14px solid green;"">","null","","","","","","","","",""
"","image-keyboard-response","301","140753","0.0-301.0","33M4IA01QHN7BB7LV4C4I2D9MLCRXQ","AFEPFMO9863WA","3JUDR1D0D6D4CARU3YX9Y3DK5DJ2QK","","15.599999904632568","img/flower2.png","76","16.90000009536743","3","1","2","2","1,0,0,1,1,0,1,0,1","0,0,1,1,0,1,0,1,1","2",""
"","html-keyboard-response","302","141055","0.0-302.0","33M4IA01QHN7BB7LV4C4I2D9MLCRXQ","AFEPFMO9863WA","3JUDR1D0D6D4CARU3YX9Y3DK5DJ2QK","","null","<img src=""img/flower2.png"" style=""width:200px; border:14px solid green;"">","null","","","","","","","","",""
"","image-keyboard-response","303","141074","0.0-303.0","33M4IA01QHN7BB7LV4C4I2D9MLCRXQ","AFEPFMO9863WA","3JUDR1D0D6D4CARU3YX9Y3DK5DJ2QK","","17.299999952316284","img/flower6.png","76","18.600000143051147","3","1","1","2","1,0,0,1,1,0,1,0,1","0,0,1,1,0,1,0,1,1","2",""
"","html-keyboard-response","304","141384","0.0-304.0","33M4IA01QHN7BB7LV4C4I2D9MLCRXQ","AFEPFMO9863WA","3JUDR1D0D6D4CARU3YX9Y3DK5DJ2QK","","null","<img src=""img/flower6.png"" style=""width:200px; border:14px solid green;"">","null","","","","","","","","",""
"","image-keyboard-response","305","141398","0.0-305.0","33M4IA01QHN7BB7LV4C4I2D9MLCRXQ","AFEPFMO9863WA","3JUDR1D0D6D4CARU3YX9Y3DK5DJ2QK","","12.700000047683716","img/flower4.png","76","13.899999856948853","3","1","3","2","1,0,0,1,1,0,1,0,1","0,0,1,1,0,1,0,1,1","2",""
"","html-keyboard-response","306","141704","0.0-306.0","33M4IA01QHN7BB7LV4C4I2D9MLCRXQ","AFEPFMO9863WA","3JUDR1D0D6D4CARU3YX9Y3DK5DJ2QK","","null","<img src=""img/flower4.png"" style=""width:200px; border:14px solid green;"">","null","","","","","","","","",""
"","image-keyboard-response","307","141765","0.0-307.0","33M4IA01QHN7BB7LV4C4I2D9MLCRXQ","AFEPFMO9863WA","3JUDR1D0D6D4CARU3YX9Y3DK5DJ2QK","","59.799999952316284","img/flower6.png","74","61.30000019073486","1","0","1","2","1,0,0,1,1,0,1,0,1","0,0,1,1,0,1,0,1,1","2",""
"","html-keyboard-response","308","142072","0.0-308.0","33M4IA01QHN7BB7LV4C4I2D9MLCRXQ","AFEPFMO9863WA","3JUDR1D0D6D4CARU3YX9Y3DK5DJ2QK","","null","<img src=""img/flower6.png"" style=""width:200px;border:14px solid red;"">","null","","","","","","","","",""
"","image-keyboard-response","309","142081","0.0-309.0","33M4IA01QHN7BB7LV4C4I2D9MLCRXQ","AFEPFMO9863WA","3JUDR1D0D6D4CARU3YX9Y3DK5DJ2QK","","7.699999809265137","img/flower2.png","76","8.900000095367432","3","1","2","2","1,0,0,1,1,0,1,0,1","0,0,1,1,0,1,0,1,1","2",""
"","html-keyboard-response","310","142383","0.0-310.0","33M4IA01QHN7BB7LV4C4I2D9MLCRXQ","AFEPFMO9863WA","3JUDR1D0D6D4CARU3YX9Y3DK5DJ2QK","","null","<img src=""img/flower2.png"" style=""width:200px; border:14px solid green;"">","null","","","","","","","","",""
"","image-keyboard-response","311","142504","0.0-311.0","33M4IA01QHN7BB7LV4C4I2D9MLCRXQ","AFEPFMO9863WA","3JUDR1D0D6D4CARU3YX9Y3DK5DJ2QK","","118.20000004768372","img/flower2.png","75","120.29999995231628","2","0","2","2","1,0,0,1,1,0,1,0,1","0,0,1,1,0,1,0,1,1","2",""
"","html-keyboard-response","312","142808","0.0-312.0","33M4IA01QHN7BB7LV4C4I2D9MLCRXQ","AFEPFMO9863WA","3JUDR1D0D6D4CARU3YX9Y3DK5DJ2QK","","null","<img src=""img/flower2.png"" style=""width:200px;border:14px solid red;"">","null","","","","","","","","",""
"","image-keyboard-response","313","142829","0.0-313.0","33M4IA01QHN7BB7LV4C4I2D9MLCRXQ","AFEPFMO9863WA","3JUDR1D0D6D4CARU3YX9Y3DK5DJ2QK","","19.399999856948853","img/flower4.png","75","20.799999952316284","2","1","3","2","1,0,0,1,1,0,1,0,1","0,0,1,1,0,1,0,1,1","2",""
"","html-keyboard-response","314","143135","0.0-314.0","33M4IA01QHN7BB7LV4C4I2D9MLCRXQ","AFEPFMO9863WA","3JUDR1D0D6D4CARU3YX9Y3DK5DJ2QK","","null","<img src=""img/flower4.png"" style=""width:200px; border:14px solid green;"">","null","","","","","","","","",""
"","image-keyboard-response","315","143452","0.0-315.0","33M4IA01QHN7BB7LV4C4I2D9MLCRXQ","AFEPFMO9863WA","3JUDR1D0D6D4CARU3YX9Y3DK5DJ2QK","","315.10000014305115","img/flower2.png","76","316.2000000476837","3","1","2","2","1,0,0,1,1,0,1,0,1","0,0,1,1,0,1,0,1,1","2",""
"","html-keyboard-response","316","143760","0.0-316.0","33M4IA01QHN7BB7LV4C4I2D9MLCRXQ","AFEPFMO9863WA","3JUDR1D0D6D4CARU3YX9Y3DK5DJ2QK","","null","<img src=""img/flower2.png"" style=""width:200px; border:14px solid green;"">","null","","","","","","","","",""
"","image-keyboard-response","317","143835","0.0-317.0","33M4IA01QHN7BB7LV4C4I2D9MLCRXQ","AFEPFMO9863WA","3JUDR1D0D6D4CARU3YX9Y3DK5DJ2QK","","74","img/flower6.png","76","75.5","3","1","1","2","1,0,0,1,1,0,1,0,1","0,0,1,1,0,1,0,1,1","2",""
"","html-keyboard-response","318","144140","0.0-318.0","33M4IA01QHN7BB7LV4C4I2D9MLCRXQ","AFEPFMO9863WA","3JUDR1D0D6D4CARU3YX9Y3DK5DJ2QK","","null","<img src=""img/flower6.png"" style=""width:200px; border:14px solid green;"">","null","","","","","","","","",""
"","image-keyboard-response","319","144507","0.0-319.0","33M4IA01QHN7BB7LV4C4I2D9MLCRXQ","AFEPFMO9863WA","3JUDR1D0D6D4CARU3YX9Y3DK5DJ2QK","","365.60000014305115","img/flower4.png","76","366.89999985694885","3","1","3","2","1,0,0,1,1,0,1,0,1","0,0,1,1,0,1,0,1,1","2",""
"","html-keyboard-response","320","144815","0.0-320.0","33M4IA01QHN7BB7LV4C4I2D9MLCRXQ","AFEPFMO9863WA","3JUDR1D0D6D4CARU3YX9Y3DK5DJ2QK","","null","<img src=""img/flower4.png"" style=""width:200px; border:14px solid green;"">","null","","","","","","","","",""
"","image-keyboard-response","321","144824","0.0-321.0","33M4IA01QHN7BB7LV4C4I2D9MLCRXQ","AFEPFMO9863WA","3JUDR1D0D6D4CARU3YX9Y3DK5DJ2QK","","7.3999998569488525","img/flower4.png","76","8.700000047683716","3","1","3","2","1,0,0,1,1,0,1,0,1","0,0,1,1,0,1,0,1,1","2",""
"","html-keyboard-response","322","145128","0.0-322.0","33M4IA01QHN7BB7LV4C4I2D9MLCRXQ","AFEPFMO9863WA","3JUDR1D0D6D4CARU3YX9Y3DK5DJ2QK","","null","<img src=""img/flower4.png"" style=""width:200px; border:14px solid green;"">","null","","","","","","","","",""
"","image-keyboard-response","323","145171","0.0-323.0","33M4IA01QHN7BB7LV4C4I2D9MLCRXQ","AFEPFMO9863WA","3JUDR1D0D6D4CARU3YX9Y3DK5DJ2QK","","42.19999980926514","img/flower6.png","76","43.59999990463257","3","1","1","2","1,0,0,1,1,0,1,0,1","0,0,1,1,0,1,0,1,1","2",""
"","html-keyboard-response","324","145479","0.0-324.0","33M4IA01QHN7BB7LV4C4I2D9MLCRXQ","AFEPFMO9863WA","3JUDR1D0D6D4CARU3YX9Y3DK5DJ2QK","","null","<img src=""img/flower6.png"" style=""width:200px; border:14px solid green;"">","null","","","","","","","","",""
"","image-keyboard-response","325","145512","0.0-325.0","33M4IA01QHN7BB7LV4C4I2D9MLCRXQ","AFEPFMO9863WA","3JUDR1D0D6D4CARU3YX9Y3DK5DJ2QK","","30.700000047683716","img/flower6.png","76","32.299999952316284","3","1","1","2","1,0,0,1,1,0,1,0,1","0,0,1,1,0,1,0,1,1","2",""
"","html-keyboard-response","326","145816","0.0-326.0","33M4IA01QHN7BB7LV4C4I2D9MLCRXQ","AFEPFMO9863WA","3JUDR1D0D6D4CARU3YX9Y3DK5DJ2QK","","null","<img src=""img/flower6.png"" style=""width:200px; border:14px solid green;"">","null","","","","","","","","",""
"","image-keyboard-response","327","145850","0.0-327.0","33M4IA01QHN7BB7LV4C4I2D9MLCRXQ","AFEPFMO9863WA","3JUDR1D0D6D4CARU3YX9Y3DK5DJ2QK","","33.09999990463257","img/flower6.png","76","34.5","3","1","1","2","1,0,0,1,1,0,1,0,1","0,0,1,1,0,1,0,1,1","2",""
"","html-keyboard-response","328","146160","0.0-328.0","33M4IA01QHN7BB7LV4C4I2D9MLCRXQ","AFEPFMO9863WA","3JUDR1D0D6D4CARU3YX9Y3DK5DJ2QK","","null","<img src=""img/flower6.png"" style=""width:200px; border:14px solid green;"">","null","","","","","","","","",""
"","image-keyboard-response","329","146181","0.0-329.0","33M4IA01QHN7BB7LV4C4I2D9MLCRXQ","AFEPFMO9863WA","3JUDR1D0D6D4CARU3YX9Y3DK5DJ2QK","","19.799999952316284","img/flower4.png","76","21","3","1","3","2","1,0,0,1,1,0,1,0,1","0,0,1,1,0,1,0,1,1","2",""
"","html-keyboard-response","330","146488","0.0-330.0","33M4IA01QHN7BB7LV4C4I2D9MLCRXQ","AFEPFMO9863WA","3JUDR1D0D6D4CARU3YX9Y3DK5DJ2QK","","null","<img src=""img/flower4.png"" style=""width:200px; border:14px solid green;"">","null","","","","","","","","",""
"","image-keyboard-response","331","146530","0.0-331.0","33M4IA01QHN7BB7LV4C4I2D9MLCRXQ","AFEPFMO9863WA","3JUDR1D0D6D4CARU3YX9Y3DK5DJ2QK","","40.799999952316284","img/flower2.png","75","42.30000019073486","2","0","2","2","1,0,0,1,1,0,1,0,1","0,0,1,1,0,1,0,1,1","2",""
"","html-keyboard-response","332","146839","0.0-332.0","33M4IA01QHN7BB7LV4C4I2D9MLCRXQ","AFEPFMO9863WA","3JUDR1D0D6D4CARU3YX9Y3DK5DJ2QK","","null","<img src=""img/flower2.png"" style=""width:200px;border:14px solid red;"">","null","","","","","","","","",""
"","image-keyboard-response","333","146852","0.0-333.0","33M4IA01QHN7BB7LV4C4I2D9MLCRXQ","AFEPFMO9863WA","3JUDR1D0D6D4CARU3YX9Y3DK5DJ2QK","","11.099999904632568","img/flower6.png","76","12.200000047683716","3","1","1","2","1,0,0,1,1,0,1,0,1","0,0,1,1,0,1,0,1,1","2",""
"","html-keyboard-response","334","147159","0.0-334.0","33M4IA01QHN7BB7LV4C4I2D9MLCRXQ","AFEPFMO9863WA","3JUDR1D0D6D4CARU3YX9Y3DK5DJ2QK","","null","<img src=""img/flower6.png"" style=""width:200px; border:14px solid green;"">","null","","","","","","","","",""
"","image-keyboard-response","335","147247","0.0-335.0","33M4IA01QHN7BB7LV4C4I2D9MLCRXQ","AFEPFMO9863WA","3JUDR1D0D6D4CARU3YX9Y3DK5DJ2QK","","86.09999990463257","img/flower2.png","76","87.59999990463257","3","1","2","2","1,0,0,1,1,0,1,0,1","0,0,1,1,0,1,0,1,1","2",""
"","html-keyboard-response","336","147551","0.0-336.0","33M4IA01QHN7BB7LV4C4I2D9MLCRXQ","AFEPFMO9863WA","3JUDR1D0D6D4CARU3YX9Y3DK5DJ2QK","","null","<img src=""img/flower2.png"" style=""width:200px; border:14px solid green;"">","null","","","","","","","","",""
"","image-keyboard-response","337","147595","0.0-337.0","33M4IA01QHN7BB7LV4C4I2D9MLCRXQ","AFEPFMO9863WA","3JUDR1D0D6D4CARU3YX9Y3DK5DJ2QK","","42.09999990463257","img/flower6.png","76","43.59999990463257","3","1","1","2","1,0,0,1,1,0,1,0,1","0,0,1,1,0,1,0,1,1","2",""
"","html-keyboard-response","338","147904","0.0-338.0","33M4IA01QHN7BB7LV4C4I2D9MLCRXQ","AFEPFMO9863WA","3JUDR1D0D6D4CARU3YX9Y3DK5DJ2QK","","null","<img src=""img/flower6.png"" style=""width:200px; border:14px solid green;"">","null","","","","","","","","",""
"","image-keyboard-response","339","147959","0.0-339.0","33M4IA01QHN7BB7LV4C4I2D9MLCRXQ","AFEPFMO9863WA","3JUDR1D0D6D4CARU3YX9Y3DK5DJ2QK","","54.19999980926514","img/flower4.png","76","55.39999985694885","3","1","3","2","1,0,0,1,1,0,1,0,1","0,0,1,1,0,1,0,1,1","2",""
"","html-keyboard-response","340","148263","0.0-340.0","33M4IA01QHN7BB7LV4C4I2D9MLCRXQ","AFEPFMO9863WA","3JUDR1D0D6D4CARU3YX9Y3DK5DJ2QK","","null","<img src=""img/flower4.png"" style=""width:200px; border:14px solid green;"">","null","","","","","","","","",""
"","image-keyboard-response","341","148400","0.0-341.0","33M4IA01QHN7BB7LV4C4I2D9MLCRXQ","AFEPFMO9863WA","3JUDR1D0D6D4CARU3YX9Y3DK5DJ2QK","","134.40000009536743","img/flower2.png","76","136.09999990463257","3","1","2","2","1,0,0,1,1,0,1,0,1","0,0,1,1,0,1,0,1,1","2",""
"","html-keyboard-response","342","148705","0.0-342.0","33M4IA01QHN7BB7LV4C4I2D9MLCRXQ","AFEPFMO9863WA","3JUDR1D0D6D4CARU3YX9Y3DK5DJ2QK","","null","<img src=""img/flower2.png"" style=""width:200px; border:14px solid green;"">","null","","","","","","","","",""
"","image-keyboard-response","343","148759","0.0-343.0","33M4IA01QHN7BB7LV4C4I2D9MLCRXQ","AFEPFMO9863WA","3JUDR1D0D6D4CARU3YX9Y3DK5DJ2QK","","52.799999952316284","img/flower4.png","74","54.299999952316284","1","0","3","2","1,0,0,1,1,0,1,0,1","0,0,1,1,0,1,0,1,1","2",""
"","html-keyboard-response","344","149063","0.0-344.0","33M4IA01QHN7BB7LV4C4I2D9MLCRXQ","AFEPFMO9863WA","3JUDR1D0D6D4CARU3YX9Y3DK5DJ2QK","","null","<img src=""img/flower4.png"" style=""width:200px;border:14px solid red;"">","null","","","","","","","","",""
"","image-keyboard-response","345","149071","0.0-345.0","33M4IA01QHN7BB7LV4C4I2D9MLCRXQ","AFEPFMO9863WA","3JUDR1D0D6D4CARU3YX9Y3DK5DJ2QK","","5.900000095367432","img/flower4.png","76","7.099999904632568","3","1","3","2","1,0,0,1,1,0,1,0,1","0,0,1,1,0,1,0,1,1","2",""
"","html-keyboard-response","346","149375","0.0-346.0","33M4IA01QHN7BB7LV4C4I2D9MLCRXQ","AFEPFMO9863WA","3JUDR1D0D6D4CARU3YX9Y3DK5DJ2QK","","null","<img src=""img/flower4.png"" style=""width:200px; border:14px solid green;"">","null","","","","","","","","",""
"","image-keyboard-response","347","149439","0.0-347.0","33M4IA01QHN7BB7LV4C4I2D9MLCRXQ","AFEPFMO9863WA","3JUDR1D0D6D4CARU3YX9Y3DK5DJ2QK","","61.5","img/flower6.png","76","63","3","1","1","2","1,0,0,1,1,0,1,0,1","0,0,1,1,0,1,0,1,1","2",""
"","html-keyboard-response","348","149744","0.0-348.0","33M4IA01QHN7BB7LV4C4I2D9MLCRXQ","AFEPFMO9863WA","3JUDR1D0D6D4CARU3YX9Y3DK5DJ2QK","","null","<img src=""img/flower6.png"" style=""width:200px; border:14px solid green;"">","null","","","","","","","","",""
"","image-keyboard-response","349","149765","0.0-349.0","33M4IA01QHN7BB7LV4C4I2D9MLCRXQ","AFEPFMO9863WA","3JUDR1D0D6D4CARU3YX9Y3DK5DJ2QK","","19.40000009536743","img/flower4.png","76","21","3","1","3","2","1,0,0,1,1,0,1,0,1","0,0,1,1,0,1,0,1,1","2",""
"","html-keyboard-response","350","150072","0.0-350.0","33M4IA01QHN7BB7LV4C4I2D9MLCRXQ","AFEPFMO9863WA","3JUDR1D0D6D4CARU3YX9Y3DK5DJ2QK","","null","<img src=""img/flower4.png"" style=""width:200px; border:14px solid green;"">","null","","","","","","","","",""
"","image-keyboard-response","351","150375","0.0-351.0","33M4IA01QHN7BB7LV4C4I2D9MLCRXQ","AFEPFMO9863WA","3JUDR1D0D6D4CARU3YX9Y3DK5DJ2QK","","301.19999980926514","img/flower2.png","76","303","3","1","2","2","1,0,0,1,1,0,1,0,1","0,0,1,1,0,1,0,1,1","2",""
"","html-keyboard-response","352","150680","0.0-352.0","33M4IA01QHN7BB7LV4C4I2D9MLCRXQ","AFEPFMO9863WA","3JUDR1D0D6D4CARU3YX9Y3DK5DJ2QK","","null","<img src=""img/flower2.png"" style=""width:200px; border:14px solid green;"">","null","","","","","","","","",""
"","image-keyboard-response","353","150748","0.0-353.0","33M4IA01QHN7BB7LV4C4I2D9MLCRXQ","AFEPFMO9863WA","3JUDR1D0D6D4CARU3YX9Y3DK5DJ2QK","","66.90000009536743","img/flower4.png","75","68","2","1","3","2","1,0,0,1,1,0,1,0,1","0,0,1,1,0,1,0,1,1","2",""
"","html-keyboard-response","354","151051","0.0-354.0","33M4IA01QHN7BB7LV4C4I2D9MLCRXQ","AFEPFMO9863WA","3JUDR1D0D6D4CARU3YX9Y3DK5DJ2QK","","null","<img src=""img/flower4.png"" style=""width:200px; border:14px solid green;"">","null","","","","","","","","",""
"","image-keyboard-response","355","151421","0.0-355.0","33M4IA01QHN7BB7LV4C4I2D9MLCRXQ","AFEPFMO9863WA","3JUDR1D0D6D4CARU3YX9Y3DK5DJ2QK","","368.09999990463257","img/flower2.png","76","369.59999990463257","3","1","2","2","1,0,0,1,1,0,1,0,1","0,0,1,1,0,1,0,1,1","2",""
"","html-keyboard-response","356","151728","0.0-356.0","33M4IA01QHN7BB7LV4C4I2D9MLCRXQ","AFEPFMO9863WA","3JUDR1D0D6D4CARU3YX9Y3DK5DJ2QK","","null","<img src=""img/flower2.png"" style=""width:200px; border:14px solid green;"">","null","","","","","","","","",""
"","image-keyboard-response","357","151789","0.0-357.0","33M4IA01QHN7BB7LV4C4I2D9MLCRXQ","AFEPFMO9863WA","3JUDR1D0D6D4CARU3YX9Y3DK5DJ2QK","","59.40000009536743","img/flower4.png","76","60.799999952316284","3","1","3","2","1,0,0,1,1,0,1,0,1","0,0,1,1,0,1,0,1,1","2",""
"","html-keyboard-response","358","152095","0.0-358.0","33M4IA01QHN7BB7LV4C4I2D9MLCRXQ","AFEPFMO9863WA","3JUDR1D0D6D4CARU3YX9Y3DK5DJ2QK","","null","<img src=""img/flower4.png"" style=""width:200px; border:14px solid green;"">","null","","","","","","","","",""
"","image-keyboard-response","359","152114","0.0-359.0","33M4IA01QHN7BB7LV4C4I2D9MLCRXQ","AFEPFMO9863WA","3JUDR1D0D6D4CARU3YX9Y3DK5DJ2QK","","17","img/flower2.png","75","18.299999952316284","2","0","2","2","1,0,0,1,1,0,1,0,1","0,0,1,1,0,1,0,1,1","2",""
"","html-keyboard-response","360","152424","0.0-360.0","33M4IA01QHN7BB7LV4C4I2D9MLCRXQ","AFEPFMO9863WA","3JUDR1D0D6D4CARU3YX9Y3DK5DJ2QK","","null","<img src=""img/flower2.png"" style=""width:200px;border:14px solid red;"">","null","","","","","","","","",""
"","image-keyboard-response","361","152842","0.0-361.0","33M4IA01QHN7BB7LV4C4I2D9MLCRXQ","AFEPFMO9863WA","3JUDR1D0D6D4CARU3YX9Y3DK5DJ2QK","","416.59999990463257","img/flower6.png","75","418.09999990463257","2","0","1","2","1,0,0,1,1,0,1,0,1","0,0,1,1,0,1,0,1,1","2",""
"","html-keyboard-response","362","153154","0.0-362.0","33M4IA01QHN7BB7LV4C4I2D9MLCRXQ","AFEPFMO9863WA","3JUDR1D0D6D4CARU3YX9Y3DK5DJ2QK","","null","<img src=""img/flower6.png"" style=""width:200px;border:14px solid red;"">","null","","","","","","","","",""
"","instructions","363","205861","0.0-363.0","33M4IA01QHN7BB7LV4C4I2D9MLCRXQ","AFEPFMO9863WA","3JUDR1D0D6D4CARU3YX9Y3DK5DJ2QK","[{""page_index"":0,""viewing_time"":52704.700000047684}]","52706.299999952316","","","","","","","","","","",""
"","survey-text","364","211750","0.0-364.0","33M4IA01QHN7BB7LV4C4I2D9MLCRXQ","AFEPFMO9863WA","3JUDR1D0D6D4CARU3YX9Y3DK5DJ2QK","","5878.899999856949","","","","","","","","","","","{""Q0"":""AFEPFMO9863WA""}"
