"success","trial_type","trial_index","time_elapsed","internal_node_id","assignmentID","mturkID","hitID","view_history","rt","stimulus","key_press","reactionTime","a","r","s","cond","reward_cond","reward_cond_actual","reward_matrix_idx","responses"
"true","fullscreen","0","2191","0.0-0.0","3OHYZ19UGDRSIL7CS23M4ZX6AI7OA8","AFHS2E60LZC6X","3P7RGTLO6EZ76AO3386R8ZK9IWWKAW","","","","","","","","","","","","",""
"","instructions","1","15548","0.0-1.0","3OHYZ19UGDRSIL7CS23M4ZX6AI7OA8","AFHS2E60LZC6X","3P7RGTLO6EZ76AO3386R8ZK9IWWKAW","[{""page_index"":0,""viewing_time"":1220.5},{""page_index"":1,""viewing_time"":1359.199999988079},{""page_index"":2,""viewing_time"":1703.9000000357628},{""page_index"":3,""viewing_time"":424.30000001192093},{""page_index"":4,""viewing_time"":3935.899999976158},{""page_index"":5,""viewing_time"":2647.899999976158},{""page_index"":6,""viewing_time"":1112.1000000238419},{""page_index"":7,""viewing_time"":952}]","13356.100000023842","","","","","","","","","","",""
"","image-keyboard-response","2","16869","0.0-2.0","3OHYZ19UGDRSIL7CS23M4ZX6AI7OA8","AFHS2E60LZC6X","3P7RGTLO6EZ76AO3386R8ZK9IWWKAW","","1318.9000000357628","img/flower4.png","74","1320.1000000238419","1","0","1","2","1,0,0,1,1,0,1,0,1","0,0,1,1,0,1,0,1,1","2",""
"","html-keyboard-response","3","17182","0.0-3.0","3OHYZ19UGDRSIL7CS23M4ZX6AI7OA8","AFHS2E60LZC6X","3P7RGTLO6EZ76AO3386R8ZK9IWWKAW","","null","<img src=""img/flower4.png"" style=""width:200px;border:14px solid red;"">","null","","","","","","","","",""
"","image-keyboard-response","4","17940","0.0-4.0","3OHYZ19UGDRSIL7CS23M4ZX6AI7OA8","AFHS2E60LZC6X","3P7RGTLO6EZ76AO3386R8ZK9IWWKAW","","756.6999999880791","img/flower3.png","75","757.5","2","0","2","2","1,0,0,1,1,0,1,0,1","0,0,1,1,0,1,0,1,1","2",""
"","html-keyboard-response","5","18256","0.0-5.0","3OHYZ19UGDRSIL7CS23M4ZX6AI7OA8","AFHS2E60LZC6X","3P7RGTLO6EZ76AO3386R8ZK9IWWKAW","","null","<img src=""img/flower3.png"" style=""width:200px;border:14px solid red;"">","null","","","","","","","","",""
"","image-keyboard-response","6","18596","0.0-6.0","3OHYZ19UGDRSIL7CS23M4ZX6AI7OA8","AFHS2E60LZC6X","3P7RGTLO6EZ76AO3386R8ZK9IWWKAW","","338.60000002384186","img/flower1.png","76","339.19999998807907","3","1","3","2","1,0,0,1,1,0,1,0,1","0,0,1,1,0,1,0,1,1","2",""
"","html-keyboard-response","7","18904","0.0-7.0","3OHYZ19UGDRSIL7CS23M4ZX6AI7OA8","AFHS2E60LZC6X","3P7RGTLO6EZ76AO3386R8ZK9IWWKAW","","null","<img src=""img/flower1.png"" style=""width:200px; border:14px solid green;"">","null","","","","","","","","",""
"","image-keyboard-response","8","19436","0.0-8.0","3OHYZ19UGDRSIL7CS23M4ZX6AI7OA8","AFHS2E60LZC6X","3P7RGTLO6EZ76AO3386R8ZK9IWWKAW","","531.1000000238419","img/flower1.png","76","531.6999999880791","3","1","3","2","1,0,0,1,1,0,1,0,1","0,0,1,1,0,1,0,1,1","2",""
"","html-keyboard-response","9","19741","0.0-9.0","3OHYZ19UGDRSIL7CS23M4ZX6AI7OA8","AFHS2E60LZC6X","3P7RGTLO6EZ76AO3386R8ZK9IWWKAW","","null","<img src=""img/flower1.png"" style=""width:200px; border:14px solid green;"">","null","","","","","","","","",""
"","image-keyboard-response","10","20918","0.0-10.0","3OHYZ19UGDRSIL7CS23M4ZX6AI7OA8","AFHS2E60LZC6X","3P7RGTLO6EZ76AO3386R8ZK9IWWKAW","","1176","img/flower4.png","74","1176.5","1","0","1","2","1,0,0,1,1,0,1,0,1","0,0,1,1,0,1,0,1,1","2",""
"","html-keyboard-response","11","21225","0.0-11.0","3OHYZ19UGDRSIL7CS23M4ZX6AI7OA8","AFHS2E60LZC6X","3P7RGTLO6EZ76AO3386R8ZK9IWWKAW","","null","<img src=""img/flower4.png"" style=""width:200px;border:14px solid red;"">","null","","","","","","","","",""
"","image-keyboard-response","12","21916","0.0-12.0","3OHYZ19UGDRSIL7CS23M4ZX6AI7OA8","AFHS2E60LZC6X","3P7RGTLO6EZ76AO3386R8ZK9IWWKAW","","689.7999999523163","img/flower3.png","75","690.3000000119209","2","0","2","2","1,0,0,1,1,0,1,0,1","0,0,1,1,0,1,0,1,1","2",""
"","html-keyboard-response","13","22220","0.0-13.0","3OHYZ19UGDRSIL7CS23M4ZX6AI7OA8","AFHS2E60LZC6X","3P7RGTLO6EZ76AO3386R8ZK9IWWKAW","","null","<img src=""img/flower3.png"" style=""width:200px;border:14px solid red;"">","null","","","","","","","","",""
"","image-keyboard-response","14","22484","0.0-14.0","3OHYZ19UGDRSIL7CS23M4ZX6AI7OA8","AFHS2E60LZC6X","3P7RGTLO6EZ76AO3386R8ZK9IWWKAW","","262.7999999523163","img/flower4.png","76","263.30000001192093","3","1","1","2","1,0,0,1,1,0,1,0,1","0,0,1,1,0,1,0,1,1","2",""
"","html-keyboard-response","15","22790","0.0-15.0","3OHYZ19UGDRSIL7CS23M4ZX6AI7OA8","AFHS2E60LZC6X","3P7RGTLO6EZ76AO3386R8ZK9IWWKAW","","null","<img src=""img/flower4.png"" style=""width:200px; border:14px solid green;"">","null","","","","","","","","",""
"","image-keyboard-response","16","23156","0.0-16.0","3OHYZ19UGDRSIL7CS23M4ZX6AI7OA8","AFHS2E60LZC6X","3P7RGTLO6EZ76AO3386R8ZK9IWWKAW","","364.9000000357628","img/flower4.png","76","365.39999997615814","3","1","1","2","1,0,0,1,1,0,1,0,1","0,0,1,1,0,1,0,1,1","2",""
"","html-keyboard-response","17","23469","0.0-17.0","3OHYZ19UGDRSIL7CS23M4ZX6AI7OA8","AFHS2E60LZC6X","3P7RGTLO6EZ76AO3386R8ZK9IWWKAW","","null","<img src=""img/flower4.png"" style=""width:200px; border:14px solid green;"">","null","","","","","","","","",""
"","image-keyboard-response","18","23572","0.0-18.0","3OHYZ19UGDRSIL7CS23M4ZX6AI7OA8","AFHS2E60LZC6X","3P7RGTLO6EZ76AO3386R8ZK9IWWKAW","","101.69999998807907","img/flower1.png","76","102.39999997615814","3","1","3","2","1,0,0,1,1,0,1,0,1","0,0,1,1,0,1,0,1,1","2",""
"","html-keyboard-response","19","23878","0.0-19.0","3OHYZ19UGDRSIL7CS23M4ZX6AI7OA8","AFHS2E60LZC6X","3P7RGTLO6EZ76AO3386R8ZK9IWWKAW","","null","<img src=""img/flower1.png"" style=""width:200px; border:14px solid green;"">","null","","","","","","","","",""
"","image-keyboard-response","20","24196","0.0-20.0","3OHYZ19UGDRSIL7CS23M4ZX6AI7OA8","AFHS2E60LZC6X","3P7RGTLO6EZ76AO3386R8ZK9IWWKAW","","316.89999997615814","img/flower1.png","76","317.60000002384186","3","1","3","2","1,0,0,1,1,0,1,0,1","0,0,1,1,0,1,0,1,1","2",""
"","html-keyboard-response","21","24510","0.0-21.0","3OHYZ19UGDRSIL7CS23M4ZX6AI7OA8","AFHS2E60LZC6X","3P7RGTLO6EZ76AO3386R8ZK9IWWKAW","","null","<img src=""img/flower1.png"" style=""width:200px; border:14px solid green;"">","null","","","","","","","","",""
"","image-keyboard-response","22","24524","0.0-22.0","3OHYZ19UGDRSIL7CS23M4ZX6AI7OA8","AFHS2E60LZC6X","3P7RGTLO6EZ76AO3386R8ZK9IWWKAW","","13.399999976158142","img/flower1.png","76","13.900000035762787","3","1","3","2","1,0,0,1,1,0,1,0,1","0,0,1,1,0,1,0,1,1","2",""
"","html-keyboard-response","23","24826","0.0-23.0","3OHYZ19UGDRSIL7CS23M4ZX6AI7OA8","AFHS2E60LZC6X","3P7RGTLO6EZ76AO3386R8ZK9IWWKAW","","null","<img src=""img/flower1.png"" style=""width:200px; border:14px solid green;"">","null","","","","","","","","",""
"","image-keyboard-response","24","24908","0.0-24.0","3OHYZ19UGDRSIL7CS23M4ZX6AI7OA8","AFHS2E60LZC6X","3P7RGTLO6EZ76AO3386R8ZK9IWWKAW","","80.80000001192093","img/flower3.png","76","81.19999998807907","3","1","2","2","1,0,0,1,1,0,1,0,1","0,0,1,1,0,1,0,1,1","2",""
"","html-keyboard-response","25","25221","0.0-25.0","3OHYZ19UGDRSIL7CS23M4ZX6AI7OA8","AFHS2E60LZC6X","3P7RGTLO6EZ76AO3386R8ZK9IWWKAW","","null","<img src=""img/flower3.png"" style=""width:200px; border:14px solid green;"">","null","","","","","","","","",""
"","image-keyboard-response","26","25236","0.0-26.0","3OHYZ19UGDRSIL7CS23M4ZX6AI7OA8","AFHS2E60LZC6X","3P7RGTLO6EZ76AO3386R8ZK9IWWKAW","","14.199999988079071","img/flower4.png","76","14.700000047683716","3","1","1","2","1,0,0,1,1,0,1,0,1","0,0,1,1,0,1,0,1,1","2",""
"","html-keyboard-response","27","25552","0.0-27.0","3OHYZ19UGDRSIL7CS23M4ZX6AI7OA8","AFHS2E60LZC6X","3P7RGTLO6EZ76AO3386R8ZK9IWWKAW","","null","<img src=""img/flower4.png"" style=""width:200px; border:14px solid green;"">","null","","","","","","","","",""
"","image-keyboard-response","28","25572","0.0-28.0","3OHYZ19UGDRSIL7CS23M4ZX6AI7OA8","AFHS2E60LZC6X","3P7RGTLO6EZ76AO3386R8ZK9IWWKAW","","19.399999976158142","img/flower4.png","76","19.900000035762787","3","1","1","2","1,0,0,1,1,0,1,0,1","0,0,1,1,0,1,0,1,1","2",""
"","html-keyboard-response","29","25883","0.0-29.0","3OHYZ19UGDRSIL7CS23M4ZX6AI7OA8","AFHS2E60LZC6X","3P7RGTLO6EZ76AO3386R8ZK9IWWKAW","","null","<img src=""img/flower4.png"" style=""width:200px; border:14px solid green;"">","null","","","","","","","","",""
"","image-keyboard-response","30","26004","0.0-30.0","3OHYZ19UGDRSIL7CS23M4ZX6AI7OA8","AFHS2E60LZC6X","3P7RGTLO6EZ76AO3386R8ZK9IWWKAW","","120.30000001192093","img/flower1.png","76","120.89999997615814","3","1","3","2","1,0,0,1,1,0,1,0,1","0,0,1,1,0,1,0,1,1","2",""
"","html-keyboard-response","31","26310","0.0-31.0","3OHYZ19UGDRSIL7CS23M4ZX6AI7OA8","AFHS2E60LZC6X","3P7RGTLO6EZ76AO3386R8ZK9IWWKAW","","null","<img src=""img/flower1.png"" style=""width:200px; border:14px solid green;"">","null","","","","","","","","",""
"","image-keyboard-response","32","26444","0.0-32.0","3OHYZ19UGDRSIL7CS23M4ZX6AI7OA8","AFHS2E60LZC6X","3P7RGTLO6EZ76AO3386R8ZK9IWWKAW","","132.4000000357628","img/flower3.png","76","133","3","1","2","2","1,0,0,1,1,0,1,0,1","0,0,1,1,0,1,0,1,1","2",""
"","html-keyboard-response","33","26752","0.0-33.0","3OHYZ19UGDRSIL7CS23M4ZX6AI7OA8","AFHS2E60LZC6X","3P7RGTLO6EZ76AO3386R8ZK9IWWKAW","","null","<img src=""img/flower3.png"" style=""width:200px; border:14px solid green;"">","null","","","","","","","","",""
"","image-keyboard-response","34","26756","0.0-34.0","3OHYZ19UGDRSIL7CS23M4ZX6AI7OA8","AFHS2E60LZC6X","3P7RGTLO6EZ76AO3386R8ZK9IWWKAW","","2.699999988079071","img/flower1.png","76","3.299999952316284","3","1","3","2","1,0,0,1,1,0,1,0,1","0,0,1,1,0,1,0,1,1","2",""
"","html-keyboard-response","35","27060","0.0-35.0","3OHYZ19UGDRSIL7CS23M4ZX6AI7OA8","AFHS2E60LZC6X","3P7RGTLO6EZ76AO3386R8ZK9IWWKAW","","null","<img src=""img/flower1.png"" style=""width:200px; border:14px solid green;"">","null","","","","","","","","",""
"","image-keyboard-response","36","27212","0.0-36.0","3OHYZ19UGDRSIL7CS23M4ZX6AI7OA8","AFHS2E60LZC6X","3P7RGTLO6EZ76AO3386R8ZK9IWWKAW","","151.0999999642372","img/flower4.png","76","151.5","3","1","1","2","1,0,0,1,1,0,1,0,1","0,0,1,1,0,1,0,1,1","2",""
"","html-keyboard-response","37","27523","0.0-37.0","3OHYZ19UGDRSIL7CS23M4ZX6AI7OA8","AFHS2E60LZC6X","3P7RGTLO6EZ76AO3386R8ZK9IWWKAW","","null","<img src=""img/flower4.png"" style=""width:200px; border:14px solid green;"">","null","","","","","","","","",""
"","image-keyboard-response","38","27540","0.0-38.0","3OHYZ19UGDRSIL7CS23M4ZX6AI7OA8","AFHS2E60LZC6X","3P7RGTLO6EZ76AO3386R8ZK9IWWKAW","","16","img/flower3.png","76","16.399999976158142","3","1","2","2","1,0,0,1,1,0,1,0,1","0,0,1,1,0,1,0,1,1","2",""
"","html-keyboard-response","39","27855","0.0-39.0","3OHYZ19UGDRSIL7CS23M4ZX6AI7OA8","AFHS2E60LZC6X","3P7RGTLO6EZ76AO3386R8ZK9IWWKAW","","null","<img src=""img/flower3.png"" style=""width:200px; border:14px solid green;"">","null","","","","","","","","",""
"","image-keyboard-response","40","27868","0.0-40.0","3OHYZ19UGDRSIL7CS23M4ZX6AI7OA8","AFHS2E60LZC6X","3P7RGTLO6EZ76AO3386R8ZK9IWWKAW","","11.900000035762787","img/flower4.png","76","12.299999952316284","3","1","1","2","1,0,0,1,1,0,1,0,1","0,0,1,1,0,1,0,1,1","2",""
"","html-keyboard-response","41","28170","0.0-41.0","3OHYZ19UGDRSIL7CS23M4ZX6AI7OA8","AFHS2E60LZC6X","3P7RGTLO6EZ76AO3386R8ZK9IWWKAW","","null","<img src=""img/flower4.png"" style=""width:200px; border:14px solid green;"">","null","","","","","","","","",""
"","image-keyboard-response","42","28188","0.0-42.0","3OHYZ19UGDRSIL7CS23M4ZX6AI7OA8","AFHS2E60LZC6X","3P7RGTLO6EZ76AO3386R8ZK9IWWKAW","","17.100000023841858","img/flower1.png","76","17.600000023841858","3","1","3","2","1,0,0,1,1,0,1,0,1","0,0,1,1,0,1,0,1,1","2",""
"","html-keyboard-response","43","28489","0.0-43.0","3OHYZ19UGDRSIL7CS23M4ZX6AI7OA8","AFHS2E60LZC6X","3P7RGTLO6EZ76AO3386R8ZK9IWWKAW","","null","<img src=""img/flower1.png"" style=""width:200px; border:14px solid green;"">","null","","","","","","","","",""
"","image-keyboard-response","44","28524","0.0-44.0","3OHYZ19UGDRSIL7CS23M4ZX6AI7OA8","AFHS2E60LZC6X","3P7RGTLO6EZ76AO3386R8ZK9IWWKAW","","34.10000002384186","img/flower3.png","76","34.60000002384186","3","1","2","2","1,0,0,1,1,0,1,0,1","0,0,1,1,0,1,0,1,1","2",""
"","html-keyboard-response","45","28835","0.0-45.0","3OHYZ19UGDRSIL7CS23M4ZX6AI7OA8","AFHS2E60LZC6X","3P7RGTLO6EZ76AO3386R8ZK9IWWKAW","","null","<img src=""img/flower3.png"" style=""width:200px; border:14px solid green;"">","null","","","","","","","","",""
"","image-keyboard-response","46","28852","0.0-46.0","3OHYZ19UGDRSIL7CS23M4ZX6AI7OA8","AFHS2E60LZC6X","3P7RGTLO6EZ76AO3386R8ZK9IWWKAW","","16.5","img/flower3.png","76","17","3","1","2","2","1,0,0,1,1,0,1,0,1","0,0,1,1,0,1,0,1,1","2",""
"","html-keyboard-response","47","29154","0.0-47.0","3OHYZ19UGDRSIL7CS23M4ZX6AI7OA8","AFHS2E60LZC6X","3P7RGTLO6EZ76AO3386R8ZK9IWWKAW","","null","<img src=""img/flower3.png"" style=""width:200px; border:14px solid green;"">","null","","","","","","","","",""
"","image-keyboard-response","48","29172","0.0-48.0","3OHYZ19UGDRSIL7CS23M4ZX6AI7OA8","AFHS2E60LZC6X","3P7RGTLO6EZ76AO3386R8ZK9IWWKAW","","17.5","img/flower1.png","76","17.899999976158142","3","1","3","2","1,0,0,1,1,0,1,0,1","0,0,1,1,0,1,0,1,1","2",""
"","html-keyboard-response","49","29473","0.0-49.0","3OHYZ19UGDRSIL7CS23M4ZX6AI7OA8","AFHS2E60LZC6X","3P7RGTLO6EZ76AO3386R8ZK9IWWKAW","","null","<img src=""img/flower1.png"" style=""width:200px; border:14px solid green;"">","null","","","","","","","","",""
"","image-keyboard-response","50","29516","0.0-50.0","3OHYZ19UGDRSIL7CS23M4ZX6AI7OA8","AFHS2E60LZC6X","3P7RGTLO6EZ76AO3386R8ZK9IWWKAW","","41.80000001192093","img/flower1.png","76","42.30000001192093","3","1","3","2","1,0,0,1,1,0,1,0,1","0,0,1,1,0,1,0,1,1","2",""
"","html-keyboard-response","51","29817","0.0-51.0","3OHYZ19UGDRSIL7CS23M4ZX6AI7OA8","AFHS2E60LZC6X","3P7RGTLO6EZ76AO3386R8ZK9IWWKAW","","null","<img src=""img/flower1.png"" style=""width:200px; border:14px solid green;"">","null","","","","","","","","",""
"","image-keyboard-response","52","29860","0.0-52.0","3OHYZ19UGDRSIL7CS23M4ZX6AI7OA8","AFHS2E60LZC6X","3P7RGTLO6EZ76AO3386R8ZK9IWWKAW","","42","img/flower3.png","76","42.5","3","1","2","2","1,0,0,1,1,0,1,0,1","0,0,1,1,0,1,0,1,1","2",""
"","html-keyboard-response","53","30162","0.0-53.0","3OHYZ19UGDRSIL7CS23M4ZX6AI7OA8","AFHS2E60LZC6X","3P7RGTLO6EZ76AO3386R8ZK9IWWKAW","","null","<img src=""img/flower3.png"" style=""width:200px; border:14px solid green;"">","null","","","","","","","","",""
"","image-keyboard-response","54","30276","0.0-54.0","3OHYZ19UGDRSIL7CS23M4ZX6AI7OA8","AFHS2E60LZC6X","3P7RGTLO6EZ76AO3386R8ZK9IWWKAW","","113.19999998807907","img/flower1.png","76","113.59999996423721","3","1","3","2","1,0,0,1,1,0,1,0,1","0,0,1,1,0,1,0,1,1","2",""
"","html-keyboard-response","55","30578","0.0-55.0","3OHYZ19UGDRSIL7CS23M4ZX6AI7OA8","AFHS2E60LZC6X","3P7RGTLO6EZ76AO3386R8ZK9IWWKAW","","null","<img src=""img/flower1.png"" style=""width:200px; border:14px solid green;"">","null","","","","","","","","",""
"","image-keyboard-response","56","30652","0.0-56.0","3OHYZ19UGDRSIL7CS23M4ZX6AI7OA8","AFHS2E60LZC6X","3P7RGTLO6EZ76AO3386R8ZK9IWWKAW","","73.30000001192093","img/flower4.png","76","73.69999998807907","3","1","1","2","1,0,0,1,1,0,1,0,1","0,0,1,1,0,1,0,1,1","2",""
"","html-keyboard-response","57","30954","0.0-57.0","3OHYZ19UGDRSIL7CS23M4ZX6AI7OA8","AFHS2E60LZC6X","3P7RGTLO6EZ76AO3386R8ZK9IWWKAW","","null","<img src=""img/flower4.png"" style=""width:200px; border:14px solid green;"">","null","","","","","","","","",""
"","image-keyboard-response","58","31005","0.0-58.0","3OHYZ19UGDRSIL7CS23M4ZX6AI7OA8","AFHS2E60LZC6X","3P7RGTLO6EZ76AO3386R8ZK9IWWKAW","","50.30000001192093","img/flower1.png","76","50.90000003576279","3","1","3","2","1,0,0,1,1,0,1,0,1","0,0,1,1,0,1,0,1,1","2",""
"","html-keyboard-response","59","31306","0.0-59.0","3OHYZ19UGDRSIL7CS23M4ZX6AI7OA8","AFHS2E60LZC6X","3P7RGTLO6EZ76AO3386R8ZK9IWWKAW","","null","<img src=""img/flower1.png"" style=""width:200px; border:14px solid green;"">","null","","","","","","","","",""
"","image-keyboard-response","60","31356","0.0-60.0","3OHYZ19UGDRSIL7CS23M4ZX6AI7OA8","AFHS2E60LZC6X","3P7RGTLO6EZ76AO3386R8ZK9IWWKAW","","48.69999998807907","img/flower4.png","76","49.19999998807907","3","1","1","2","1,0,0,1,1,0,1,0,1","0,0,1,1,0,1,0,1,1","2",""
"","html-keyboard-response","61","31657","0.0-61.0","3OHYZ19UGDRSIL7CS23M4ZX6AI7OA8","AFHS2E60LZC6X","3P7RGTLO6EZ76AO3386R8ZK9IWWKAW","","null","<img src=""img/flower4.png"" style=""width:200px; border:14px solid green;"">","null","","","","","","","","",""
"","image-keyboard-response","62","31692","0.0-62.0","3OHYZ19UGDRSIL7CS23M4ZX6AI7OA8","AFHS2E60LZC6X","3P7RGTLO6EZ76AO3386R8ZK9IWWKAW","","33.89999997615814","img/flower4.png","76","34.39999997615814","3","1","1","2","1,0,0,1,1,0,1,0,1","0,0,1,1,0,1,0,1,1","2",""
"","html-keyboard-response","63","31993","0.0-63.0","3OHYZ19UGDRSIL7CS23M4ZX6AI7OA8","AFHS2E60LZC6X","3P7RGTLO6EZ76AO3386R8ZK9IWWKAW","","null","<img src=""img/flower4.png"" style=""width:200px; border:14px solid green;"">","null","","","","","","","","",""
"","image-keyboard-response","64","32020","0.0-64.0","3OHYZ19UGDRSIL7CS23M4ZX6AI7OA8","AFHS2E60LZC6X","3P7RGTLO6EZ76AO3386R8ZK9IWWKAW","","26.19999998807907","img/flower1.png","76","26.80000001192093","3","1","3","2","1,0,0,1,1,0,1,0,1","0,0,1,1,0,1,0,1,1","2",""
"","html-keyboard-response","65","32322","0.0-65.0","3OHYZ19UGDRSIL7CS23M4ZX6AI7OA8","AFHS2E60LZC6X","3P7RGTLO6EZ76AO3386R8ZK9IWWKAW","","null","<img src=""img/flower1.png"" style=""width:200px; border:14px solid green;"">","null","","","","","","","","",""
"","image-keyboard-response","66","32380","0.0-66.0","3OHYZ19UGDRSIL7CS23M4ZX6AI7OA8","AFHS2E60LZC6X","3P7RGTLO6EZ76AO3386R8ZK9IWWKAW","","57.5","img/flower3.png","76","57.90000003576279","3","1","2","2","1,0,0,1,1,0,1,0,1","0,0,1,1,0,1,0,1,1","2",""
"","html-keyboard-response","67","32682","0.0-67.0","3OHYZ19UGDRSIL7CS23M4ZX6AI7OA8","AFHS2E60LZC6X","3P7RGTLO6EZ76AO3386R8ZK9IWWKAW","","null","<img src=""img/flower3.png"" style=""width:200px; border:14px solid green;"">","null","","","","","","","","",""
"","image-keyboard-response","68","32740","0.0-68.0","3OHYZ19UGDRSIL7CS23M4ZX6AI7OA8","AFHS2E60LZC6X","3P7RGTLO6EZ76AO3386R8ZK9IWWKAW","","57.5","img/flower4.png","76","58.10000002384186","3","1","1","2","1,0,0,1,1,0,1,0,1","0,0,1,1,0,1,0,1,1","2",""
"","html-keyboard-response","69","33042","0.0-69.0","3OHYZ19UGDRSIL7CS23M4ZX6AI7OA8","AFHS2E60LZC6X","3P7RGTLO6EZ76AO3386R8ZK9IWWKAW","","null","<img src=""img/flower4.png"" style=""width:200px; border:14px solid green;"">","null","","","","","","","","",""
"","image-keyboard-response","70","33100","0.0-70.0","3OHYZ19UGDRSIL7CS23M4ZX6AI7OA8","AFHS2E60LZC6X","3P7RGTLO6EZ76AO3386R8ZK9IWWKAW","","56.69999998807907","img/flower1.png","76","57.19999998807907","3","1","3","2","1,0,0,1,1,0,1,0,1","0,0,1,1,0,1,0,1,1","2",""
"","html-keyboard-response","71","33401","0.0-71.0","3OHYZ19UGDRSIL7CS23M4ZX6AI7OA8","AFHS2E60LZC6X","3P7RGTLO6EZ76AO3386R8ZK9IWWKAW","","null","<img src=""img/flower1.png"" style=""width:200px; border:14px solid green;"">","null","","","","","","","","",""
"","image-keyboard-response","72","33460","0.0-72.0","3OHYZ19UGDRSIL7CS23M4ZX6AI7OA8","AFHS2E60LZC6X","3P7RGTLO6EZ76AO3386R8ZK9IWWKAW","","58.09999996423721","img/flower4.png","76","58.5","3","1","1","2","1,0,0,1,1,0,1,0,1","0,0,1,1,0,1,0,1,1","2",""
"","html-keyboard-response","73","33761","0.0-73.0","3OHYZ19UGDRSIL7CS23M4ZX6AI7OA8","AFHS2E60LZC6X","3P7RGTLO6EZ76AO3386R8ZK9IWWKAW","","null","<img src=""img/flower4.png"" style=""width:200px; border:14px solid green;"">","null","","","","","","","","",""
"","image-keyboard-response","74","33788","0.0-74.0","3OHYZ19UGDRSIL7CS23M4ZX6AI7OA8","AFHS2E60LZC6X","3P7RGTLO6EZ76AO3386R8ZK9IWWKAW","","26.100000023841858","img/flower1.png","76","26.80000001192093","3","1","3","2","1,0,0,1,1,0,1,0,1","0,0,1,1,0,1,0,1,1","2",""
"","html-keyboard-response","75","34090","0.0-75.0","3OHYZ19UGDRSIL7CS23M4ZX6AI7OA8","AFHS2E60LZC6X","3P7RGTLO6EZ76AO3386R8ZK9IWWKAW","","null","<img src=""img/flower1.png"" style=""width:200px; border:14px solid green;"">","null","","","","","","","","",""
"","image-keyboard-response","76","34132","0.0-76.0","3OHYZ19UGDRSIL7CS23M4ZX6AI7OA8","AFHS2E60LZC6X","3P7RGTLO6EZ76AO3386R8ZK9IWWKAW","","41.19999998807907","img/flower4.png","76","41.80000001192093","3","1","1","2","1,0,0,1,1,0,1,0,1","0,0,1,1,0,1,0,1,1","2",""
"","html-keyboard-response","77","34434","0.0-77.0","3OHYZ19UGDRSIL7CS23M4ZX6AI7OA8","AFHS2E60LZC6X","3P7RGTLO6EZ76AO3386R8ZK9IWWKAW","","null","<img src=""img/flower4.png"" style=""width:200px; border:14px solid green;"">","null","","","","","","","","",""
"","image-keyboard-response","78","34476","0.0-78.0","3OHYZ19UGDRSIL7CS23M4ZX6AI7OA8","AFHS2E60LZC6X","3P7RGTLO6EZ76AO3386R8ZK9IWWKAW","","41.5","img/flower1.png","76","42.10000002384186","3","1","3","2","1,0,0,1,1,0,1,0,1","0,0,1,1,0,1,0,1,1","2",""
"","html-keyboard-response","79","34777","0.0-79.0","3OHYZ19UGDRSIL7CS23M4ZX6AI7OA8","AFHS2E60LZC6X","3P7RGTLO6EZ76AO3386R8ZK9IWWKAW","","null","<img src=""img/flower1.png"" style=""width:200px; border:14px solid green;"">","null","","","","","","","","",""
"","image-keyboard-response","80","34844","0.0-80.0","3OHYZ19UGDRSIL7CS23M4ZX6AI7OA8","AFHS2E60LZC6X","3P7RGTLO6EZ76AO3386R8ZK9IWWKAW","","65.69999998807907","img/flower1.png","76","66.30000001192093","3","1","3","2","1,0,0,1,1,0,1,0,1","0,0,1,1,0,1,0,1,1","2",""
"","html-keyboard-response","81","35146","0.0-81.0","3OHYZ19UGDRSIL7CS23M4ZX6AI7OA8","AFHS2E60LZC6X","3P7RGTLO6EZ76AO3386R8ZK9IWWKAW","","null","<img src=""img/flower1.png"" style=""width:200px; border:14px solid green;"">","null","","","","","","","","",""
"","image-keyboard-response","82","35204","0.0-82.0","3OHYZ19UGDRSIL7CS23M4ZX6AI7OA8","AFHS2E60LZC6X","3P7RGTLO6EZ76AO3386R8ZK9IWWKAW","","57","img/flower4.png","76","57.5","3","1","1","2","1,0,0,1,1,0,1,0,1","0,0,1,1,0,1,0,1,1","2",""
"","html-keyboard-response","83","35505","0.0-83.0","3OHYZ19UGDRSIL7CS23M4ZX6AI7OA8","AFHS2E60LZC6X","3P7RGTLO6EZ76AO3386R8ZK9IWWKAW","","null","<img src=""img/flower4.png"" style=""width:200px; border:14px solid green;"">","null","","","","","","","","",""
"","image-keyboard-response","84","35572","0.0-84.0","3OHYZ19UGDRSIL7CS23M4ZX6AI7OA8","AFHS2E60LZC6X","3P7RGTLO6EZ76AO3386R8ZK9IWWKAW","","66.09999996423721","img/flower3.png","76","66.69999998807907","3","1","2","2","1,0,0,1,1,0,1,0,1","0,0,1,1,0,1,0,1,1","2",""
"","html-keyboard-response","85","35874","0.0-85.0","3OHYZ19UGDRSIL7CS23M4ZX6AI7OA8","AFHS2E60LZC6X","3P7RGTLO6EZ76AO3386R8ZK9IWWKAW","","null","<img src=""img/flower3.png"" style=""width:200px; border:14px solid green;"">","null","","","","","","","","",""
"","image-keyboard-response","86","35961","0.0-86.0","3OHYZ19UGDRSIL7CS23M4ZX6AI7OA8","AFHS2E60LZC6X","3P7RGTLO6EZ76AO3386R8ZK9IWWKAW","","86.40000003576279","img/flower3.png","76","86.89999997615814","3","1","2","2","1,0,0,1,1,0,1,0,1","0,0,1,1,0,1,0,1,1","2",""
"","html-keyboard-response","87","36262","0.0-87.0","3OHYZ19UGDRSIL7CS23M4ZX6AI7OA8","AFHS2E60LZC6X","3P7RGTLO6EZ76AO3386R8ZK9IWWKAW","","null","<img src=""img/flower3.png"" style=""width:200px; border:14px solid green;"">","null","","","","","","","","",""
"","image-keyboard-response","88","36332","0.0-88.0","3OHYZ19UGDRSIL7CS23M4ZX6AI7OA8","AFHS2E60LZC6X","3P7RGTLO6EZ76AO3386R8ZK9IWWKAW","","68.59999996423721","img/flower4.png","76","69.19999998807907","3","1","1","2","1,0,0,1,1,0,1,0,1","0,0,1,1,0,1,0,1,1","2",""
"","html-keyboard-response","89","36633","0.0-89.0","3OHYZ19UGDRSIL7CS23M4ZX6AI7OA8","AFHS2E60LZC6X","3P7RGTLO6EZ76AO3386R8ZK9IWWKAW","","null","<img src=""img/flower4.png"" style=""width:200px; border:14px solid green;"">","null","","","","","","","","",""
"","image-keyboard-response","90","36756","0.0-90.0","3OHYZ19UGDRSIL7CS23M4ZX6AI7OA8","AFHS2E60LZC6X","3P7RGTLO6EZ76AO3386R8ZK9IWWKAW","","121.80000001192093","img/flower3.png","76","122.29999995231628","3","1","2","2","1,0,0,1,1,0,1,0,1","0,0,1,1,0,1,0,1,1","2",""
"","html-keyboard-response","91","37058","0.0-91.0","3OHYZ19UGDRSIL7CS23M4ZX6AI7OA8","AFHS2E60LZC6X","3P7RGTLO6EZ76AO3386R8ZK9IWWKAW","","null","<img src=""img/flower3.png"" style=""width:200px; border:14px solid green;"">","null","","","","","","","","",""
"","image-keyboard-response","92","37140","0.0-92.0","3OHYZ19UGDRSIL7CS23M4ZX6AI7OA8","AFHS2E60LZC6X","3P7RGTLO6EZ76AO3386R8ZK9IWWKAW","","81.19999998807907","img/flower1.png","76","81.60000002384186","3","1","3","2","1,0,0,1,1,0,1,0,1","0,0,1,1,0,1,0,1,1","2",""
"","html-keyboard-response","93","37441","0.0-93.0","3OHYZ19UGDRSIL7CS23M4ZX6AI7OA8","AFHS2E60LZC6X","3P7RGTLO6EZ76AO3386R8ZK9IWWKAW","","null","<img src=""img/flower1.png"" style=""width:200px; border:14px solid green;"">","null","","","","","","","","",""
"","image-keyboard-response","94","37508","0.0-94.0","3OHYZ19UGDRSIL7CS23M4ZX6AI7OA8","AFHS2E60LZC6X","3P7RGTLO6EZ76AO3386R8ZK9IWWKAW","","66.30000001192093","img/flower1.png","76","66.80000001192093","3","1","3","2","1,0,0,1,1,0,1,0,1","0,0,1,1,0,1,0,1,1","2",""
"","html-keyboard-response","95","37810","0.0-95.0","3OHYZ19UGDRSIL7CS23M4ZX6AI7OA8","AFHS2E60LZC6X","3P7RGTLO6EZ76AO3386R8ZK9IWWKAW","","null","<img src=""img/flower1.png"" style=""width:200px; border:14px solid green;"">","null","","","","","","","","",""
"","image-keyboard-response","96","37900","0.0-96.0","3OHYZ19UGDRSIL7CS23M4ZX6AI7OA8","AFHS2E60LZC6X","3P7RGTLO6EZ76AO3386R8ZK9IWWKAW","","89.59999996423721","img/flower1.png","76","90","3","1","3","2","1,0,0,1,1,0,1,0,1","0,0,1,1,0,1,0,1,1","2",""
"","html-keyboard-response","97","38201","0.0-97.0","3OHYZ19UGDRSIL7CS23M4ZX6AI7OA8","AFHS2E60LZC6X","3P7RGTLO6EZ76AO3386R8ZK9IWWKAW","","null","<img src=""img/flower1.png"" style=""width:200px; border:14px solid green;"">","null","","","","","","","","",""
"","image-keyboard-response","98","38268","0.0-98.0","3OHYZ19UGDRSIL7CS23M4ZX6AI7OA8","AFHS2E60LZC6X","3P7RGTLO6EZ76AO3386R8ZK9IWWKAW","","65.60000002384186","img/flower4.png","76","66","3","1","1","2","1,0,0,1,1,0,1,0,1","0,0,1,1,0,1,0,1,1","2",""
"","html-keyboard-response","99","38568","0.0-99.0","3OHYZ19UGDRSIL7CS23M4ZX6AI7OA8","AFHS2E60LZC6X","3P7RGTLO6EZ76AO3386R8ZK9IWWKAW","","null","<img src=""img/flower4.png"" style=""width:200px; border:14px solid green;"">","null","","","","","","","","",""
"","image-keyboard-response","100","38644","0.0-100.0","3OHYZ19UGDRSIL7CS23M4ZX6AI7OA8","AFHS2E60LZC6X","3P7RGTLO6EZ76AO3386R8ZK9IWWKAW","","74.80000001192093","img/flower4.png","76","75.29999995231628","3","1","1","2","1,0,0,1,1,0,1,0,1","0,0,1,1,0,1,0,1,1","2",""
"","html-keyboard-response","101","38946","0.0-101.0","3OHYZ19UGDRSIL7CS23M4ZX6AI7OA8","AFHS2E60LZC6X","3P7RGTLO6EZ76AO3386R8ZK9IWWKAW","","null","<img src=""img/flower4.png"" style=""width:200px; border:14px solid green;"">","null","","","","","","","","",""
"","image-keyboard-response","102","39028","0.0-102.0","3OHYZ19UGDRSIL7CS23M4ZX6AI7OA8","AFHS2E60LZC6X","3P7RGTLO6EZ76AO3386R8ZK9IWWKAW","","81.19999998807907","img/flower1.png","76","81.60000002384186","3","1","3","2","1,0,0,1,1,0,1,0,1","0,0,1,1,0,1,0,1,1","2",""
"","html-keyboard-response","103","39340","0.0-103.0","3OHYZ19UGDRSIL7CS23M4ZX6AI7OA8","AFHS2E60LZC6X","3P7RGTLO6EZ76AO3386R8ZK9IWWKAW","","null","<img src=""img/flower1.png"" style=""width:200px; border:14px solid green;"">","null","","","","","","","","",""
"","image-keyboard-response","104","39428","0.0-104.0","3OHYZ19UGDRSIL7CS23M4ZX6AI7OA8","AFHS2E60LZC6X","3P7RGTLO6EZ76AO3386R8ZK9IWWKAW","","87.29999995231628","img/flower1.png","76","87.90000003576279","3","1","3","2","1,0,0,1,1,0,1,0,1","0,0,1,1,0,1,0,1,1","2",""
"","html-keyboard-response","105","39730","0.0-105.0","3OHYZ19UGDRSIL7CS23M4ZX6AI7OA8","AFHS2E60LZC6X","3P7RGTLO6EZ76AO3386R8ZK9IWWKAW","","null","<img src=""img/flower1.png"" style=""width:200px; border:14px solid green;"">","null","","","","","","","","",""
"","image-keyboard-response","106","39876","0.0-106.0","3OHYZ19UGDRSIL7CS23M4ZX6AI7OA8","AFHS2E60LZC6X","3P7RGTLO6EZ76AO3386R8ZK9IWWKAW","","145.69999998807907","img/flower4.png","76","146.10000002384186","3","1","1","2","1,0,0,1,1,0,1,0,1","0,0,1,1,0,1,0,1,1","2",""
"","html-keyboard-response","107","40178","0.0-107.0","3OHYZ19UGDRSIL7CS23M4ZX6AI7OA8","AFHS2E60LZC6X","3P7RGTLO6EZ76AO3386R8ZK9IWWKAW","","null","<img src=""img/flower4.png"" style=""width:200px; border:14px solid green;"">","null","","","","","","","","",""
"","image-keyboard-response","108","40340","0.0-108.0","3OHYZ19UGDRSIL7CS23M4ZX6AI7OA8","AFHS2E60LZC6X","3P7RGTLO6EZ76AO3386R8ZK9IWWKAW","","160.69999998807907","img/flower1.png","76","161.19999998807907","3","1","3","2","1,0,0,1,1,0,1,0,1","0,0,1,1,0,1,0,1,1","2",""
"","html-keyboard-response","109","40642","0.0-109.0","3OHYZ19UGDRSIL7CS23M4ZX6AI7OA8","AFHS2E60LZC6X","3P7RGTLO6EZ76AO3386R8ZK9IWWKAW","","null","<img src=""img/flower1.png"" style=""width:200px; border:14px solid green;"">","null","","","","","","","","",""
"","image-keyboard-response","110","40748","0.0-110.0","3OHYZ19UGDRSIL7CS23M4ZX6AI7OA8","AFHS2E60LZC6X","3P7RGTLO6EZ76AO3386R8ZK9IWWKAW","","105.19999998807907","img/flower3.png","76","105.60000002384186","3","1","2","2","1,0,0,1,1,0,1,0,1","0,0,1,1,0,1,0,1,1","2",""
"","html-keyboard-response","111","41050","0.0-111.0","3OHYZ19UGDRSIL7CS23M4ZX6AI7OA8","AFHS2E60LZC6X","3P7RGTLO6EZ76AO3386R8ZK9IWWKAW","","null","<img src=""img/flower3.png"" style=""width:200px; border:14px solid green;"">","null","","","","","","","","",""
"","image-keyboard-response","112","41245","0.0-112.0","3OHYZ19UGDRSIL7CS23M4ZX6AI7OA8","AFHS2E60LZC6X","3P7RGTLO6EZ76AO3386R8ZK9IWWKAW","","194.19999998807907","img/flower3.png","76","194.80000001192093","3","1","2","2","1,0,0,1,1,0,1,0,1","0,0,1,1,0,1,0,1,1","2",""
"","html-keyboard-response","113","41546","0.0-113.0","3OHYZ19UGDRSIL7CS23M4ZX6AI7OA8","AFHS2E60LZC6X","3P7RGTLO6EZ76AO3386R8ZK9IWWKAW","","null","<img src=""img/flower3.png"" style=""width:200px; border:14px solid green;"">","null","","","","","","","","",""
"","image-keyboard-response","114","41692","0.0-114.0","3OHYZ19UGDRSIL7CS23M4ZX6AI7OA8","AFHS2E60LZC6X","3P7RGTLO6EZ76AO3386R8ZK9IWWKAW","","144.5999999642372","img/flower4.png","76","145","3","1","1","2","1,0,0,1,1,0,1,0,1","0,0,1,1,0,1,0,1,1","2",""
"","html-keyboard-response","115","41993","0.0-115.0","3OHYZ19UGDRSIL7CS23M4ZX6AI7OA8","AFHS2E60LZC6X","3P7RGTLO6EZ76AO3386R8ZK9IWWKAW","","null","<img src=""img/flower4.png"" style=""width:200px; border:14px solid green;"">","null","","","","","","","","",""
"","image-keyboard-response","116","42140","0.0-116.0","3OHYZ19UGDRSIL7CS23M4ZX6AI7OA8","AFHS2E60LZC6X","3P7RGTLO6EZ76AO3386R8ZK9IWWKAW","","146","img/flower1.png","76","146.60000002384186","3","1","3","2","1,0,0,1,1,0,1,0,1","0,0,1,1,0,1,0,1,1","2",""
"","html-keyboard-response","117","42442","0.0-117.0","3OHYZ19UGDRSIL7CS23M4ZX6AI7OA8","AFHS2E60LZC6X","3P7RGTLO6EZ76AO3386R8ZK9IWWKAW","","null","<img src=""img/flower1.png"" style=""width:200px; border:14px solid green;"">","null","","","","","","","","",""
"","image-keyboard-response","118","42532","0.0-118.0","3OHYZ19UGDRSIL7CS23M4ZX6AI7OA8","AFHS2E60LZC6X","3P7RGTLO6EZ76AO3386R8ZK9IWWKAW","","89.10000002384186","img/flower4.png","76","89.69999998807907","3","1","1","2","1,0,0,1,1,0,1,0,1","0,0,1,1,0,1,0,1,1","2",""
"","html-keyboard-response","119","42834","0.0-119.0","3OHYZ19UGDRSIL7CS23M4ZX6AI7OA8","AFHS2E60LZC6X","3P7RGTLO6EZ76AO3386R8ZK9IWWKAW","","null","<img src=""img/flower4.png"" style=""width:200px; border:14px solid green;"">","null","","","","","","","","",""
"","image-keyboard-response","120","42940","0.0-120.0","3OHYZ19UGDRSIL7CS23M4ZX6AI7OA8","AFHS2E60LZC6X","3P7RGTLO6EZ76AO3386R8ZK9IWWKAW","","105.40000003576279","img/flower1.png","76","105.89999997615814","3","1","3","2","1,0,0,1,1,0,1,0,1","0,0,1,1,0,1,0,1,1","2",""
"","html-keyboard-response","121","43242","0.0-121.0","3OHYZ19UGDRSIL7CS23M4ZX6AI7OA8","AFHS2E60LZC6X","3P7RGTLO6EZ76AO3386R8ZK9IWWKAW","","null","<img src=""img/flower1.png"" style=""width:200px; border:14px solid green;"">","null","","","","","","","","",""
"","image-keyboard-response","122","43332","0.0-122.0","3OHYZ19UGDRSIL7CS23M4ZX6AI7OA8","AFHS2E60LZC6X","3P7RGTLO6EZ76AO3386R8ZK9IWWKAW","","89.60000002384186","img/flower3.png","76","90.10000002384186","3","1","2","2","1,0,0,1,1,0,1,0,1","0,0,1,1,0,1,0,1,1","2",""
"","html-keyboard-response","123","43633","0.0-123.0","3OHYZ19UGDRSIL7CS23M4ZX6AI7OA8","AFHS2E60LZC6X","3P7RGTLO6EZ76AO3386R8ZK9IWWKAW","","null","<img src=""img/flower3.png"" style=""width:200px; border:14px solid green;"">","null","","","","","","","","",""
"","image-keyboard-response","124","43756","0.0-124.0","3OHYZ19UGDRSIL7CS23M4ZX6AI7OA8","AFHS2E60LZC6X","3P7RGTLO6EZ76AO3386R8ZK9IWWKAW","","121.80000001192093","img/flower3.png","76","122.29999995231628","3","1","2","2","1,0,0,1,1,0,1,0,1","0,0,1,1,0,1,0,1,1","2",""
"","html-keyboard-response","125","44058","0.0-125.0","3OHYZ19UGDRSIL7CS23M4ZX6AI7OA8","AFHS2E60LZC6X","3P7RGTLO6EZ76AO3386R8ZK9IWWKAW","","null","<img src=""img/flower3.png"" style=""width:200px; border:14px solid green;"">","null","","","","","","","","",""
"","image-keyboard-response","126","44156","0.0-126.0","3OHYZ19UGDRSIL7CS23M4ZX6AI7OA8","AFHS2E60LZC6X","3P7RGTLO6EZ76AO3386R8ZK9IWWKAW","","96.89999997615814","img/flower4.png","76","97.39999997615814","3","1","1","2","1,0,0,1,1,0,1,0,1","0,0,1,1,0,1,0,1,1","2",""
"","html-keyboard-response","127","44457","0.0-127.0","3OHYZ19UGDRSIL7CS23M4ZX6AI7OA8","AFHS2E60LZC6X","3P7RGTLO6EZ76AO3386R8ZK9IWWKAW","","null","<img src=""img/flower4.png"" style=""width:200px; border:14px solid green;"">","null","","","","","","","","",""
"","image-keyboard-response","128","44508","0.0-128.0","3OHYZ19UGDRSIL7CS23M4ZX6AI7OA8","AFHS2E60LZC6X","3P7RGTLO6EZ76AO3386R8ZK9IWWKAW","","50.5","img/flower3.png","76","51","3","1","2","2","1,0,0,1,1,0,1,0,1","0,0,1,1,0,1,0,1,1","2",""
"","html-keyboard-response","129","44811","0.0-129.0","3OHYZ19UGDRSIL7CS23M4ZX6AI7OA8","AFHS2E60LZC6X","3P7RGTLO6EZ76AO3386R8ZK9IWWKAW","","null","<img src=""img/flower3.png"" style=""width:200px; border:14px solid green;"">","null","","","","","","","","",""
"","image-keyboard-response","130","44972","0.0-130.0","3OHYZ19UGDRSIL7CS23M4ZX6AI7OA8","AFHS2E60LZC6X","3P7RGTLO6EZ76AO3386R8ZK9IWWKAW","","160.5","img/flower4.png","76","160.89999997615814","3","1","1","2","1,0,0,1,1,0,1,0,1","0,0,1,1,0,1,0,1,1","2",""
"","html-keyboard-response","131","45273","0.0-131.0","3OHYZ19UGDRSIL7CS23M4ZX6AI7OA8","AFHS2E60LZC6X","3P7RGTLO6EZ76AO3386R8ZK9IWWKAW","","null","<img src=""img/flower4.png"" style=""width:200px; border:14px solid green;"">","null","","","","","","","","",""
"","image-keyboard-response","132","45340","0.0-132.0","3OHYZ19UGDRSIL7CS23M4ZX6AI7OA8","AFHS2E60LZC6X","3P7RGTLO6EZ76AO3386R8ZK9IWWKAW","","65.69999998807907","img/flower3.png","76","66.40000003576279","3","1","2","2","1,0,0,1,1,0,1,0,1","0,0,1,1,0,1,0,1,1","2",""
"","html-keyboard-response","133","45642","0.0-133.0","3OHYZ19UGDRSIL7CS23M4ZX6AI7OA8","AFHS2E60LZC6X","3P7RGTLO6EZ76AO3386R8ZK9IWWKAW","","null","<img src=""img/flower3.png"" style=""width:200px; border:14px solid green;"">","null","","","","","","","","",""
"","image-keyboard-response","134","45748","0.0-134.0","3OHYZ19UGDRSIL7CS23M4ZX6AI7OA8","AFHS2E60LZC6X","3P7RGTLO6EZ76AO3386R8ZK9IWWKAW","","105","img/flower4.png","76","105.5","3","1","1","2","1,0,0,1,1,0,1,0,1","0,0,1,1,0,1,0,1,1","2",""
"","html-keyboard-response","135","46060","0.0-135.0","3OHYZ19UGDRSIL7CS23M4ZX6AI7OA8","AFHS2E60LZC6X","3P7RGTLO6EZ76AO3386R8ZK9IWWKAW","","null","<img src=""img/flower4.png"" style=""width:200px; border:14px solid green;"">","null","","","","","","","","",""
"","image-keyboard-response","136","46172","0.0-136.0","3OHYZ19UGDRSIL7CS23M4ZX6AI7OA8","AFHS2E60LZC6X","3P7RGTLO6EZ76AO3386R8ZK9IWWKAW","","111.40000003576279","img/flower3.png","76","112","3","1","2","2","1,0,0,1,1,0,1,0,1","0,0,1,1,0,1,0,1,1","2",""
"","html-keyboard-response","137","46474","0.0-137.0","3OHYZ19UGDRSIL7CS23M4ZX6AI7OA8","AFHS2E60LZC6X","3P7RGTLO6EZ76AO3386R8ZK9IWWKAW","","null","<img src=""img/flower3.png"" style=""width:200px; border:14px solid green;"">","null","","","","","","","","",""
"","image-keyboard-response","138","46524","0.0-138.0","3OHYZ19UGDRSIL7CS23M4ZX6AI7OA8","AFHS2E60LZC6X","3P7RGTLO6EZ76AO3386R8ZK9IWWKAW","","49.5","img/flower3.png","76","49.89999997615814","3","1","2","2","1,0,0,1,1,0,1,0,1","0,0,1,1,0,1,0,1,1","2",""
"","html-keyboard-response","139","46826","0.0-139.0","3OHYZ19UGDRSIL7CS23M4ZX6AI7OA8","AFHS2E60LZC6X","3P7RGTLO6EZ76AO3386R8ZK9IWWKAW","","null","<img src=""img/flower3.png"" style=""width:200px; border:14px solid green;"">","null","","","","","","","","",""
"","image-keyboard-response","140","46924","0.0-140.0","3OHYZ19UGDRSIL7CS23M4ZX6AI7OA8","AFHS2E60LZC6X","3P7RGTLO6EZ76AO3386R8ZK9IWWKAW","","97.69999998807907","img/flower4.png","76","98.20000004768372","3","1","1","2","1,0,0,1,1,0,1,0,1","0,0,1,1,0,1,0,1,1","2",""
"","html-keyboard-response","141","47226","0.0-141.0","3OHYZ19UGDRSIL7CS23M4ZX6AI7OA8","AFHS2E60LZC6X","3P7RGTLO6EZ76AO3386R8ZK9IWWKAW","","null","<img src=""img/flower4.png"" style=""width:200px; border:14px solid green;"">","null","","","","","","","","",""
"","image-keyboard-response","142","47292","0.0-142.0","3OHYZ19UGDRSIL7CS23M4ZX6AI7OA8","AFHS2E60LZC6X","3P7RGTLO6EZ76AO3386R8ZK9IWWKAW","","64.90000003576279","img/flower4.png","76","65.39999997615814","3","1","1","2","1,0,0,1,1,0,1,0,1","0,0,1,1,0,1,0,1,1","2",""
"","html-keyboard-response","143","47594","0.0-143.0","3OHYZ19UGDRSIL7CS23M4ZX6AI7OA8","AFHS2E60LZC6X","3P7RGTLO6EZ76AO3386R8ZK9IWWKAW","","null","<img src=""img/flower4.png"" style=""width:200px; border:14px solid green;"">","null","","","","","","","","",""
"","image-keyboard-response","144","47692","0.0-144.0","3OHYZ19UGDRSIL7CS23M4ZX6AI7OA8","AFHS2E60LZC6X","3P7RGTLO6EZ76AO3386R8ZK9IWWKAW","","97.19999998807907","img/flower1.png","76","97.70000004768372","3","1","3","2","1,0,0,1,1,0,1,0,1","0,0,1,1,0,1,0,1,1","2",""
"","html-keyboard-response","145","47994","0.0-145.0","3OHYZ19UGDRSIL7CS23M4ZX6AI7OA8","AFHS2E60LZC6X","3P7RGTLO6EZ76AO3386R8ZK9IWWKAW","","null","<img src=""img/flower1.png"" style=""width:200px; border:14px solid green;"">","null","","","","","","","","",""
"","image-keyboard-response","146","48068","0.0-146.0","3OHYZ19UGDRSIL7CS23M4ZX6AI7OA8","AFHS2E60LZC6X","3P7RGTLO6EZ76AO3386R8ZK9IWWKAW","","73.30000001192093","img/flower3.png","76","73.69999998807907","3","1","2","2","1,0,0,1,1,0,1,0,1","0,0,1,1,0,1,0,1,1","2",""
"","html-keyboard-response","147","48370","0.0-147.0","3OHYZ19UGDRSIL7CS23M4ZX6AI7OA8","AFHS2E60LZC6X","3P7RGTLO6EZ76AO3386R8ZK9IWWKAW","","null","<img src=""img/flower3.png"" style=""width:200px; border:14px solid green;"">","null","","","","","","","","",""
"","image-keyboard-response","148","48460","0.0-148.0","3OHYZ19UGDRSIL7CS23M4ZX6AI7OA8","AFHS2E60LZC6X","3P7RGTLO6EZ76AO3386R8ZK9IWWKAW","","89.69999998807907","img/flower1.png","76","90.30000001192093","3","1","3","2","1,0,0,1,1,0,1,0,1","0,0,1,1,0,1,0,1,1","2",""
"","html-keyboard-response","149","48761","0.0-149.0","3OHYZ19UGDRSIL7CS23M4ZX6AI7OA8","AFHS2E60LZC6X","3P7RGTLO6EZ76AO3386R8ZK9IWWKAW","","null","<img src=""img/flower1.png"" style=""width:200px; border:14px solid green;"">","null","","","","","","","","",""
"","image-keyboard-response","150","48852","0.0-150.0","3OHYZ19UGDRSIL7CS23M4ZX6AI7OA8","AFHS2E60LZC6X","3P7RGTLO6EZ76AO3386R8ZK9IWWKAW","","89.89999997615814","img/flower3.png","76","90.40000003576279","3","1","2","2","1,0,0,1,1,0,1,0,1","0,0,1,1,0,1,0,1,1","2",""
"","html-keyboard-response","151","49154","0.0-151.0","3OHYZ19UGDRSIL7CS23M4ZX6AI7OA8","AFHS2E60LZC6X","3P7RGTLO6EZ76AO3386R8ZK9IWWKAW","","null","<img src=""img/flower3.png"" style=""width:200px; border:14px solid green;"">","null","","","","","","","","",""
"","image-keyboard-response","152","49244","0.0-152.0","3OHYZ19UGDRSIL7CS23M4ZX6AI7OA8","AFHS2E60LZC6X","3P7RGTLO6EZ76AO3386R8ZK9IWWKAW","","89","img/flower1.png","76","89.39999997615814","3","1","3","2","1,0,0,1,1,0,1,0,1","0,0,1,1,0,1,0,1,1","2",""
"","html-keyboard-response","153","49545","0.0-153.0","3OHYZ19UGDRSIL7CS23M4ZX6AI7OA8","AFHS2E60LZC6X","3P7RGTLO6EZ76AO3386R8ZK9IWWKAW","","null","<img src=""img/flower1.png"" style=""width:200px; border:14px solid green;"">","null","","","","","","","","",""
"","image-keyboard-response","154","49636","0.0-154.0","3OHYZ19UGDRSIL7CS23M4ZX6AI7OA8","AFHS2E60LZC6X","3P7RGTLO6EZ76AO3386R8ZK9IWWKAW","","90.10000002384186","img/flower3.png","76","90.59999996423721","3","1","2","2","1,0,0,1,1,0,1,0,1","0,0,1,1,0,1,0,1,1","2",""
"","html-keyboard-response","155","49938","0.0-155.0","3OHYZ19UGDRSIL7CS23M4ZX6AI7OA8","AFHS2E60LZC6X","3P7RGTLO6EZ76AO3386R8ZK9IWWKAW","","null","<img src=""img/flower3.png"" style=""width:200px; border:14px solid green;"">","null","","","","","","","","",""
"","image-keyboard-response","156","50052","0.0-156.0","3OHYZ19UGDRSIL7CS23M4ZX6AI7OA8","AFHS2E60LZC6X","3P7RGTLO6EZ76AO3386R8ZK9IWWKAW","","113.40000003576279","img/flower3.png","76","113.89999997615814","3","1","2","2","1,0,0,1,1,0,1,0,1","0,0,1,1,0,1,0,1,1","2",""
"","html-keyboard-response","157","50353","0.0-157.0","3OHYZ19UGDRSIL7CS23M4ZX6AI7OA8","AFHS2E60LZC6X","3P7RGTLO6EZ76AO3386R8ZK9IWWKAW","","null","<img src=""img/flower3.png"" style=""width:200px; border:14px solid green;"">","null","","","","","","","","",""
"","image-keyboard-response","158","50444","0.0-158.0","3OHYZ19UGDRSIL7CS23M4ZX6AI7OA8","AFHS2E60LZC6X","3P7RGTLO6EZ76AO3386R8ZK9IWWKAW","","89.60000002384186","img/flower3.png","76","90.19999998807907","3","1","2","2","1,0,0,1,1,0,1,0,1","0,0,1,1,0,1,0,1,1","2",""
"","html-keyboard-response","159","50745","0.0-159.0","3OHYZ19UGDRSIL7CS23M4ZX6AI7OA8","AFHS2E60LZC6X","3P7RGTLO6EZ76AO3386R8ZK9IWWKAW","","null","<img src=""img/flower3.png"" style=""width:200px; border:14px solid green;"">","null","","","","","","","","",""
"","image-keyboard-response","160","50836","0.0-160.0","3OHYZ19UGDRSIL7CS23M4ZX6AI7OA8","AFHS2E60LZC6X","3P7RGTLO6EZ76AO3386R8ZK9IWWKAW","","89.80000001192093","img/flower3.png","76","90.29999995231628","3","1","2","2","1,0,0,1,1,0,1,0,1","0,0,1,1,0,1,0,1,1","2",""
"","html-keyboard-response","161","51138","0.0-161.0","3OHYZ19UGDRSIL7CS23M4ZX6AI7OA8","AFHS2E60LZC6X","3P7RGTLO6EZ76AO3386R8ZK9IWWKAW","","null","<img src=""img/flower3.png"" style=""width:200px; border:14px solid green;"">","null","","","","","","","","",""
"","image-keyboard-response","162","51220","0.0-162.0","3OHYZ19UGDRSIL7CS23M4ZX6AI7OA8","AFHS2E60LZC6X","3P7RGTLO6EZ76AO3386R8ZK9IWWKAW","","80.79999995231628","img/flower3.png","76","81.30000001192093","3","1","2","2","1,0,0,1,1,0,1,0,1","0,0,1,1,0,1,0,1,1","2",""
"","html-keyboard-response","163","51522","0.0-163.0","3OHYZ19UGDRSIL7CS23M4ZX6AI7OA8","AFHS2E60LZC6X","3P7RGTLO6EZ76AO3386R8ZK9IWWKAW","","null","<img src=""img/flower3.png"" style=""width:200px; border:14px solid green;"">","null","","","","","","","","",""
"","image-keyboard-response","164","51620","0.0-164.0","3OHYZ19UGDRSIL7CS23M4ZX6AI7OA8","AFHS2E60LZC6X","3P7RGTLO6EZ76AO3386R8ZK9IWWKAW","","97.40000003576279","img/flower3.png","76","97.89999997615814","3","1","2","2","1,0,0,1,1,0,1,0,1","0,0,1,1,0,1,0,1,1","2",""
"","html-keyboard-response","165","51922","0.0-165.0","3OHYZ19UGDRSIL7CS23M4ZX6AI7OA8","AFHS2E60LZC6X","3P7RGTLO6EZ76AO3386R8ZK9IWWKAW","","null","<img src=""img/flower3.png"" style=""width:200px; border:14px solid green;"">","null","","","","","","","","",""
"","image-keyboard-response","166","52028","0.0-166.0","3OHYZ19UGDRSIL7CS23M4ZX6AI7OA8","AFHS2E60LZC6X","3P7RGTLO6EZ76AO3386R8ZK9IWWKAW","","105.5","img/flower1.png","76","106","3","1","3","2","1,0,0,1,1,0,1,0,1","0,0,1,1,0,1,0,1,1","2",""
"","html-keyboard-response","167","52329","0.0-167.0","3OHYZ19UGDRSIL7CS23M4ZX6AI7OA8","AFHS2E60LZC6X","3P7RGTLO6EZ76AO3386R8ZK9IWWKAW","","null","<img src=""img/flower1.png"" style=""width:200px; border:14px solid green;"">","null","","","","","","","","",""
"","image-keyboard-response","168","52428","0.0-168.0","3OHYZ19UGDRSIL7CS23M4ZX6AI7OA8","AFHS2E60LZC6X","3P7RGTLO6EZ76AO3386R8ZK9IWWKAW","","97.89999997615814","img/flower3.png","76","98.39999997615814","3","1","2","2","1,0,0,1,1,0,1,0,1","0,0,1,1,0,1,0,1,1","2",""
"","html-keyboard-response","169","52730","0.0-169.0","3OHYZ19UGDRSIL7CS23M4ZX6AI7OA8","AFHS2E60LZC6X","3P7RGTLO6EZ76AO3386R8ZK9IWWKAW","","null","<img src=""img/flower3.png"" style=""width:200px; border:14px solid green;"">","null","","","","","","","","",""
"","image-keyboard-response","170","52812","0.0-170.0","3OHYZ19UGDRSIL7CS23M4ZX6AI7OA8","AFHS2E60LZC6X","3P7RGTLO6EZ76AO3386R8ZK9IWWKAW","","81","img/flower1.png","76","81.60000002384186","3","1","3","2","1,0,0,1,1,0,1,0,1","0,0,1,1,0,1,0,1,1","2",""
"","html-keyboard-response","171","53113","0.0-171.0","3OHYZ19UGDRSIL7CS23M4ZX6AI7OA8","AFHS2E60LZC6X","3P7RGTLO6EZ76AO3386R8ZK9IWWKAW","","null","<img src=""img/flower1.png"" style=""width:200px; border:14px solid green;"">","null","","","","","","","","",""
"","image-keyboard-response","172","53196","0.0-172.0","3OHYZ19UGDRSIL7CS23M4ZX6AI7OA8","AFHS2E60LZC6X","3P7RGTLO6EZ76AO3386R8ZK9IWWKAW","","82.09999996423721","img/flower4.png","76","82.80000001192093","3","1","1","2","1,0,0,1,1,0,1,0,1","0,0,1,1,0,1,0,1,1","2",""
"","html-keyboard-response","173","53502","0.0-173.0","3OHYZ19UGDRSIL7CS23M4ZX6AI7OA8","AFHS2E60LZC6X","3P7RGTLO6EZ76AO3386R8ZK9IWWKAW","","null","<img src=""img/flower4.png"" style=""width:200px; border:14px solid green;"">","null","","","","","","","","",""
"","image-keyboard-response","174","53612","0.0-174.0","3OHYZ19UGDRSIL7CS23M4ZX6AI7OA8","AFHS2E60LZC6X","3P7RGTLO6EZ76AO3386R8ZK9IWWKAW","","109.30000001192093","img/flower4.png","76","110","3","1","1","2","1,0,0,1,1,0,1,0,1","0,0,1,1,0,1,0,1,1","2",""
"","html-keyboard-response","175","53913","0.0-175.0","3OHYZ19UGDRSIL7CS23M4ZX6AI7OA8","AFHS2E60LZC6X","3P7RGTLO6EZ76AO3386R8ZK9IWWKAW","","null","<img src=""img/flower4.png"" style=""width:200px; border:14px solid green;"">","null","","","","","","","","",""
"","image-keyboard-response","176","54012","0.0-176.0","3OHYZ19UGDRSIL7CS23M4ZX6AI7OA8","AFHS2E60LZC6X","3P7RGTLO6EZ76AO3386R8ZK9IWWKAW","","97.69999998807907","img/flower4.png","76","98.10000002384186","3","1","1","2","1,0,0,1,1,0,1,0,1","0,0,1,1,0,1,0,1,1","2",""
"","html-keyboard-response","177","54313","0.0-177.0","3OHYZ19UGDRSIL7CS23M4ZX6AI7OA8","AFHS2E60LZC6X","3P7RGTLO6EZ76AO3386R8ZK9IWWKAW","","null","<img src=""img/flower4.png"" style=""width:200px; border:14px solid green;"">","null","","","","","","","","",""
"","image-keyboard-response","178","54388","0.0-178.0","3OHYZ19UGDRSIL7CS23M4ZX6AI7OA8","AFHS2E60LZC6X","3P7RGTLO6EZ76AO3386R8ZK9IWWKAW","","74","img/flower3.png","76","74.60000002384186","3","1","2","2","1,0,0,1,1,0,1,0,1","0,0,1,1,0,1,0,1,1","2",""
"","html-keyboard-response","179","54690","0.0-179.0","3OHYZ19UGDRSIL7CS23M4ZX6AI7OA8","AFHS2E60LZC6X","3P7RGTLO6EZ76AO3386R8ZK9IWWKAW","","null","<img src=""img/flower3.png"" style=""width:200px; border:14px solid green;"">","null","","","","","","","","",""
"","image-keyboard-response","180","54780","0.0-180.0","3OHYZ19UGDRSIL7CS23M4ZX6AI7OA8","AFHS2E60LZC6X","3P7RGTLO6EZ76AO3386R8ZK9IWWKAW","","89.19999998807907","img/flower4.png","76","89.70000004768372","3","1","1","2","1,0,0,1,1,0,1,0,1","0,0,1,1,0,1,0,1,1","2",""
"","html-keyboard-response","181","55082","0.0-181.0","3OHYZ19UGDRSIL7CS23M4ZX6AI7OA8","AFHS2E60LZC6X","3P7RGTLO6EZ76AO3386R8ZK9IWWKAW","","null","<img src=""img/flower4.png"" style=""width:200px; border:14px solid green;"">","null","","","","","","","","",""
"","image-keyboard-response","182","55180","0.0-182.0","3OHYZ19UGDRSIL7CS23M4ZX6AI7OA8","AFHS2E60LZC6X","3P7RGTLO6EZ76AO3386R8ZK9IWWKAW","","97.40000003576279","img/flower2.png","76","97.79999995231628","3","0","1","1","1,0.333,0.333,0.333,1,0.333,0.333,0.333,1","1,0.333,0.333,0.333,1,0.333,0.333,0.333,1","1",""
"","html-keyboard-response","183","55482","0.0-183.0","3OHYZ19UGDRSIL7CS23M4ZX6AI7OA8","AFHS2E60LZC6X","3P7RGTLO6EZ76AO3386R8ZK9IWWKAW","","null","<img src=""img/flower2.png"" style=""width:200px;border:14px solid red;"">","null","","","","","","","","",""
"","image-keyboard-response","184","55548","0.0-184.0","3OHYZ19UGDRSIL7CS23M4ZX6AI7OA8","AFHS2E60LZC6X","3P7RGTLO6EZ76AO3386R8ZK9IWWKAW","","65.60000002384186","img/flower2.png","76","66","3","1","1","1","1,0.333,0.333,0.333,1,0.333,0.333,0.333,1","1,0.333,0.333,0.333,1,0.333,0.333,0.333,1","1",""
"","html-keyboard-response","185","55849","0.0-185.0","3OHYZ19UGDRSIL7CS23M4ZX6AI7OA8","AFHS2E60LZC6X","3P7RGTLO6EZ76AO3386R8ZK9IWWKAW","","null","<img src=""img/flower2.png"" style=""width:200px; border:14px solid green;"">","null","","","","","","","","",""
"","image-keyboard-response","186","55924","0.0-186.0","3OHYZ19UGDRSIL7CS23M4ZX6AI7OA8","AFHS2E60LZC6X","3P7RGTLO6EZ76AO3386R8ZK9IWWKAW","","73.80000001192093","img/flower6.png","76","74.30000001192093","3","0","2","1","1,0.333,0.333,0.333,1,0.333,0.333,0.333,1","1,0.333,0.333,0.333,1,0.333,0.333,0.333,1","1",""
"","html-keyboard-response","187","56226","0.0-187.0","3OHYZ19UGDRSIL7CS23M4ZX6AI7OA8","AFHS2E60LZC6X","3P7RGTLO6EZ76AO3386R8ZK9IWWKAW","","null","<img src=""img/flower6.png"" style=""width:200px;border:14px solid red;"">","null","","","","","","","","",""
"","image-keyboard-response","188","56332","0.0-188.0","3OHYZ19UGDRSIL7CS23M4ZX6AI7OA8","AFHS2E60LZC6X","3P7RGTLO6EZ76AO3386R8ZK9IWWKAW","","104.89999997615814","img/flower2.png","76","105.39999997615814","3","0","1","1","1,0.333,0.333,0.333,1,0.333,0.333,0.333,1","1,0.333,0.333,0.333,1,0.333,0.333,0.333,1","1",""
"","html-keyboard-response","189","56633","0.0-189.0","3OHYZ19UGDRSIL7CS23M4ZX6AI7OA8","AFHS2E60LZC6X","3P7RGTLO6EZ76AO3386R8ZK9IWWKAW","","null","<img src=""img/flower2.png"" style=""width:200px;border:14px solid red;"">","null","","","","","","","","",""
"","image-keyboard-response","190","56716","0.0-190.0","3OHYZ19UGDRSIL7CS23M4ZX6AI7OA8","AFHS2E60LZC6X","3P7RGTLO6EZ76AO3386R8ZK9IWWKAW","","82.19999998807907","img/flower2.png","76","82.69999998807907","3","0","1","1","1,0.333,0.333,0.333,1,0.333,0.333,0.333,1","1,0.333,0.333,0.333,1,0.333,0.333,0.333,1","1",""
"","html-keyboard-response","191","57018","0.0-191.0","3OHYZ19UGDRSIL7CS23M4ZX6AI7OA8","AFHS2E60LZC6X","3P7RGTLO6EZ76AO3386R8ZK9IWWKAW","","null","<img src=""img/flower2.png"" style=""width:200px;border:14px solid red;"">","null","","","","","","","","",""
"","image-keyboard-response","192","57916","0.0-192.0","3OHYZ19UGDRSIL7CS23M4ZX6AI7OA8","AFHS2E60LZC6X","3P7RGTLO6EZ76AO3386R8ZK9IWWKAW","","897.4000000357628","img/flower2.png","76","897.8999999761581","3","1","1","1","1,0.333,0.333,0.333,1,0.333,0.333,0.333,1","1,0.333,0.333,0.333,1,0.333,0.333,0.333,1","1",""
"","html-keyboard-response","193","58218","0.0-193.0","3OHYZ19UGDRSIL7CS23M4ZX6AI7OA8","AFHS2E60LZC6X","3P7RGTLO6EZ76AO3386R8ZK9IWWKAW","","null","<img src=""img/flower2.png"" style=""width:200px; border:14px solid green;"">","null","","","","","","","","",""
"","image-keyboard-response","194","58468","0.0-194.0","3OHYZ19UGDRSIL7CS23M4ZX6AI7OA8","AFHS2E60LZC6X","3P7RGTLO6EZ76AO3386R8ZK9IWWKAW","","249.19999998807907","img/flower5.png","76","249.60000002384186","3","1","3","1","1,0.333,0.333,0.333,1,0.333,0.333,0.333,1","1,0.333,0.333,0.333,1,0.333,0.333,0.333,1","1",""
"","html-keyboard-response","195","58770","0.0-195.0","3OHYZ19UGDRSIL7CS23M4ZX6AI7OA8","AFHS2E60LZC6X","3P7RGTLO6EZ76AO3386R8ZK9IWWKAW","","null","<img src=""img/flower5.png"" style=""width:200px; border:14px solid green;"">","null","","","","","","","","",""
"","image-keyboard-response","196","58860","0.0-196.0","3OHYZ19UGDRSIL7CS23M4ZX6AI7OA8","AFHS2E60LZC6X","3P7RGTLO6EZ76AO3386R8ZK9IWWKAW","","89.70000004768372","img/flower5.png","76","90.19999998807907","3","1","3","1","1,0.333,0.333,0.333,1,0.333,0.333,0.333,1","1,0.333,0.333,0.333,1,0.333,0.333,0.333,1","1",""
"","html-keyboard-response","197","59161","0.0-197.0","3OHYZ19UGDRSIL7CS23M4ZX6AI7OA8","AFHS2E60LZC6X","3P7RGTLO6EZ76AO3386R8ZK9IWWKAW","","null","<img src=""img/flower5.png"" style=""width:200px; border:14px solid green;"">","null","","","","","","","","",""
"","image-keyboard-response","198","59196","0.0-198.0","3OHYZ19UGDRSIL7CS23M4ZX6AI7OA8","AFHS2E60LZC6X","3P7RGTLO6EZ76AO3386R8ZK9IWWKAW","","33.80000001192093","img/flower6.png","76","34.30000001192093","3","0","2","1","1,0.333,0.333,0.333,1,0.333,0.333,0.333,1","1,0.333,0.333,0.333,1,0.333,0.333,0.333,1","1",""
"","html-keyboard-response","199","59497","0.0-199.0","3OHYZ19UGDRSIL7CS23M4ZX6AI7OA8","AFHS2E60LZC6X","3P7RGTLO6EZ76AO3386R8ZK9IWWKAW","","null","<img src=""img/flower6.png"" style=""width:200px;border:14px solid red;"">","null","","","","","","","","",""
"","image-keyboard-response","200","59532","0.0-200.0","3OHYZ19UGDRSIL7CS23M4ZX6AI7OA8","AFHS2E60LZC6X","3P7RGTLO6EZ76AO3386R8ZK9IWWKAW","","33.90000003576279","img/flower5.png","76","34.39999997615814","3","1","3","1","1,0.333,0.333,0.333,1,0.333,0.333,0.333,1","1,0.333,0.333,0.333,1,0.333,0.333,0.333,1","1",""
"","html-keyboard-response","201","59834","0.0-201.0","3OHYZ19UGDRSIL7CS23M4ZX6AI7OA8","AFHS2E60LZC6X","3P7RGTLO6EZ76AO3386R8ZK9IWWKAW","","null","<img src=""img/flower5.png"" style=""width:200px; border:14px solid green;"">","null","","","","","","","","",""
"","image-keyboard-response","202","59988","0.0-202.0","3OHYZ19UGDRSIL7CS23M4ZX6AI7OA8","AFHS2E60LZC6X","3P7RGTLO6EZ76AO3386R8ZK9IWWKAW","","153","img/flower5.png","76","153.60000002384186","3","1","3","1","1,0.333,0.333,0.333,1,0.333,0.333,0.333,1","1,0.333,0.333,0.333,1,0.333,0.333,0.333,1","1",""
"","html-keyboard-response","203","60290","0.0-203.0","3OHYZ19UGDRSIL7CS23M4ZX6AI7OA8","AFHS2E60LZC6X","3P7RGTLO6EZ76AO3386R8ZK9IWWKAW","","null","<img src=""img/flower5.png"" style=""width:200px; border:14px solid green;"">","null","","","","","","","","",""
"","image-keyboard-response","204","60436","0.0-204.0","3OHYZ19UGDRSIL7CS23M4ZX6AI7OA8","AFHS2E60LZC6X","3P7RGTLO6EZ76AO3386R8ZK9IWWKAW","","145.19999998807907","img/flower2.png","76","145.69999998807907","3","1","1","1","1,0.333,0.333,0.333,1,0.333,0.333,0.333,1","1,0.333,0.333,0.333,1,0.333,0.333,0.333,1","1",""
"","html-keyboard-response","205","60737","0.0-205.0","3OHYZ19UGDRSIL7CS23M4ZX6AI7OA8","AFHS2E60LZC6X","3P7RGTLO6EZ76AO3386R8ZK9IWWKAW","","null","<img src=""img/flower2.png"" style=""width:200px; border:14px solid green;"">","null","","","","","","","","",""
"","image-keyboard-response","206","60788","0.0-206.0","3OHYZ19UGDRSIL7CS23M4ZX6AI7OA8","AFHS2E60LZC6X","3P7RGTLO6EZ76AO3386R8ZK9IWWKAW","","49.60000002384186","img/flower6.png","76","50","3","0","2","1","1,0.333,0.333,0.333,1,0.333,0.333,0.333,1","1,0.333,0.333,0.333,1,0.333,0.333,0.333,1","1",""
"","html-keyboard-response","207","61089","0.0-207.0","3OHYZ19UGDRSIL7CS23M4ZX6AI7OA8","AFHS2E60LZC6X","3P7RGTLO6EZ76AO3386R8ZK9IWWKAW","","null","<img src=""img/flower6.png"" style=""width:200px;border:14px solid red;"">","null","","","","","","","","",""
"","image-keyboard-response","208","61124","0.0-208.0","3OHYZ19UGDRSIL7CS23M4ZX6AI7OA8","AFHS2E60LZC6X","3P7RGTLO6EZ76AO3386R8ZK9IWWKAW","","33.69999998807907","img/flower6.png","76","34.19999998807907","3","0","2","1","1,0.333,0.333,0.333,1,0.333,0.333,0.333,1","1,0.333,0.333,0.333,1,0.333,0.333,0.333,1","1",""
"","html-keyboard-response","209","61425","0.0-209.0","3OHYZ19UGDRSIL7CS23M4ZX6AI7OA8","AFHS2E60LZC6X","3P7RGTLO6EZ76AO3386R8ZK9IWWKAW","","null","<img src=""img/flower6.png"" style=""width:200px;border:14px solid red;"">","null","","","","","","","","",""
"","image-keyboard-response","210","61477","0.0-210.0","3OHYZ19UGDRSIL7CS23M4ZX6AI7OA8","AFHS2E60LZC6X","3P7RGTLO6EZ76AO3386R8ZK9IWWKAW","","50.89999997615814","img/flower2.png","76","51.5","3","1","1","1","1,0.333,0.333,0.333,1,0.333,0.333,0.333,1","1,0.333,0.333,0.333,1,0.333,0.333,0.333,1","1",""
"","html-keyboard-response","211","61779","0.0-211.0","3OHYZ19UGDRSIL7CS23M4ZX6AI7OA8","AFHS2E60LZC6X","3P7RGTLO6EZ76AO3386R8ZK9IWWKAW","","null","<img src=""img/flower2.png"" style=""width:200px; border:14px solid green;"">","null","","","","","","","","",""
"","image-keyboard-response","212","61924","0.0-212.0","3OHYZ19UGDRSIL7CS23M4ZX6AI7OA8","AFHS2E60LZC6X","3P7RGTLO6EZ76AO3386R8ZK9IWWKAW","","144.10000002384186","img/flower6.png","76","144.69999998807907","3","0","2","1","1,0.333,0.333,0.333,1,0.333,0.333,0.333,1","1,0.333,0.333,0.333,1,0.333,0.333,0.333,1","1",""
"","html-keyboard-response","213","62225","0.0-213.0","3OHYZ19UGDRSIL7CS23M4ZX6AI7OA8","AFHS2E60LZC6X","3P7RGTLO6EZ76AO3386R8ZK9IWWKAW","","null","<img src=""img/flower6.png"" style=""width:200px;border:14px solid red;"">","null","","","","","","","","",""
"","image-keyboard-response","214","62308","0.0-214.0","3OHYZ19UGDRSIL7CS23M4ZX6AI7OA8","AFHS2E60LZC6X","3P7RGTLO6EZ76AO3386R8ZK9IWWKAW","","82.40000003576279","img/flower6.png","76","83","3","1","2","1","1,0.333,0.333,0.333,1,0.333,0.333,0.333,1","1,0.333,0.333,0.333,1,0.333,0.333,0.333,1","1",""
"","html-keyboard-response","215","62609","0.0-215.0","3OHYZ19UGDRSIL7CS23M4ZX6AI7OA8","AFHS2E60LZC6X","3P7RGTLO6EZ76AO3386R8ZK9IWWKAW","","null","<img src=""img/flower6.png"" style=""width:200px; border:14px solid green;"">","null","","","","","","","","",""
"","image-keyboard-response","216","62660","0.0-216.0","3OHYZ19UGDRSIL7CS23M4ZX6AI7OA8","AFHS2E60LZC6X","3P7RGTLO6EZ76AO3386R8ZK9IWWKAW","","50","img/flower6.png","76","50.59999996423721","3","0","2","1","1,0.333,0.333,0.333,1,0.333,0.333,0.333,1","1,0.333,0.333,0.333,1,0.333,0.333,0.333,1","1",""
"","html-keyboard-response","217","62962","0.0-217.0","3OHYZ19UGDRSIL7CS23M4ZX6AI7OA8","AFHS2E60LZC6X","3P7RGTLO6EZ76AO3386R8ZK9IWWKAW","","null","<img src=""img/flower6.png"" style=""width:200px;border:14px solid red;"">","null","","","","","","","","",""
"","image-keyboard-response","218","62996","0.0-218.0","3OHYZ19UGDRSIL7CS23M4ZX6AI7OA8","AFHS2E60LZC6X","3P7RGTLO6EZ76AO3386R8ZK9IWWKAW","","32.90000003576279","img/flower5.png","76","33.30000001192093","3","1","3","1","1,0.333,0.333,0.333,1,0.333,0.333,0.333,1","1,0.333,0.333,0.333,1,0.333,0.333,0.333,1","1",""
"","html-keyboard-response","219","63297","0.0-219.0","3OHYZ19UGDRSIL7CS23M4ZX6AI7OA8","AFHS2E60LZC6X","3P7RGTLO6EZ76AO3386R8ZK9IWWKAW","","null","<img src=""img/flower5.png"" style=""width:200px; border:14px solid green;"">","null","","","","","","","","",""
"","image-keyboard-response","220","63364","0.0-220.0","3OHYZ19UGDRSIL7CS23M4ZX6AI7OA8","AFHS2E60LZC6X","3P7RGTLO6EZ76AO3386R8ZK9IWWKAW","","66.19999998807907","img/flower2.png","76","66.60000002384186","3","1","1","1","1,0.333,0.333,0.333,1,0.333,0.333,0.333,1","1,0.333,0.333,0.333,1,0.333,0.333,0.333,1","1",""
"","html-keyboard-response","221","63666","0.0-221.0","3OHYZ19UGDRSIL7CS23M4ZX6AI7OA8","AFHS2E60LZC6X","3P7RGTLO6EZ76AO3386R8ZK9IWWKAW","","null","<img src=""img/flower2.png"" style=""width:200px; border:14px solid green;"">","null","","","","","","","","",""
"","image-keyboard-response","222","63724","0.0-222.0","3OHYZ19UGDRSIL7CS23M4ZX6AI7OA8","AFHS2E60LZC6X","3P7RGTLO6EZ76AO3386R8ZK9IWWKAW","","57.30000001192093","img/flower5.png","76","57.69999998807907","3","1","3","1","1,0.333,0.333,0.333,1,0.333,0.333,0.333,1","1,0.333,0.333,0.333,1,0.333,0.333,0.333,1","1",""
"","html-keyboard-response","223","64026","0.0-223.0","3OHYZ19UGDRSIL7CS23M4ZX6AI7OA8","AFHS2E60LZC6X","3P7RGTLO6EZ76AO3386R8ZK9IWWKAW","","null","<img src=""img/flower5.png"" style=""width:200px; border:14px solid green;"">","null","","","","","","","","",""
"","image-keyboard-response","224","64084","0.0-224.0","3OHYZ19UGDRSIL7CS23M4ZX6AI7OA8","AFHS2E60LZC6X","3P7RGTLO6EZ76AO3386R8ZK9IWWKAW","","57.39999997615814","img/flower5.png","76","58","3","1","3","1","1,0.333,0.333,0.333,1,0.333,0.333,0.333,1","1,0.333,0.333,0.333,1,0.333,0.333,0.333,1","1",""
"","html-keyboard-response","225","64384","0.0-225.0","3OHYZ19UGDRSIL7CS23M4ZX6AI7OA8","AFHS2E60LZC6X","3P7RGTLO6EZ76AO3386R8ZK9IWWKAW","","null","<img src=""img/flower5.png"" style=""width:200px; border:14px solid green;"">","null","","","","","","","","",""
"","image-keyboard-response","226","64468","0.0-226.0","3OHYZ19UGDRSIL7CS23M4ZX6AI7OA8","AFHS2E60LZC6X","3P7RGTLO6EZ76AO3386R8ZK9IWWKAW","","82.60000002384186","img/flower5.png","76","83.10000002384186","3","1","3","1","1,0.333,0.333,0.333,1,0.333,0.333,0.333,1","1,0.333,0.333,0.333,1,0.333,0.333,0.333,1","1",""
"","html-keyboard-response","227","64769","0.0-227.0","3OHYZ19UGDRSIL7CS23M4ZX6AI7OA8","AFHS2E60LZC6X","3P7RGTLO6EZ76AO3386R8ZK9IWWKAW","","null","<img src=""img/flower5.png"" style=""width:200px; border:14px solid green;"">","null","","","","","","","","",""
"","image-keyboard-response","228","64844","0.0-228.0","3OHYZ19UGDRSIL7CS23M4ZX6AI7OA8","AFHS2E60LZC6X","3P7RGTLO6EZ76AO3386R8ZK9IWWKAW","","73.80000001192093","img/flower6.png","76","74.29999995231628","3","0","2","1","1,0.333,0.333,0.333,1,0.333,0.333,0.333,1","1,0.333,0.333,0.333,1,0.333,0.333,0.333,1","1",""
"","html-keyboard-response","229","65145","0.0-229.0","3OHYZ19UGDRSIL7CS23M4ZX6AI7OA8","AFHS2E60LZC6X","3P7RGTLO6EZ76AO3386R8ZK9IWWKAW","","null","<img src=""img/flower6.png"" style=""width:200px;border:14px solid red;"">","null","","","","","","","","",""
"","image-keyboard-response","230","65212","0.0-230.0","3OHYZ19UGDRSIL7CS23M4ZX6AI7OA8","AFHS2E60LZC6X","3P7RGTLO6EZ76AO3386R8ZK9IWWKAW","","66.30000001192093","img/flower5.png","76","66.60000002384186","3","1","3","1","1,0.333,0.333,0.333,1,0.333,0.333,0.333,1","1,0.333,0.333,0.333,1,0.333,0.333,0.333,1","1",""
"","html-keyboard-response","231","65513","0.0-231.0","3OHYZ19UGDRSIL7CS23M4ZX6AI7OA8","AFHS2E60LZC6X","3P7RGTLO6EZ76AO3386R8ZK9IWWKAW","","null","<img src=""img/flower5.png"" style=""width:200px; border:14px solid green;"">","null","","","","","","","","",""
"","image-keyboard-response","232","65572","0.0-232.0","3OHYZ19UGDRSIL7CS23M4ZX6AI7OA8","AFHS2E60LZC6X","3P7RGTLO6EZ76AO3386R8ZK9IWWKAW","","58.30000001192093","img/flower5.png","76","58.799999952316284","3","1","3","1","1,0.333,0.333,0.333,1,0.333,0.333,0.333,1","1,0.333,0.333,0.333,1,0.333,0.333,0.333,1","1",""
"","html-keyboard-response","233","65874","0.0-233.0","3OHYZ19UGDRSIL7CS23M4ZX6AI7OA8","AFHS2E60LZC6X","3P7RGTLO6EZ76AO3386R8ZK9IWWKAW","","null","<img src=""img/flower5.png"" style=""width:200px; border:14px solid green;"">","null","","","","","","","","",""
"","image-keyboard-response","234","65916","0.0-234.0","3OHYZ19UGDRSIL7CS23M4ZX6AI7OA8","AFHS2E60LZC6X","3P7RGTLO6EZ76AO3386R8ZK9IWWKAW","","41.59999996423721","img/flower5.png","76","42.10000002384186","3","1","3","1","1,0.333,0.333,0.333,1,0.333,0.333,0.333,1","1,0.333,0.333,0.333,1,0.333,0.333,0.333,1","1",""
"","html-keyboard-response","235","66217","0.0-235.0","3OHYZ19UGDRSIL7CS23M4ZX6AI7OA8","AFHS2E60LZC6X","3P7RGTLO6EZ76AO3386R8ZK9IWWKAW","","null","<img src=""img/flower5.png"" style=""width:200px; border:14px solid green;"">","null","","","","","","","","",""
"","image-keyboard-response","236","66276","0.0-236.0","3OHYZ19UGDRSIL7CS23M4ZX6AI7OA8","AFHS2E60LZC6X","3P7RGTLO6EZ76AO3386R8ZK9IWWKAW","","57.69999998807907","img/flower6.png","76","58.19999998807907","3","0","2","1","1,0.333,0.333,0.333,1,0.333,0.333,0.333,1","1,0.333,0.333,0.333,1,0.333,0.333,0.333,1","1",""
"","html-keyboard-response","237","66577","0.0-237.0","3OHYZ19UGDRSIL7CS23M4ZX6AI7OA8","AFHS2E60LZC6X","3P7RGTLO6EZ76AO3386R8ZK9IWWKAW","","null","<img src=""img/flower6.png"" style=""width:200px;border:14px solid red;"">","null","","","","","","","","",""
"","image-keyboard-response","238","66628","0.0-238.0","3OHYZ19UGDRSIL7CS23M4ZX6AI7OA8","AFHS2E60LZC6X","3P7RGTLO6EZ76AO3386R8ZK9IWWKAW","","50","img/flower2.png","76","50.5","3","0","1","1","1,0.333,0.333,0.333,1,0.333,0.333,0.333,1","1,0.333,0.333,0.333,1,0.333,0.333,0.333,1","1",""
"","html-keyboard-response","239","66929","0.0-239.0","3OHYZ19UGDRSIL7CS23M4ZX6AI7OA8","AFHS2E60LZC6X","3P7RGTLO6EZ76AO3386R8ZK9IWWKAW","","null","<img src=""img/flower2.png"" style=""width:200px;border:14px solid red;"">","null","","","","","","","","",""
"","image-keyboard-response","240","67012","0.0-240.0","3OHYZ19UGDRSIL7CS23M4ZX6AI7OA8","AFHS2E60LZC6X","3P7RGTLO6EZ76AO3386R8ZK9IWWKAW","","82.39999997615814","img/flower2.png","76","82.89999997615814","3","0","1","1","1,0.333,0.333,0.333,1,0.333,0.333,0.333,1","1,0.333,0.333,0.333,1,0.333,0.333,0.333,1","1",""
"","html-keyboard-response","241","67314","0.0-241.0","3OHYZ19UGDRSIL7CS23M4ZX6AI7OA8","AFHS2E60LZC6X","3P7RGTLO6EZ76AO3386R8ZK9IWWKAW","","null","<img src=""img/flower2.png"" style=""width:200px;border:14px solid red;"">","null","","","","","","","","",""
"","image-keyboard-response","242","67380","0.0-242.0","3OHYZ19UGDRSIL7CS23M4ZX6AI7OA8","AFHS2E60LZC6X","3P7RGTLO6EZ76AO3386R8ZK9IWWKAW","","65.5","img/flower6.png","76","66","3","1","2","1","1,0.333,0.333,0.333,1,0.333,0.333,0.333,1","1,0.333,0.333,0.333,1,0.333,0.333,0.333,1","1",""
"","html-keyboard-response","243","67682","0.0-243.0","3OHYZ19UGDRSIL7CS23M4ZX6AI7OA8","AFHS2E60LZC6X","3P7RGTLO6EZ76AO3386R8ZK9IWWKAW","","null","<img src=""img/flower6.png"" style=""width:200px; border:14px solid green;"">","null","","","","","","","","",""
"","image-keyboard-response","244","67740","0.0-244.0","3OHYZ19UGDRSIL7CS23M4ZX6AI7OA8","AFHS2E60LZC6X","3P7RGTLO6EZ76AO3386R8ZK9IWWKAW","","57.59999996423721","img/flower5.png","76","58.30000001192093","3","1","3","1","1,0.333,0.333,0.333,1,0.333,0.333,0.333,1","1,0.333,0.333,0.333,1,0.333,0.333,0.333,1","1",""
"","html-keyboard-response","245","68041","0.0-245.0","3OHYZ19UGDRSIL7CS23M4ZX6AI7OA8","AFHS2E60LZC6X","3P7RGTLO6EZ76AO3386R8ZK9IWWKAW","","null","<img src=""img/flower5.png"" style=""width:200px; border:14px solid green;"">","null","","","","","","","","",""
"","image-keyboard-response","246","68100","0.0-246.0","3OHYZ19UGDRSIL7CS23M4ZX6AI7OA8","AFHS2E60LZC6X","3P7RGTLO6EZ76AO3386R8ZK9IWWKAW","","57.89999997615814","img/flower2.png","76","58.30000001192093","3","0","1","1","1,0.333,0.333,0.333,1,0.333,0.333,0.333,1","1,0.333,0.333,0.333,1,0.333,0.333,0.333,1","1",""
"","html-keyboard-response","247","68401","0.0-247.0","3OHYZ19UGDRSIL7CS23M4ZX6AI7OA8","AFHS2E60LZC6X","3P7RGTLO6EZ76AO3386R8ZK9IWWKAW","","null","<img src=""img/flower2.png"" style=""width:200px;border:14px solid red;"">","null","","","","","","","","",""
"","image-keyboard-response","248","68476","0.0-248.0","3OHYZ19UGDRSIL7CS23M4ZX6AI7OA8","AFHS2E60LZC6X","3P7RGTLO6EZ76AO3386R8ZK9IWWKAW","","74","img/flower5.png","76","74.5","3","1","3","1","1,0.333,0.333,0.333,1,0.333,0.333,0.333,1","1,0.333,0.333,0.333,1,0.333,0.333,0.333,1","1",""
"","html-keyboard-response","249","68780","0.0-249.0","3OHYZ19UGDRSIL7CS23M4ZX6AI7OA8","AFHS2E60LZC6X","3P7RGTLO6EZ76AO3386R8ZK9IWWKAW","","null","<img src=""img/flower5.png"" style=""width:200px; border:14px solid green;"">","null","","","","","","","","",""
"","image-keyboard-response","250","70140","0.0-250.0","3OHYZ19UGDRSIL7CS23M4ZX6AI7OA8","AFHS2E60LZC6X","3P7RGTLO6EZ76AO3386R8ZK9IWWKAW","","1359.2999999523163","img/flower6.png","76","1359.9000000357628","3","1","2","1","1,0.333,0.333,0.333,1,0.333,0.333,0.333,1","1,0.333,0.333,0.333,1,0.333,0.333,0.333,1","1",""
"","html-keyboard-response","251","70442","0.0-251.0","3OHYZ19UGDRSIL7CS23M4ZX6AI7OA8","AFHS2E60LZC6X","3P7RGTLO6EZ76AO3386R8ZK9IWWKAW","","null","<img src=""img/flower6.png"" style=""width:200px; border:14px solid green;"">","null","","","","","","","","",""
"","image-keyboard-response","252","71340","0.0-252.0","3OHYZ19UGDRSIL7CS23M4ZX6AI7OA8","AFHS2E60LZC6X","3P7RGTLO6EZ76AO3386R8ZK9IWWKAW","","897.0999999642372","img/flower6.png","75","897.6999999880791","2","1","2","1","1,0.333,0.333,0.333,1,0.333,0.333,0.333,1","1,0.333,0.333,0.333,1,0.333,0.333,0.333,1","1",""
"","html-keyboard-response","253","71642","0.0-253.0","3OHYZ19UGDRSIL7CS23M4ZX6AI7OA8","AFHS2E60LZC6X","3P7RGTLO6EZ76AO3386R8ZK9IWWKAW","","null","<img src=""img/flower6.png"" style=""width:200px; border:14px solid green;"">","null","","","","","","","","",""
"","image-keyboard-response","254","71773","0.0-254.0","3OHYZ19UGDRSIL7CS23M4ZX6AI7OA8","AFHS2E60LZC6X","3P7RGTLO6EZ76AO3386R8ZK9IWWKAW","","129.69999998807907","img/flower2.png","75","130.10000002384186","2","0","1","1","1,0.333,0.333,0.333,1,0.333,0.333,0.333,1","1,0.333,0.333,0.333,1,0.333,0.333,0.333,1","1",""
"","html-keyboard-response","255","72075","0.0-255.0","3OHYZ19UGDRSIL7CS23M4ZX6AI7OA8","AFHS2E60LZC6X","3P7RGTLO6EZ76AO3386R8ZK9IWWKAW","","null","<img src=""img/flower2.png"" style=""width:200px;border:14px solid red;"">","null","","","","","","","","",""
"","image-keyboard-response","256","72076","0.0-256.0","3OHYZ19UGDRSIL7CS23M4ZX6AI7OA8","AFHS2E60LZC6X","3P7RGTLO6EZ76AO3386R8ZK9IWWKAW","","0.10000002384185791","img/flower6.png","75","0.6000000238418579","2","1","2","1","1,0.333,0.333,0.333,1,0.333,0.333,0.333,1","1,0.333,0.333,0.333,1,0.333,0.333,0.333,1","1",""
"","html-keyboard-response","257","72378","0.0-257.0","3OHYZ19UGDRSIL7CS23M4ZX6AI7OA8","AFHS2E60LZC6X","3P7RGTLO6EZ76AO3386R8ZK9IWWKAW","","null","<img src=""img/flower6.png"" style=""width:200px; border:14px solid green;"">","null","","","","","","","","",""
"","image-keyboard-response","258","72644","0.0-258.0","3OHYZ19UGDRSIL7CS23M4ZX6AI7OA8","AFHS2E60LZC6X","3P7RGTLO6EZ76AO3386R8ZK9IWWKAW","","265.2999999523163","img/flower5.png","75","265.69999998807907","2","1","3","1","1,0.333,0.333,0.333,1,0.333,0.333,0.333,1","1,0.333,0.333,0.333,1,0.333,0.333,0.333,1","1",""
"","html-keyboard-response","259","72946","0.0-259.0","3OHYZ19UGDRSIL7CS23M4ZX6AI7OA8","AFHS2E60LZC6X","3P7RGTLO6EZ76AO3386R8ZK9IWWKAW","","null","<img src=""img/flower5.png"" style=""width:200px; border:14px solid green;"">","null","","","","","","","","",""
"","image-keyboard-response","260","73004","0.0-260.0","3OHYZ19UGDRSIL7CS23M4ZX6AI7OA8","AFHS2E60LZC6X","3P7RGTLO6EZ76AO3386R8ZK9IWWKAW","","57.60000002384186","img/flower6.png","75","58.10000002384186","2","1","2","1","1,0.333,0.333,0.333,1,0.333,0.333,0.333,1","1,0.333,0.333,0.333,1,0.333,0.333,0.333,1","1",""
"","html-keyboard-response","261","73306","0.0-261.0","3OHYZ19UGDRSIL7CS23M4ZX6AI7OA8","AFHS2E60LZC6X","3P7RGTLO6EZ76AO3386R8ZK9IWWKAW","","null","<img src=""img/flower6.png"" style=""width:200px; border:14px solid green;"">","null","","","","","","","","",""
"","image-keyboard-response","262","73316","0.0-262.0","3OHYZ19UGDRSIL7CS23M4ZX6AI7OA8","AFHS2E60LZC6X","3P7RGTLO6EZ76AO3386R8ZK9IWWKAW","","8.799999952316284","img/flower5.png","75","9.300000011920929","2","0","3","1","1,0.333,0.333,0.333,1,0.333,0.333,0.333,1","1,0.333,0.333,0.333,1,0.333,0.333,0.333,1","1",""
"","html-keyboard-response","263","73618","0.0-263.0","3OHYZ19UGDRSIL7CS23M4ZX6AI7OA8","AFHS2E60LZC6X","3P7RGTLO6EZ76AO3386R8ZK9IWWKAW","","null","<img src=""img/flower5.png"" style=""width:200px;border:14px solid red;"">","null","","","","","","","","",""
"","image-keyboard-response","264","73636","0.0-264.0","3OHYZ19UGDRSIL7CS23M4ZX6AI7OA8","AFHS2E60LZC6X","3P7RGTLO6EZ76AO3386R8ZK9IWWKAW","","17","img/flower6.png","75","17.5","2","1","2","1","1,0.333,0.333,0.333,1,0.333,0.333,0.333,1","1,0.333,0.333,0.333,1,0.333,0.333,0.333,1","1",""
"","html-keyboard-response","265","73937","0.0-265.0","3OHYZ19UGDRSIL7CS23M4ZX6AI7OA8","AFHS2E60LZC6X","3P7RGTLO6EZ76AO3386R8ZK9IWWKAW","","null","<img src=""img/flower6.png"" style=""width:200px; border:14px solid green;"">","null","","","","","","","","",""
"","image-keyboard-response","266","73972","0.0-266.0","3OHYZ19UGDRSIL7CS23M4ZX6AI7OA8","AFHS2E60LZC6X","3P7RGTLO6EZ76AO3386R8ZK9IWWKAW","","34.19999998807907","img/flower2.png","75","34.69999998807907","2","0","1","1","1,0.333,0.333,0.333,1,0.333,0.333,0.333,1","1,0.333,0.333,0.333,1,0.333,0.333,0.333,1","1",""
"","html-keyboard-response","267","74274","0.0-267.0","3OHYZ19UGDRSIL7CS23M4ZX6AI7OA8","AFHS2E60LZC6X","3P7RGTLO6EZ76AO3386R8ZK9IWWKAW","","null","<img src=""img/flower2.png"" style=""width:200px;border:14px solid red;"">","null","","","","","","","","",""
"","image-keyboard-response","268","74308","0.0-268.0","3OHYZ19UGDRSIL7CS23M4ZX6AI7OA8","AFHS2E60LZC6X","3P7RGTLO6EZ76AO3386R8ZK9IWWKAW","","33.60000002384186","img/flower5.png","75","34.10000002384186","2","0","3","1","1,0.333,0.333,0.333,1,0.333,0.333,0.333,1","1,0.333,0.333,0.333,1,0.333,0.333,0.333,1","1",""
"","html-keyboard-response","269","74610","0.0-269.0","3OHYZ19UGDRSIL7CS23M4ZX6AI7OA8","AFHS2E60LZC6X","3P7RGTLO6EZ76AO3386R8ZK9IWWKAW","","null","<img src=""img/flower5.png"" style=""width:200px;border:14px solid red;"">","null","","","","","","","","",""
"","image-keyboard-response","270","74732","0.0-270.0","3OHYZ19UGDRSIL7CS23M4ZX6AI7OA8","AFHS2E60LZC6X","3P7RGTLO6EZ76AO3386R8ZK9IWWKAW","","121.5","img/flower6.png","75","122.10000002384186","2","1","2","1","1,0.333,0.333,0.333,1,0.333,0.333,0.333,1","1,0.333,0.333,0.333,1,0.333,0.333,0.333,1","1",""
"","html-keyboard-response","271","75034","0.0-271.0","3OHYZ19UGDRSIL7CS23M4ZX6AI7OA8","AFHS2E60LZC6X","3P7RGTLO6EZ76AO3386R8ZK9IWWKAW","","null","<img src=""img/flower6.png"" style=""width:200px; border:14px solid green;"">","null","","","","","","","","",""
"","image-keyboard-response","272","75139","0.0-272.0","3OHYZ19UGDRSIL7CS23M4ZX6AI7OA8","AFHS2E60LZC6X","3P7RGTLO6EZ76AO3386R8ZK9IWWKAW","","104.39999997615814","img/flower2.png","75","105","2","1","1","1","1,0.333,0.333,0.333,1,0.333,0.333,0.333,1","1,0.333,0.333,0.333,1,0.333,0.333,0.333,1","1",""
"","html-keyboard-response","273","75441","0.0-273.0","3OHYZ19UGDRSIL7CS23M4ZX6AI7OA8","AFHS2E60LZC6X","3P7RGTLO6EZ76AO3386R8ZK9IWWKAW","","null","<img src=""img/flower2.png"" style=""width:200px; border:14px solid green;"">","null","","","","","","","","",""
"","image-keyboard-response","274","75452","0.0-274.0","3OHYZ19UGDRSIL7CS23M4ZX6AI7OA8","AFHS2E60LZC6X","3P7RGTLO6EZ76AO3386R8ZK9IWWKAW","","10","img/flower6.png","75","10.600000023841858","2","1","2","1","1,0.333,0.333,0.333,1,0.333,0.333,0.333,1","1,0.333,0.333,0.333,1,0.333,0.333,0.333,1","1",""
"","html-keyboard-response","275","75754","0.0-275.0","3OHYZ19UGDRSIL7CS23M4ZX6AI7OA8","AFHS2E60LZC6X","3P7RGTLO6EZ76AO3386R8ZK9IWWKAW","","null","<img src=""img/flower6.png"" style=""width:200px; border:14px solid green;"">","null","","","","","","","","",""
"","image-keyboard-response","276","75804","0.0-276.0","3OHYZ19UGDRSIL7CS23M4ZX6AI7OA8","AFHS2E60LZC6X","3P7RGTLO6EZ76AO3386R8ZK9IWWKAW","","49","img/flower5.png","75","49.5","2","1","3","1","1,0.333,0.333,0.333,1,0.333,0.333,0.333,1","1,0.333,0.333,0.333,1,0.333,0.333,0.333,1","1",""
"","html-keyboard-response","277","76106","0.0-277.0","3OHYZ19UGDRSIL7CS23M4ZX6AI7OA8","AFHS2E60LZC6X","3P7RGTLO6EZ76AO3386R8ZK9IWWKAW","","null","<img src=""img/flower5.png"" style=""width:200px; border:14px solid green;"">","null","","","","","","","","",""
"","image-keyboard-response","278","76140","0.0-278.0","3OHYZ19UGDRSIL7CS23M4ZX6AI7OA8","AFHS2E60LZC6X","3P7RGTLO6EZ76AO3386R8ZK9IWWKAW","","33.30000001192093","img/flower5.png","75","33.69999998807907","2","1","3","1","1,0.333,0.333,0.333,1,0.333,0.333,0.333,1","1,0.333,0.333,0.333,1,0.333,0.333,0.333,1","1",""
"","html-keyboard-response","279","76442","0.0-279.0","3OHYZ19UGDRSIL7CS23M4ZX6AI7OA8","AFHS2E60LZC6X","3P7RGTLO6EZ76AO3386R8ZK9IWWKAW","","null","<img src=""img/flower5.png"" style=""width:200px; border:14px solid green;"">","null","","","","","","","","",""
"","image-keyboard-response","280","76468","0.0-280.0","3OHYZ19UGDRSIL7CS23M4ZX6AI7OA8","AFHS2E60LZC6X","3P7RGTLO6EZ76AO3386R8ZK9IWWKAW","","25.599999964237213","img/flower2.png","75","26.200000047683716","2","1","1","1","1,0.333,0.333,0.333,1,0.333,0.333,0.333,1","1,0.333,0.333,0.333,1,0.333,0.333,0.333,1","1",""
"","html-keyboard-response","281","76769","0.0-281.0","3OHYZ19UGDRSIL7CS23M4ZX6AI7OA8","AFHS2E60LZC6X","3P7RGTLO6EZ76AO3386R8ZK9IWWKAW","","null","<img src=""img/flower2.png"" style=""width:200px; border:14px solid green;"">","null","","","","","","","","",""
"","image-keyboard-response","282","76812","0.0-282.0","3OHYZ19UGDRSIL7CS23M4ZX6AI7OA8","AFHS2E60LZC6X","3P7RGTLO6EZ76AO3386R8ZK9IWWKAW","","41.59999996423721","img/flower2.png","75","42.09999996423721","2","0","1","1","1,0.333,0.333,0.333,1,0.333,0.333,0.333,1","1,0.333,0.333,0.333,1,0.333,0.333,0.333,1","1",""
"","html-keyboard-response","283","77113","0.0-283.0","3OHYZ19UGDRSIL7CS23M4ZX6AI7OA8","AFHS2E60LZC6X","3P7RGTLO6EZ76AO3386R8ZK9IWWKAW","","null","<img src=""img/flower2.png"" style=""width:200px;border:14px solid red;"">","null","","","","","","","","",""
"","image-keyboard-response","284","77156","0.0-284.0","3OHYZ19UGDRSIL7CS23M4ZX6AI7OA8","AFHS2E60LZC6X","3P7RGTLO6EZ76AO3386R8ZK9IWWKAW","","41.90000003576279","img/flower6.png","75","42.39999997615814","2","1","2","1","1,0.333,0.333,0.333,1,0.333,0.333,0.333,1","1,0.333,0.333,0.333,1,0.333,0.333,0.333,1","1",""
"","html-keyboard-response","285","77457","0.0-285.0","3OHYZ19UGDRSIL7CS23M4ZX6AI7OA8","AFHS2E60LZC6X","3P7RGTLO6EZ76AO3386R8ZK9IWWKAW","","null","<img src=""img/flower6.png"" style=""width:200px; border:14px solid green;"">","null","","","","","","","","",""
"","image-keyboard-response","286","77500","0.0-286.0","3OHYZ19UGDRSIL7CS23M4ZX6AI7OA8","AFHS2E60LZC6X","3P7RGTLO6EZ76AO3386R8ZK9IWWKAW","","42.19999998807907","img/flower5.png","75","42.700000047683716","2","0","3","1","1,0.333,0.333,0.333,1,0.333,0.333,0.333,1","1,0.333,0.333,0.333,1,0.333,0.333,0.333,1","1",""
"","html-keyboard-response","287","77801","0.0-287.0","3OHYZ19UGDRSIL7CS23M4ZX6AI7OA8","AFHS2E60LZC6X","3P7RGTLO6EZ76AO3386R8ZK9IWWKAW","","null","<img src=""img/flower5.png"" style=""width:200px;border:14px solid red;"">","null","","","","","","","","",""
"","image-keyboard-response","288","77836","0.0-288.0","3OHYZ19UGDRSIL7CS23M4ZX6AI7OA8","AFHS2E60LZC6X","3P7RGTLO6EZ76AO3386R8ZK9IWWKAW","","34.39999997615814","img/flower2.png","75","34.80000001192093","2","0","1","1","1,0.333,0.333,0.333,1,0.333,0.333,0.333,1","1,0.333,0.333,0.333,1,0.333,0.333,0.333,1","1",""
"","html-keyboard-response","289","78138","0.0-289.0","3OHYZ19UGDRSIL7CS23M4ZX6AI7OA8","AFHS2E60LZC6X","3P7RGTLO6EZ76AO3386R8ZK9IWWKAW","","null","<img src=""img/flower2.png"" style=""width:200px;border:14px solid red;"">","null","","","","","","","","",""
"","image-keyboard-response","290","78204","0.0-290.0","3OHYZ19UGDRSIL7CS23M4ZX6AI7OA8","AFHS2E60LZC6X","3P7RGTLO6EZ76AO3386R8ZK9IWWKAW","","65.5","img/flower5.png","75","66","2","0","3","1","1,0.333,0.333,0.333,1,0.333,0.333,0.333,1","1,0.333,0.333,0.333,1,0.333,0.333,0.333,1","1",""
"","html-keyboard-response","291","78504","0.0-291.0","3OHYZ19UGDRSIL7CS23M4ZX6AI7OA8","AFHS2E60LZC6X","3P7RGTLO6EZ76AO3386R8ZK9IWWKAW","","null","<img src=""img/flower5.png"" style=""width:200px;border:14px solid red;"">","null","","","","","","","","",""
"","image-keyboard-response","292","78556","0.0-292.0","3OHYZ19UGDRSIL7CS23M4ZX6AI7OA8","AFHS2E60LZC6X","3P7RGTLO6EZ76AO3386R8ZK9IWWKAW","","50.69999998807907","img/flower6.png","75","51.19999998807907","2","1","2","1","1,0.333,0.333,0.333,1,0.333,0.333,0.333,1","1,0.333,0.333,0.333,1,0.333,0.333,0.333,1","1",""
"","html-keyboard-response","293","78862","0.0-293.0","3OHYZ19UGDRSIL7CS23M4ZX6AI7OA8","AFHS2E60LZC6X","3P7RGTLO6EZ76AO3386R8ZK9IWWKAW","","null","<img src=""img/flower6.png"" style=""width:200px; border:14px solid green;"">","null","","","","","","","","",""
"","image-keyboard-response","294","78924","0.0-294.0","3OHYZ19UGDRSIL7CS23M4ZX6AI7OA8","AFHS2E60LZC6X","3P7RGTLO6EZ76AO3386R8ZK9IWWKAW","","61","img/flower6.png","75","61.5","2","1","2","1","1,0.333,0.333,0.333,1,0.333,0.333,0.333,1","1,0.333,0.333,0.333,1,0.333,0.333,0.333,1","1",""
"","html-keyboard-response","295","79226","0.0-295.0","3OHYZ19UGDRSIL7CS23M4ZX6AI7OA8","AFHS2E60LZC6X","3P7RGTLO6EZ76AO3386R8ZK9IWWKAW","","null","<img src=""img/flower6.png"" style=""width:200px; border:14px solid green;"">","null","","","","","","","","",""
"","image-keyboard-response","296","79444","0.0-296.0","3OHYZ19UGDRSIL7CS23M4ZX6AI7OA8","AFHS2E60LZC6X","3P7RGTLO6EZ76AO3386R8ZK9IWWKAW","","216.60000002384186","img/flower6.png","74","217.30000001192093","1","0","2","1","1,0.333,0.333,0.333,1,0.333,0.333,0.333,1","1,0.333,0.333,0.333,1,0.333,0.333,0.333,1","1",""
"","html-keyboard-response","297","79746","0.0-297.0","3OHYZ19UGDRSIL7CS23M4ZX6AI7OA8","AFHS2E60LZC6X","3P7RGTLO6EZ76AO3386R8ZK9IWWKAW","","null","<img src=""img/flower6.png"" style=""width:200px;border:14px solid red;"">","null","","","","","","","","",""
"","image-keyboard-response","298","79916","0.0-298.0","3OHYZ19UGDRSIL7CS23M4ZX6AI7OA8","AFHS2E60LZC6X","3P7RGTLO6EZ76AO3386R8ZK9IWWKAW","","169.4000000357628","img/flower2.png","75","170","2","1","1","1","1,0.333,0.333,0.333,1,0.333,0.333,0.333,1","1,0.333,0.333,0.333,1,0.333,0.333,0.333,1","1",""
"","html-keyboard-response","299","80216","0.0-299.0","3OHYZ19UGDRSIL7CS23M4ZX6AI7OA8","AFHS2E60LZC6X","3P7RGTLO6EZ76AO3386R8ZK9IWWKAW","","null","<img src=""img/flower2.png"" style=""width:200px; border:14px solid green;"">","null","","","","","","","","",""
"","image-keyboard-response","300","80276","0.0-300.0","3OHYZ19UGDRSIL7CS23M4ZX6AI7OA8","AFHS2E60LZC6X","3P7RGTLO6EZ76AO3386R8ZK9IWWKAW","","58.799999952316284","img/flower2.png","75","59.30000001192093","2","1","1","1","1,0.333,0.333,0.333,1,0.333,0.333,0.333,1","1,0.333,0.333,0.333,1,0.333,0.333,0.333,1","1",""
"","html-keyboard-response","301","80577","0.0-301.0","3OHYZ19UGDRSIL7CS23M4ZX6AI7OA8","AFHS2E60LZC6X","3P7RGTLO6EZ76AO3386R8ZK9IWWKAW","","null","<img src=""img/flower2.png"" style=""width:200px; border:14px solid green;"">","null","","","","","","","","",""
"","image-keyboard-response","302","80612","0.0-302.0","3OHYZ19UGDRSIL7CS23M4ZX6AI7OA8","AFHS2E60LZC6X","3P7RGTLO6EZ76AO3386R8ZK9IWWKAW","","33.80000001192093","img/flower2.png","75","34.39999997615814","2","0","1","1","1,0.333,0.333,0.333,1,0.333,0.333,0.333,1","1,0.333,0.333,0.333,1,0.333,0.333,0.333,1","1",""
"","html-keyboard-response","303","80914","0.0-303.0","3OHYZ19UGDRSIL7CS23M4ZX6AI7OA8","AFHS2E60LZC6X","3P7RGTLO6EZ76AO3386R8ZK9IWWKAW","","null","<img src=""img/flower2.png"" style=""width:200px;border:14px solid red;"">","null","","","","","","","","",""
"","image-keyboard-response","304","80996","0.0-304.0","3OHYZ19UGDRSIL7CS23M4ZX6AI7OA8","AFHS2E60LZC6X","3P7RGTLO6EZ76AO3386R8ZK9IWWKAW","","81.10000002384186","img/flower5.png","75","81.60000002384186","2","1","3","1","1,0.333,0.333,0.333,1,0.333,0.333,0.333,1","1,0.333,0.333,0.333,1,0.333,0.333,0.333,1","1",""
"","html-keyboard-response","305","81311","0.0-305.0","3OHYZ19UGDRSIL7CS23M4ZX6AI7OA8","AFHS2E60LZC6X","3P7RGTLO6EZ76AO3386R8ZK9IWWKAW","","null","<img src=""img/flower5.png"" style=""width:200px; border:14px solid green;"">","null","","","","","","","","",""
"","image-keyboard-response","306","81412","0.0-306.0","3OHYZ19UGDRSIL7CS23M4ZX6AI7OA8","AFHS2E60LZC6X","3P7RGTLO6EZ76AO3386R8ZK9IWWKAW","","100.09999996423721","img/flower5.png","75","100.69999998807907","2","1","3","1","1,0.333,0.333,0.333,1,0.333,0.333,0.333,1","1,0.333,0.333,0.333,1,0.333,0.333,0.333,1","1",""
"","html-keyboard-response","307","81714","0.0-307.0","3OHYZ19UGDRSIL7CS23M4ZX6AI7OA8","AFHS2E60LZC6X","3P7RGTLO6EZ76AO3386R8ZK9IWWKAW","","null","<img src=""img/flower5.png"" style=""width:200px; border:14px solid green;"">","null","","","","","","","","",""
"","image-keyboard-response","308","81885","0.0-308.0","3OHYZ19UGDRSIL7CS23M4ZX6AI7OA8","AFHS2E60LZC6X","3P7RGTLO6EZ76AO3386R8ZK9IWWKAW","","170.39999997615814","img/flower6.png","76","170.89999997615814","3","0","2","1","1,0.333,0.333,0.333,1,0.333,0.333,0.333,1","1,0.333,0.333,0.333,1,0.333,0.333,0.333,1","1",""
"","html-keyboard-response","309","82185","0.0-309.0","3OHYZ19UGDRSIL7CS23M4ZX6AI7OA8","AFHS2E60LZC6X","3P7RGTLO6EZ76AO3386R8ZK9IWWKAW","","null","<img src=""img/flower6.png"" style=""width:200px;border:14px solid red;"">","null","","","","","","","","",""
"","image-keyboard-response","310","82228","0.0-310.0","3OHYZ19UGDRSIL7CS23M4ZX6AI7OA8","AFHS2E60LZC6X","3P7RGTLO6EZ76AO3386R8ZK9IWWKAW","","41.89999997615814","img/flower6.png","76","42.40000003576279","3","1","2","1","1,0.333,0.333,0.333,1,0.333,0.333,0.333,1","1,0.333,0.333,0.333,1,0.333,0.333,0.333,1","1",""
"","html-keyboard-response","311","82530","0.0-311.0","3OHYZ19UGDRSIL7CS23M4ZX6AI7OA8","AFHS2E60LZC6X","3P7RGTLO6EZ76AO3386R8ZK9IWWKAW","","null","<img src=""img/flower6.png"" style=""width:200px; border:14px solid green;"">","null","","","","","","","","",""
"","image-keyboard-response","312","82652","0.0-312.0","3OHYZ19UGDRSIL7CS23M4ZX6AI7OA8","AFHS2E60LZC6X","3P7RGTLO6EZ76AO3386R8ZK9IWWKAW","","120.90000003576279","img/flower6.png","75","121.5","2","1","2","1","1,0.333,0.333,0.333,1,0.333,0.333,0.333,1","1,0.333,0.333,0.333,1,0.333,0.333,0.333,1","1",""
"","html-keyboard-response","313","82954","0.0-313.0","3OHYZ19UGDRSIL7CS23M4ZX6AI7OA8","AFHS2E60LZC6X","3P7RGTLO6EZ76AO3386R8ZK9IWWKAW","","null","<img src=""img/flower6.png"" style=""width:200px; border:14px solid green;"">","null","","","","","","","","",""
"","image-keyboard-response","314","83004","0.0-314.0","3OHYZ19UGDRSIL7CS23M4ZX6AI7OA8","AFHS2E60LZC6X","3P7RGTLO6EZ76AO3386R8ZK9IWWKAW","","49.30000001192093","img/flower5.png","75","49.90000003576279","2","0","3","1","1,0.333,0.333,0.333,1,0.333,0.333,0.333,1","1,0.333,0.333,0.333,1,0.333,0.333,0.333,1","1",""
"","html-keyboard-response","315","83305","0.0-315.0","3OHYZ19UGDRSIL7CS23M4ZX6AI7OA8","AFHS2E60LZC6X","3P7RGTLO6EZ76AO3386R8ZK9IWWKAW","","null","<img src=""img/flower5.png"" style=""width:200px;border:14px solid red;"">","null","","","","","","","","",""
"","image-keyboard-response","316","83372","0.0-316.0","3OHYZ19UGDRSIL7CS23M4ZX6AI7OA8","AFHS2E60LZC6X","3P7RGTLO6EZ76AO3386R8ZK9IWWKAW","","66.5","img/flower2.png","75","66.89999997615814","2","1","1","1","1,0.333,0.333,0.333,1,0.333,0.333,0.333,1","1,0.333,0.333,0.333,1,0.333,0.333,0.333,1","1",""
"","html-keyboard-response","317","83673","0.0-317.0","3OHYZ19UGDRSIL7CS23M4ZX6AI7OA8","AFHS2E60LZC6X","3P7RGTLO6EZ76AO3386R8ZK9IWWKAW","","null","<img src=""img/flower2.png"" style=""width:200px; border:14px solid green;"">","null","","","","","","","","",""
"","image-keyboard-response","318","83876","0.0-318.0","3OHYZ19UGDRSIL7CS23M4ZX6AI7OA8","AFHS2E60LZC6X","3P7RGTLO6EZ76AO3386R8ZK9IWWKAW","","201.79999995231628","img/flower6.png","75","202.30000001192093","2","1","2","1","1,0.333,0.333,0.333,1,0.333,0.333,0.333,1","1,0.333,0.333,0.333,1,0.333,0.333,0.333,1","1",""
"","html-keyboard-response","319","84178","0.0-319.0","3OHYZ19UGDRSIL7CS23M4ZX6AI7OA8","AFHS2E60LZC6X","3P7RGTLO6EZ76AO3386R8ZK9IWWKAW","","null","<img src=""img/flower6.png"" style=""width:200px; border:14px solid green;"">","null","","","","","","","","",""
"","image-keyboard-response","320","84276","0.0-320.0","3OHYZ19UGDRSIL7CS23M4ZX6AI7OA8","AFHS2E60LZC6X","3P7RGTLO6EZ76AO3386R8ZK9IWWKAW","","96.90000003576279","img/flower5.png","75","97.39999997615814","2","1","3","1","1,0.333,0.333,0.333,1,0.333,0.333,0.333,1","1,0.333,0.333,0.333,1,0.333,0.333,0.333,1","1",""
"","html-keyboard-response","321","84577","0.0-321.0","3OHYZ19UGDRSIL7CS23M4ZX6AI7OA8","AFHS2E60LZC6X","3P7RGTLO6EZ76AO3386R8ZK9IWWKAW","","null","<img src=""img/flower5.png"" style=""width:200px; border:14px solid green;"">","null","","","","","","","","",""
"","image-keyboard-response","322","84604","0.0-322.0","3OHYZ19UGDRSIL7CS23M4ZX6AI7OA8","AFHS2E60LZC6X","3P7RGTLO6EZ76AO3386R8ZK9IWWKAW","","26.100000023841858","img/flower5.png","75","26.5","2","0","3","1","1,0.333,0.333,0.333,1,0.333,0.333,0.333,1","1,0.333,0.333,0.333,1,0.333,0.333,0.333,1","1",""
"","html-keyboard-response","323","84906","0.0-323.0","3OHYZ19UGDRSIL7CS23M4ZX6AI7OA8","AFHS2E60LZC6X","3P7RGTLO6EZ76AO3386R8ZK9IWWKAW","","null","<img src=""img/flower5.png"" style=""width:200px;border:14px solid red;"">","null","","","","","","","","",""
"","image-keyboard-response","324","84948","0.0-324.0","3OHYZ19UGDRSIL7CS23M4ZX6AI7OA8","AFHS2E60LZC6X","3P7RGTLO6EZ76AO3386R8ZK9IWWKAW","","41.5","img/flower6.png","75","42.19999998807907","2","1","2","1","1,0.333,0.333,0.333,1,0.333,0.333,0.333,1","1,0.333,0.333,0.333,1,0.333,0.333,0.333,1","1",""
"","html-keyboard-response","325","85250","0.0-325.0","3OHYZ19UGDRSIL7CS23M4ZX6AI7OA8","AFHS2E60LZC6X","3P7RGTLO6EZ76AO3386R8ZK9IWWKAW","","null","<img src=""img/flower6.png"" style=""width:200px; border:14px solid green;"">","null","","","","","","","","",""
"","image-keyboard-response","326","85292","0.0-326.0","3OHYZ19UGDRSIL7CS23M4ZX6AI7OA8","AFHS2E60LZC6X","3P7RGTLO6EZ76AO3386R8ZK9IWWKAW","","41.5","img/flower6.png","75","42.10000002384186","2","1","2","1","1,0.333,0.333,0.333,1,0.333,0.333,0.333,1","1,0.333,0.333,0.333,1,0.333,0.333,0.333,1","1",""
"","html-keyboard-response","327","85593","0.0-327.0","3OHYZ19UGDRSIL7CS23M4ZX6AI7OA8","AFHS2E60LZC6X","3P7RGTLO6EZ76AO3386R8ZK9IWWKAW","","null","<img src=""img/flower6.png"" style=""width:200px; border:14px solid green;"">","null","","","","","","","","",""
"","image-keyboard-response","328","85652","0.0-328.0","3OHYZ19UGDRSIL7CS23M4ZX6AI7OA8","AFHS2E60LZC6X","3P7RGTLO6EZ76AO3386R8ZK9IWWKAW","","57.799999952316284","img/flower6.png","75","58.39999997615814","2","1","2","1","1,0.333,0.333,0.333,1,0.333,0.333,0.333,1","1,0.333,0.333,0.333,1,0.333,0.333,0.333,1","1",""
"","html-keyboard-response","329","85953","0.0-329.0","3OHYZ19UGDRSIL7CS23M4ZX6AI7OA8","AFHS2E60LZC6X","3P7RGTLO6EZ76AO3386R8ZK9IWWKAW","","null","<img src=""img/flower6.png"" style=""width:200px; border:14px solid green;"">","null","","","","","","","","",""
"","image-keyboard-response","330","86012","0.0-330.0","3OHYZ19UGDRSIL7CS23M4ZX6AI7OA8","AFHS2E60LZC6X","3P7RGTLO6EZ76AO3386R8ZK9IWWKAW","","57.89999997615814","img/flower5.png","75","58.39999997615814","2","0","3","1","1,0.333,0.333,0.333,1,0.333,0.333,0.333,1","1,0.333,0.333,0.333,1,0.333,0.333,0.333,1","1",""
"","html-keyboard-response","331","86314","0.0-331.0","3OHYZ19UGDRSIL7CS23M4ZX6AI7OA8","AFHS2E60LZC6X","3P7RGTLO6EZ76AO3386R8ZK9IWWKAW","","null","<img src=""img/flower5.png"" style=""width:200px;border:14px solid red;"">","null","","","","","","","","",""
"","image-keyboard-response","332","86396","0.0-332.0","3OHYZ19UGDRSIL7CS23M4ZX6AI7OA8","AFHS2E60LZC6X","3P7RGTLO6EZ76AO3386R8ZK9IWWKAW","","81.19999998807907","img/flower5.png","75","81.69999998807907","2","0","3","1","1,0.333,0.333,0.333,1,0.333,0.333,0.333,1","1,0.333,0.333,0.333,1,0.333,0.333,0.333,1","1",""
"","html-keyboard-response","333","86698","0.0-333.0","3OHYZ19UGDRSIL7CS23M4ZX6AI7OA8","AFHS2E60LZC6X","3P7RGTLO6EZ76AO3386R8ZK9IWWKAW","","null","<img src=""img/flower5.png"" style=""width:200px;border:14px solid red;"">","null","","","","","","","","",""
"","image-keyboard-response","334","86780","0.0-334.0","3OHYZ19UGDRSIL7CS23M4ZX6AI7OA8","AFHS2E60LZC6X","3P7RGTLO6EZ76AO3386R8ZK9IWWKAW","","81.29999995231628","img/flower2.png","75","82","2","0","1","1","1,0.333,0.333,0.333,1,0.333,0.333,0.333,1","1,0.333,0.333,0.333,1,0.333,0.333,0.333,1","1",""
"","html-keyboard-response","335","87081","0.0-335.0","3OHYZ19UGDRSIL7CS23M4ZX6AI7OA8","AFHS2E60LZC6X","3P7RGTLO6EZ76AO3386R8ZK9IWWKAW","","null","<img src=""img/flower2.png"" style=""width:200px;border:14px solid red;"">","null","","","","","","","","",""
"","image-keyboard-response","336","87148","0.0-336.0","3OHYZ19UGDRSIL7CS23M4ZX6AI7OA8","AFHS2E60LZC6X","3P7RGTLO6EZ76AO3386R8ZK9IWWKAW","","65.69999998807907","img/flower2.png","75","66.20000004768372","2","1","1","1","1,0.333,0.333,0.333,1,0.333,0.333,0.333,1","1,0.333,0.333,0.333,1,0.333,0.333,0.333,1","1",""
"","html-keyboard-response","337","87449","0.0-337.0","3OHYZ19UGDRSIL7CS23M4ZX6AI7OA8","AFHS2E60LZC6X","3P7RGTLO6EZ76AO3386R8ZK9IWWKAW","","null","<img src=""img/flower2.png"" style=""width:200px; border:14px solid green;"">","null","","","","","","","","",""
"","image-keyboard-response","338","87516","0.0-338.0","3OHYZ19UGDRSIL7CS23M4ZX6AI7OA8","AFHS2E60LZC6X","3P7RGTLO6EZ76AO3386R8ZK9IWWKAW","","65.69999998807907","img/flower6.png","75","66.29999995231628","2","1","2","1","1,0.333,0.333,0.333,1,0.333,0.333,0.333,1","1,0.333,0.333,0.333,1,0.333,0.333,0.333,1","1",""
"","html-keyboard-response","339","87828","0.0-339.0","3OHYZ19UGDRSIL7CS23M4ZX6AI7OA8","AFHS2E60LZC6X","3P7RGTLO6EZ76AO3386R8ZK9IWWKAW","","null","<img src=""img/flower6.png"" style=""width:200px; border:14px solid green;"">","null","","","","","","","","",""
"","image-keyboard-response","340","87900","0.0-340.0","3OHYZ19UGDRSIL7CS23M4ZX6AI7OA8","AFHS2E60LZC6X","3P7RGTLO6EZ76AO3386R8ZK9IWWKAW","","71.30000001192093","img/flower2.png","75","72.10000002384186","2","1","1","1","1,0.333,0.333,0.333,1,0.333,0.333,0.333,1","1,0.333,0.333,0.333,1,0.333,0.333,0.333,1","1",""
"","html-keyboard-response","341","88201","0.0-341.0","3OHYZ19UGDRSIL7CS23M4ZX6AI7OA8","AFHS2E60LZC6X","3P7RGTLO6EZ76AO3386R8ZK9IWWKAW","","null","<img src=""img/flower2.png"" style=""width:200px; border:14px solid green;"">","null","","","","","","","","",""
"","image-keyboard-response","342","88236","0.0-342.0","3OHYZ19UGDRSIL7CS23M4ZX6AI7OA8","AFHS2E60LZC6X","3P7RGTLO6EZ76AO3386R8ZK9IWWKAW","","34.30000001192093","img/flower5.png","75","34.80000001192093","2","1","3","1","1,0.333,0.333,0.333,1,0.333,0.333,0.333,1","1,0.333,0.333,0.333,1,0.333,0.333,0.333,1","1",""
"","html-keyboard-response","343","88537","0.0-343.0","3OHYZ19UGDRSIL7CS23M4ZX6AI7OA8","AFHS2E60LZC6X","3P7RGTLO6EZ76AO3386R8ZK9IWWKAW","","null","<img src=""img/flower5.png"" style=""width:200px; border:14px solid green;"">","null","","","","","","","","",""
"","image-keyboard-response","344","88596","0.0-344.0","3OHYZ19UGDRSIL7CS23M4ZX6AI7OA8","AFHS2E60LZC6X","3P7RGTLO6EZ76AO3386R8ZK9IWWKAW","","58.40000003576279","img/flower2.png","75","59.10000002384186","2","0","1","1","1,0.333,0.333,0.333,1,0.333,0.333,0.333,1","1,0.333,0.333,0.333,1,0.333,0.333,0.333,1","1",""
"","html-keyboard-response","345","88897","0.0-345.0","3OHYZ19UGDRSIL7CS23M4ZX6AI7OA8","AFHS2E60LZC6X","3P7RGTLO6EZ76AO3386R8ZK9IWWKAW","","null","<img src=""img/flower2.png"" style=""width:200px;border:14px solid red;"">","null","","","","","","","","",""
"","image-keyboard-response","346","88956","0.0-346.0","3OHYZ19UGDRSIL7CS23M4ZX6AI7OA8","AFHS2E60LZC6X","3P7RGTLO6EZ76AO3386R8ZK9IWWKAW","","57.80000001192093","img/flower2.png","75","58.200000047683716","2","1","1","1","1,0.333,0.333,0.333,1,0.333,0.333,0.333,1","1,0.333,0.333,0.333,1,0.333,0.333,0.333,1","1",""
"","html-keyboard-response","347","89258","0.0-347.0","3OHYZ19UGDRSIL7CS23M4ZX6AI7OA8","AFHS2E60LZC6X","3P7RGTLO6EZ76AO3386R8ZK9IWWKAW","","null","<img src=""img/flower2.png"" style=""width:200px; border:14px solid green;"">","null","","","","","","","","",""
"","image-keyboard-response","348","89332","0.0-348.0","3OHYZ19UGDRSIL7CS23M4ZX6AI7OA8","AFHS2E60LZC6X","3P7RGTLO6EZ76AO3386R8ZK9IWWKAW","","72.89999997615814","img/flower2.png","75","73.39999997615814","2","0","1","1","1,0.333,0.333,0.333,1,0.333,0.333,0.333,1","1,0.333,0.333,0.333,1,0.333,0.333,0.333,1","1",""
"","html-keyboard-response","349","89634","0.0-349.0","3OHYZ19UGDRSIL7CS23M4ZX6AI7OA8","AFHS2E60LZC6X","3P7RGTLO6EZ76AO3386R8ZK9IWWKAW","","null","<img src=""img/flower2.png"" style=""width:200px;border:14px solid red;"">","null","","","","","","","","",""
"","image-keyboard-response","350","89716","0.0-350.0","3OHYZ19UGDRSIL7CS23M4ZX6AI7OA8","AFHS2E60LZC6X","3P7RGTLO6EZ76AO3386R8ZK9IWWKAW","","81.10000002384186","img/flower2.png","75","81.60000002384186","2","0","1","1","1,0.333,0.333,0.333,1,0.333,0.333,0.333,1","1,0.333,0.333,0.333,1,0.333,0.333,0.333,1","1",""
"","html-keyboard-response","351","90017","0.0-351.0","3OHYZ19UGDRSIL7CS23M4ZX6AI7OA8","AFHS2E60LZC6X","3P7RGTLO6EZ76AO3386R8ZK9IWWKAW","","null","<img src=""img/flower2.png"" style=""width:200px;border:14px solid red;"">","null","","","","","","","","",""
"","image-keyboard-response","352","90116","0.0-352.0","3OHYZ19UGDRSIL7CS23M4ZX6AI7OA8","AFHS2E60LZC6X","3P7RGTLO6EZ76AO3386R8ZK9IWWKAW","","98.30000001192093","img/flower2.png","75","98.80000001192093","2","0","1","1","1,0.333,0.333,0.333,1,0.333,0.333,0.333,1","1,0.333,0.333,0.333,1,0.333,0.333,0.333,1","1",""
"","html-keyboard-response","353","90417","0.0-353.0","3OHYZ19UGDRSIL7CS23M4ZX6AI7OA8","AFHS2E60LZC6X","3P7RGTLO6EZ76AO3386R8ZK9IWWKAW","","null","<img src=""img/flower2.png"" style=""width:200px;border:14px solid red;"">","null","","","","","","","","",""
"","image-keyboard-response","354","90524","0.0-354.0","3OHYZ19UGDRSIL7CS23M4ZX6AI7OA8","AFHS2E60LZC6X","3P7RGTLO6EZ76AO3386R8ZK9IWWKAW","","106.39999997615814","img/flower6.png","75","107","2","1","2","1","1,0.333,0.333,0.333,1,0.333,0.333,0.333,1","1,0.333,0.333,0.333,1,0.333,0.333,0.333,1","1",""
"","html-keyboard-response","355","90825","0.0-355.0","3OHYZ19UGDRSIL7CS23M4ZX6AI7OA8","AFHS2E60LZC6X","3P7RGTLO6EZ76AO3386R8ZK9IWWKAW","","null","<img src=""img/flower6.png"" style=""width:200px; border:14px solid green;"">","null","","","","","","","","",""
"","image-keyboard-response","356","90932","0.0-356.0","3OHYZ19UGDRSIL7CS23M4ZX6AI7OA8","AFHS2E60LZC6X","3P7RGTLO6EZ76AO3386R8ZK9IWWKAW","","105.79999995231628","img/flower5.png","75","106.30000001192093","2","0","3","1","1,0.333,0.333,0.333,1,0.333,0.333,0.333,1","1,0.333,0.333,0.333,1,0.333,0.333,0.333,1","1",""
"","html-keyboard-response","357","91233","0.0-357.0","3OHYZ19UGDRSIL7CS23M4ZX6AI7OA8","AFHS2E60LZC6X","3P7RGTLO6EZ76AO3386R8ZK9IWWKAW","","null","<img src=""img/flower5.png"" style=""width:200px;border:14px solid red;"">","null","","","","","","","","",""
"","image-keyboard-response","358","91316","0.0-358.0","3OHYZ19UGDRSIL7CS23M4ZX6AI7OA8","AFHS2E60LZC6X","3P7RGTLO6EZ76AO3386R8ZK9IWWKAW","","82","img/flower2.png","75","82.5","2","0","1","1","1,0.333,0.333,0.333,1,0.333,0.333,0.333,1","1,0.333,0.333,0.333,1,0.333,0.333,0.333,1","1",""
"","html-keyboard-response","359","91618","0.0-359.0","3OHYZ19UGDRSIL7CS23M4ZX6AI7OA8","AFHS2E60LZC6X","3P7RGTLO6EZ76AO3386R8ZK9IWWKAW","","null","<img src=""img/flower2.png"" style=""width:200px;border:14px solid red;"">","null","","","","","","","","",""
"","image-keyboard-response","360","91716","0.0-360.0","3OHYZ19UGDRSIL7CS23M4ZX6AI7OA8","AFHS2E60LZC6X","3P7RGTLO6EZ76AO3386R8ZK9IWWKAW","","97.09999996423721","img/flower5.png","75","97.69999998807907","2","1","3","1","1,0.333,0.333,0.333,1,0.333,0.333,0.333,1","1,0.333,0.333,0.333,1,0.333,0.333,0.333,1","1",""
"","html-keyboard-response","361","92031","0.0-361.0","3OHYZ19UGDRSIL7CS23M4ZX6AI7OA8","AFHS2E60LZC6X","3P7RGTLO6EZ76AO3386R8ZK9IWWKAW","","null","<img src=""img/flower5.png"" style=""width:200px; border:14px solid green;"">","null","","","","","","","","",""
"","html-keyboard-response","362","94236","0.0-362.0","3OHYZ19UGDRSIL7CS23M4ZX6AI7OA8","AFHS2E60LZC6X","3P7RGTLO6EZ76AO3386R8ZK9IWWKAW","","","","","","","","","","","","",""
"","instructions","363","95268","0.0-363.0","3OHYZ19UGDRSIL7CS23M4ZX6AI7OA8","AFHS2E60LZC6X","3P7RGTLO6EZ76AO3386R8ZK9IWWKAW","[{""page_index"":0,""viewing_time"":1031.4000000357628}]","1031.6000000238419","","","","","","","","","","",""
"","survey-text","364","97605","0.0-364.0","3OHYZ19UGDRSIL7CS23M4ZX6AI7OA8","AFHS2E60LZC6X","3P7RGTLO6EZ76AO3386R8ZK9IWWKAW","","2333.5","","","","","","","","","","","{""Q0"":""AFHS2E60LZC6X""}"
