"success","trial_type","trial_index","time_elapsed","internal_node_id","assignmentID","mturkID","hitID","view_history","rt","stimulus","key_press","reactionTime","a","r","s","cond","reward_cond","reward_cond_actual","reward_matrix_idx","responses"
"true","fullscreen","0","3544","0.0-0.0","3K4J6M3CXFF4Q8QE4JQEZQO4JRGAGX","AHKYVHP6591H8","3PIOQ99R7Y8STPN46QFY0SD7JTFNU0","","","","","","","","","","","","",""
"","instructions","1","12062","0.0-1.0","3K4J6M3CXFF4Q8QE4JQEZQO4JRGAGX","AHKYVHP6591H8","3PIOQ99R7Y8STPN46QFY0SD7JTFNU0","[{""page_index"":0,""viewing_time"":2077.7000000001863},{""page_index"":1,""viewing_time"":1081.0999999996275},{""page_index"":2,""viewing_time"":487.70000000018626},{""page_index"":3,""viewing_time"":399.09999999962747},{""page_index"":4,""viewing_time"":1456.4000000003725},{""page_index"":5,""viewing_time"":880.2000000001863},{""page_index"":6,""viewing_time"":1303.5999999996275},{""page_index"":7,""viewing_time"":826.7000000001863}]","8514.900000000373","","","","","","","","","","",""
"","image-keyboard-response","2","12771","0.0-2.0","3K4J6M3CXFF4Q8QE4JQEZQO4JRGAGX","AHKYVHP6591H8","3PIOQ99R7Y8STPN46QFY0SD7JTFNU0","","702.2000000001863","img/flower4.png","76","704.8000000007451","3","0","1","1","1,0.333,0.333,0.333,1,0.333,0.333,0.333,1","1,0.333,0.333,0.333,1,0.333,0.333,0.333,1","1",""
"","html-keyboard-response","3","13079","0.0-3.0","3K4J6M3CXFF4Q8QE4JQEZQO4JRGAGX","AHKYVHP6591H8","3PIOQ99R7Y8STPN46QFY0SD7JTFNU0","","null","<img src=""img/flower4.png"" style=""width:200px;border:14px solid red;"">","null","","","","","","","","",""
"","image-keyboard-response","4","13393","0.0-4.0","3K4J6M3CXFF4Q8QE4JQEZQO4JRGAGX","AHKYVHP6591H8","3PIOQ99R7Y8STPN46QFY0SD7JTFNU0","","312.79999999981374","img/flower3.png","75","313.70000000018626","2","1","3","1","1,0.333,0.333,0.333,1,0.333,0.333,0.333,1","1,0.333,0.333,0.333,1,0.333,0.333,0.333,1","1",""
"","html-keyboard-response","5","13696","0.0-5.0","3K4J6M3CXFF4Q8QE4JQEZQO4JRGAGX","AHKYVHP6591H8","3PIOQ99R7Y8STPN46QFY0SD7JTFNU0","","null","<img src=""img/flower3.png"" style=""width:200px; border:14px solid green;"">","null","","","","","","","","",""
"","image-keyboard-response","6","13811","0.0-6.0","3K4J6M3CXFF4Q8QE4JQEZQO4JRGAGX","AHKYVHP6591H8","3PIOQ99R7Y8STPN46QFY0SD7JTFNU0","","111.3999999994412","img/flower4.png","75","114.59999999962747","2","0","1","1","1,0.333,0.333,0.333,1,0.333,0.333,0.333,1","1,0.333,0.333,0.333,1,0.333,0.333,0.333,1","1",""
"","html-keyboard-response","7","14119","0.0-7.0","3K4J6M3CXFF4Q8QE4JQEZQO4JRGAGX","AHKYVHP6591H8","3PIOQ99R7Y8STPN46QFY0SD7JTFNU0","","null","<img src=""img/flower4.png"" style=""width:200px;border:14px solid red;"">","null","","","","","","","","",""
"","image-keyboard-response","8","14162","0.0-8.0","3K4J6M3CXFF4Q8QE4JQEZQO4JRGAGX","AHKYVHP6591H8","3PIOQ99R7Y8STPN46QFY0SD7JTFNU0","","40.59999999962747","img/flower2.png","75","42","2","1","2","1","1,0.333,0.333,0.333,1,0.333,0.333,0.333,1","1,0.333,0.333,0.333,1,0.333,0.333,0.333,1","1",""
"","html-keyboard-response","9","14471","0.0-9.0","3K4J6M3CXFF4Q8QE4JQEZQO4JRGAGX","AHKYVHP6591H8","3PIOQ99R7Y8STPN46QFY0SD7JTFNU0","","null","<img src=""img/flower2.png"" style=""width:200px; border:14px solid green;"">","null","","","","","","","","",""
"","image-keyboard-response","10","14546","0.0-10.0","3K4J6M3CXFF4Q8QE4JQEZQO4JRGAGX","AHKYVHP6591H8","3PIOQ99R7Y8STPN46QFY0SD7JTFNU0","","72.8999999994412","img/flower3.png","76","74.20000000018626","3","1","3","1","1,0.333,0.333,0.333,1,0.333,0.333,0.333,1","1,0.333,0.333,0.333,1,0.333,0.333,0.333,1","1",""
"","html-keyboard-response","11","14855","0.0-11.0","3K4J6M3CXFF4Q8QE4JQEZQO4JRGAGX","AHKYVHP6591H8","3PIOQ99R7Y8STPN46QFY0SD7JTFNU0","","null","<img src=""img/flower3.png"" style=""width:200px; border:14px solid green;"">","null","","","","","","","","",""
"","image-keyboard-response","12","15025","0.0-12.0","3K4J6M3CXFF4Q8QE4JQEZQO4JRGAGX","AHKYVHP6591H8","3PIOQ99R7Y8STPN46QFY0SD7JTFNU0","","169.29999999981374","img/flower2.png","76","169.90000000037253","3","0","2","1","1,0.333,0.333,0.333,1,0.333,0.333,0.333,1","1,0.333,0.333,0.333,1,0.333,0.333,0.333,1","1",""
"","html-keyboard-response","13","15327","0.0-13.0","3K4J6M3CXFF4Q8QE4JQEZQO4JRGAGX","AHKYVHP6591H8","3PIOQ99R7Y8STPN46QFY0SD7JTFNU0","","null","<img src=""img/flower2.png"" style=""width:200px;border:14px solid red;"">","null","","","","","","","","",""
"","image-keyboard-response","14","15409","0.0-14.0","3K4J6M3CXFF4Q8QE4JQEZQO4JRGAGX","AHKYVHP6591H8","3PIOQ99R7Y8STPN46QFY0SD7JTFNU0","","81.5","img/flower4.png","76","82.19999999925494","3","1","1","1","1,0.333,0.333,0.333,1,0.333,0.333,0.333,1","1,0.333,0.333,0.333,1,0.333,0.333,0.333,1","1",""
"","html-keyboard-response","15","15712","0.0-15.0","3K4J6M3CXFF4Q8QE4JQEZQO4JRGAGX","AHKYVHP6591H8","3PIOQ99R7Y8STPN46QFY0SD7JTFNU0","","null","<img src=""img/flower4.png"" style=""width:200px; border:14px solid green;"">","null","","","","","","","","",""
"","image-keyboard-response","16","15874","0.0-16.0","3K4J6M3CXFF4Q8QE4JQEZQO4JRGAGX","AHKYVHP6591H8","3PIOQ99R7Y8STPN46QFY0SD7JTFNU0","","159.5","img/flower4.png","75","161.5","2","1","1","1","1,0.333,0.333,0.333,1,0.333,0.333,0.333,1","1,0.333,0.333,0.333,1,0.333,0.333,0.333,1","1",""
"","html-keyboard-response","17","16183","0.0-17.0","3K4J6M3CXFF4Q8QE4JQEZQO4JRGAGX","AHKYVHP6591H8","3PIOQ99R7Y8STPN46QFY0SD7JTFNU0","","null","<img src=""img/flower4.png"" style=""width:200px; border:14px solid green;"">","null","","","","","","","","",""
"","image-keyboard-response","18","16371","0.0-18.0","3K4J6M3CXFF4Q8QE4JQEZQO4JRGAGX","AHKYVHP6591H8","3PIOQ99R7Y8STPN46QFY0SD7JTFNU0","","185.79999999981374","img/flower2.png","75","187.70000000018626","2","1","2","1","1,0.333,0.333,0.333,1,0.333,0.333,0.333,1","1,0.333,0.333,0.333,1,0.333,0.333,0.333,1","1",""
"","html-keyboard-response","19","16679","0.0-19.0","3K4J6M3CXFF4Q8QE4JQEZQO4JRGAGX","AHKYVHP6591H8","3PIOQ99R7Y8STPN46QFY0SD7JTFNU0","","null","<img src=""img/flower2.png"" style=""width:200px; border:14px solid green;"">","null","","","","","","","","",""
"","image-keyboard-response","20","16818","0.0-20.0","3K4J6M3CXFF4Q8QE4JQEZQO4JRGAGX","AHKYVHP6591H8","3PIOQ99R7Y8STPN46QFY0SD7JTFNU0","","136","img/flower4.png","75","137.3999999994412","2","0","1","1","1,0.333,0.333,0.333,1,0.333,0.333,0.333,1","1,0.333,0.333,0.333,1,0.333,0.333,0.333,1","1",""
"","html-keyboard-response","21","17119","0.0-21.0","3K4J6M3CXFF4Q8QE4JQEZQO4JRGAGX","AHKYVHP6591H8","3PIOQ99R7Y8STPN46QFY0SD7JTFNU0","","null","<img src=""img/flower4.png"" style=""width:200px;border:14px solid red;"">","null","","","","","","","","",""
"","image-keyboard-response","22","17384","0.0-22.0","3K4J6M3CXFF4Q8QE4JQEZQO4JRGAGX","AHKYVHP6591H8","3PIOQ99R7Y8STPN46QFY0SD7JTFNU0","","263.90000000037253","img/flower3.png","75","264.59999999962747","2","0","3","1","1,0.333,0.333,0.333,1,0.333,0.333,0.333,1","1,0.333,0.333,0.333,1,0.333,0.333,0.333,1","1",""
"","html-keyboard-response","23","17687","0.0-23.0","3K4J6M3CXFF4Q8QE4JQEZQO4JRGAGX","AHKYVHP6591H8","3PIOQ99R7Y8STPN46QFY0SD7JTFNU0","","null","<img src=""img/flower3.png"" style=""width:200px;border:14px solid red;"">","null","","","","","","","","",""
"","image-keyboard-response","24","18049","0.0-24.0","3K4J6M3CXFF4Q8QE4JQEZQO4JRGAGX","AHKYVHP6591H8","3PIOQ99R7Y8STPN46QFY0SD7JTFNU0","","361.20000000018626","img/flower3.png","76","362","3","1","3","1","1,0.333,0.333,0.333,1,0.333,0.333,0.333,1","1,0.333,0.333,0.333,1,0.333,0.333,0.333,1","1",""
"","html-keyboard-response","25","18351","0.0-25.0","3K4J6M3CXFF4Q8QE4JQEZQO4JRGAGX","AHKYVHP6591H8","3PIOQ99R7Y8STPN46QFY0SD7JTFNU0","","null","<img src=""img/flower3.png"" style=""width:200px; border:14px solid green;"">","null","","","","","","","","",""
"","image-keyboard-response","26","18449","0.0-26.0","3K4J6M3CXFF4Q8QE4JQEZQO4JRGAGX","AHKYVHP6591H8","3PIOQ99R7Y8STPN46QFY0SD7JTFNU0","","97.70000000018626","img/flower3.png","76","98.3999999994412","3","1","3","1","1,0.333,0.333,0.333,1,0.333,0.333,0.333,1","1,0.333,0.333,0.333,1,0.333,0.333,0.333,1","1",""
"","html-keyboard-response","27","18751","0.0-27.0","3K4J6M3CXFF4Q8QE4JQEZQO4JRGAGX","AHKYVHP6591H8","3PIOQ99R7Y8STPN46QFY0SD7JTFNU0","","null","<img src=""img/flower3.png"" style=""width:200px; border:14px solid green;"">","null","","","","","","","","",""
"","image-keyboard-response","28","18851","0.0-28.0","3K4J6M3CXFF4Q8QE4JQEZQO4JRGAGX","AHKYVHP6591H8","3PIOQ99R7Y8STPN46QFY0SD7JTFNU0","","97.3999999994412","img/flower3.png","76","99.29999999981374","3","1","3","1","1,0.333,0.333,0.333,1,0.333,0.333,0.333,1","1,0.333,0.333,0.333,1,0.333,0.333,0.333,1","1",""
"","html-keyboard-response","29","19159","0.0-29.0","3K4J6M3CXFF4Q8QE4JQEZQO4JRGAGX","AHKYVHP6591H8","3PIOQ99R7Y8STPN46QFY0SD7JTFNU0","","null","<img src=""img/flower3.png"" style=""width:200px; border:14px solid green;"">","null","","","","","","","","",""
"","image-keyboard-response","30","19202","0.0-30.0","3K4J6M3CXFF4Q8QE4JQEZQO4JRGAGX","AHKYVHP6591H8","3PIOQ99R7Y8STPN46QFY0SD7JTFNU0","","41.700000000186265","img/flower4.png","76","42.700000000186265","3","0","1","1","1,0.333,0.333,0.333,1,0.333,0.333,0.333,1","1,0.333,0.333,0.333,1,0.333,0.333,0.333,1","1",""
"","html-keyboard-response","31","19511","0.0-31.0","3K4J6M3CXFF4Q8QE4JQEZQO4JRGAGX","AHKYVHP6591H8","3PIOQ99R7Y8STPN46QFY0SD7JTFNU0","","null","<img src=""img/flower4.png"" style=""width:200px;border:14px solid red;"">","null","","","","","","","","",""
"","image-keyboard-response","32","19523","0.0-32.0","3K4J6M3CXFF4Q8QE4JQEZQO4JRGAGX","AHKYVHP6591H8","3PIOQ99R7Y8STPN46QFY0SD7JTFNU0","","10.399999999441206","img/flower3.png","75","11.300000000745058","2","0","3","1","1,0.333,0.333,0.333,1,0.333,0.333,0.333,1","1,0.333,0.333,0.333,1,0.333,0.333,0.333,1","1",""
"","html-keyboard-response","33","19832","0.0-33.0","3K4J6M3CXFF4Q8QE4JQEZQO4JRGAGX","AHKYVHP6591H8","3PIOQ99R7Y8STPN46QFY0SD7JTFNU0","","null","<img src=""img/flower3.png"" style=""width:200px;border:14px solid red;"">","null","","","","","","","","",""
"","image-keyboard-response","34","20194","0.0-34.0","3K4J6M3CXFF4Q8QE4JQEZQO4JRGAGX","AHKYVHP6591H8","3PIOQ99R7Y8STPN46QFY0SD7JTFNU0","","361.3999999994412","img/flower2.png","74","362.6000000005588","1","0","2","1","1,0.333,0.333,0.333,1,0.333,0.333,0.333,1","1,0.333,0.333,0.333,1,0.333,0.333,0.333,1","1",""
"","html-keyboard-response","35","20503","0.0-35.0","3K4J6M3CXFF4Q8QE4JQEZQO4JRGAGX","AHKYVHP6591H8","3PIOQ99R7Y8STPN46QFY0SD7JTFNU0","","null","<img src=""img/flower2.png"" style=""width:200px;border:14px solid red;"">","null","","","","","","","","",""
"","image-keyboard-response","36","20529","0.0-36.0","3K4J6M3CXFF4Q8QE4JQEZQO4JRGAGX","AHKYVHP6591H8","3PIOQ99R7Y8STPN46QFY0SD7JTFNU0","","25","img/flower4.png","75","25.699999999254942","2","0","1","1","1,0.333,0.333,0.333,1,0.333,0.333,0.333,1","1,0.333,0.333,0.333,1,0.333,0.333,0.333,1","1",""
"","html-keyboard-response","37","20831","0.0-37.0","3K4J6M3CXFF4Q8QE4JQEZQO4JRGAGX","AHKYVHP6591H8","3PIOQ99R7Y8STPN46QFY0SD7JTFNU0","","null","<img src=""img/flower4.png"" style=""width:200px;border:14px solid red;"">","null","","","","","","","","",""
"","image-keyboard-response","38","20835","0.0-38.0","3K4J6M3CXFF4Q8QE4JQEZQO4JRGAGX","AHKYVHP6591H8","3PIOQ99R7Y8STPN46QFY0SD7JTFNU0","","3","img/flower3.png","76","3.5","3","1","3","1","1,0.333,0.333,0.333,1,0.333,0.333,0.333,1","1,0.333,0.333,0.333,1,0.333,0.333,0.333,1","1",""
"","html-keyboard-response","39","21137","0.0-39.0","3K4J6M3CXFF4Q8QE4JQEZQO4JRGAGX","AHKYVHP6591H8","3PIOQ99R7Y8STPN46QFY0SD7JTFNU0","","null","<img src=""img/flower3.png"" style=""width:200px; border:14px solid green;"">","null","","","","","","","","",""
"","image-keyboard-response","40","21410","0.0-40.0","3K4J6M3CXFF4Q8QE4JQEZQO4JRGAGX","AHKYVHP6591H8","3PIOQ99R7Y8STPN46QFY0SD7JTFNU0","","271.69999999925494","img/flower3.png","75","272.70000000018626","2","0","3","1","1,0.333,0.333,0.333,1,0.333,0.333,0.333,1","1,0.333,0.333,0.333,1,0.333,0.333,0.333,1","1",""
"","html-keyboard-response","41","21719","0.0-41.0","3K4J6M3CXFF4Q8QE4JQEZQO4JRGAGX","AHKYVHP6591H8","3PIOQ99R7Y8STPN46QFY0SD7JTFNU0","","null","<img src=""img/flower3.png"" style=""width:200px;border:14px solid red;"">","null","","","","","","","","",""
"","image-keyboard-response","42","21922","0.0-42.0","3K4J6M3CXFF4Q8QE4JQEZQO4JRGAGX","AHKYVHP6591H8","3PIOQ99R7Y8STPN46QFY0SD7JTFNU0","","201.09999999962747","img/flower2.png","75","202.79999999981374","2","1","2","1","1,0.333,0.333,0.333,1,0.333,0.333,0.333,1","1,0.333,0.333,0.333,1,0.333,0.333,0.333,1","1",""
"","html-keyboard-response","43","22231","0.0-43.0","3K4J6M3CXFF4Q8QE4JQEZQO4JRGAGX","AHKYVHP6591H8","3PIOQ99R7Y8STPN46QFY0SD7JTFNU0","","null","<img src=""img/flower2.png"" style=""width:200px; border:14px solid green;"">","null","","","","","","","","",""
"","image-keyboard-response","44","22401","0.0-44.0","3K4J6M3CXFF4Q8QE4JQEZQO4JRGAGX","AHKYVHP6591H8","3PIOQ99R7Y8STPN46QFY0SD7JTFNU0","","169.30000000074506","img/flower2.png","76","170","3","1","2","1","1,0.333,0.333,0.333,1,0.333,0.333,0.333,1","1,0.333,0.333,0.333,1,0.333,0.333,0.333,1","1",""
"","html-keyboard-response","45","22703","0.0-45.0","3K4J6M3CXFF4Q8QE4JQEZQO4JRGAGX","AHKYVHP6591H8","3PIOQ99R7Y8STPN46QFY0SD7JTFNU0","","null","<img src=""img/flower2.png"" style=""width:200px; border:14px solid green;"">","null","","","","","","","","",""
"","image-keyboard-response","46","22897","0.0-46.0","3K4J6M3CXFF4Q8QE4JQEZQO4JRGAGX","AHKYVHP6591H8","3PIOQ99R7Y8STPN46QFY0SD7JTFNU0","","192.90000000037253","img/flower3.png","76","193.90000000037253","3","1","3","1","1,0.333,0.333,0.333,1,0.333,0.333,0.333,1","1,0.333,0.333,0.333,1,0.333,0.333,0.333,1","1",""
"","html-keyboard-response","47","23199","0.0-47.0","3K4J6M3CXFF4Q8QE4JQEZQO4JRGAGX","AHKYVHP6591H8","3PIOQ99R7Y8STPN46QFY0SD7JTFNU0","","null","<img src=""img/flower3.png"" style=""width:200px; border:14px solid green;"">","null","","","","","","","","",""
"","image-keyboard-response","48","23361","0.0-48.0","3K4J6M3CXFF4Q8QE4JQEZQO4JRGAGX","AHKYVHP6591H8","3PIOQ99R7Y8STPN46QFY0SD7JTFNU0","","161.40000000037253","img/flower3.png","74","162.29999999981374","1","0","3","1","1,0.333,0.333,0.333,1,0.333,0.333,0.333,1","1,0.333,0.333,0.333,1,0.333,0.333,0.333,1","1",""
"","html-keyboard-response","49","23663","0.0-49.0","3K4J6M3CXFF4Q8QE4JQEZQO4JRGAGX","AHKYVHP6591H8","3PIOQ99R7Y8STPN46QFY0SD7JTFNU0","","null","<img src=""img/flower3.png"" style=""width:200px;border:14px solid red;"">","null","","","","","","","","",""
"","image-keyboard-response","50","23843","0.0-50.0","3K4J6M3CXFF4Q8QE4JQEZQO4JRGAGX","AHKYVHP6591H8","3PIOQ99R7Y8STPN46QFY0SD7JTFNU0","","179.09999999962747","img/flower3.png","74","179.90000000037253","1","0","3","1","1,0.333,0.333,0.333,1,0.333,0.333,0.333,1","1,0.333,0.333,0.333,1,0.333,0.333,0.333,1","1",""
"","html-keyboard-response","51","24151","0.0-51.0","3K4J6M3CXFF4Q8QE4JQEZQO4JRGAGX","AHKYVHP6591H8","3PIOQ99R7Y8STPN46QFY0SD7JTFNU0","","null","<img src=""img/flower3.png"" style=""width:200px;border:14px solid red;"">","null","","","","","","","","",""
"","image-keyboard-response","52","24321","0.0-52.0","3K4J6M3CXFF4Q8QE4JQEZQO4JRGAGX","AHKYVHP6591H8","3PIOQ99R7Y8STPN46QFY0SD7JTFNU0","","169.30000000074506","img/flower2.png","74","170.20000000018626","1","0","2","1","1,0.333,0.333,0.333,1,0.333,0.333,0.333,1","1,0.333,0.333,0.333,1,0.333,0.333,0.333,1","1",""
"","html-keyboard-response","53","24623","0.0-53.0","3K4J6M3CXFF4Q8QE4JQEZQO4JRGAGX","AHKYVHP6591H8","3PIOQ99R7Y8STPN46QFY0SD7JTFNU0","","null","<img src=""img/flower2.png"" style=""width:200px;border:14px solid red;"">","null","","","","","","","","",""
"","image-keyboard-response","54","24849","0.0-54.0","3K4J6M3CXFF4Q8QE4JQEZQO4JRGAGX","AHKYVHP6591H8","3PIOQ99R7Y8STPN46QFY0SD7JTFNU0","","224.40000000037253","img/flower4.png","75","225.59999999962747","2","1","1","1","1,0.333,0.333,0.333,1,0.333,0.333,0.333,1","1,0.333,0.333,0.333,1,0.333,0.333,0.333,1","1",""
"","html-keyboard-response","55","25151","0.0-55.0","3K4J6M3CXFF4Q8QE4JQEZQO4JRGAGX","AHKYVHP6591H8","3PIOQ99R7Y8STPN46QFY0SD7JTFNU0","","null","<img src=""img/flower4.png"" style=""width:200px; border:14px solid green;"">","null","","","","","","","","",""
"","image-keyboard-response","56","25281","0.0-56.0","3K4J6M3CXFF4Q8QE4JQEZQO4JRGAGX","AHKYVHP6591H8","3PIOQ99R7Y8STPN46QFY0SD7JTFNU0","","129.29999999981374","img/flower4.png","76","130","3","1","1","1","1,0.333,0.333,0.333,1,0.333,0.333,0.333,1","1,0.333,0.333,0.333,1,0.333,0.333,0.333,1","1",""
"","html-keyboard-response","57","25583","0.0-57.0","3K4J6M3CXFF4Q8QE4JQEZQO4JRGAGX","AHKYVHP6591H8","3PIOQ99R7Y8STPN46QFY0SD7JTFNU0","","null","<img src=""img/flower4.png"" style=""width:200px; border:14px solid green;"">","null","","","","","","","","",""
"","image-keyboard-response","58","25586","0.0-58.0","3K4J6M3CXFF4Q8QE4JQEZQO4JRGAGX","AHKYVHP6591H8","3PIOQ99R7Y8STPN46QFY0SD7JTFNU0","","2.2999999998137355","img/flower4.png","75","3.099999999627471","2","0","1","1","1,0.333,0.333,0.333,1,0.333,0.333,0.333,1","1,0.333,0.333,0.333,1,0.333,0.333,0.333,1","1",""
"","html-keyboard-response","59","25895","0.0-59.0","3K4J6M3CXFF4Q8QE4JQEZQO4JRGAGX","AHKYVHP6591H8","3PIOQ99R7Y8STPN46QFY0SD7JTFNU0","","null","<img src=""img/flower4.png"" style=""width:200px;border:14px solid red;"">","null","","","","","","","","",""
"","image-keyboard-response","60","26083","0.0-60.0","3K4J6M3CXFF4Q8QE4JQEZQO4JRGAGX","AHKYVHP6591H8","3PIOQ99R7Y8STPN46QFY0SD7JTFNU0","","186","img/flower4.png","75","187.29999999981374","2","0","1","1","1,0.333,0.333,0.333,1,0.333,0.333,0.333,1","1,0.333,0.333,0.333,1,0.333,0.333,0.333,1","1",""
"","html-keyboard-response","61","26391","0.0-61.0","3K4J6M3CXFF4Q8QE4JQEZQO4JRGAGX","AHKYVHP6591H8","3PIOQ99R7Y8STPN46QFY0SD7JTFNU0","","null","<img src=""img/flower4.png"" style=""width:200px;border:14px solid red;"">","null","","","","","","","","",""
"","image-keyboard-response","62","26451","0.0-62.0","3K4J6M3CXFF4Q8QE4JQEZQO4JRGAGX","AHKYVHP6591H8","3PIOQ99R7Y8STPN46QFY0SD7JTFNU0","","58.60000000055879","img/flower2.png","74","60","1","0","2","1","1,0.333,0.333,0.333,1,0.333,0.333,0.333,1","1,0.333,0.333,0.333,1,0.333,0.333,0.333,1","1",""
"","html-keyboard-response","63","26759","0.0-63.0","3K4J6M3CXFF4Q8QE4JQEZQO4JRGAGX","AHKYVHP6591H8","3PIOQ99R7Y8STPN46QFY0SD7JTFNU0","","null","<img src=""img/flower2.png"" style=""width:200px;border:14px solid red;"">","null","","","","","","","","",""
"","image-keyboard-response","64","27275","0.0-64.0","3K4J6M3CXFF4Q8QE4JQEZQO4JRGAGX","AHKYVHP6591H8","3PIOQ99R7Y8STPN46QFY0SD7JTFNU0","","514.4000000003725","img/flower3.png","74","515.7000000001863","1","0","3","1","1,0.333,0.333,0.333,1,0.333,0.333,0.333,1","1,0.333,0.333,0.333,1,0.333,0.333,0.333,1","1",""
"","html-keyboard-response","65","27583","0.0-65.0","3K4J6M3CXFF4Q8QE4JQEZQO4JRGAGX","AHKYVHP6591H8","3PIOQ99R7Y8STPN46QFY0SD7JTFNU0","","null","<img src=""img/flower3.png"" style=""width:200px;border:14px solid red;"">","null","","","","","","","","",""
"","image-keyboard-response","66","27745","0.0-66.0","3K4J6M3CXFF4Q8QE4JQEZQO4JRGAGX","AHKYVHP6591H8","3PIOQ99R7Y8STPN46QFY0SD7JTFNU0","","161.5","img/flower2.png","74","162","1","1","2","1","1,0.333,0.333,0.333,1,0.333,0.333,0.333,1","1,0.333,0.333,0.333,1,0.333,0.333,0.333,1","1",""
"","html-keyboard-response","67","28047","0.0-67.0","3K4J6M3CXFF4Q8QE4JQEZQO4JRGAGX","AHKYVHP6591H8","3PIOQ99R7Y8STPN46QFY0SD7JTFNU0","","null","<img src=""img/flower2.png"" style=""width:200px; border:14px solid green;"">","null","","","","","","","","",""
"","image-keyboard-response","68","28130","0.0-68.0","3K4J6M3CXFF4Q8QE4JQEZQO4JRGAGX","AHKYVHP6591H8","3PIOQ99R7Y8STPN46QFY0SD7JTFNU0","","82.29999999981374","img/flower4.png","74","83.09999999962747","1","1","1","1","1,0.333,0.333,0.333,1,0.333,0.333,0.333,1","1,0.333,0.333,0.333,1,0.333,0.333,0.333,1","1",""
"","html-keyboard-response","69","28439","0.0-69.0","3K4J6M3CXFF4Q8QE4JQEZQO4JRGAGX","AHKYVHP6591H8","3PIOQ99R7Y8STPN46QFY0SD7JTFNU0","","null","<img src=""img/flower4.png"" style=""width:200px; border:14px solid green;"">","null","","","","","","","","",""
"","image-keyboard-response","70","28546","0.0-70.0","3K4J6M3CXFF4Q8QE4JQEZQO4JRGAGX","AHKYVHP6591H8","3PIOQ99R7Y8STPN46QFY0SD7JTFNU0","","105.8999999994412","img/flower3.png","76","106.69999999925494","3","1","3","1","1,0.333,0.333,0.333,1,0.333,0.333,0.333,1","1,0.333,0.333,0.333,1,0.333,0.333,0.333,1","1",""
"","html-keyboard-response","71","28855","0.0-71.0","3K4J6M3CXFF4Q8QE4JQEZQO4JRGAGX","AHKYVHP6591H8","3PIOQ99R7Y8STPN46QFY0SD7JTFNU0","","null","<img src=""img/flower3.png"" style=""width:200px; border:14px solid green;"">","null","","","","","","","","",""
"","image-keyboard-response","72","29170","0.0-72.0","3K4J6M3CXFF4Q8QE4JQEZQO4JRGAGX","AHKYVHP6591H8","3PIOQ99R7Y8STPN46QFY0SD7JTFNU0","","313.40000000037253","img/flower4.png","76","314.70000000018626","3","1","1","1","1,0.333,0.333,0.333,1,0.333,0.333,0.333,1","1,0.333,0.333,0.333,1,0.333,0.333,0.333,1","1",""
"","html-keyboard-response","73","29479","0.0-73.0","3K4J6M3CXFF4Q8QE4JQEZQO4JRGAGX","AHKYVHP6591H8","3PIOQ99R7Y8STPN46QFY0SD7JTFNU0","","null","<img src=""img/flower4.png"" style=""width:200px; border:14px solid green;"">","null","","","","","","","","",""
"","image-keyboard-response","74","29681","0.0-74.0","3K4J6M3CXFF4Q8QE4JQEZQO4JRGAGX","AHKYVHP6591H8","3PIOQ99R7Y8STPN46QFY0SD7JTFNU0","","201.29999999981374","img/flower3.png","75","202.09999999962747","2","0","3","1","1,0.333,0.333,0.333,1,0.333,0.333,0.333,1","1,0.333,0.333,0.333,1,0.333,0.333,0.333,1","1",""
"","html-keyboard-response","75","29983","0.0-75.0","3K4J6M3CXFF4Q8QE4JQEZQO4JRGAGX","AHKYVHP6591H8","3PIOQ99R7Y8STPN46QFY0SD7JTFNU0","","null","<img src=""img/flower3.png"" style=""width:200px;border:14px solid red;"">","null","","","","","","","","",""
"","image-keyboard-response","76","30082","0.0-76.0","3K4J6M3CXFF4Q8QE4JQEZQO4JRGAGX","AHKYVHP6591H8","3PIOQ99R7Y8STPN46QFY0SD7JTFNU0","","96.70000000018626","img/flower4.png","74","98.40000000037253","1","1","1","1","1,0.333,0.333,0.333,1,0.333,0.333,0.333,1","1,0.333,0.333,0.333,1,0.333,0.333,0.333,1","1",""
"","html-keyboard-response","77","30383","0.0-77.0","3K4J6M3CXFF4Q8QE4JQEZQO4JRGAGX","AHKYVHP6591H8","3PIOQ99R7Y8STPN46QFY0SD7JTFNU0","","null","<img src=""img/flower4.png"" style=""width:200px; border:14px solid green;"">","null","","","","","","","","",""
"","image-keyboard-response","78","30435","0.0-78.0","3K4J6M3CXFF4Q8QE4JQEZQO4JRGAGX","AHKYVHP6591H8","3PIOQ99R7Y8STPN46QFY0SD7JTFNU0","","50.10000000055879","img/flower4.png","74","51.60000000055879","1","1","1","1","1,0.333,0.333,0.333,1,0.333,0.333,0.333,1","1,0.333,0.333,0.333,1,0.333,0.333,0.333,1","1",""
"","html-keyboard-response","79","30743","0.0-79.0","3K4J6M3CXFF4Q8QE4JQEZQO4JRGAGX","AHKYVHP6591H8","3PIOQ99R7Y8STPN46QFY0SD7JTFNU0","","null","<img src=""img/flower4.png"" style=""width:200px; border:14px solid green;"">","null","","","","","","","","",""
"","image-keyboard-response","80","30817","0.0-80.0","3K4J6M3CXFF4Q8QE4JQEZQO4JRGAGX","AHKYVHP6591H8","3PIOQ99R7Y8STPN46QFY0SD7JTFNU0","","73.5","img/flower2.png","74","74.19999999925494","1","1","2","1","1,0.333,0.333,0.333,1,0.333,0.333,0.333,1","1,0.333,0.333,0.333,1,0.333,0.333,0.333,1","1",""
"","html-keyboard-response","81","31119","0.0-81.0","3K4J6M3CXFF4Q8QE4JQEZQO4JRGAGX","AHKYVHP6591H8","3PIOQ99R7Y8STPN46QFY0SD7JTFNU0","","null","<img src=""img/flower2.png"" style=""width:200px; border:14px solid green;"">","null","","","","","","","","",""
"","image-keyboard-response","82","31154","0.0-82.0","3K4J6M3CXFF4Q8QE4JQEZQO4JRGAGX","AHKYVHP6591H8","3PIOQ99R7Y8STPN46QFY0SD7JTFNU0","","33.09999999962747","img/flower3.png","75","34","2","0","3","1","1,0.333,0.333,0.333,1,0.333,0.333,0.333,1","1,0.333,0.333,0.333,1,0.333,0.333,0.333,1","1",""
"","html-keyboard-response","83","31455","0.0-83.0","3K4J6M3CXFF4Q8QE4JQEZQO4JRGAGX","AHKYVHP6591H8","3PIOQ99R7Y8STPN46QFY0SD7JTFNU0","","null","<img src=""img/flower3.png"" style=""width:200px;border:14px solid red;"">","null","","","","","","","","",""
"","image-keyboard-response","84","31505","0.0-84.0","3K4J6M3CXFF4Q8QE4JQEZQO4JRGAGX","AHKYVHP6591H8","3PIOQ99R7Y8STPN46QFY0SD7JTFNU0","","48.799999999813735","img/flower2.png","75","49.700000000186265","2","1","2","1","1,0.333,0.333,0.333,1,0.333,0.333,0.333,1","1,0.333,0.333,0.333,1,0.333,0.333,0.333,1","1",""
"","html-keyboard-response","85","31808","0.0-85.0","3K4J6M3CXFF4Q8QE4JQEZQO4JRGAGX","AHKYVHP6591H8","3PIOQ99R7Y8STPN46QFY0SD7JTFNU0","","null","<img src=""img/flower2.png"" style=""width:200px; border:14px solid green;"">","null","","","","","","","","",""
"","image-keyboard-response","86","31858","0.0-86.0","3K4J6M3CXFF4Q8QE4JQEZQO4JRGAGX","AHKYVHP6591H8","3PIOQ99R7Y8STPN46QFY0SD7JTFNU0","","48.299999999813735","img/flower3.png","76","49.69999999925494","3","1","3","1","1,0.333,0.333,0.333,1,0.333,0.333,0.333,1","1,0.333,0.333,0.333,1,0.333,0.333,0.333,1","1",""
"","html-keyboard-response","87","32159","0.0-87.0","3K4J6M3CXFF4Q8QE4JQEZQO4JRGAGX","AHKYVHP6591H8","3PIOQ99R7Y8STPN46QFY0SD7JTFNU0","","null","<img src=""img/flower3.png"" style=""width:200px; border:14px solid green;"">","null","","","","","","","","",""
"","image-keyboard-response","88","32194","0.0-88.0","3K4J6M3CXFF4Q8QE4JQEZQO4JRGAGX","AHKYVHP6591H8","3PIOQ99R7Y8STPN46QFY0SD7JTFNU0","","33.299999999813735","img/flower4.png","76","35","3","0","1","1","1,0.333,0.333,0.333,1,0.333,0.333,0.333,1","1,0.333,0.333,0.333,1,0.333,0.333,0.333,1","1",""
"","html-keyboard-response","89","32504","0.0-89.0","3K4J6M3CXFF4Q8QE4JQEZQO4JRGAGX","AHKYVHP6591H8","3PIOQ99R7Y8STPN46QFY0SD7JTFNU0","","null","<img src=""img/flower4.png"" style=""width:200px;border:14px solid red;"">","null","","","","","","","","",""
"","image-keyboard-response","90","32514","0.0-90.0","3K4J6M3CXFF4Q8QE4JQEZQO4JRGAGX","AHKYVHP6591H8","3PIOQ99R7Y8STPN46QFY0SD7JTFNU0","","8.400000000372529","img/flower2.png","76","9.700000000186265","3","0","2","1","1,0.333,0.333,0.333,1,0.333,0.333,0.333,1","1,0.333,0.333,0.333,1,0.333,0.333,0.333,1","1",""
"","html-keyboard-response","91","32815","0.0-91.0","3K4J6M3CXFF4Q8QE4JQEZQO4JRGAGX","AHKYVHP6591H8","3PIOQ99R7Y8STPN46QFY0SD7JTFNU0","","null","<img src=""img/flower2.png"" style=""width:200px;border:14px solid red;"">","null","","","","","","","","",""
"","image-keyboard-response","92","33027","0.0-92.0","3K4J6M3CXFF4Q8QE4JQEZQO4JRGAGX","AHKYVHP6591H8","3PIOQ99R7Y8STPN46QFY0SD7JTFNU0","","209","img/flower2.png","76","210.70000000018626","3","0","2","1","1,0.333,0.333,0.333,1,0.333,0.333,0.333,1","1,0.333,0.333,0.333,1,0.333,0.333,0.333,1","1",""
"","html-keyboard-response","93","33335","0.0-93.0","3K4J6M3CXFF4Q8QE4JQEZQO4JRGAGX","AHKYVHP6591H8","3PIOQ99R7Y8STPN46QFY0SD7JTFNU0","","null","<img src=""img/flower2.png"" style=""width:200px;border:14px solid red;"">","null","","","","","","","","",""
"","image-keyboard-response","94","33682","0.0-94.0","3K4J6M3CXFF4Q8QE4JQEZQO4JRGAGX","AHKYVHP6591H8","3PIOQ99R7Y8STPN46QFY0SD7JTFNU0","","344.90000000037253","img/flower3.png","76","346.40000000037253","3","1","3","1","1,0.333,0.333,0.333,1,0.333,0.333,0.333,1","1,0.333,0.333,0.333,1,0.333,0.333,0.333,1","1",""
"","html-keyboard-response","95","33986","0.0-95.0","3K4J6M3CXFF4Q8QE4JQEZQO4JRGAGX","AHKYVHP6591H8","3PIOQ99R7Y8STPN46QFY0SD7JTFNU0","","null","<img src=""img/flower3.png"" style=""width:200px; border:14px solid green;"">","null","","","","","","","","",""
"","image-keyboard-response","96","34178","0.0-96.0","3K4J6M3CXFF4Q8QE4JQEZQO4JRGAGX","AHKYVHP6591H8","3PIOQ99R7Y8STPN46QFY0SD7JTFNU0","","190.79999999981374","img/flower4.png","75","192.40000000037253","2","1","1","1","1,0.333,0.333,0.333,1,0.333,0.333,0.333,1","1,0.333,0.333,0.333,1,0.333,0.333,0.333,1","1",""
"","html-keyboard-response","97","34487","0.0-97.0","3K4J6M3CXFF4Q8QE4JQEZQO4JRGAGX","AHKYVHP6591H8","3PIOQ99R7Y8STPN46QFY0SD7JTFNU0","","null","<img src=""img/flower4.png"" style=""width:200px; border:14px solid green;"">","null","","","","","","","","",""
"","image-keyboard-response","98","34593","0.0-98.0","3K4J6M3CXFF4Q8QE4JQEZQO4JRGAGX","AHKYVHP6591H8","3PIOQ99R7Y8STPN46QFY0SD7JTFNU0","","104.20000000018626","img/flower4.png","74","105.3999999994412","1","1","1","1","1,0.333,0.333,0.333,1,0.333,0.333,0.333,1","1,0.333,0.333,0.333,1,0.333,0.333,0.333,1","1",""
"","html-keyboard-response","99","34895","0.0-99.0","3K4J6M3CXFF4Q8QE4JQEZQO4JRGAGX","AHKYVHP6591H8","3PIOQ99R7Y8STPN46QFY0SD7JTFNU0","","null","<img src=""img/flower4.png"" style=""width:200px; border:14px solid green;"">","null","","","","","","","","",""
"","image-keyboard-response","100","35059","0.0-100.0","3K4J6M3CXFF4Q8QE4JQEZQO4JRGAGX","AHKYVHP6591H8","3PIOQ99R7Y8STPN46QFY0SD7JTFNU0","","161.70000000018626","img/flower3.png","74","163.29999999981374","1","0","3","1","1,0.333,0.333,0.333,1,0.333,0.333,0.333,1","1,0.333,0.333,0.333,1,0.333,0.333,0.333,1","1",""
"","html-keyboard-response","101","35367","0.0-101.0","3K4J6M3CXFF4Q8QE4JQEZQO4JRGAGX","AHKYVHP6591H8","3PIOQ99R7Y8STPN46QFY0SD7JTFNU0","","null","<img src=""img/flower3.png"" style=""width:200px;border:14px solid red;"">","null","","","","","","","","",""
"","image-keyboard-response","102","35603","0.0-102.0","3K4J6M3CXFF4Q8QE4JQEZQO4JRGAGX","AHKYVHP6591H8","3PIOQ99R7Y8STPN46QFY0SD7JTFNU0","","233.79999999981374","img/flower2.png","75","235.29999999981374","2","1","2","1","1,0.333,0.333,0.333,1,0.333,0.333,0.333,1","1,0.333,0.333,0.333,1,0.333,0.333,0.333,1","1",""
"","html-keyboard-response","103","35911","0.0-103.0","3K4J6M3CXFF4Q8QE4JQEZQO4JRGAGX","AHKYVHP6591H8","3PIOQ99R7Y8STPN46QFY0SD7JTFNU0","","null","<img src=""img/flower2.png"" style=""width:200px; border:14px solid green;"">","null","","","","","","","","",""
"","image-keyboard-response","104","36178","0.0-104.0","3K4J6M3CXFF4Q8QE4JQEZQO4JRGAGX","AHKYVHP6591H8","3PIOQ99R7Y8STPN46QFY0SD7JTFNU0","","264.90000000037253","img/flower3.png","76","266.30000000074506","3","1","3","1","1,0.333,0.333,0.333,1,0.333,0.333,0.333,1","1,0.333,0.333,0.333,1,0.333,0.333,0.333,1","1",""
"","html-keyboard-response","105","36487","0.0-105.0","3K4J6M3CXFF4Q8QE4JQEZQO4JRGAGX","AHKYVHP6591H8","3PIOQ99R7Y8STPN46QFY0SD7JTFNU0","","null","<img src=""img/flower3.png"" style=""width:200px; border:14px solid green;"">","null","","","","","","","","",""
"","image-keyboard-response","106","36706","0.0-106.0","3K4J6M3CXFF4Q8QE4JQEZQO4JRGAGX","AHKYVHP6591H8","3PIOQ99R7Y8STPN46QFY0SD7JTFNU0","","217.20000000018626","img/flower3.png","75","218.79999999981374","2","0","3","1","1,0.333,0.333,0.333,1,0.333,0.333,0.333,1","1,0.333,0.333,0.333,1,0.333,0.333,0.333,1","1",""
"","html-keyboard-response","107","37015","0.0-107.0","3K4J6M3CXFF4Q8QE4JQEZQO4JRGAGX","AHKYVHP6591H8","3PIOQ99R7Y8STPN46QFY0SD7JTFNU0","","null","<img src=""img/flower3.png"" style=""width:200px;border:14px solid red;"">","null","","","","","","","","",""
"","image-keyboard-response","108","37267","0.0-108.0","3K4J6M3CXFF4Q8QE4JQEZQO4JRGAGX","AHKYVHP6591H8","3PIOQ99R7Y8STPN46QFY0SD7JTFNU0","","249.5","img/flower3.png","74","250.80000000074506","1","0","3","1","1,0.333,0.333,0.333,1,0.333,0.333,0.333,1","1,0.333,0.333,0.333,1,0.333,0.333,0.333,1","1",""
"","html-keyboard-response","109","37575","0.0-109.0","3K4J6M3CXFF4Q8QE4JQEZQO4JRGAGX","AHKYVHP6591H8","3PIOQ99R7Y8STPN46QFY0SD7JTFNU0","","null","<img src=""img/flower3.png"" style=""width:200px;border:14px solid red;"">","null","","","","","","","","",""
"","image-keyboard-response","110","37842","0.0-110.0","3K4J6M3CXFF4Q8QE4JQEZQO4JRGAGX","AHKYVHP6591H8","3PIOQ99R7Y8STPN46QFY0SD7JTFNU0","","265.1000000005588","img/flower2.png","75","267.1000000005588","2","1","2","1","1,0.333,0.333,0.333,1,0.333,0.333,0.333,1","1,0.333,0.333,0.333,1,0.333,0.333,0.333,1","1",""
"","html-keyboard-response","111","38151","0.0-111.0","3K4J6M3CXFF4Q8QE4JQEZQO4JRGAGX","AHKYVHP6591H8","3PIOQ99R7Y8STPN46QFY0SD7JTFNU0","","null","<img src=""img/flower2.png"" style=""width:200px; border:14px solid green;"">","null","","","","","","","","",""
"","image-keyboard-response","112","38162","0.0-112.0","3K4J6M3CXFF4Q8QE4JQEZQO4JRGAGX","AHKYVHP6591H8","3PIOQ99R7Y8STPN46QFY0SD7JTFNU0","","8.900000000372529","img/flower2.png","74","10.5","1","1","2","1","1,0.333,0.333,0.333,1,0.333,0.333,0.333,1","1,0.333,0.333,0.333,1,0.333,0.333,0.333,1","1",""
"","html-keyboard-response","113","38471","0.0-113.0","3K4J6M3CXFF4Q8QE4JQEZQO4JRGAGX","AHKYVHP6591H8","3PIOQ99R7Y8STPN46QFY0SD7JTFNU0","","null","<img src=""img/flower2.png"" style=""width:200px; border:14px solid green;"">","null","","","","","","","","",""
"","image-keyboard-response","114","38481","0.0-114.0","3K4J6M3CXFF4Q8QE4JQEZQO4JRGAGX","AHKYVHP6591H8","3PIOQ99R7Y8STPN46QFY0SD7JTFNU0","","9.200000000186265","img/flower3.png","74","9.899999999441206","1","0","3","1","1,0.333,0.333,0.333,1,0.333,0.333,0.333,1","1,0.333,0.333,0.333,1,0.333,0.333,0.333,1","1",""
"","html-keyboard-response","115","38783","0.0-115.0","3K4J6M3CXFF4Q8QE4JQEZQO4JRGAGX","AHKYVHP6591H8","3PIOQ99R7Y8STPN46QFY0SD7JTFNU0","","null","<img src=""img/flower3.png"" style=""width:200px;border:14px solid red;"">","null","","","","","","","","",""
"","image-keyboard-response","116","38789","0.0-116.0","3K4J6M3CXFF4Q8QE4JQEZQO4JRGAGX","AHKYVHP6591H8","3PIOQ99R7Y8STPN46QFY0SD7JTFNU0","","5.199999999254942","img/flower3.png","75","5.900000000372529","2","0","3","1","1,0.333,0.333,0.333,1,0.333,0.333,0.333,1","1,0.333,0.333,0.333,1,0.333,0.333,0.333,1","1",""
"","html-keyboard-response","117","39095","0.0-117.0","3K4J6M3CXFF4Q8QE4JQEZQO4JRGAGX","AHKYVHP6591H8","3PIOQ99R7Y8STPN46QFY0SD7JTFNU0","","null","<img src=""img/flower3.png"" style=""width:200px;border:14px solid red;"">","null","","","","","","","","",""
"","image-keyboard-response","118","39330","0.0-118.0","3K4J6M3CXFF4Q8QE4JQEZQO4JRGAGX","AHKYVHP6591H8","3PIOQ99R7Y8STPN46QFY0SD7JTFNU0","","233.09999999962747","img/flower4.png","76","234.5","3","0","1","1","1,0.333,0.333,0.333,1,0.333,0.333,0.333,1","1,0.333,0.333,0.333,1,0.333,0.333,0.333,1","1",""
"","html-keyboard-response","119","39634","0.0-119.0","3K4J6M3CXFF4Q8QE4JQEZQO4JRGAGX","AHKYVHP6591H8","3PIOQ99R7Y8STPN46QFY0SD7JTFNU0","","null","<img src=""img/flower4.png"" style=""width:200px;border:14px solid red;"">","null","","","","","","","","",""
"","image-keyboard-response","120","39923","0.0-120.0","3K4J6M3CXFF4Q8QE4JQEZQO4JRGAGX","AHKYVHP6591H8","3PIOQ99R7Y8STPN46QFY0SD7JTFNU0","","285.29999999981374","img/flower4.png","74","287.40000000037253","1","1","1","1","1,0.333,0.333,0.333,1,0.333,0.333,0.333,1","1,0.333,0.333,0.333,1,0.333,0.333,0.333,1","1",""
"","html-keyboard-response","121","40231","0.0-121.0","3K4J6M3CXFF4Q8QE4JQEZQO4JRGAGX","AHKYVHP6591H8","3PIOQ99R7Y8STPN46QFY0SD7JTFNU0","","null","<img src=""img/flower4.png"" style=""width:200px; border:14px solid green;"">","null","","","","","","","","",""
"","image-keyboard-response","122","40483","0.0-122.0","3K4J6M3CXFF4Q8QE4JQEZQO4JRGAGX","AHKYVHP6591H8","3PIOQ99R7Y8STPN46QFY0SD7JTFNU0","","248.79999999981374","img/flower4.png","76","250.6000000005588","3","0","1","1","1,0.333,0.333,0.333,1,0.333,0.333,0.333,1","1,0.333,0.333,0.333,1,0.333,0.333,0.333,1","1",""
"","html-keyboard-response","123","40791","0.0-123.0","3K4J6M3CXFF4Q8QE4JQEZQO4JRGAGX","AHKYVHP6591H8","3PIOQ99R7Y8STPN46QFY0SD7JTFNU0","","null","<img src=""img/flower4.png"" style=""width:200px;border:14px solid red;"">","null","","","","","","","","",""
"","image-keyboard-response","124","40962","0.0-124.0","3K4J6M3CXFF4Q8QE4JQEZQO4JRGAGX","AHKYVHP6591H8","3PIOQ99R7Y8STPN46QFY0SD7JTFNU0","","168.6000000005588","img/flower3.png","74","170","1","0","3","1","1,0.333,0.333,0.333,1,0.333,0.333,0.333,1","1,0.333,0.333,0.333,1,0.333,0.333,0.333,1","1",""
"","html-keyboard-response","125","41267","0.0-125.0","3K4J6M3CXFF4Q8QE4JQEZQO4JRGAGX","AHKYVHP6591H8","3PIOQ99R7Y8STPN46QFY0SD7JTFNU0","","null","<img src=""img/flower3.png"" style=""width:200px;border:14px solid red;"">","null","","","","","","","","",""
"","image-keyboard-response","126","41554","0.0-126.0","3K4J6M3CXFF4Q8QE4JQEZQO4JRGAGX","AHKYVHP6591H8","3PIOQ99R7Y8STPN46QFY0SD7JTFNU0","","286.20000000018626","img/flower2.png","74","287.70000000018626","1","1","2","1","1,0.333,0.333,0.333,1,0.333,0.333,0.333,1","1,0.333,0.333,0.333,1,0.333,0.333,0.333,1","1",""
"","html-keyboard-response","127","41863","0.0-127.0","3K4J6M3CXFF4Q8QE4JQEZQO4JRGAGX","AHKYVHP6591H8","3PIOQ99R7Y8STPN46QFY0SD7JTFNU0","","null","<img src=""img/flower2.png"" style=""width:200px; border:14px solid green;"">","null","","","","","","","","",""
"","image-keyboard-response","128","42114","0.0-128.0","3K4J6M3CXFF4Q8QE4JQEZQO4JRGAGX","AHKYVHP6591H8","3PIOQ99R7Y8STPN46QFY0SD7JTFNU0","","249.20000000018626","img/flower3.png","75","250.5","2","1","3","1","1,0.333,0.333,0.333,1,0.333,0.333,0.333,1","1,0.333,0.333,0.333,1,0.333,0.333,0.333,1","1",""
"","html-keyboard-response","129","42423","0.0-129.0","3K4J6M3CXFF4Q8QE4JQEZQO4JRGAGX","AHKYVHP6591H8","3PIOQ99R7Y8STPN46QFY0SD7JTFNU0","","null","<img src=""img/flower3.png"" style=""width:200px; border:14px solid green;"">","null","","","","","","","","",""
"","image-keyboard-response","130","42499","0.0-130.0","3K4J6M3CXFF4Q8QE4JQEZQO4JRGAGX","AHKYVHP6591H8","3PIOQ99R7Y8STPN46QFY0SD7JTFNU0","","73.6000000005588","img/flower2.png","76","74.90000000037253","3","0","2","1","1,0.333,0.333,0.333,1,0.333,0.333,0.333,1","1,0.333,0.333,0.333,1,0.333,0.333,0.333,1","1",""
"","html-keyboard-response","131","42807","0.0-131.0","3K4J6M3CXFF4Q8QE4JQEZQO4JRGAGX","AHKYVHP6591H8","3PIOQ99R7Y8STPN46QFY0SD7JTFNU0","","null","<img src=""img/flower2.png"" style=""width:200px;border:14px solid red;"">","null","","","","","","","","",""
"","image-keyboard-response","132","43043","0.0-132.0","3K4J6M3CXFF4Q8QE4JQEZQO4JRGAGX","AHKYVHP6591H8","3PIOQ99R7Y8STPN46QFY0SD7JTFNU0","","233.70000000018626","img/flower4.png","76","235.19999999925494","3","1","1","1","1,0.333,0.333,0.333,1,0.333,0.333,0.333,1","1,0.333,0.333,0.333,1,0.333,0.333,0.333,1","1",""
"","html-keyboard-response","133","43351","0.0-133.0","3K4J6M3CXFF4Q8QE4JQEZQO4JRGAGX","AHKYVHP6591H8","3PIOQ99R7Y8STPN46QFY0SD7JTFNU0","","null","<img src=""img/flower4.png"" style=""width:200px; border:14px solid green;"">","null","","","","","","","","",""
"","image-keyboard-response","134","43491","0.0-134.0","3K4J6M3CXFF4Q8QE4JQEZQO4JRGAGX","AHKYVHP6591H8","3PIOQ99R7Y8STPN46QFY0SD7JTFNU0","","136.90000000037253","img/flower2.png","75","139.09999999962747","2","1","2","1","1,0.333,0.333,0.333,1,0.333,0.333,0.333,1","1,0.333,0.333,0.333,1,0.333,0.333,0.333,1","1",""
"","html-keyboard-response","135","43799","0.0-135.0","3K4J6M3CXFF4Q8QE4JQEZQO4JRGAGX","AHKYVHP6591H8","3PIOQ99R7Y8STPN46QFY0SD7JTFNU0","","null","<img src=""img/flower2.png"" style=""width:200px; border:14px solid green;"">","null","","","","","","","","",""
"","image-keyboard-response","136","43954","0.0-136.0","3K4J6M3CXFF4Q8QE4JQEZQO4JRGAGX","AHKYVHP6591H8","3PIOQ99R7Y8STPN46QFY0SD7JTFNU0","","152.90000000037253","img/flower2.png","74","155","1","0","2","1","1,0.333,0.333,0.333,1,0.333,0.333,0.333,1","1,0.333,0.333,0.333,1,0.333,0.333,0.333,1","1",""
"","html-keyboard-response","137","44264","0.0-137.0","3K4J6M3CXFF4Q8QE4JQEZQO4JRGAGX","AHKYVHP6591H8","3PIOQ99R7Y8STPN46QFY0SD7JTFNU0","","null","<img src=""img/flower2.png"" style=""width:200px;border:14px solid red;"">","null","","","","","","","","",""
"","image-keyboard-response","138","44450","0.0-138.0","3K4J6M3CXFF4Q8QE4JQEZQO4JRGAGX","AHKYVHP6591H8","3PIOQ99R7Y8STPN46QFY0SD7JTFNU0","","184.79999999981374","img/flower2.png","74","186.5","1","0","2","1","1,0.333,0.333,0.333,1,0.333,0.333,0.333,1","1,0.333,0.333,0.333,1,0.333,0.333,0.333,1","1",""
"","html-keyboard-response","139","44759","0.0-139.0","3K4J6M3CXFF4Q8QE4JQEZQO4JRGAGX","AHKYVHP6591H8","3PIOQ99R7Y8STPN46QFY0SD7JTFNU0","","null","<img src=""img/flower2.png"" style=""width:200px;border:14px solid red;"">","null","","","","","","","","",""
"","image-keyboard-response","140","44850","0.0-140.0","3K4J6M3CXFF4Q8QE4JQEZQO4JRGAGX","AHKYVHP6591H8","3PIOQ99R7Y8STPN46QFY0SD7JTFNU0","","89","img/flower4.png","76","90.79999999981374","3","0","1","1","1,0.333,0.333,0.333,1,0.333,0.333,0.333,1","1,0.333,0.333,0.333,1,0.333,0.333,0.333,1","1",""
"","html-keyboard-response","141","45160","0.0-141.0","3K4J6M3CXFF4Q8QE4JQEZQO4JRGAGX","AHKYVHP6591H8","3PIOQ99R7Y8STPN46QFY0SD7JTFNU0","","null","<img src=""img/flower4.png"" style=""width:200px;border:14px solid red;"">","null","","","","","","","","",""
"","image-keyboard-response","142","45362","0.0-142.0","3K4J6M3CXFF4Q8QE4JQEZQO4JRGAGX","AHKYVHP6591H8","3PIOQ99R7Y8STPN46QFY0SD7JTFNU0","","200.40000000037253","img/flower3.png","76","201.79999999981374","3","1","3","1","1,0.333,0.333,0.333,1,0.333,0.333,0.333,1","1,0.333,0.333,0.333,1,0.333,0.333,0.333,1","1",""
"","html-keyboard-response","143","45672","0.0-143.0","3K4J6M3CXFF4Q8QE4JQEZQO4JRGAGX","AHKYVHP6591H8","3PIOQ99R7Y8STPN46QFY0SD7JTFNU0","","null","<img src=""img/flower3.png"" style=""width:200px; border:14px solid green;"">","null","","","","","","","","",""
"","image-keyboard-response","144","45843","0.0-144.0","3K4J6M3CXFF4Q8QE4JQEZQO4JRGAGX","AHKYVHP6591H8","3PIOQ99R7Y8STPN46QFY0SD7JTFNU0","","169.09999999962747","img/flower3.png","75","170.79999999981374","2","0","3","1","1,0.333,0.333,0.333,1,0.333,0.333,0.333,1","1,0.333,0.333,0.333,1,0.333,0.333,0.333,1","1",""
"","html-keyboard-response","145","46151","0.0-145.0","3K4J6M3CXFF4Q8QE4JQEZQO4JRGAGX","AHKYVHP6591H8","3PIOQ99R7Y8STPN46QFY0SD7JTFNU0","","null","<img src=""img/flower3.png"" style=""width:200px;border:14px solid red;"">","null","","","","","","","","",""
"","image-keyboard-response","146","46322","0.0-146.0","3K4J6M3CXFF4Q8QE4JQEZQO4JRGAGX","AHKYVHP6591H8","3PIOQ99R7Y8STPN46QFY0SD7JTFNU0","","169.09999999962747","img/flower2.png","74","170.5","1","0","2","1","1,0.333,0.333,0.333,1,0.333,0.333,0.333,1","1,0.333,0.333,0.333,1,0.333,0.333,0.333,1","1",""
"","html-keyboard-response","147","46631","0.0-147.0","3K4J6M3CXFF4Q8QE4JQEZQO4JRGAGX","AHKYVHP6591H8","3PIOQ99R7Y8STPN46QFY0SD7JTFNU0","","null","<img src=""img/flower2.png"" style=""width:200px;border:14px solid red;"">","null","","","","","","","","",""
"","image-keyboard-response","148","46833","0.0-148.0","3K4J6M3CXFF4Q8QE4JQEZQO4JRGAGX","AHKYVHP6591H8","3PIOQ99R7Y8STPN46QFY0SD7JTFNU0","","200.20000000018626","img/flower4.png","75","201.29999999981374","2","1","1","1","1,0.333,0.333,0.333,1,0.333,0.333,0.333,1","1,0.333,0.333,0.333,1,0.333,0.333,0.333,1","1",""
"","html-keyboard-response","149","47135","0.0-149.0","3K4J6M3CXFF4Q8QE4JQEZQO4JRGAGX","AHKYVHP6591H8","3PIOQ99R7Y8STPN46QFY0SD7JTFNU0","","null","<img src=""img/flower4.png"" style=""width:200px; border:14px solid green;"">","null","","","","","","","","",""
"","image-keyboard-response","150","47299","0.0-150.0","3K4J6M3CXFF4Q8QE4JQEZQO4JRGAGX","AHKYVHP6591H8","3PIOQ99R7Y8STPN46QFY0SD7JTFNU0","","161.70000000018626","img/flower4.png","75","163","2","0","1","1","1,0.333,0.333,0.333,1,0.333,0.333,0.333,1","1,0.333,0.333,0.333,1,0.333,0.333,0.333,1","1",""
"","html-keyboard-response","151","47607","0.0-151.0","3K4J6M3CXFF4Q8QE4JQEZQO4JRGAGX","AHKYVHP6591H8","3PIOQ99R7Y8STPN46QFY0SD7JTFNU0","","null","<img src=""img/flower4.png"" style=""width:200px;border:14px solid red;"">","null","","","","","","","","",""
"","image-keyboard-response","152","47810","0.0-152.0","3K4J6M3CXFF4Q8QE4JQEZQO4JRGAGX","AHKYVHP6591H8","3PIOQ99R7Y8STPN46QFY0SD7JTFNU0","","200.70000000018626","img/flower4.png","76","202.5","3","0","1","1","1,0.333,0.333,0.333,1,0.333,0.333,0.333,1","1,0.333,0.333,0.333,1,0.333,0.333,0.333,1","1",""
"","html-keyboard-response","153","48119","0.0-153.0","3K4J6M3CXFF4Q8QE4JQEZQO4JRGAGX","AHKYVHP6591H8","3PIOQ99R7Y8STPN46QFY0SD7JTFNU0","","null","<img src=""img/flower4.png"" style=""width:200px;border:14px solid red;"">","null","","","","","","","","",""
"","image-keyboard-response","154","48322","0.0-154.0","3K4J6M3CXFF4Q8QE4JQEZQO4JRGAGX","AHKYVHP6591H8","3PIOQ99R7Y8STPN46QFY0SD7JTFNU0","","199.90000000037253","img/flower2.png","74","202.1000000005588","1","0","2","1","1,0.333,0.333,0.333,1,0.333,0.333,0.333,1","1,0.333,0.333,0.333,1,0.333,0.333,0.333,1","1",""
"","html-keyboard-response","155","48631","0.0-155.0","3K4J6M3CXFF4Q8QE4JQEZQO4JRGAGX","AHKYVHP6591H8","3PIOQ99R7Y8STPN46QFY0SD7JTFNU0","","null","<img src=""img/flower2.png"" style=""width:200px;border:14px solid red;"">","null","","","","","","","","",""
"","image-keyboard-response","156","48787","0.0-156.0","3K4J6M3CXFF4Q8QE4JQEZQO4JRGAGX","AHKYVHP6591H8","3PIOQ99R7Y8STPN46QFY0SD7JTFNU0","","153.09999999962747","img/flower4.png","74","154.90000000037253","1","1","1","1","1,0.333,0.333,0.333,1,0.333,0.333,0.333,1","1,0.333,0.333,0.333,1,0.333,0.333,0.333,1","1",""
"","html-keyboard-response","157","49095","0.0-157.0","3K4J6M3CXFF4Q8QE4JQEZQO4JRGAGX","AHKYVHP6591H8","3PIOQ99R7Y8STPN46QFY0SD7JTFNU0","","null","<img src=""img/flower4.png"" style=""width:200px; border:14px solid green;"">","null","","","","","","","","",""
"","image-keyboard-response","158","49330","0.0-158.0","3K4J6M3CXFF4Q8QE4JQEZQO4JRGAGX","AHKYVHP6591H8","3PIOQ99R7Y8STPN46QFY0SD7JTFNU0","","233","img/flower2.png","74","235.29999999981374","1","0","2","1","1,0.333,0.333,0.333,1,0.333,0.333,0.333,1","1,0.333,0.333,0.333,1,0.333,0.333,0.333,1","1",""
"","html-keyboard-response","159","49639","0.0-159.0","3K4J6M3CXFF4Q8QE4JQEZQO4JRGAGX","AHKYVHP6591H8","3PIOQ99R7Y8STPN46QFY0SD7JTFNU0","","null","<img src=""img/flower2.png"" style=""width:200px;border:14px solid red;"">","null","","","","","","","","",""
"","image-keyboard-response","160","49779","0.0-160.0","3K4J6M3CXFF4Q8QE4JQEZQO4JRGAGX","AHKYVHP6591H8","3PIOQ99R7Y8STPN46QFY0SD7JTFNU0","","137.19999999925494","img/flower3.png","74","139","1","0","3","1","1,0.333,0.333,0.333,1,0.333,0.333,0.333,1","1,0.333,0.333,0.333,1,0.333,0.333,0.333,1","1",""
"","html-keyboard-response","161","50087","0.0-161.0","3K4J6M3CXFF4Q8QE4JQEZQO4JRGAGX","AHKYVHP6591H8","3PIOQ99R7Y8STPN46QFY0SD7JTFNU0","","null","<img src=""img/flower3.png"" style=""width:200px;border:14px solid red;"">","null","","","","","","","","",""
"","image-keyboard-response","162","50211","0.0-162.0","3K4J6M3CXFF4Q8QE4JQEZQO4JRGAGX","AHKYVHP6591H8","3PIOQ99R7Y8STPN46QFY0SD7JTFNU0","","120.90000000037253","img/flower2.png","76","123.59999999962747","3","0","2","1","1,0.333,0.333,0.333,1,0.333,0.333,0.333,1","1,0.333,0.333,0.333,1,0.333,0.333,0.333,1","1",""
"","html-keyboard-response","163","50519","0.0-163.0","3K4J6M3CXFF4Q8QE4JQEZQO4JRGAGX","AHKYVHP6591H8","3PIOQ99R7Y8STPN46QFY0SD7JTFNU0","","null","<img src=""img/flower2.png"" style=""width:200px;border:14px solid red;"">","null","","","","","","","","",""
"","image-keyboard-response","164","50690","0.0-164.0","3K4J6M3CXFF4Q8QE4JQEZQO4JRGAGX","AHKYVHP6591H8","3PIOQ99R7Y8STPN46QFY0SD7JTFNU0","","168.70000000018626","img/flower2.png","76","170.09999999962747","3","0","2","1","1,0.333,0.333,0.333,1,0.333,0.333,0.333,1","1,0.333,0.333,0.333,1,0.333,0.333,0.333,1","1",""
"","html-keyboard-response","165","51000","0.0-165.0","3K4J6M3CXFF4Q8QE4JQEZQO4JRGAGX","AHKYVHP6591H8","3PIOQ99R7Y8STPN46QFY0SD7JTFNU0","","null","<img src=""img/flower2.png"" style=""width:200px;border:14px solid red;"">","null","","","","","","","","",""
"","image-keyboard-response","166","51171","0.0-166.0","3K4J6M3CXFF4Q8QE4JQEZQO4JRGAGX","AHKYVHP6591H8","3PIOQ99R7Y8STPN46QFY0SD7JTFNU0","","168.90000000037253","img/flower2.png","76","170.09999999962747","3","1","2","1","1,0.333,0.333,0.333,1,0.333,0.333,0.333,1","1,0.333,0.333,0.333,1,0.333,0.333,0.333,1","1",""
"","html-keyboard-response","167","51479","0.0-167.0","3K4J6M3CXFF4Q8QE4JQEZQO4JRGAGX","AHKYVHP6591H8","3PIOQ99R7Y8STPN46QFY0SD7JTFNU0","","null","<img src=""img/flower2.png"" style=""width:200px; border:14px solid green;"">","null","","","","","","","","",""
"","image-keyboard-response","168","51634","0.0-168.0","3K4J6M3CXFF4Q8QE4JQEZQO4JRGAGX","AHKYVHP6591H8","3PIOQ99R7Y8STPN46QFY0SD7JTFNU0","","153.19999999925494","img/flower4.png","75","155.1000000005588","2","0","1","1","1,0.333,0.333,0.333,1,0.333,0.333,0.333,1","1,0.333,0.333,0.333,1,0.333,0.333,0.333,1","1",""
"","html-keyboard-response","169","51943","0.0-169.0","3K4J6M3CXFF4Q8QE4JQEZQO4JRGAGX","AHKYVHP6591H8","3PIOQ99R7Y8STPN46QFY0SD7JTFNU0","","null","<img src=""img/flower4.png"" style=""width:200px;border:14px solid red;"">","null","","","","","","","","",""
"","image-keyboard-response","170","52099","0.0-170.0","3K4J6M3CXFF4Q8QE4JQEZQO4JRGAGX","AHKYVHP6591H8","3PIOQ99R7Y8STPN46QFY0SD7JTFNU0","","153.30000000074506","img/flower2.png","74","155.1000000005588","1","1","2","1","1,0.333,0.333,0.333,1,0.333,0.333,0.333,1","1,0.333,0.333,0.333,1,0.333,0.333,0.333,1","1",""
"","html-keyboard-response","171","52407","0.0-171.0","3K4J6M3CXFF4Q8QE4JQEZQO4JRGAGX","AHKYVHP6591H8","3PIOQ99R7Y8STPN46QFY0SD7JTFNU0","","null","<img src=""img/flower2.png"" style=""width:200px; border:14px solid green;"">","null","","","","","","","","",""
"","image-keyboard-response","172","52659","0.0-172.0","3K4J6M3CXFF4Q8QE4JQEZQO4JRGAGX","AHKYVHP6591H8","3PIOQ99R7Y8STPN46QFY0SD7JTFNU0","","249.70000000018626","img/flower3.png","75","251","2","0","3","1","1,0.333,0.333,0.333,1,0.333,0.333,0.333,1","1,0.333,0.333,0.333,1,0.333,0.333,0.333,1","1",""
"","html-keyboard-response","173","52968","0.0-173.0","3K4J6M3CXFF4Q8QE4JQEZQO4JRGAGX","AHKYVHP6591H8","3PIOQ99R7Y8STPN46QFY0SD7JTFNU0","","null","<img src=""img/flower3.png"" style=""width:200px;border:14px solid red;"">","null","","","","","","","","",""
"","image-keyboard-response","174","53203","0.0-174.0","3K4J6M3CXFF4Q8QE4JQEZQO4JRGAGX","AHKYVHP6591H8","3PIOQ99R7Y8STPN46QFY0SD7JTFNU0","","233.30000000074506","img/flower4.png","76","234.79999999981374","3","0","1","1","1,0.333,0.333,0.333,1,0.333,0.333,0.333,1","1,0.333,0.333,0.333,1,0.333,0.333,0.333,1","1",""
"","html-keyboard-response","175","53506","0.0-175.0","3K4J6M3CXFF4Q8QE4JQEZQO4JRGAGX","AHKYVHP6591H8","3PIOQ99R7Y8STPN46QFY0SD7JTFNU0","","null","<img src=""img/flower4.png"" style=""width:200px;border:14px solid red;"">","null","","","","","","","","",""
"","image-keyboard-response","176","53761","0.0-176.0","3K4J6M3CXFF4Q8QE4JQEZQO4JRGAGX","AHKYVHP6591H8","3PIOQ99R7Y8STPN46QFY0SD7JTFNU0","","253.5","img/flower2.png","75","254.90000000037253","2","1","2","1","1,0.333,0.333,0.333,1,0.333,0.333,0.333,1","1,0.333,0.333,0.333,1,0.333,0.333,0.333,1","1",""
"","html-keyboard-response","177","54063","0.0-177.0","3K4J6M3CXFF4Q8QE4JQEZQO4JRGAGX","AHKYVHP6591H8","3PIOQ99R7Y8STPN46QFY0SD7JTFNU0","","null","<img src=""img/flower2.png"" style=""width:200px; border:14px solid green;"">","null","","","","","","","","",""
"","image-keyboard-response","178","54242","0.0-178.0","3K4J6M3CXFF4Q8QE4JQEZQO4JRGAGX","AHKYVHP6591H8","3PIOQ99R7Y8STPN46QFY0SD7JTFNU0","","178.59999999962747","img/flower4.png","76","179.5","3","0","1","1","1,0.333,0.333,0.333,1,0.333,0.333,0.333,1","1,0.333,0.333,0.333,1,0.333,0.333,0.333,1","1",""
"","html-keyboard-response","179","54552","0.0-179.0","3K4J6M3CXFF4Q8QE4JQEZQO4JRGAGX","AHKYVHP6591H8","3PIOQ99R7Y8STPN46QFY0SD7JTFNU0","","null","<img src=""img/flower4.png"" style=""width:200px;border:14px solid red;"">","null","","","","","","","","",""
"","image-keyboard-response","180","54739","0.0-180.0","3K4J6M3CXFF4Q8QE4JQEZQO4JRGAGX","AHKYVHP6591H8","3PIOQ99R7Y8STPN46QFY0SD7JTFNU0","","185","img/flower2.png","76","186.6000000005588","3","0","2","1","1,0.333,0.333,0.333,1,0.333,0.333,0.333,1","1,0.333,0.333,0.333,1,0.333,0.333,0.333,1","1",""
"","html-keyboard-response","181","55047","0.0-181.0","3K4J6M3CXFF4Q8QE4JQEZQO4JRGAGX","AHKYVHP6591H8","3PIOQ99R7Y8STPN46QFY0SD7JTFNU0","","null","<img src=""img/flower2.png"" style=""width:200px;border:14px solid red;"">","null","","","","","","","","",""
"","html-keyboard-response","182","57402","0.0-182.0","3K4J6M3CXFF4Q8QE4JQEZQO4JRGAGX","AHKYVHP6591H8","3PIOQ99R7Y8STPN46QFY0SD7JTFNU0","","","","","","","","","","","","",""
"","image-keyboard-response","183","57970","0.0-183.0","3K4J6M3CXFF4Q8QE4JQEZQO4JRGAGX","AHKYVHP6591H8","3PIOQ99R7Y8STPN46QFY0SD7JTFNU0","","564.6999999992549","img/flower6.png","75","567.2999999998137","2","0","3","2","1,0,0,1,1,0,1,0,1","1,0,0,1,1,0,1,0,1","1",""
"","html-keyboard-response","184","58275","0.0-184.0","3K4J6M3CXFF4Q8QE4JQEZQO4JRGAGX","AHKYVHP6591H8","3PIOQ99R7Y8STPN46QFY0SD7JTFNU0","","null","<img src=""img/flower6.png"" style=""width:200px;border:14px solid red;"">","null","","","","","","","","",""
"","image-keyboard-response","185","58595","0.0-185.0","3K4J6M3CXFF4Q8QE4JQEZQO4JRGAGX","AHKYVHP6591H8","3PIOQ99R7Y8STPN46QFY0SD7JTFNU0","","317.29999999981374","img/flower5.png","75","319.29999999981374","2","0","1","2","1,0,0,1,1,0,1,0,1","1,0,0,1,1,0,1,0,1","1",""
"","html-keyboard-response","186","58903","0.0-186.0","3K4J6M3CXFF4Q8QE4JQEZQO4JRGAGX","AHKYVHP6591H8","3PIOQ99R7Y8STPN46QFY0SD7JTFNU0","","null","<img src=""img/flower5.png"" style=""width:200px;border:14px solid red;"">","null","","","","","","","","",""
"","image-keyboard-response","187","59107","0.0-187.0","3K4J6M3CXFF4Q8QE4JQEZQO4JRGAGX","AHKYVHP6591H8","3PIOQ99R7Y8STPN46QFY0SD7JTFNU0","","200.3999999994412","img/flower6.png","76","202.79999999981374","3","1","3","2","1,0,0,1,1,0,1,0,1","1,0,0,1,1,0,1,0,1","1",""
"","html-keyboard-response","188","59416","0.0-188.0","3K4J6M3CXFF4Q8QE4JQEZQO4JRGAGX","AHKYVHP6591H8","3PIOQ99R7Y8STPN46QFY0SD7JTFNU0","","null","<img src=""img/flower6.png"" style=""width:200px; border:14px solid green;"">","null","","","","","","","","",""
"","image-keyboard-response","189","59651","0.0-189.0","3K4J6M3CXFF4Q8QE4JQEZQO4JRGAGX","AHKYVHP6591H8","3PIOQ99R7Y8STPN46QFY0SD7JTFNU0","","232.8999999994412","img/flower5.png","76","234.8999999994412","3","0","1","2","1,0,0,1,1,0,1,0,1","1,0,0,1,1,0,1,0,1","1",""
"","html-keyboard-response","190","59960","0.0-190.0","3K4J6M3CXFF4Q8QE4JQEZQO4JRGAGX","AHKYVHP6591H8","3PIOQ99R7Y8STPN46QFY0SD7JTFNU0","","null","<img src=""img/flower5.png"" style=""width:200px;border:14px solid red;"">","null","","","","","","","","",""
"","image-keyboard-response","191","60163","0.0-191.0","3K4J6M3CXFF4Q8QE4JQEZQO4JRGAGX","AHKYVHP6591H8","3PIOQ99R7Y8STPN46QFY0SD7JTFNU0","","200.6000000005588","img/flower5.png","74","202.90000000037253","1","1","1","2","1,0,0,1,1,0,1,0,1","1,0,0,1,1,0,1,0,1","1",""
"","html-keyboard-response","192","60472","0.0-192.0","3K4J6M3CXFF4Q8QE4JQEZQO4JRGAGX","AHKYVHP6591H8","3PIOQ99R7Y8STPN46QFY0SD7JTFNU0","","null","<img src=""img/flower5.png"" style=""width:200px; border:14px solid green;"">","null","","","","","","","","",""
"","image-keyboard-response","193","60642","0.0-193.0","3K4J6M3CXFF4Q8QE4JQEZQO4JRGAGX","AHKYVHP6591H8","3PIOQ99R7Y8STPN46QFY0SD7JTFNU0","","168.6000000005588","img/flower5.png","74","170","1","1","1","2","1,0,0,1,1,0,1,0,1","1,0,0,1,1,0,1,0,1","1",""
"","html-keyboard-response","194","60951","0.0-194.0","3K4J6M3CXFF4Q8QE4JQEZQO4JRGAGX","AHKYVHP6591H8","3PIOQ99R7Y8STPN46QFY0SD7JTFNU0","","null","<img src=""img/flower5.png"" style=""width:200px; border:14px solid green;"">","null","","","","","","","","",""
"","image-keyboard-response","195","60978","0.0-195.0","3K4J6M3CXFF4Q8QE4JQEZQO4JRGAGX","AHKYVHP6591H8","3PIOQ99R7Y8STPN46QFY0SD7JTFNU0","","25.09999999962747","img/flower6.png","75","26.59999999962747","2","0","3","2","1,0,0,1,1,0,1,0,1","1,0,0,1,1,0,1,0,1","1",""
"","html-keyboard-response","196","61287","0.0-196.0","3K4J6M3CXFF4Q8QE4JQEZQO4JRGAGX","AHKYVHP6591H8","3PIOQ99R7Y8STPN46QFY0SD7JTFNU0","","null","<img src=""img/flower6.png"" style=""width:200px;border:14px solid red;"">","null","","","","","","","","",""
"","image-keyboard-response","197","61521","0.0-197.0","3K4J6M3CXFF4Q8QE4JQEZQO4JRGAGX","AHKYVHP6591H8","3PIOQ99R7Y8STPN46QFY0SD7JTFNU0","","232.5","img/flower1.png","74","233.59999999962747","1","1","2","2","1,0,0,1,1,0,1,0,1","1,0,0,1,1,0,1,0,1","1",""
"","html-keyboard-response","198","61823","0.0-198.0","3K4J6M3CXFF4Q8QE4JQEZQO4JRGAGX","AHKYVHP6591H8","3PIOQ99R7Y8STPN46QFY0SD7JTFNU0","","null","<img src=""img/flower1.png"" style=""width:200px; border:14px solid green;"">","null","","","","","","","","",""
"","image-keyboard-response","199","62034","0.0-199.0","3K4J6M3CXFF4Q8QE4JQEZQO4JRGAGX","AHKYVHP6591H8","3PIOQ99R7Y8STPN46QFY0SD7JTFNU0","","208.5","img/flower5.png","75","210.59999999962747","2","0","1","2","1,0,0,1,1,0,1,0,1","1,0,0,1,1,0,1,0,1","1",""
"","html-keyboard-response","200","62344","0.0-200.0","3K4J6M3CXFF4Q8QE4JQEZQO4JRGAGX","AHKYVHP6591H8","3PIOQ99R7Y8STPN46QFY0SD7JTFNU0","","null","<img src=""img/flower5.png"" style=""width:200px;border:14px solid red;"">","null","","","","","","","","",""
"","image-keyboard-response","201","62499","0.0-201.0","3K4J6M3CXFF4Q8QE4JQEZQO4JRGAGX","AHKYVHP6591H8","3PIOQ99R7Y8STPN46QFY0SD7JTFNU0","","153","img/flower5.png","76","154.79999999981374","3","0","1","2","1,0,0,1,1,0,1,0,1","1,0,0,1,1,0,1,0,1","1",""
"","html-keyboard-response","202","62803","0.0-202.0","3K4J6M3CXFF4Q8QE4JQEZQO4JRGAGX","AHKYVHP6591H8","3PIOQ99R7Y8STPN46QFY0SD7JTFNU0","","null","<img src=""img/flower5.png"" style=""width:200px;border:14px solid red;"">","null","","","","","","","","",""
"","image-keyboard-response","203","63059","0.0-203.0","3K4J6M3CXFF4Q8QE4JQEZQO4JRGAGX","AHKYVHP6591H8","3PIOQ99R7Y8STPN46QFY0SD7JTFNU0","","253","img/flower6.png","74","254.90000000037253","1","1","3","2","1,0,0,1,1,0,1,0,1","1,0,0,1,1,0,1,0,1","1",""
"","html-keyboard-response","204","63367","0.0-204.0","3K4J6M3CXFF4Q8QE4JQEZQO4JRGAGX","AHKYVHP6591H8","3PIOQ99R7Y8STPN46QFY0SD7JTFNU0","","null","<img src=""img/flower6.png"" style=""width:200px; border:14px solid green;"">","null","","","","","","","","",""
"","image-keyboard-response","205","63394","0.0-205.0","3K4J6M3CXFF4Q8QE4JQEZQO4JRGAGX","AHKYVHP6591H8","3PIOQ99R7Y8STPN46QFY0SD7JTFNU0","","24.59999999962747","img/flower5.png","76","26.09999999962747","3","0","1","2","1,0,0,1,1,0,1,0,1","1,0,0,1,1,0,1,0,1","1",""
"","html-keyboard-response","206","63704","0.0-206.0","3K4J6M3CXFF4Q8QE4JQEZQO4JRGAGX","AHKYVHP6591H8","3PIOQ99R7Y8STPN46QFY0SD7JTFNU0","","null","<img src=""img/flower5.png"" style=""width:200px;border:14px solid red;"">","null","","","","","","","","",""
"","image-keyboard-response","207","63874","0.0-207.0","3K4J6M3CXFF4Q8QE4JQEZQO4JRGAGX","AHKYVHP6591H8","3PIOQ99R7Y8STPN46QFY0SD7JTFNU0","","169","img/flower6.png","75","170.40000000037253","2","0","3","2","1,0,0,1,1,0,1,0,1","1,0,0,1,1,0,1,0,1","1",""
"","html-keyboard-response","208","64183","0.0-208.0","3K4J6M3CXFF4Q8QE4JQEZQO4JRGAGX","AHKYVHP6591H8","3PIOQ99R7Y8STPN46QFY0SD7JTFNU0","","null","<img src=""img/flower6.png"" style=""width:200px;border:14px solid red;"">","null","","","","","","","","",""
"","image-keyboard-response","209","64306","0.0-209.0","3K4J6M3CXFF4Q8QE4JQEZQO4JRGAGX","AHKYVHP6591H8","3PIOQ99R7Y8STPN46QFY0SD7JTFNU0","","120.79999999981374","img/flower1.png","76","122.70000000018626","3","0","2","2","1,0,0,1,1,0,1,0,1","1,0,0,1,1,0,1,0,1","1",""
"","html-keyboard-response","210","64615","0.0-210.0","3K4J6M3CXFF4Q8QE4JQEZQO4JRGAGX","AHKYVHP6591H8","3PIOQ99R7Y8STPN46QFY0SD7JTFNU0","","null","<img src=""img/flower1.png"" style=""width:200px;border:14px solid red;"">","null","","","","","","","","",""
"","image-keyboard-response","211","64706","0.0-211.0","3K4J6M3CXFF4Q8QE4JQEZQO4JRGAGX","AHKYVHP6591H8","3PIOQ99R7Y8STPN46QFY0SD7JTFNU0","","89.80000000074506","img/flower1.png","76","90.90000000037253","3","0","2","2","1,0,0,1,1,0,1,0,1","1,0,0,1,1,0,1,0,1","1",""
"","html-keyboard-response","212","65015","0.0-212.0","3K4J6M3CXFF4Q8QE4JQEZQO4JRGAGX","AHKYVHP6591H8","3PIOQ99R7Y8STPN46QFY0SD7JTFNU0","","null","<img src=""img/flower1.png"" style=""width:200px;border:14px solid red;"">","null","","","","","","","","",""
"","image-keyboard-response","213","65154","0.0-213.0","3K4J6M3CXFF4Q8QE4JQEZQO4JRGAGX","AHKYVHP6591H8","3PIOQ99R7Y8STPN46QFY0SD7JTFNU0","","137","img/flower6.png","74","138.40000000037253","1","1","3","2","1,0,0,1,1,0,1,0,1","1,0,0,1,1,0,1,0,1","1",""
"","html-keyboard-response","214","65464","0.0-214.0","3K4J6M3CXFF4Q8QE4JQEZQO4JRGAGX","AHKYVHP6591H8","3PIOQ99R7Y8STPN46QFY0SD7JTFNU0","","null","<img src=""img/flower6.png"" style=""width:200px; border:14px solid green;"">","null","","","","","","","","",""
"","image-keyboard-response","215","65619","0.0-215.0","3K4J6M3CXFF4Q8QE4JQEZQO4JRGAGX","AHKYVHP6591H8","3PIOQ99R7Y8STPN46QFY0SD7JTFNU0","","152.3999999994412","img/flower1.png","74","154.6000000005588","1","1","2","2","1,0,0,1,1,0,1,0,1","1,0,0,1,1,0,1,0,1","1",""
"","html-keyboard-response","216","65927","0.0-216.0","3K4J6M3CXFF4Q8QE4JQEZQO4JRGAGX","AHKYVHP6591H8","3PIOQ99R7Y8STPN46QFY0SD7JTFNU0","","null","<img src=""img/flower1.png"" style=""width:200px; border:14px solid green;"">","null","","","","","","","","",""
"","image-keyboard-response","217","66083","0.0-217.0","3K4J6M3CXFF4Q8QE4JQEZQO4JRGAGX","AHKYVHP6591H8","3PIOQ99R7Y8STPN46QFY0SD7JTFNU0","","152.70000000018626","img/flower1.png","76","155.20000000018626","3","0","2","2","1,0,0,1,1,0,1,0,1","1,0,0,1,1,0,1,0,1","1",""
"","html-keyboard-response","218","66391","0.0-218.0","3K4J6M3CXFF4Q8QE4JQEZQO4JRGAGX","AHKYVHP6591H8","3PIOQ99R7Y8STPN46QFY0SD7JTFNU0","","null","<img src=""img/flower1.png"" style=""width:200px;border:14px solid red;"">","null","","","","","","","","",""
"","image-keyboard-response","219","66642","0.0-219.0","3K4J6M3CXFF4Q8QE4JQEZQO4JRGAGX","AHKYVHP6591H8","3PIOQ99R7Y8STPN46QFY0SD7JTFNU0","","248.3999999994412","img/flower5.png","76","250.59999999962747","3","0","1","2","1,0,0,1,1,0,1,0,1","1,0,0,1,1,0,1,0,1","1",""
"","html-keyboard-response","220","66951","0.0-220.0","3K4J6M3CXFF4Q8QE4JQEZQO4JRGAGX","AHKYVHP6591H8","3PIOQ99R7Y8STPN46QFY0SD7JTFNU0","","null","<img src=""img/flower5.png"" style=""width:200px;border:14px solid red;"">","null","","","","","","","","",""
"","image-keyboard-response","221","67155","0.0-221.0","3K4J6M3CXFF4Q8QE4JQEZQO4JRGAGX","AHKYVHP6591H8","3PIOQ99R7Y8STPN46QFY0SD7JTFNU0","","201.79999999981374","img/flower1.png","75","203.40000000037253","2","1","2","2","1,0,0,1,1,0,1,0,1","1,0,0,1,1,0,1,0,1","1",""
"","html-keyboard-response","222","67463","0.0-222.0","3K4J6M3CXFF4Q8QE4JQEZQO4JRGAGX","AHKYVHP6591H8","3PIOQ99R7Y8STPN46QFY0SD7JTFNU0","","null","<img src=""img/flower1.png"" style=""width:200px; border:14px solid green;"">","null","","","","","","","","",""
"","image-keyboard-response","223","67617","0.0-223.0","3K4J6M3CXFF4Q8QE4JQEZQO4JRGAGX","AHKYVHP6591H8","3PIOQ99R7Y8STPN46QFY0SD7JTFNU0","","151.79999999981374","img/flower1.png","74","153.19999999925494","1","1","2","2","1,0,0,1,1,0,1,0,1","1,0,0,1,1,0,1,0,1","1",""
"","html-keyboard-response","224","67919","0.0-224.0","3K4J6M3CXFF4Q8QE4JQEZQO4JRGAGX","AHKYVHP6591H8","3PIOQ99R7Y8STPN46QFY0SD7JTFNU0","","null","<img src=""img/flower1.png"" style=""width:200px; border:14px solid green;"">","null","","","","","","","","",""
"","image-keyboard-response","225","68211","0.0-225.0","3K4J6M3CXFF4Q8QE4JQEZQO4JRGAGX","AHKYVHP6591H8","3PIOQ99R7Y8STPN46QFY0SD7JTFNU0","","290.59999999962747","img/flower6.png","75","292.29999999981374","2","0","3","2","1,0,0,1,1,0,1,0,1","1,0,0,1,1,0,1,0,1","1",""
"","html-keyboard-response","226","68519","0.0-226.0","3K4J6M3CXFF4Q8QE4JQEZQO4JRGAGX","AHKYVHP6591H8","3PIOQ99R7Y8STPN46QFY0SD7JTFNU0","","null","<img src=""img/flower6.png"" style=""width:200px;border:14px solid red;"">","null","","","","","","","","",""
"","image-keyboard-response","227","68707","0.0-227.0","3K4J6M3CXFF4Q8QE4JQEZQO4JRGAGX","AHKYVHP6591H8","3PIOQ99R7Y8STPN46QFY0SD7JTFNU0","","185.29999999981374","img/flower6.png","76","186.8999999994412","3","1","3","2","1,0,0,1,1,0,1,0,1","1,0,0,1,1,0,1,0,1","1",""
"","html-keyboard-response","228","69016","0.0-228.0","3K4J6M3CXFF4Q8QE4JQEZQO4JRGAGX","AHKYVHP6591H8","3PIOQ99R7Y8STPN46QFY0SD7JTFNU0","","null","<img src=""img/flower6.png"" style=""width:200px; border:14px solid green;"">","null","","","","","","","","",""
"","image-keyboard-response","229","69218","0.0-229.0","3K4J6M3CXFF4Q8QE4JQEZQO4JRGAGX","AHKYVHP6591H8","3PIOQ99R7Y8STPN46QFY0SD7JTFNU0","","200.5","img/flower6.png","76","202.3999999994412","3","1","3","2","1,0,0,1,1,0,1,0,1","1,0,0,1,1,0,1,0,1","1",""
"","html-keyboard-response","230","69528","0.0-230.0","3K4J6M3CXFF4Q8QE4JQEZQO4JRGAGX","AHKYVHP6591H8","3PIOQ99R7Y8STPN46QFY0SD7JTFNU0","","null","<img src=""img/flower6.png"" style=""width:200px; border:14px solid green;"">","null","","","","","","","","",""
"","image-keyboard-response","231","69537","0.0-231.0","3K4J6M3CXFF4Q8QE4JQEZQO4JRGAGX","AHKYVHP6591H8","3PIOQ99R7Y8STPN46QFY0SD7JTFNU0","","7.199999999254942","img/flower1.png","74","8.5","1","1","2","2","1,0,0,1,1,0,1,0,1","1,0,0,1,1,0,1,0,1","1",""
"","html-keyboard-response","232","69840","0.0-232.0","3K4J6M3CXFF4Q8QE4JQEZQO4JRGAGX","AHKYVHP6591H8","3PIOQ99R7Y8STPN46QFY0SD7JTFNU0","","null","<img src=""img/flower1.png"" style=""width:200px; border:14px solid green;"">","null","","","","","","","","",""
"","image-keyboard-response","233","69843","0.0-233.0","3K4J6M3CXFF4Q8QE4JQEZQO4JRGAGX","AHKYVHP6591H8","3PIOQ99R7Y8STPN46QFY0SD7JTFNU0","","0.5","img/flower6.png","74","2.2000000001862645","1","1","3","2","1,0,0,1,1,0,1,0,1","1,0,0,1,1,0,1,0,1","1",""
"","html-keyboard-response","234","70152","0.0-234.0","3K4J6M3CXFF4Q8QE4JQEZQO4JRGAGX","AHKYVHP6591H8","3PIOQ99R7Y8STPN46QFY0SD7JTFNU0","","null","<img src=""img/flower6.png"" style=""width:200px; border:14px solid green;"">","null","","","","","","","","",""
"","image-keyboard-response","235","70306","0.0-235.0","3K4J6M3CXFF4Q8QE4JQEZQO4JRGAGX","AHKYVHP6591H8","3PIOQ99R7Y8STPN46QFY0SD7JTFNU0","","152.40000000037253","img/flower1.png","76","154.20000000018626","3","0","2","2","1,0,0,1,1,0,1,0,1","1,0,0,1,1,0,1,0,1","1",""
"","html-keyboard-response","236","70615","0.0-236.0","3K4J6M3CXFF4Q8QE4JQEZQO4JRGAGX","AHKYVHP6591H8","3PIOQ99R7Y8STPN46QFY0SD7JTFNU0","","null","<img src=""img/flower1.png"" style=""width:200px;border:14px solid red;"">","null","","","","","","","","",""
"","image-keyboard-response","237","70626","0.0-237.0","3K4J6M3CXFF4Q8QE4JQEZQO4JRGAGX","AHKYVHP6591H8","3PIOQ99R7Y8STPN46QFY0SD7JTFNU0","","8.899999999441206","img/flower1.png","75","10.100000000558794","2","1","2","2","1,0,0,1,1,0,1,0,1","1,0,0,1,1,0,1,0,1","1",""
"","html-keyboard-response","238","70928","0.0-238.0","3K4J6M3CXFF4Q8QE4JQEZQO4JRGAGX","AHKYVHP6591H8","3PIOQ99R7Y8STPN46QFY0SD7JTFNU0","","null","<img src=""img/flower1.png"" style=""width:200px; border:14px solid green;"">","null","","","","","","","","",""
"","image-keyboard-response","239","71122","0.0-239.0","3K4J6M3CXFF4Q8QE4JQEZQO4JRGAGX","AHKYVHP6591H8","3PIOQ99R7Y8STPN46QFY0SD7JTFNU0","","192.29999999981374","img/flower1.png","76","194.30000000074506","3","0","2","2","1,0,0,1,1,0,1,0,1","1,0,0,1,1,0,1,0,1","1",""
"","html-keyboard-response","240","71432","0.0-240.0","3K4J6M3CXFF4Q8QE4JQEZQO4JRGAGX","AHKYVHP6591H8","3PIOQ99R7Y8STPN46QFY0SD7JTFNU0","","null","<img src=""img/flower1.png"" style=""width:200px;border:14px solid red;"">","null","","","","","","","","",""
"","image-keyboard-response","241","71602","0.0-241.0","3K4J6M3CXFF4Q8QE4JQEZQO4JRGAGX","AHKYVHP6591H8","3PIOQ99R7Y8STPN46QFY0SD7JTFNU0","","168.09999999962747","img/flower5.png","76","170.09999999962747","3","0","1","2","1,0,0,1,1,0,1,0,1","1,0,0,1,1,0,1,0,1","1",""
"","html-keyboard-response","242","71912","0.0-242.0","3K4J6M3CXFF4Q8QE4JQEZQO4JRGAGX","AHKYVHP6591H8","3PIOQ99R7Y8STPN46QFY0SD7JTFNU0","","null","<img src=""img/flower5.png"" style=""width:200px;border:14px solid red;"">","null","","","","","","","","",""
"","image-keyboard-response","243","72131","0.0-243.0","3K4J6M3CXFF4Q8QE4JQEZQO4JRGAGX","AHKYVHP6591H8","3PIOQ99R7Y8STPN46QFY0SD7JTFNU0","","216.6000000005588","img/flower5.png","76","218.79999999981374","3","0","1","2","1,0,0,1,1,0,1,0,1","1,0,0,1,1,0,1,0,1","1",""
"","html-keyboard-response","244","72440","0.0-244.0","3K4J6M3CXFF4Q8QE4JQEZQO4JRGAGX","AHKYVHP6591H8","3PIOQ99R7Y8STPN46QFY0SD7JTFNU0","","null","<img src=""img/flower5.png"" style=""width:200px;border:14px solid red;"">","null","","","","","","","","",""
"","image-keyboard-response","245","72530","0.0-245.0","3K4J6M3CXFF4Q8QE4JQEZQO4JRGAGX","AHKYVHP6591H8","3PIOQ99R7Y8STPN46QFY0SD7JTFNU0","","88.5","img/flower6.png","75","90.30000000074506","2","0","3","2","1,0,0,1,1,0,1,0,1","1,0,0,1,1,0,1,0,1","1",""
"","html-keyboard-response","246","72839","0.0-246.0","3K4J6M3CXFF4Q8QE4JQEZQO4JRGAGX","AHKYVHP6591H8","3PIOQ99R7Y8STPN46QFY0SD7JTFNU0","","null","<img src=""img/flower6.png"" style=""width:200px;border:14px solid red;"">","null","","","","","","","","",""
"","image-keyboard-response","247","73010","0.0-247.0","3K4J6M3CXFF4Q8QE4JQEZQO4JRGAGX","AHKYVHP6591H8","3PIOQ99R7Y8STPN46QFY0SD7JTFNU0","","168.70000000018626","img/flower6.png","75","170.5","2","0","3","2","1,0,0,1,1,0,1,0,1","1,0,0,1,1,0,1,0,1","1",""
"","html-keyboard-response","248","73319","0.0-248.0","3K4J6M3CXFF4Q8QE4JQEZQO4JRGAGX","AHKYVHP6591H8","3PIOQ99R7Y8STPN46QFY0SD7JTFNU0","","null","<img src=""img/flower6.png"" style=""width:200px;border:14px solid red;"">","null","","","","","","","","",""
"","image-keyboard-response","249","73474","0.0-249.0","3K4J6M3CXFF4Q8QE4JQEZQO4JRGAGX","AHKYVHP6591H8","3PIOQ99R7Y8STPN46QFY0SD7JTFNU0","","153.8999999994412","img/flower5.png","74","155","1","1","1","2","1,0,0,1,1,0,1,0,1","1,0,0,1,1,0,1,0,1","1",""
"","html-keyboard-response","250","73778","0.0-250.0","3K4J6M3CXFF4Q8QE4JQEZQO4JRGAGX","AHKYVHP6591H8","3PIOQ99R7Y8STPN46QFY0SD7JTFNU0","","null","<img src=""img/flower5.png"" style=""width:200px; border:14px solid green;"">","null","","","","","","","","",""
"","image-keyboard-response","251","73891","0.0-251.0","3K4J6M3CXFF4Q8QE4JQEZQO4JRGAGX","AHKYVHP6591H8","3PIOQ99R7Y8STPN46QFY0SD7JTFNU0","","110.90000000037253","img/flower5.png","74","112.90000000037253","1","1","1","2","1,0,0,1,1,0,1,0,1","1,0,0,1,1,0,1,0,1","1",""
"","html-keyboard-response","252","74199","0.0-252.0","3K4J6M3CXFF4Q8QE4JQEZQO4JRGAGX","AHKYVHP6591H8","3PIOQ99R7Y8STPN46QFY0SD7JTFNU0","","null","<img src=""img/flower5.png"" style=""width:200px; border:14px solid green;"">","null","","","","","","","","",""
"","image-keyboard-response","253","74386","0.0-253.0","3K4J6M3CXFF4Q8QE4JQEZQO4JRGAGX","AHKYVHP6591H8","3PIOQ99R7Y8STPN46QFY0SD7JTFNU0","","185","img/flower5.png","74","186.6000000005588","1","1","1","2","1,0,0,1,1,0,1,0,1","1,0,0,1,1,0,1,0,1","1",""
"","html-keyboard-response","254","74695","0.0-254.0","3K4J6M3CXFF4Q8QE4JQEZQO4JRGAGX","AHKYVHP6591H8","3PIOQ99R7Y8STPN46QFY0SD7JTFNU0","","null","<img src=""img/flower5.png"" style=""width:200px; border:14px solid green;"">","null","","","","","","","","",""
"","image-keyboard-response","255","74963","0.0-255.0","3K4J6M3CXFF4Q8QE4JQEZQO4JRGAGX","AHKYVHP6591H8","3PIOQ99R7Y8STPN46QFY0SD7JTFNU0","","264.6000000005588","img/flower6.png","75","266.30000000074506","2","0","3","2","1,0,0,1,1,0,1,0,1","1,0,0,1,1,0,1,0,1","1",""
"","html-keyboard-response","256","75271","0.0-256.0","3K4J6M3CXFF4Q8QE4JQEZQO4JRGAGX","AHKYVHP6591H8","3PIOQ99R7Y8STPN46QFY0SD7JTFNU0","","null","<img src=""img/flower6.png"" style=""width:200px;border:14px solid red;"">","null","","","","","","","","",""
"","image-keyboard-response","257","75394","0.0-257.0","3K4J6M3CXFF4Q8QE4JQEZQO4JRGAGX","AHKYVHP6591H8","3PIOQ99R7Y8STPN46QFY0SD7JTFNU0","","121","img/flower1.png","76","122.5","3","0","2","2","1,0,0,1,1,0,1,0,1","1,0,0,1,1,0,1,0,1","1",""
"","html-keyboard-response","258","75703","0.0-258.0","3K4J6M3CXFF4Q8QE4JQEZQO4JRGAGX","AHKYVHP6591H8","3PIOQ99R7Y8STPN46QFY0SD7JTFNU0","","null","<img src=""img/flower1.png"" style=""width:200px;border:14px solid red;"">","null","","","","","","","","",""
"","image-keyboard-response","259","75891","0.0-259.0","3K4J6M3CXFF4Q8QE4JQEZQO4JRGAGX","AHKYVHP6591H8","3PIOQ99R7Y8STPN46QFY0SD7JTFNU0","","185","img/flower1.png","76","186.70000000018626","3","0","2","2","1,0,0,1,1,0,1,0,1","1,0,0,1,1,0,1,0,1","1",""
"","html-keyboard-response","260","76199","0.0-260.0","3K4J6M3CXFF4Q8QE4JQEZQO4JRGAGX","AHKYVHP6591H8","3PIOQ99R7Y8STPN46QFY0SD7JTFNU0","","null","<img src=""img/flower1.png"" style=""width:200px;border:14px solid red;"">","null","","","","","","","","",""
"","image-keyboard-response","261","76307","0.0-261.0","3K4J6M3CXFF4Q8QE4JQEZQO4JRGAGX","AHKYVHP6591H8","3PIOQ99R7Y8STPN46QFY0SD7JTFNU0","","105","img/flower6.png","75","106.79999999981374","2","0","3","2","1,0,0,1,1,0,1,0,1","1,0,0,1,1,0,1,0,1","1",""
"","html-keyboard-response","262","76615","0.0-262.0","3K4J6M3CXFF4Q8QE4JQEZQO4JRGAGX","AHKYVHP6591H8","3PIOQ99R7Y8STPN46QFY0SD7JTFNU0","","null","<img src=""img/flower6.png"" style=""width:200px;border:14px solid red;"">","null","","","","","","","","",""
"","image-keyboard-response","263","77011","0.0-263.0","3K4J6M3CXFF4Q8QE4JQEZQO4JRGAGX","AHKYVHP6591H8","3PIOQ99R7Y8STPN46QFY0SD7JTFNU0","","393.1000000005588","img/flower6.png","74","395.09999999962747","1","1","3","2","1,0,0,1,1,0,1,0,1","1,0,0,1,1,0,1,0,1","1",""
"","html-keyboard-response","264","77319","0.0-264.0","3K4J6M3CXFF4Q8QE4JQEZQO4JRGAGX","AHKYVHP6591H8","3PIOQ99R7Y8STPN46QFY0SD7JTFNU0","","null","<img src=""img/flower6.png"" style=""width:200px; border:14px solid green;"">","null","","","","","","","","",""
"","image-keyboard-response","265","77555","0.0-265.0","3K4J6M3CXFF4Q8QE4JQEZQO4JRGAGX","AHKYVHP6591H8","3PIOQ99R7Y8STPN46QFY0SD7JTFNU0","","232.5","img/flower1.png","75","234.6000000005588","2","1","2","2","1,0,0,1,1,0,1,0,1","1,0,0,1,1,0,1,0,1","1",""
"","html-keyboard-response","266","77863","0.0-266.0","3K4J6M3CXFF4Q8QE4JQEZQO4JRGAGX","AHKYVHP6591H8","3PIOQ99R7Y8STPN46QFY0SD7JTFNU0","","null","<img src=""img/flower1.png"" style=""width:200px; border:14px solid green;"">","null","","","","","","","","",""
"","image-keyboard-response","267","77971","0.0-267.0","3K4J6M3CXFF4Q8QE4JQEZQO4JRGAGX","AHKYVHP6591H8","3PIOQ99R7Y8STPN46QFY0SD7JTFNU0","","104.70000000018626","img/flower6.png","76","106.6000000005588","3","1","3","2","1,0,0,1,1,0,1,0,1","1,0,0,1,1,0,1,0,1","1",""
"","html-keyboard-response","268","78279","0.0-268.0","3K4J6M3CXFF4Q8QE4JQEZQO4JRGAGX","AHKYVHP6591H8","3PIOQ99R7Y8STPN46QFY0SD7JTFNU0","","null","<img src=""img/flower6.png"" style=""width:200px; border:14px solid green;"">","null","","","","","","","","",""
"","image-keyboard-response","269","78451","0.0-269.0","3K4J6M3CXFF4Q8QE4JQEZQO4JRGAGX","AHKYVHP6591H8","3PIOQ99R7Y8STPN46QFY0SD7JTFNU0","","169.20000000018626","img/flower5.png","76","171","3","0","1","2","1,0,0,1,1,0,1,0,1","1,0,0,1,1,0,1,0,1","1",""
"","html-keyboard-response","270","78761","0.0-270.0","3K4J6M3CXFF4Q8QE4JQEZQO4JRGAGX","AHKYVHP6591H8","3PIOQ99R7Y8STPN46QFY0SD7JTFNU0","","null","<img src=""img/flower5.png"" style=""width:200px;border:14px solid red;"">","null","","","","","","","","",""
"","image-keyboard-response","271","78946","0.0-271.0","3K4J6M3CXFF4Q8QE4JQEZQO4JRGAGX","AHKYVHP6591H8","3PIOQ99R7Y8STPN46QFY0SD7JTFNU0","","183.90000000037253","img/flower6.png","76","185.29999999981374","3","1","3","2","1,0,0,1,1,0,1,0,1","1,0,0,1,1,0,1,0,1","1",""
"","html-keyboard-response","272","79256","0.0-272.0","3K4J6M3CXFF4Q8QE4JQEZQO4JRGAGX","AHKYVHP6591H8","3PIOQ99R7Y8STPN46QFY0SD7JTFNU0","","null","<img src=""img/flower6.png"" style=""width:200px; border:14px solid green;"">","null","","","","","","","","",""
"","image-keyboard-response","273","79410","0.0-273.0","3K4J6M3CXFF4Q8QE4JQEZQO4JRGAGX","AHKYVHP6591H8","3PIOQ99R7Y8STPN46QFY0SD7JTFNU0","","152.70000000018626","img/flower5.png","75","154.40000000037253","2","0","1","2","1,0,0,1,1,0,1,0,1","1,0,0,1,1,0,1,0,1","1",""
"","html-keyboard-response","274","79719","0.0-274.0","3K4J6M3CXFF4Q8QE4JQEZQO4JRGAGX","AHKYVHP6591H8","3PIOQ99R7Y8STPN46QFY0SD7JTFNU0","","null","<img src=""img/flower5.png"" style=""width:200px;border:14px solid red;"">","null","","","","","","","","",""
"","image-keyboard-response","275","80067","0.0-275.0","3K4J6M3CXFF4Q8QE4JQEZQO4JRGAGX","AHKYVHP6591H8","3PIOQ99R7Y8STPN46QFY0SD7JTFNU0","","345.1000000005588","img/flower1.png","74","347","1","1","2","2","1,0,0,1,1,0,1,0,1","1,0,0,1,1,0,1,0,1","1",""
"","html-keyboard-response","276","80375","0.0-276.0","3K4J6M3CXFF4Q8QE4JQEZQO4JRGAGX","AHKYVHP6591H8","3PIOQ99R7Y8STPN46QFY0SD7JTFNU0","","null","<img src=""img/flower1.png"" style=""width:200px; border:14px solid green;"">","null","","","","","","","","",""
"","image-keyboard-response","277","80547","0.0-277.0","3K4J6M3CXFF4Q8QE4JQEZQO4JRGAGX","AHKYVHP6591H8","3PIOQ99R7Y8STPN46QFY0SD7JTFNU0","","168.70000000018626","img/flower5.png","74","170.79999999981374","1","1","1","2","1,0,0,1,1,0,1,0,1","1,0,0,1,1,0,1,0,1","1",""
"","html-keyboard-response","278","80855","0.0-278.0","3K4J6M3CXFF4Q8QE4JQEZQO4JRGAGX","AHKYVHP6591H8","3PIOQ99R7Y8STPN46QFY0SD7JTFNU0","","null","<img src=""img/flower5.png"" style=""width:200px; border:14px solid green;"">","null","","","","","","","","",""
"","image-keyboard-response","279","81058","0.0-279.0","3K4J6M3CXFF4Q8QE4JQEZQO4JRGAGX","AHKYVHP6591H8","3PIOQ99R7Y8STPN46QFY0SD7JTFNU0","","200.40000000037253","img/flower5.png","74","201.69999999925494","1","1","1","2","1,0,0,1,1,0,1,0,1","1,0,0,1,1,0,1,0,1","1",""
"","html-keyboard-response","280","81367","0.0-280.0","3K4J6M3CXFF4Q8QE4JQEZQO4JRGAGX","AHKYVHP6591H8","3PIOQ99R7Y8STPN46QFY0SD7JTFNU0","","null","<img src=""img/flower5.png"" style=""width:200px; border:14px solid green;"">","null","","","","","","","","",""
"","image-keyboard-response","281","81795","0.0-281.0","3K4J6M3CXFF4Q8QE4JQEZQO4JRGAGX","AHKYVHP6591H8","3PIOQ99R7Y8STPN46QFY0SD7JTFNU0","","424.59999999962747","img/flower5.png","75","426.79999999981374","2","0","1","2","1,0,0,1,1,0,1,0,1","1,0,0,1,1,0,1,0,1","1",""
"","html-keyboard-response","282","82103","0.0-282.0","3K4J6M3CXFF4Q8QE4JQEZQO4JRGAGX","AHKYVHP6591H8","3PIOQ99R7Y8STPN46QFY0SD7JTFNU0","","null","<img src=""img/flower5.png"" style=""width:200px;border:14px solid red;"">","null","","","","","","","","",""
"","image-keyboard-response","283","82323","0.0-283.0","3K4J6M3CXFF4Q8QE4JQEZQO4JRGAGX","AHKYVHP6591H8","3PIOQ99R7Y8STPN46QFY0SD7JTFNU0","","216.59999999962747","img/flower1.png","74","218.5","1","1","2","2","1,0,0,1,1,0,1,0,1","1,0,0,1,1,0,1,0,1","1",""
"","html-keyboard-response","284","82627","0.0-284.0","3K4J6M3CXFF4Q8QE4JQEZQO4JRGAGX","AHKYVHP6591H8","3PIOQ99R7Y8STPN46QFY0SD7JTFNU0","","null","<img src=""img/flower1.png"" style=""width:200px; border:14px solid green;"">","null","","","","","","","","",""
"","image-keyboard-response","285","82851","0.0-285.0","3K4J6M3CXFF4Q8QE4JQEZQO4JRGAGX","AHKYVHP6591H8","3PIOQ99R7Y8STPN46QFY0SD7JTFNU0","","221.29999999981374","img/flower6.png","75","223.1000000005588","2","0","3","2","1,0,0,1,1,0,1,0,1","1,0,0,1,1,0,1,0,1","1",""
"","html-keyboard-response","286","83160","0.0-286.0","3K4J6M3CXFF4Q8QE4JQEZQO4JRGAGX","AHKYVHP6591H8","3PIOQ99R7Y8STPN46QFY0SD7JTFNU0","","null","<img src=""img/flower6.png"" style=""width:200px;border:14px solid red;"">","null","","","","","","","","",""
"","image-keyboard-response","287","83363","0.0-287.0","3K4J6M3CXFF4Q8QE4JQEZQO4JRGAGX","AHKYVHP6591H8","3PIOQ99R7Y8STPN46QFY0SD7JTFNU0","","200.5","img/flower5.png","76","202.5","3","0","1","2","1,0,0,1,1,0,1,0,1","1,0,0,1,1,0,1,0,1","1",""
"","html-keyboard-response","288","83671","0.0-288.0","3K4J6M3CXFF4Q8QE4JQEZQO4JRGAGX","AHKYVHP6591H8","3PIOQ99R7Y8STPN46QFY0SD7JTFNU0","","null","<img src=""img/flower5.png"" style=""width:200px;border:14px solid red;"">","null","","","","","","","","",""
"","image-keyboard-response","289","83859","0.0-289.0","3K4J6M3CXFF4Q8QE4JQEZQO4JRGAGX","AHKYVHP6591H8","3PIOQ99R7Y8STPN46QFY0SD7JTFNU0","","184.70000000018626","img/flower6.png","76","187.8999999994412","3","1","3","2","1,0,0,1,1,0,1,0,1","1,0,0,1,1,0,1,0,1","1",""
"","html-keyboard-response","290","84167","0.0-290.0","3K4J6M3CXFF4Q8QE4JQEZQO4JRGAGX","AHKYVHP6591H8","3PIOQ99R7Y8STPN46QFY0SD7JTFNU0","","null","<img src=""img/flower6.png"" style=""width:200px; border:14px solid green;"">","null","","","","","","","","",""
"","image-keyboard-response","291","84435","0.0-291.0","3K4J6M3CXFF4Q8QE4JQEZQO4JRGAGX","AHKYVHP6591H8","3PIOQ99R7Y8STPN46QFY0SD7JTFNU0","","264.79999999981374","img/flower1.png","76","266.70000000018626","3","0","2","2","1,0,0,1,1,0,1,0,1","1,0,0,1,1,0,1,0,1","1",""
"","html-keyboard-response","292","84744","0.0-292.0","3K4J6M3CXFF4Q8QE4JQEZQO4JRGAGX","AHKYVHP6591H8","3PIOQ99R7Y8STPN46QFY0SD7JTFNU0","","null","<img src=""img/flower1.png"" style=""width:200px;border:14px solid red;"">","null","","","","","","","","",""
"","image-keyboard-response","293","84883","0.0-293.0","3K4J6M3CXFF4Q8QE4JQEZQO4JRGAGX","AHKYVHP6591H8","3PIOQ99R7Y8STPN46QFY0SD7JTFNU0","","136.79999999981374","img/flower5.png","75","138.79999999981374","2","0","1","2","1,0,0,1,1,0,1,0,1","1,0,0,1,1,0,1,0,1","1",""
"","html-keyboard-response","294","85191","0.0-294.0","3K4J6M3CXFF4Q8QE4JQEZQO4JRGAGX","AHKYVHP6591H8","3PIOQ99R7Y8STPN46QFY0SD7JTFNU0","","null","<img src=""img/flower5.png"" style=""width:200px;border:14px solid red;"">","null","","","","","","","","",""
"","image-keyboard-response","295","85395","0.0-295.0","3K4J6M3CXFF4Q8QE4JQEZQO4JRGAGX","AHKYVHP6591H8","3PIOQ99R7Y8STPN46QFY0SD7JTFNU0","","200.70000000018626","img/flower1.png","75","202.70000000018626","2","1","2","2","1,0,0,1,1,0,1,0,1","1,0,0,1,1,0,1,0,1","1",""
"","html-keyboard-response","296","85703","0.0-296.0","3K4J6M3CXFF4Q8QE4JQEZQO4JRGAGX","AHKYVHP6591H8","3PIOQ99R7Y8STPN46QFY0SD7JTFNU0","","null","<img src=""img/flower1.png"" style=""width:200px; border:14px solid green;"">","null","","","","","","","","",""
"","image-keyboard-response","297","85713","0.0-297.0","3K4J6M3CXFF4Q8QE4JQEZQO4JRGAGX","AHKYVHP6591H8","3PIOQ99R7Y8STPN46QFY0SD7JTFNU0","","7.7000000001862645","img/flower1.png","75","8.899999999441206","2","1","2","2","1,0,0,1,1,0,1,0,1","1,0,0,1,1,0,1,0,1","1",""
"","html-keyboard-response","298","86015","0.0-298.0","3K4J6M3CXFF4Q8QE4JQEZQO4JRGAGX","AHKYVHP6591H8","3PIOQ99R7Y8STPN46QFY0SD7JTFNU0","","null","<img src=""img/flower1.png"" style=""width:200px; border:14px solid green;"">","null","","","","","","","","",""
"","image-keyboard-response","299","86018","0.0-299.0","3K4J6M3CXFF4Q8QE4JQEZQO4JRGAGX","AHKYVHP6591H8","3PIOQ99R7Y8STPN46QFY0SD7JTFNU0","","0.6000000005587935","img/flower5.png","75","1.8999999994412065","2","0","1","2","1,0,0,1,1,0,1,0,1","1,0,0,1,1,0,1,0,1","1",""
"","html-keyboard-response","300","86328","0.0-300.0","3K4J6M3CXFF4Q8QE4JQEZQO4JRGAGX","AHKYVHP6591H8","3PIOQ99R7Y8STPN46QFY0SD7JTFNU0","","null","<img src=""img/flower5.png"" style=""width:200px;border:14px solid red;"">","null","","","","","","","","",""
"","image-keyboard-response","301","86562","0.0-301.0","3K4J6M3CXFF4Q8QE4JQEZQO4JRGAGX","AHKYVHP6591H8","3PIOQ99R7Y8STPN46QFY0SD7JTFNU0","","232.29999999981374","img/flower5.png","76","233.8999999994412","3","0","1","2","1,0,0,1,1,0,1,0,1","1,0,0,1,1,0,1,0,1","1",""
"","html-keyboard-response","302","86872","0.0-302.0","3K4J6M3CXFF4Q8QE4JQEZQO4JRGAGX","AHKYVHP6591H8","3PIOQ99R7Y8STPN46QFY0SD7JTFNU0","","null","<img src=""img/flower5.png"" style=""width:200px;border:14px solid red;"">","null","","","","","","","","",""
"","image-keyboard-response","303","87074","0.0-303.0","3K4J6M3CXFF4Q8QE4JQEZQO4JRGAGX","AHKYVHP6591H8","3PIOQ99R7Y8STPN46QFY0SD7JTFNU0","","200.5","img/flower1.png","76","202.20000000018626","3","0","2","2","1,0,0,1,1,0,1,0,1","1,0,0,1,1,0,1,0,1","1",""
"","html-keyboard-response","304","87384","0.0-304.0","3K4J6M3CXFF4Q8QE4JQEZQO4JRGAGX","AHKYVHP6591H8","3PIOQ99R7Y8STPN46QFY0SD7JTFNU0","","null","<img src=""img/flower1.png"" style=""width:200px;border:14px solid red;"">","null","","","","","","","","",""
"","image-keyboard-response","305","87603","0.0-305.0","3K4J6M3CXFF4Q8QE4JQEZQO4JRGAGX","AHKYVHP6591H8","3PIOQ99R7Y8STPN46QFY0SD7JTFNU0","","217.09999999962747","img/flower6.png","76","218.90000000037253","3","1","3","2","1,0,0,1,1,0,1,0,1","1,0,0,1,1,0,1,0,1","1",""
"","html-keyboard-response","306","87911","0.0-306.0","3K4J6M3CXFF4Q8QE4JQEZQO4JRGAGX","AHKYVHP6591H8","3PIOQ99R7Y8STPN46QFY0SD7JTFNU0","","null","<img src=""img/flower6.png"" style=""width:200px; border:14px solid green;"">","null","","","","","","","","",""
"","image-keyboard-response","307","88099","0.0-307.0","3K4J6M3CXFF4Q8QE4JQEZQO4JRGAGX","AHKYVHP6591H8","3PIOQ99R7Y8STPN46QFY0SD7JTFNU0","","185.30000000074506","img/flower1.png","75","187.1000000005588","2","1","2","2","1,0,0,1,1,0,1,0,1","1,0,0,1,1,0,1,0,1","1",""
"","html-keyboard-response","308","88407","0.0-308.0","3K4J6M3CXFF4Q8QE4JQEZQO4JRGAGX","AHKYVHP6591H8","3PIOQ99R7Y8STPN46QFY0SD7JTFNU0","","null","<img src=""img/flower1.png"" style=""width:200px; border:14px solid green;"">","null","","","","","","","","",""
"","image-keyboard-response","309","88674","0.0-309.0","3K4J6M3CXFF4Q8QE4JQEZQO4JRGAGX","AHKYVHP6591H8","3PIOQ99R7Y8STPN46QFY0SD7JTFNU0","","264.5","img/flower1.png","76","267","3","0","2","2","1,0,0,1,1,0,1,0,1","1,0,0,1,1,0,1,0,1","1",""
"","html-keyboard-response","310","88983","0.0-310.0","3K4J6M3CXFF4Q8QE4JQEZQO4JRGAGX","AHKYVHP6591H8","3PIOQ99R7Y8STPN46QFY0SD7JTFNU0","","null","<img src=""img/flower1.png"" style=""width:200px;border:14px solid red;"">","null","","","","","","","","",""
"","image-keyboard-response","311","89155","0.0-311.0","3K4J6M3CXFF4Q8QE4JQEZQO4JRGAGX","AHKYVHP6591H8","3PIOQ99R7Y8STPN46QFY0SD7JTFNU0","","169.20000000018626","img/flower6.png","74","170.8999999994412","1","1","3","2","1,0,0,1,1,0,1,0,1","1,0,0,1,1,0,1,0,1","1",""
"","html-keyboard-response","312","89463","0.0-312.0","3K4J6M3CXFF4Q8QE4JQEZQO4JRGAGX","AHKYVHP6591H8","3PIOQ99R7Y8STPN46QFY0SD7JTFNU0","","null","<img src=""img/flower6.png"" style=""width:200px; border:14px solid green;"">","null","","","","","","","","",""
"","image-keyboard-response","313","89634","0.0-313.0","3K4J6M3CXFF4Q8QE4JQEZQO4JRGAGX","AHKYVHP6591H8","3PIOQ99R7Y8STPN46QFY0SD7JTFNU0","","167.90000000037253","img/flower6.png","74","170.1000000005588","1","1","3","2","1,0,0,1,1,0,1,0,1","1,0,0,1,1,0,1,0,1","1",""
"","html-keyboard-response","314","89943","0.0-314.0","3K4J6M3CXFF4Q8QE4JQEZQO4JRGAGX","AHKYVHP6591H8","3PIOQ99R7Y8STPN46QFY0SD7JTFNU0","","null","<img src=""img/flower6.png"" style=""width:200px; border:14px solid green;"">","null","","","","","","","","",""
"","image-keyboard-response","315","90163","0.0-315.0","3K4J6M3CXFF4Q8QE4JQEZQO4JRGAGX","AHKYVHP6591H8","3PIOQ99R7Y8STPN46QFY0SD7JTFNU0","","217.40000000037253","img/flower5.png","74","219.20000000018626","1","1","1","2","1,0,0,1,1,0,1,0,1","1,0,0,1,1,0,1,0,1","1",""
"","html-keyboard-response","316","90472","0.0-316.0","3K4J6M3CXFF4Q8QE4JQEZQO4JRGAGX","AHKYVHP6591H8","3PIOQ99R7Y8STPN46QFY0SD7JTFNU0","","null","<img src=""img/flower5.png"" style=""width:200px; border:14px solid green;"">","null","","","","","","","","",""
"","image-keyboard-response","317","90674","0.0-317.0","3K4J6M3CXFF4Q8QE4JQEZQO4JRGAGX","AHKYVHP6591H8","3PIOQ99R7Y8STPN46QFY0SD7JTFNU0","","199.59999999962747","img/flower6.png","75","201.29999999981374","2","0","3","2","1,0,0,1,1,0,1,0,1","1,0,0,1,1,0,1,0,1","1",""
"","html-keyboard-response","318","90983","0.0-318.0","3K4J6M3CXFF4Q8QE4JQEZQO4JRGAGX","AHKYVHP6591H8","3PIOQ99R7Y8STPN46QFY0SD7JTFNU0","","null","<img src=""img/flower6.png"" style=""width:200px;border:14px solid red;"">","null","","","","","","","","",""
"","image-keyboard-response","319","91187","0.0-319.0","3K4J6M3CXFF4Q8QE4JQEZQO4JRGAGX","AHKYVHP6591H8","3PIOQ99R7Y8STPN46QFY0SD7JTFNU0","","200.09999999962747","img/flower6.png","75","202.8999999994412","2","0","3","2","1,0,0,1,1,0,1,0,1","1,0,0,1,1,0,1,0,1","1",""
"","html-keyboard-response","320","91496","0.0-320.0","3K4J6M3CXFF4Q8QE4JQEZQO4JRGAGX","AHKYVHP6591H8","3PIOQ99R7Y8STPN46QFY0SD7JTFNU0","","null","<img src=""img/flower6.png"" style=""width:200px;border:14px solid red;"">","null","","","","","","","","",""
"","image-keyboard-response","321","91683","0.0-321.0","3K4J6M3CXFF4Q8QE4JQEZQO4JRGAGX","AHKYVHP6591H8","3PIOQ99R7Y8STPN46QFY0SD7JTFNU0","","184.5","img/flower1.png","76","186.59999999962747","3","0","2","2","1,0,0,1,1,0,1,0,1","1,0,0,1,1,0,1,0,1","1",""
"","html-keyboard-response","322","91986","0.0-322.0","3K4J6M3CXFF4Q8QE4JQEZQO4JRGAGX","AHKYVHP6591H8","3PIOQ99R7Y8STPN46QFY0SD7JTFNU0","","null","<img src=""img/flower1.png"" style=""width:200px;border:14px solid red;"">","null","","","","","","","","",""
"","image-keyboard-response","323","92146","0.0-323.0","3K4J6M3CXFF4Q8QE4JQEZQO4JRGAGX","AHKYVHP6591H8","3PIOQ99R7Y8STPN46QFY0SD7JTFNU0","","158.40000000037253","img/flower5.png","76","160","3","0","1","2","1,0,0,1,1,0,1,0,1","1,0,0,1,1,0,1,0,1","1",""
"","html-keyboard-response","324","92456","0.0-324.0","3K4J6M3CXFF4Q8QE4JQEZQO4JRGAGX","AHKYVHP6591H8","3PIOQ99R7Y8STPN46QFY0SD7JTFNU0","","null","<img src=""img/flower5.png"" style=""width:200px;border:14px solid red;"">","null","","","","","","","","",""
"","image-keyboard-response","325","92706","0.0-325.0","3K4J6M3CXFF4Q8QE4JQEZQO4JRGAGX","AHKYVHP6591H8","3PIOQ99R7Y8STPN46QFY0SD7JTFNU0","","248.5","img/flower1.png","75","250.6000000005588","2","1","2","2","1,0,0,1,1,0,1,0,1","1,0,0,1,1,0,1,0,1","1",""
"","html-keyboard-response","326","93016","0.0-326.0","3K4J6M3CXFF4Q8QE4JQEZQO4JRGAGX","AHKYVHP6591H8","3PIOQ99R7Y8STPN46QFY0SD7JTFNU0","","null","<img src=""img/flower1.png"" style=""width:200px; border:14px solid green;"">","null","","","","","","","","",""
"","image-keyboard-response","327","93203","0.0-327.0","3K4J6M3CXFF4Q8QE4JQEZQO4JRGAGX","AHKYVHP6591H8","3PIOQ99R7Y8STPN46QFY0SD7JTFNU0","","184.40000000037253","img/flower6.png","75","186.3999999994412","2","0","3","2","1,0,0,1,1,0,1,0,1","1,0,0,1,1,0,1,0,1","1",""
"","html-keyboard-response","328","93511","0.0-328.0","3K4J6M3CXFF4Q8QE4JQEZQO4JRGAGX","AHKYVHP6591H8","3PIOQ99R7Y8STPN46QFY0SD7JTFNU0","","null","<img src=""img/flower6.png"" style=""width:200px;border:14px solid red;"">","null","","","","","","","","",""
"","image-keyboard-response","329","93777","0.0-329.0","3K4J6M3CXFF4Q8QE4JQEZQO4JRGAGX","AHKYVHP6591H8","3PIOQ99R7Y8STPN46QFY0SD7JTFNU0","","265","img/flower6.png","76","265.90000000037253","3","1","3","2","1,0,0,1,1,0,1,0,1","1,0,0,1,1,0,1,0,1","1",""
"","html-keyboard-response","330","94079","0.0-330.0","3K4J6M3CXFF4Q8QE4JQEZQO4JRGAGX","AHKYVHP6591H8","3PIOQ99R7Y8STPN46QFY0SD7JTFNU0","","null","<img src=""img/flower6.png"" style=""width:200px; border:14px solid green;"">","null","","","","","","","","",""
"","image-keyboard-response","331","94290","0.0-331.0","3K4J6M3CXFF4Q8QE4JQEZQO4JRGAGX","AHKYVHP6591H8","3PIOQ99R7Y8STPN46QFY0SD7JTFNU0","","209","img/flower6.png","76","210.69999999925494","3","1","3","2","1,0,0,1,1,0,1,0,1","1,0,0,1,1,0,1,0,1","1",""
"","html-keyboard-response","332","94599","0.0-332.0","3K4J6M3CXFF4Q8QE4JQEZQO4JRGAGX","AHKYVHP6591H8","3PIOQ99R7Y8STPN46QFY0SD7JTFNU0","","null","<img src=""img/flower6.png"" style=""width:200px; border:14px solid green;"">","null","","","","","","","","",""
"","image-keyboard-response","333","94803","0.0-333.0","3K4J6M3CXFF4Q8QE4JQEZQO4JRGAGX","AHKYVHP6591H8","3PIOQ99R7Y8STPN46QFY0SD7JTFNU0","","201.8999999994412","img/flower1.png","75","203.09999999962747","2","1","2","2","1,0,0,1,1,0,1,0,1","1,0,0,1,1,0,1,0,1","1",""
"","html-keyboard-response","334","95106","0.0-334.0","3K4J6M3CXFF4Q8QE4JQEZQO4JRGAGX","AHKYVHP6591H8","3PIOQ99R7Y8STPN46QFY0SD7JTFNU0","","null","<img src=""img/flower1.png"" style=""width:200px; border:14px solid green;"">","null","","","","","","","","",""
"","image-keyboard-response","335","95363","0.0-335.0","3K4J6M3CXFF4Q8QE4JQEZQO4JRGAGX","AHKYVHP6591H8","3PIOQ99R7Y8STPN46QFY0SD7JTFNU0","","254.5","img/flower5.png","76","256.6000000005588","3","0","1","2","1,0,0,1,1,0,1,0,1","1,0,0,1,1,0,1,0,1","1",""
"","html-keyboard-response","336","95672","0.0-336.0","3K4J6M3CXFF4Q8QE4JQEZQO4JRGAGX","AHKYVHP6591H8","3PIOQ99R7Y8STPN46QFY0SD7JTFNU0","","null","<img src=""img/flower5.png"" style=""width:200px;border:14px solid red;"">","null","","","","","","","","",""
"","image-keyboard-response","337","95843","0.0-337.0","3K4J6M3CXFF4Q8QE4JQEZQO4JRGAGX","AHKYVHP6591H8","3PIOQ99R7Y8STPN46QFY0SD7JTFNU0","","168.90000000037253","img/flower1.png","76","170.79999999981374","3","0","2","2","1,0,0,1,1,0,1,0,1","1,0,0,1,1,0,1,0,1","1",""
"","html-keyboard-response","338","96151","0.0-338.0","3K4J6M3CXFF4Q8QE4JQEZQO4JRGAGX","AHKYVHP6591H8","3PIOQ99R7Y8STPN46QFY0SD7JTFNU0","","null","<img src=""img/flower1.png"" style=""width:200px;border:14px solid red;"">","null","","","","","","","","",""
"","image-keyboard-response","339","96403","0.0-339.0","3K4J6M3CXFF4Q8QE4JQEZQO4JRGAGX","AHKYVHP6591H8","3PIOQ99R7Y8STPN46QFY0SD7JTFNU0","","248.70000000018626","img/flower5.png","75","250.8999999994412","2","0","1","2","1,0,0,1,1,0,1,0,1","1,0,0,1,1,0,1,0,1","1",""
"","html-keyboard-response","340","96712","0.0-340.0","3K4J6M3CXFF4Q8QE4JQEZQO4JRGAGX","AHKYVHP6591H8","3PIOQ99R7Y8STPN46QFY0SD7JTFNU0","","null","<img src=""img/flower5.png"" style=""width:200px;border:14px solid red;"">","null","","","","","","","","",""
"","image-keyboard-response","341","97059","0.0-341.0","3K4J6M3CXFF4Q8QE4JQEZQO4JRGAGX","AHKYVHP6591H8","3PIOQ99R7Y8STPN46QFY0SD7JTFNU0","","344.3999999994412","img/flower5.png","75","346.5","2","0","1","2","1,0,0,1,1,0,1,0,1","1,0,0,1,1,0,1,0,1","1",""
"","html-keyboard-response","342","97367","0.0-342.0","3K4J6M3CXFF4Q8QE4JQEZQO4JRGAGX","AHKYVHP6591H8","3PIOQ99R7Y8STPN46QFY0SD7JTFNU0","","null","<img src=""img/flower5.png"" style=""width:200px;border:14px solid red;"">","null","","","","","","","","",""
"","image-keyboard-response","343","97393","0.0-343.0","3K4J6M3CXFF4Q8QE4JQEZQO4JRGAGX","AHKYVHP6591H8","3PIOQ99R7Y8STPN46QFY0SD7JTFNU0","","24.100000000558794","img/flower1.png","75","25.700000000186265","2","1","2","2","1,0,0,1,1,0,1,0,1","1,0,0,1,1,0,1,0,1","1",""
"","html-keyboard-response","344","97703","0.0-344.0","3K4J6M3CXFF4Q8QE4JQEZQO4JRGAGX","AHKYVHP6591H8","3PIOQ99R7Y8STPN46QFY0SD7JTFNU0","","null","<img src=""img/flower1.png"" style=""width:200px; border:14px solid green;"">","null","","","","","","","","",""
"","image-keyboard-response","345","97746","0.0-345.0","3K4J6M3CXFF4Q8QE4JQEZQO4JRGAGX","AHKYVHP6591H8","3PIOQ99R7Y8STPN46QFY0SD7JTFNU0","","40.60000000055879","img/flower6.png","75","42.700000000186265","2","0","3","2","1,0,0,1,1,0,1,0,1","1,0,0,1,1,0,1,0,1","1",""
"","html-keyboard-response","346","98055","0.0-346.0","3K4J6M3CXFF4Q8QE4JQEZQO4JRGAGX","AHKYVHP6591H8","3PIOQ99R7Y8STPN46QFY0SD7JTFNU0","","null","<img src=""img/flower6.png"" style=""width:200px;border:14px solid red;"">","null","","","","","","","","",""
"","image-keyboard-response","347","98258","0.0-347.0","3K4J6M3CXFF4Q8QE4JQEZQO4JRGAGX","AHKYVHP6591H8","3PIOQ99R7Y8STPN46QFY0SD7JTFNU0","","200.8999999994412","img/flower1.png","76","203.09999999962747","3","0","2","2","1,0,0,1,1,0,1,0,1","1,0,0,1,1,0,1,0,1","1",""
"","html-keyboard-response","348","98568","0.0-348.0","3K4J6M3CXFF4Q8QE4JQEZQO4JRGAGX","AHKYVHP6591H8","3PIOQ99R7Y8STPN46QFY0SD7JTFNU0","","null","<img src=""img/flower1.png"" style=""width:200px;border:14px solid red;"">","null","","","","","","","","",""
"","image-keyboard-response","349","98787","0.0-349.0","3K4J6M3CXFF4Q8QE4JQEZQO4JRGAGX","AHKYVHP6591H8","3PIOQ99R7Y8STPN46QFY0SD7JTFNU0","","216.59999999962747","img/flower5.png","76","218.70000000018626","3","0","1","2","1,0,0,1,1,0,1,0,1","1,0,0,1,1,0,1,0,1","1",""
"","html-keyboard-response","350","99096","0.0-350.0","3K4J6M3CXFF4Q8QE4JQEZQO4JRGAGX","AHKYVHP6591H8","3PIOQ99R7Y8STPN46QFY0SD7JTFNU0","","null","<img src=""img/flower5.png"" style=""width:200px;border:14px solid red;"">","null","","","","","","","","",""
"","image-keyboard-response","351","99105","0.0-351.0","3K4J6M3CXFF4Q8QE4JQEZQO4JRGAGX","AHKYVHP6591H8","3PIOQ99R7Y8STPN46QFY0SD7JTFNU0","","7.5","img/flower5.png","76","8.899999999441206","3","0","1","2","1,0,0,1,1,0,1,0,1","1,0,0,1,1,0,1,0,1","1",""
"","html-keyboard-response","352","99407","0.0-352.0","3K4J6M3CXFF4Q8QE4JQEZQO4JRGAGX","AHKYVHP6591H8","3PIOQ99R7Y8STPN46QFY0SD7JTFNU0","","null","<img src=""img/flower5.png"" style=""width:200px;border:14px solid red;"">","null","","","","","","","","",""
"","image-keyboard-response","353","99411","0.0-353.0","3K4J6M3CXFF4Q8QE4JQEZQO4JRGAGX","AHKYVHP6591H8","3PIOQ99R7Y8STPN46QFY0SD7JTFNU0","","0.19999999925494194","img/flower6.png","75","2.2999999998137355","2","0","3","2","1,0,0,1,1,0,1,0,1","1,0,0,1,1,0,1,0,1","1",""
"","html-keyboard-response","354","99719","0.0-354.0","3K4J6M3CXFF4Q8QE4JQEZQO4JRGAGX","AHKYVHP6591H8","3PIOQ99R7Y8STPN46QFY0SD7JTFNU0","","null","<img src=""img/flower6.png"" style=""width:200px;border:14px solid red;"">","null","","","","","","","","",""
"","image-keyboard-response","355","99794","0.0-355.0","3K4J6M3CXFF4Q8QE4JQEZQO4JRGAGX","AHKYVHP6591H8","3PIOQ99R7Y8STPN46QFY0SD7JTFNU0","","72.1000000005588","img/flower5.png","75","73.90000000037253","2","0","1","2","1,0,0,1,1,0,1,0,1","1,0,0,1,1,0,1,0,1","1",""
"","html-keyboard-response","356","100104","0.0-356.0","3K4J6M3CXFF4Q8QE4JQEZQO4JRGAGX","AHKYVHP6591H8","3PIOQ99R7Y8STPN46QFY0SD7JTFNU0","","null","<img src=""img/flower5.png"" style=""width:200px;border:14px solid red;"">","null","","","","","","","","",""
"","image-keyboard-response","357","100403","0.0-357.0","3K4J6M3CXFF4Q8QE4JQEZQO4JRGAGX","AHKYVHP6591H8","3PIOQ99R7Y8STPN46QFY0SD7JTFNU0","","296.29999999981374","img/flower1.png","76","298.79999999981374","3","0","2","2","1,0,0,1,1,0,1,0,1","1,0,0,1,1,0,1,0,1","1",""
"","html-keyboard-response","358","100712","0.0-358.0","3K4J6M3CXFF4Q8QE4JQEZQO4JRGAGX","AHKYVHP6591H8","3PIOQ99R7Y8STPN46QFY0SD7JTFNU0","","null","<img src=""img/flower1.png"" style=""width:200px;border:14px solid red;"">","null","","","","","","","","",""
"","image-keyboard-response","359","100819","0.0-359.0","3K4J6M3CXFF4Q8QE4JQEZQO4JRGAGX","AHKYVHP6591H8","3PIOQ99R7Y8STPN46QFY0SD7JTFNU0","","104.79999999981374","img/flower6.png","76","106.3999999994412","3","1","3","2","1,0,0,1,1,0,1,0,1","1,0,0,1,1,0,1,0,1","1",""
"","html-keyboard-response","360","101128","0.0-360.0","3K4J6M3CXFF4Q8QE4JQEZQO4JRGAGX","AHKYVHP6591H8","3PIOQ99R7Y8STPN46QFY0SD7JTFNU0","","null","<img src=""img/flower6.png"" style=""width:200px; border:14px solid green;"">","null","","","","","","","","",""
"","image-keyboard-response","361","101170","0.0-361.0","3K4J6M3CXFF4Q8QE4JQEZQO4JRGAGX","AHKYVHP6591H8","3PIOQ99R7Y8STPN46QFY0SD7JTFNU0","","40.39999999944121","img/flower1.png","75","42.19999999925494","2","1","2","2","1,0,0,1,1,0,1,0,1","1,0,0,1,1,0,1,0,1","1",""
"","html-keyboard-response","362","101479","0.0-362.0","3K4J6M3CXFF4Q8QE4JQEZQO4JRGAGX","AHKYVHP6591H8","3PIOQ99R7Y8STPN46QFY0SD7JTFNU0","","null","<img src=""img/flower1.png"" style=""width:200px; border:14px solid green;"">","null","","","","","","","","",""
"","instructions","363","103555","0.0-363.0","3K4J6M3CXFF4Q8QE4JQEZQO4JRGAGX","AHKYVHP6591H8","3PIOQ99R7Y8STPN46QFY0SD7JTFNU0","[{""page_index"":0,""viewing_time"":2073.7999999998137}]","2074.699999999255","","","","","","","","","","",""
"","survey-text","364","108069","0.0-364.0","3K4J6M3CXFF4Q8QE4JQEZQO4JRGAGX","AHKYVHP6591H8","3PIOQ99R7Y8STPN46QFY0SD7JTFNU0","","4507.0999999996275","","","","","","","","","","","{""Q0"":""AHKYVHP6591H8""}"
