"success","trial_type","trial_index","time_elapsed","internal_node_id","assignmentID","mturkID","hitID","view_history","rt","stimulus","key_press","reactionTime","a","r","s","cond","reward_cond","reward_cond_actual","reward_matrix_idx","responses"
"true","fullscreen","0","3893","0.0-0.0","30X31N5D64C7GDZ5ZJKVO47777AASR","AHV4U78TUUDKI","3566S7OX5D5NH74JOVOPTTMK8IR17K","","","","","","","","","","","","",""
"","instructions","1","23795","0.0-1.0","30X31N5D64C7GDZ5ZJKVO47777AASR","AHV4U78TUUDKI","3566S7OX5D5NH74JOVOPTTMK8IR17K","[{""page_index"":0,""viewing_time"":2268.7999999821186},{""page_index"":1,""viewing_time"":4122.200000017881},{""page_index"":2,""viewing_time"":1281.7999999821186},{""page_index"":3,""viewing_time"":2254},{""page_index"":4,""viewing_time"":3074},{""page_index"":5,""viewing_time"":1699.9000000059605},{""page_index"":6,""viewing_time"":2108.0999999940395},{""page_index"":7,""viewing_time"":3091.9000000059605}]","19901.09999999404","","","","","","","","","","",""
"","image-keyboard-response","2","24393","0.0-2.0","30X31N5D64C7GDZ5ZJKVO47777AASR","AHV4U78TUUDKI","3566S7OX5D5NH74JOVOPTTMK8IR17K","","596.5","img/flower6.png","74","597.3000000119209","1","1","1","2","1,0,0,1,1,0,1,0,1","1,0,0,1,1,0,1,0,1","1",""
"","html-keyboard-response","3","24709","0.0-3.0","30X31N5D64C7GDZ5ZJKVO47777AASR","AHV4U78TUUDKI","3566S7OX5D5NH74JOVOPTTMK8IR17K","","null","<img src=""img/flower6.png"" style=""width:200px; border:14px solid green;"">","null","","","","","","","","",""
"","image-keyboard-response","4","25041","0.0-4.0","30X31N5D64C7GDZ5ZJKVO47777AASR","AHV4U78TUUDKI","3566S7OX5D5NH74JOVOPTTMK8IR17K","","331.69999998807907","img/flower6.png","74","332","1","1","1","2","1,0,0,1,1,0,1,0,1","1,0,0,1,1,0,1,0,1","1",""
"","html-keyboard-response","5","25347","0.0-5.0","30X31N5D64C7GDZ5ZJKVO47777AASR","AHV4U78TUUDKI","3566S7OX5D5NH74JOVOPTTMK8IR17K","","null","<img src=""img/flower6.png"" style=""width:200px; border:14px solid green;"">","null","","","","","","","","",""
"","image-keyboard-response","6","25889","0.0-6.0","30X31N5D64C7GDZ5ZJKVO47777AASR","AHV4U78TUUDKI","3566S7OX5D5NH74JOVOPTTMK8IR17K","","541.7999999821186","img/flower3.png","75","542.0999999940395","2","1","2","2","1,0,0,1,1,0,1,0,1","1,0,0,1,1,0,1,0,1","1",""
"","html-keyboard-response","7","26195","0.0-7.0","30X31N5D64C7GDZ5ZJKVO47777AASR","AHV4U78TUUDKI","3566S7OX5D5NH74JOVOPTTMK8IR17K","","null","<img src=""img/flower3.png"" style=""width:200px; border:14px solid green;"">","null","","","","","","","","",""
"","image-keyboard-response","8","26633","0.0-8.0","30X31N5D64C7GDZ5ZJKVO47777AASR","AHV4U78TUUDKI","3566S7OX5D5NH74JOVOPTTMK8IR17K","","437.5","img/flower3.png","75","438","2","1","2","2","1,0,0,1,1,0,1,0,1","1,0,0,1,1,0,1,0,1","1",""
"","html-keyboard-response","9","26944","0.0-9.0","30X31N5D64C7GDZ5ZJKVO47777AASR","AHV4U78TUUDKI","3566S7OX5D5NH74JOVOPTTMK8IR17K","","null","<img src=""img/flower3.png"" style=""width:200px; border:14px solid green;"">","null","","","","","","","","",""
"","image-keyboard-response","10","27577","0.0-10.0","30X31N5D64C7GDZ5ZJKVO47777AASR","AHV4U78TUUDKI","3566S7OX5D5NH74JOVOPTTMK8IR17K","","632.0999999940395","img/flower4.png","76","632.6000000238419","3","1","3","2","1,0,0,1,1,0,1,0,1","1,0,0,1,1,0,1,0,1","1",""
"","html-keyboard-response","11","27883","0.0-11.0","30X31N5D64C7GDZ5ZJKVO47777AASR","AHV4U78TUUDKI","3566S7OX5D5NH74JOVOPTTMK8IR17K","","null","<img src=""img/flower4.png"" style=""width:200px; border:14px solid green;"">","null","","","","","","","","",""
"","image-keyboard-response","12","28249","0.0-12.0","30X31N5D64C7GDZ5ZJKVO47777AASR","AHV4U78TUUDKI","3566S7OX5D5NH74JOVOPTTMK8IR17K","","365.69999998807907","img/flower4.png","76","366.2000000178814","3","1","3","2","1,0,0,1,1,0,1,0,1","1,0,0,1,1,0,1,0,1","1",""
"","html-keyboard-response","13","28550","0.0-13.0","30X31N5D64C7GDZ5ZJKVO47777AASR","AHV4U78TUUDKI","3566S7OX5D5NH74JOVOPTTMK8IR17K","","null","<img src=""img/flower4.png"" style=""width:200px; border:14px solid green;"">","null","","","","","","","","",""
"","image-keyboard-response","14","28953","0.0-14.0","30X31N5D64C7GDZ5ZJKVO47777AASR","AHV4U78TUUDKI","3566S7OX5D5NH74JOVOPTTMK8IR17K","","402.5","img/flower4.png","76","403","3","1","3","2","1,0,0,1,1,0,1,0,1","1,0,0,1,1,0,1,0,1","1",""
"","html-keyboard-response","15","29255","0.0-15.0","30X31N5D64C7GDZ5ZJKVO47777AASR","AHV4U78TUUDKI","3566S7OX5D5NH74JOVOPTTMK8IR17K","","null","<img src=""img/flower4.png"" style=""width:200px; border:14px solid green;"">","null","","","","","","","","",""
"","image-keyboard-response","16","29697","0.0-16.0","30X31N5D64C7GDZ5ZJKVO47777AASR","AHV4U78TUUDKI","3566S7OX5D5NH74JOVOPTTMK8IR17K","","441.19999998807907","img/flower4.png","76","441.60000002384186","3","1","3","2","1,0,0,1,1,0,1,0,1","1,0,0,1,1,0,1,0,1","1",""
"","html-keyboard-response","17","29998","0.0-17.0","30X31N5D64C7GDZ5ZJKVO47777AASR","AHV4U78TUUDKI","3566S7OX5D5NH74JOVOPTTMK8IR17K","","null","<img src=""img/flower4.png"" style=""width:200px; border:14px solid green;"">","null","","","","","","","","",""
"","image-keyboard-response","18","30537","0.0-18.0","30X31N5D64C7GDZ5ZJKVO47777AASR","AHV4U78TUUDKI","3566S7OX5D5NH74JOVOPTTMK8IR17K","","538.0999999940395","img/flower3.png","74","538.6999999880791","1","1","2","2","1,0,0,1,1,0,1,0,1","1,0,0,1,1,0,1,0,1","1",""
"","html-keyboard-response","19","30839","0.0-19.0","30X31N5D64C7GDZ5ZJKVO47777AASR","AHV4U78TUUDKI","3566S7OX5D5NH74JOVOPTTMK8IR17K","","null","<img src=""img/flower3.png"" style=""width:200px; border:14px solid green;"">","null","","","","","","","","",""
"","image-keyboard-response","20","31521","0.0-20.0","30X31N5D64C7GDZ5ZJKVO47777AASR","AHV4U78TUUDKI","3566S7OX5D5NH74JOVOPTTMK8IR17K","","681.7999999821186","img/flower4.png","75","682.4000000059605","2","0","3","2","1,0,0,1,1,0,1,0,1","1,0,0,1,1,0,1,0,1","1",""
"","html-keyboard-response","21","31822","0.0-21.0","30X31N5D64C7GDZ5ZJKVO47777AASR","AHV4U78TUUDKI","3566S7OX5D5NH74JOVOPTTMK8IR17K","","null","<img src=""img/flower4.png"" style=""width:200px;border:14px solid red;"">","null","","","","","","","","",""
"","image-keyboard-response","22","32465","0.0-22.0","30X31N5D64C7GDZ5ZJKVO47777AASR","AHV4U78TUUDKI","3566S7OX5D5NH74JOVOPTTMK8IR17K","","642.2999999821186","img/flower4.png","74","642.6999999880791","1","1","3","2","1,0,0,1,1,0,1,0,1","1,0,0,1,1,0,1,0,1","1",""
"","html-keyboard-response","23","32767","0.0-23.0","30X31N5D64C7GDZ5ZJKVO47777AASR","AHV4U78TUUDKI","3566S7OX5D5NH74JOVOPTTMK8IR17K","","null","<img src=""img/flower4.png"" style=""width:200px; border:14px solid green;"">","null","","","","","","","","",""
"","image-keyboard-response","24","33513","0.0-24.0","30X31N5D64C7GDZ5ZJKVO47777AASR","AHV4U78TUUDKI","3566S7OX5D5NH74JOVOPTTMK8IR17K","","745.5","img/flower6.png","74","745.8999999761581","1","1","1","2","1,0,0,1,1,0,1,0,1","1,0,0,1,1,0,1,0,1","1",""
"","html-keyboard-response","25","33815","0.0-25.0","30X31N5D64C7GDZ5ZJKVO47777AASR","AHV4U78TUUDKI","3566S7OX5D5NH74JOVOPTTMK8IR17K","","null","<img src=""img/flower6.png"" style=""width:200px; border:14px solid green;"">","null","","","","","","","","",""
"","image-keyboard-response","26","34449","0.0-26.0","30X31N5D64C7GDZ5ZJKVO47777AASR","AHV4U78TUUDKI","3566S7OX5D5NH74JOVOPTTMK8IR17K","","633.5999999940395","img/flower3.png","76","633.9000000059605","3","0","2","2","1,0,0,1,1,0,1,0,1","1,0,0,1,1,0,1,0,1","1",""
"","html-keyboard-response","27","34751","0.0-27.0","30X31N5D64C7GDZ5ZJKVO47777AASR","AHV4U78TUUDKI","3566S7OX5D5NH74JOVOPTTMK8IR17K","","null","<img src=""img/flower3.png"" style=""width:200px;border:14px solid red;"">","null","","","","","","","","",""
"","image-keyboard-response","28","35129","0.0-28.0","30X31N5D64C7GDZ5ZJKVO47777AASR","AHV4U78TUUDKI","3566S7OX5D5NH74JOVOPTTMK8IR17K","","377.69999998807907","img/flower3.png","75","378.2000000178814","2","1","2","2","1,0,0,1,1,0,1,0,1","1,0,0,1,1,0,1,0,1","1",""
"","html-keyboard-response","29","35431","0.0-29.0","30X31N5D64C7GDZ5ZJKVO47777AASR","AHV4U78TUUDKI","3566S7OX5D5NH74JOVOPTTMK8IR17K","","null","<img src=""img/flower3.png"" style=""width:200px; border:14px solid green;"">","null","","","","","","","","",""
"","image-keyboard-response","30","36449","0.0-30.0","30X31N5D64C7GDZ5ZJKVO47777AASR","AHV4U78TUUDKI","3566S7OX5D5NH74JOVOPTTMK8IR17K","","1017.1999999880791","img/flower6.png","74","1017.5999999940395","1","1","1","2","1,0,0,1,1,0,1,0,1","1,0,0,1,1,0,1,0,1","1",""
"","html-keyboard-response","31","36750","0.0-31.0","30X31N5D64C7GDZ5ZJKVO47777AASR","AHV4U78TUUDKI","3566S7OX5D5NH74JOVOPTTMK8IR17K","","null","<img src=""img/flower6.png"" style=""width:200px; border:14px solid green;"">","null","","","","","","","","",""
"","image-keyboard-response","32","37409","0.0-32.0","30X31N5D64C7GDZ5ZJKVO47777AASR","AHV4U78TUUDKI","3566S7OX5D5NH74JOVOPTTMK8IR17K","","658.4000000059605","img/flower4.png","74","658.7999999821186","1","1","3","2","1,0,0,1,1,0,1,0,1","1,0,0,1,1,0,1,0,1","1",""
"","html-keyboard-response","33","37711","0.0-33.0","30X31N5D64C7GDZ5ZJKVO47777AASR","AHV4U78TUUDKI","3566S7OX5D5NH74JOVOPTTMK8IR17K","","null","<img src=""img/flower4.png"" style=""width:200px; border:14px solid green;"">","null","","","","","","","","",""
"","image-keyboard-response","34","38329","0.0-34.0","30X31N5D64C7GDZ5ZJKVO47777AASR","AHV4U78TUUDKI","3566S7OX5D5NH74JOVOPTTMK8IR17K","","617.5","img/flower3.png","75","617.8999999761581","2","1","2","2","1,0,0,1,1,0,1,0,1","1,0,0,1,1,0,1,0,1","1",""
"","html-keyboard-response","35","38630","0.0-35.0","30X31N5D64C7GDZ5ZJKVO47777AASR","AHV4U78TUUDKI","3566S7OX5D5NH74JOVOPTTMK8IR17K","","null","<img src=""img/flower3.png"" style=""width:200px; border:14px solid green;"">","null","","","","","","","","",""
"","image-keyboard-response","36","39465","0.0-36.0","30X31N5D64C7GDZ5ZJKVO47777AASR","AHV4U78TUUDKI","3566S7OX5D5NH74JOVOPTTMK8IR17K","","834","img/flower3.png","75","834.1999999880791","2","1","2","2","1,0,0,1,1,0,1,0,1","1,0,0,1,1,0,1,0,1","1",""
"","html-keyboard-response","37","39767","0.0-37.0","30X31N5D64C7GDZ5ZJKVO47777AASR","AHV4U78TUUDKI","3566S7OX5D5NH74JOVOPTTMK8IR17K","","null","<img src=""img/flower3.png"" style=""width:200px; border:14px solid green;"">","null","","","","","","","","",""
"","image-keyboard-response","38","40169","0.0-38.0","30X31N5D64C7GDZ5ZJKVO47777AASR","AHV4U78TUUDKI","3566S7OX5D5NH74JOVOPTTMK8IR17K","","401.09999999403954","img/flower3.png","75","401.59999999403954","2","1","2","2","1,0,0,1,1,0,1,0,1","1,0,0,1,1,0,1,0,1","1",""
"","html-keyboard-response","39","40483","0.0-39.0","30X31N5D64C7GDZ5ZJKVO47777AASR","AHV4U78TUUDKI","3566S7OX5D5NH74JOVOPTTMK8IR17K","","null","<img src=""img/flower3.png"" style=""width:200px; border:14px solid green;"">","null","","","","","","","","",""
"","image-keyboard-response","40","40953","0.0-40.0","30X31N5D64C7GDZ5ZJKVO47777AASR","AHV4U78TUUDKI","3566S7OX5D5NH74JOVOPTTMK8IR17K","","468.7999999821186","img/flower6.png","74","469.09999999403954","1","1","1","2","1,0,0,1,1,0,1,0,1","1,0,0,1,1,0,1,0,1","1",""
"","html-keyboard-response","41","41254","0.0-41.0","30X31N5D64C7GDZ5ZJKVO47777AASR","AHV4U78TUUDKI","3566S7OX5D5NH74JOVOPTTMK8IR17K","","null","<img src=""img/flower6.png"" style=""width:200px; border:14px solid green;"">","null","","","","","","","","",""
"","image-keyboard-response","42","41609","0.0-42.0","30X31N5D64C7GDZ5ZJKVO47777AASR","AHV4U78TUUDKI","3566S7OX5D5NH74JOVOPTTMK8IR17K","","354.09999999403954","img/flower6.png","74","354.60000002384186","1","1","1","2","1,0,0,1,1,0,1,0,1","1,0,0,1,1,0,1,0,1","1",""
"","html-keyboard-response","43","41911","0.0-43.0","30X31N5D64C7GDZ5ZJKVO47777AASR","AHV4U78TUUDKI","3566S7OX5D5NH74JOVOPTTMK8IR17K","","null","<img src=""img/flower6.png"" style=""width:200px; border:14px solid green;"">","null","","","","","","","","",""
"","image-keyboard-response","44","42617","0.0-44.0","30X31N5D64C7GDZ5ZJKVO47777AASR","AHV4U78TUUDKI","3566S7OX5D5NH74JOVOPTTMK8IR17K","","705.4000000059605","img/flower4.png","74","705.7999999821186","1","1","3","2","1,0,0,1,1,0,1,0,1","1,0,0,1,1,0,1,0,1","1",""
"","html-keyboard-response","45","42919","0.0-45.0","30X31N5D64C7GDZ5ZJKVO47777AASR","AHV4U78TUUDKI","3566S7OX5D5NH74JOVOPTTMK8IR17K","","null","<img src=""img/flower4.png"" style=""width:200px; border:14px solid green;"">","null","","","","","","","","",""
"","image-keyboard-response","46","43257","0.0-46.0","30X31N5D64C7GDZ5ZJKVO47777AASR","AHV4U78TUUDKI","3566S7OX5D5NH74JOVOPTTMK8IR17K","","337.5","img/flower4.png","74","337.89999997615814","1","1","3","2","1,0,0,1,1,0,1,0,1","1,0,0,1,1,0,1,0,1","1",""
"","html-keyboard-response","47","43558","0.0-47.0","30X31N5D64C7GDZ5ZJKVO47777AASR","AHV4U78TUUDKI","3566S7OX5D5NH74JOVOPTTMK8IR17K","","null","<img src=""img/flower4.png"" style=""width:200px; border:14px solid green;"">","null","","","","","","","","",""
"","image-keyboard-response","48","43985","0.0-48.0","30X31N5D64C7GDZ5ZJKVO47777AASR","AHV4U78TUUDKI","3566S7OX5D5NH74JOVOPTTMK8IR17K","","426.09999999403954","img/flower4.png","74","426.5","1","1","3","2","1,0,0,1,1,0,1,0,1","1,0,0,1,1,0,1,0,1","1",""
"","html-keyboard-response","49","44287","0.0-49.0","30X31N5D64C7GDZ5ZJKVO47777AASR","AHV4U78TUUDKI","3566S7OX5D5NH74JOVOPTTMK8IR17K","","null","<img src=""img/flower4.png"" style=""width:200px; border:14px solid green;"">","null","","","","","","","","",""
"","image-keyboard-response","50","44553","0.0-50.0","30X31N5D64C7GDZ5ZJKVO47777AASR","AHV4U78TUUDKI","3566S7OX5D5NH74JOVOPTTMK8IR17K","","265.19999998807907","img/flower3.png","74","265.7000000178814","1","1","2","2","1,0,0,1,1,0,1,0,1","1,0,0,1,1,0,1,0,1","1",""
"","html-keyboard-response","51","44854","0.0-51.0","30X31N5D64C7GDZ5ZJKVO47777AASR","AHV4U78TUUDKI","3566S7OX5D5NH74JOVOPTTMK8IR17K","","null","<img src=""img/flower3.png"" style=""width:200px; border:14px solid green;"">","null","","","","","","","","",""
"","image-keyboard-response","52","45609","0.0-52.0","30X31N5D64C7GDZ5ZJKVO47777AASR","AHV4U78TUUDKI","3566S7OX5D5NH74JOVOPTTMK8IR17K","","754.3000000119209","img/flower4.png","75","754.6999999880791","2","0","3","2","1,0,0,1,1,0,1,0,1","1,0,0,1,1,0,1,0,1","1",""
"","html-keyboard-response","53","45911","0.0-53.0","30X31N5D64C7GDZ5ZJKVO47777AASR","AHV4U78TUUDKI","3566S7OX5D5NH74JOVOPTTMK8IR17K","","null","<img src=""img/flower4.png"" style=""width:200px;border:14px solid red;"">","null","","","","","","","","",""
"","image-keyboard-response","54","46225","0.0-54.0","30X31N5D64C7GDZ5ZJKVO47777AASR","AHV4U78TUUDKI","3566S7OX5D5NH74JOVOPTTMK8IR17K","","313.30000001192093","img/flower3.png","74","313.7999999821186","1","1","2","2","1,0,0,1,1,0,1,0,1","1,0,0,1,1,0,1,0,1","1",""
"","html-keyboard-response","55","46527","0.0-55.0","30X31N5D64C7GDZ5ZJKVO47777AASR","AHV4U78TUUDKI","3566S7OX5D5NH74JOVOPTTMK8IR17K","","null","<img src=""img/flower3.png"" style=""width:200px; border:14px solid green;"">","null","","","","","","","","",""
"","image-keyboard-response","56","46657","0.0-56.0","30X31N5D64C7GDZ5ZJKVO47777AASR","AHV4U78TUUDKI","3566S7OX5D5NH74JOVOPTTMK8IR17K","","129.69999998807907","img/flower6.png","74","130.09999999403954","1","1","1","2","1,0,0,1,1,0,1,0,1","1,0,0,1,1,0,1,0,1","1",""
"","html-keyboard-response","57","46958","0.0-57.0","30X31N5D64C7GDZ5ZJKVO47777AASR","AHV4U78TUUDKI","3566S7OX5D5NH74JOVOPTTMK8IR17K","","null","<img src=""img/flower6.png"" style=""width:200px; border:14px solid green;"">","null","","","","","","","","",""
"","image-keyboard-response","58","47177","0.0-58.0","30X31N5D64C7GDZ5ZJKVO47777AASR","AHV4U78TUUDKI","3566S7OX5D5NH74JOVOPTTMK8IR17K","","218","img/flower4.png","74","218.5","1","1","3","2","1,0,0,1,1,0,1,0,1","1,0,0,1,1,0,1,0,1","1",""
"","html-keyboard-response","59","47478","0.0-59.0","30X31N5D64C7GDZ5ZJKVO47777AASR","AHV4U78TUUDKI","3566S7OX5D5NH74JOVOPTTMK8IR17K","","null","<img src=""img/flower4.png"" style=""width:200px; border:14px solid green;"">","null","","","","","","","","",""
"","image-keyboard-response","60","47849","0.0-60.0","30X31N5D64C7GDZ5ZJKVO47777AASR","AHV4U78TUUDKI","3566S7OX5D5NH74JOVOPTTMK8IR17K","","369.90000000596046","img/flower6.png","74","370.40000000596046","1","1","1","2","1,0,0,1,1,0,1,0,1","1,0,0,1,1,0,1,0,1","1",""
"","html-keyboard-response","61","48150","0.0-61.0","30X31N5D64C7GDZ5ZJKVO47777AASR","AHV4U78TUUDKI","3566S7OX5D5NH74JOVOPTTMK8IR17K","","null","<img src=""img/flower6.png"" style=""width:200px; border:14px solid green;"">","null","","","","","","","","",""
"","image-keyboard-response","62","48305","0.0-62.0","30X31N5D64C7GDZ5ZJKVO47777AASR","AHV4U78TUUDKI","3566S7OX5D5NH74JOVOPTTMK8IR17K","","154.30000001192093","img/flower4.png","74","154.69999998807907","1","1","3","2","1,0,0,1,1,0,1,0,1","1,0,0,1,1,0,1,0,1","1",""
"","html-keyboard-response","63","48606","0.0-63.0","30X31N5D64C7GDZ5ZJKVO47777AASR","AHV4U78TUUDKI","3566S7OX5D5NH74JOVOPTTMK8IR17K","","null","<img src=""img/flower4.png"" style=""width:200px; border:14px solid green;"">","null","","","","","","","","",""
"","image-keyboard-response","64","48745","0.0-64.0","30X31N5D64C7GDZ5ZJKVO47777AASR","AHV4U78TUUDKI","3566S7OX5D5NH74JOVOPTTMK8IR17K","","138.19999998807907","img/flower6.png","74","138.59999999403954","1","1","1","2","1,0,0,1,1,0,1,0,1","1,0,0,1,1,0,1,0,1","1",""
"","html-keyboard-response","65","49046","0.0-65.0","30X31N5D64C7GDZ5ZJKVO47777AASR","AHV4U78TUUDKI","3566S7OX5D5NH74JOVOPTTMK8IR17K","","null","<img src=""img/flower6.png"" style=""width:200px; border:14px solid green;"">","null","","","","","","","","",""
"","image-keyboard-response","66","49185","0.0-66.0","30X31N5D64C7GDZ5ZJKVO47777AASR","AHV4U78TUUDKI","3566S7OX5D5NH74JOVOPTTMK8IR17K","","137.7999999821186","img/flower3.png","74","138.19999998807907","1","1","2","2","1,0,0,1,1,0,1,0,1","1,0,0,1,1,0,1,0,1","1",""
"","html-keyboard-response","67","49486","0.0-67.0","30X31N5D64C7GDZ5ZJKVO47777AASR","AHV4U78TUUDKI","3566S7OX5D5NH74JOVOPTTMK8IR17K","","null","<img src=""img/flower3.png"" style=""width:200px; border:14px solid green;"">","null","","","","","","","","",""
"","image-keyboard-response","68","49593","0.0-68.0","30X31N5D64C7GDZ5ZJKVO47777AASR","AHV4U78TUUDKI","3566S7OX5D5NH74JOVOPTTMK8IR17K","","106.30000001192093","img/flower6.png","74","106.7999999821186","1","1","1","2","1,0,0,1,1,0,1,0,1","1,0,0,1,1,0,1,0,1","1",""
"","html-keyboard-response","69","49894","0.0-69.0","30X31N5D64C7GDZ5ZJKVO47777AASR","AHV4U78TUUDKI","3566S7OX5D5NH74JOVOPTTMK8IR17K","","null","<img src=""img/flower6.png"" style=""width:200px; border:14px solid green;"">","null","","","","","","","","",""
"","image-keyboard-response","70","49921","0.0-70.0","30X31N5D64C7GDZ5ZJKVO47777AASR","AHV4U78TUUDKI","3566S7OX5D5NH74JOVOPTTMK8IR17K","","25.900000005960464","img/flower3.png","74","26.299999982118607","1","1","2","2","1,0,0,1,1,0,1,0,1","1,0,0,1,1,0,1,0,1","1",""
"","html-keyboard-response","71","50225","0.0-71.0","30X31N5D64C7GDZ5ZJKVO47777AASR","AHV4U78TUUDKI","3566S7OX5D5NH74JOVOPTTMK8IR17K","","null","<img src=""img/flower3.png"" style=""width:200px; border:14px solid green;"">","null","","","","","","","","",""
"","image-keyboard-response","72","50305","0.0-72.0","30X31N5D64C7GDZ5ZJKVO47777AASR","AHV4U78TUUDKI","3566S7OX5D5NH74JOVOPTTMK8IR17K","","79.2999999821186","img/flower3.png","74","79.59999999403954","1","1","2","2","1,0,0,1,1,0,1,0,1","1,0,0,1,1,0,1,0,1","1",""
"","html-keyboard-response","73","50606","0.0-73.0","30X31N5D64C7GDZ5ZJKVO47777AASR","AHV4U78TUUDKI","3566S7OX5D5NH74JOVOPTTMK8IR17K","","null","<img src=""img/flower3.png"" style=""width:200px; border:14px solid green;"">","null","","","","","","","","",""
"","image-keyboard-response","74","50657","0.0-74.0","30X31N5D64C7GDZ5ZJKVO47777AASR","AHV4U78TUUDKI","3566S7OX5D5NH74JOVOPTTMK8IR17K","","49.69999998807907","img/flower3.png","74","50.099999994039536","1","1","2","2","1,0,0,1,1,0,1,0,1","1,0,0,1,1,0,1,0,1","1",""
"","html-keyboard-response","75","50958","0.0-75.0","30X31N5D64C7GDZ5ZJKVO47777AASR","AHV4U78TUUDKI","3566S7OX5D5NH74JOVOPTTMK8IR17K","","null","<img src=""img/flower3.png"" style=""width:200px; border:14px solid green;"">","null","","","","","","","","",""
"","image-keyboard-response","76","51009","0.0-76.0","30X31N5D64C7GDZ5ZJKVO47777AASR","AHV4U78TUUDKI","3566S7OX5D5NH74JOVOPTTMK8IR17K","","50.20000001788139","img/flower6.png","74","50.599999994039536","1","1","1","2","1,0,0,1,1,0,1,0,1","1,0,0,1,1,0,1,0,1","1",""
"","html-keyboard-response","77","51311","0.0-77.0","30X31N5D64C7GDZ5ZJKVO47777AASR","AHV4U78TUUDKI","3566S7OX5D5NH74JOVOPTTMK8IR17K","","null","<img src=""img/flower6.png"" style=""width:200px; border:14px solid green;"">","null","","","","","","","","",""
"","image-keyboard-response","78","51409","0.0-78.0","30X31N5D64C7GDZ5ZJKVO47777AASR","AHV4U78TUUDKI","3566S7OX5D5NH74JOVOPTTMK8IR17K","","97.5","img/flower3.png","74","97.7999999821186","1","1","2","2","1,0,0,1,1,0,1,0,1","1,0,0,1,1,0,1,0,1","1",""
"","html-keyboard-response","79","51710","0.0-79.0","30X31N5D64C7GDZ5ZJKVO47777AASR","AHV4U78TUUDKI","3566S7OX5D5NH74JOVOPTTMK8IR17K","","null","<img src=""img/flower3.png"" style=""width:200px; border:14px solid green;"">","null","","","","","","","","",""
"","image-keyboard-response","80","51753","0.0-80.0","30X31N5D64C7GDZ5ZJKVO47777AASR","AHV4U78TUUDKI","3566S7OX5D5NH74JOVOPTTMK8IR17K","","42.19999998807907","img/flower4.png","74","42.60000002384186","1","1","3","2","1,0,0,1,1,0,1,0,1","1,0,0,1,1,0,1,0,1","1",""
"","html-keyboard-response","81","52054","0.0-81.0","30X31N5D64C7GDZ5ZJKVO47777AASR","AHV4U78TUUDKI","3566S7OX5D5NH74JOVOPTTMK8IR17K","","null","<img src=""img/flower4.png"" style=""width:200px; border:14px solid green;"">","null","","","","","","","","",""
"","image-keyboard-response","82","52241","0.0-82.0","30X31N5D64C7GDZ5ZJKVO47777AASR","AHV4U78TUUDKI","3566S7OX5D5NH74JOVOPTTMK8IR17K","","186.19999998807907","img/flower6.png","74","186.40000000596046","1","1","1","2","1,0,0,1,1,0,1,0,1","1,0,0,1,1,0,1,0,1","1",""
"","html-keyboard-response","83","52547","0.0-83.0","30X31N5D64C7GDZ5ZJKVO47777AASR","AHV4U78TUUDKI","3566S7OX5D5NH74JOVOPTTMK8IR17K","","null","<img src=""img/flower6.png"" style=""width:200px; border:14px solid green;"">","null","","","","","","","","",""
"","image-keyboard-response","84","52561","0.0-84.0","30X31N5D64C7GDZ5ZJKVO47777AASR","AHV4U78TUUDKI","3566S7OX5D5NH74JOVOPTTMK8IR17K","","13.400000005960464","img/flower3.png","74","13.599999994039536","1","1","2","2","1,0,0,1,1,0,1,0,1","1,0,0,1,1,0,1,0,1","1",""
"","html-keyboard-response","85","52862","0.0-85.0","30X31N5D64C7GDZ5ZJKVO47777AASR","AHV4U78TUUDKI","3566S7OX5D5NH74JOVOPTTMK8IR17K","","null","<img src=""img/flower3.png"" style=""width:200px; border:14px solid green;"">","null","","","","","","","","",""
"","image-keyboard-response","86","52937","0.0-86.0","30X31N5D64C7GDZ5ZJKVO47777AASR","AHV4U78TUUDKI","3566S7OX5D5NH74JOVOPTTMK8IR17K","","74.30000001192093","img/flower3.png","74","74.89999997615814","1","1","2","2","1,0,0,1,1,0,1,0,1","1,0,0,1,1,0,1,0,1","1",""
"","html-keyboard-response","87","53239","0.0-87.0","30X31N5D64C7GDZ5ZJKVO47777AASR","AHV4U78TUUDKI","3566S7OX5D5NH74JOVOPTTMK8IR17K","","null","<img src=""img/flower3.png"" style=""width:200px; border:14px solid green;"">","null","","","","","","","","",""
"","image-keyboard-response","88","53265","0.0-88.0","30X31N5D64C7GDZ5ZJKVO47777AASR","AHV4U78TUUDKI","3566S7OX5D5NH74JOVOPTTMK8IR17K","","25.69999998807907","img/flower3.png","74","26.099999994039536","1","1","2","2","1,0,0,1,1,0,1,0,1","1,0,0,1,1,0,1,0,1","1",""
"","html-keyboard-response","89","53566","0.0-89.0","30X31N5D64C7GDZ5ZJKVO47777AASR","AHV4U78TUUDKI","3566S7OX5D5NH74JOVOPTTMK8IR17K","","null","<img src=""img/flower3.png"" style=""width:200px; border:14px solid green;"">","null","","","","","","","","",""
"","image-keyboard-response","90","53593","0.0-90.0","30X31N5D64C7GDZ5ZJKVO47777AASR","AHV4U78TUUDKI","3566S7OX5D5NH74JOVOPTTMK8IR17K","","26.099999994039536","img/flower3.png","74","26.599999994039536","1","1","2","2","1,0,0,1,1,0,1,0,1","1,0,0,1,1,0,1,0,1","1",""
"","html-keyboard-response","91","53895","0.0-91.0","30X31N5D64C7GDZ5ZJKVO47777AASR","AHV4U78TUUDKI","3566S7OX5D5NH74JOVOPTTMK8IR17K","","null","<img src=""img/flower3.png"" style=""width:200px; border:14px solid green;"">","null","","","","","","","","",""
"","image-keyboard-response","92","53897","0.0-92.0","30X31N5D64C7GDZ5ZJKVO47777AASR","AHV4U78TUUDKI","3566S7OX5D5NH74JOVOPTTMK8IR17K","","1.9000000059604645","img/flower3.png","74","2.4000000059604645","1","1","2","2","1,0,0,1,1,0,1,0,1","1,0,0,1,1,0,1,0,1","1",""
"","html-keyboard-response","93","54200","0.0-93.0","30X31N5D64C7GDZ5ZJKVO47777AASR","AHV4U78TUUDKI","3566S7OX5D5NH74JOVOPTTMK8IR17K","","null","<img src=""img/flower3.png"" style=""width:200px; border:14px solid green;"">","null","","","","","","","","",""
"","image-keyboard-response","94","54209","0.0-94.0","30X31N5D64C7GDZ5ZJKVO47777AASR","AHV4U78TUUDKI","3566S7OX5D5NH74JOVOPTTMK8IR17K","","8.300000011920929","img/flower4.png","74","8.799999982118607","1","1","3","2","1,0,0,1,1,0,1,0,1","1,0,0,1,1,0,1,0,1","1",""
"","html-keyboard-response","95","54510","0.0-95.0","30X31N5D64C7GDZ5ZJKVO47777AASR","AHV4U78TUUDKI","3566S7OX5D5NH74JOVOPTTMK8IR17K","","null","<img src=""img/flower4.png"" style=""width:200px; border:14px solid green;"">","null","","","","","","","","",""
"","image-keyboard-response","96","54769","0.0-96.0","30X31N5D64C7GDZ5ZJKVO47777AASR","AHV4U78TUUDKI","3566S7OX5D5NH74JOVOPTTMK8IR17K","","257.90000000596046","img/flower3.png","74","258.39999997615814","1","1","2","2","1,0,0,1,1,0,1,0,1","1,0,0,1,1,0,1,0,1","1",""
"","html-keyboard-response","97","55070","0.0-97.0","30X31N5D64C7GDZ5ZJKVO47777AASR","AHV4U78TUUDKI","3566S7OX5D5NH74JOVOPTTMK8IR17K","","null","<img src=""img/flower3.png"" style=""width:200px; border:14px solid green;"">","null","","","","","","","","",""
"","image-keyboard-response","98","55081","0.0-98.0","30X31N5D64C7GDZ5ZJKVO47777AASR","AHV4U78TUUDKI","3566S7OX5D5NH74JOVOPTTMK8IR17K","","10","img/flower3.png","74","10.600000023841858","1","1","2","2","1,0,0,1,1,0,1,0,1","1,0,0,1,1,0,1,0,1","1",""
"","html-keyboard-response","99","55382","0.0-99.0","30X31N5D64C7GDZ5ZJKVO47777AASR","AHV4U78TUUDKI","3566S7OX5D5NH74JOVOPTTMK8IR17K","","null","<img src=""img/flower3.png"" style=""width:200px; border:14px solid green;"">","null","","","","","","","","",""
"","image-keyboard-response","100","55625","0.0-100.0","30X31N5D64C7GDZ5ZJKVO47777AASR","AHV4U78TUUDKI","3566S7OX5D5NH74JOVOPTTMK8IR17K","","242.30000001192093","img/flower6.png","74","242.69999998807907","1","1","1","2","1,0,0,1,1,0,1,0,1","1,0,0,1,1,0,1,0,1","1",""
"","html-keyboard-response","101","55927","0.0-101.0","30X31N5D64C7GDZ5ZJKVO47777AASR","AHV4U78TUUDKI","3566S7OX5D5NH74JOVOPTTMK8IR17K","","null","<img src=""img/flower6.png"" style=""width:200px; border:14px solid green;"">","null","","","","","","","","",""
"","image-keyboard-response","102","56121","0.0-102.0","30X31N5D64C7GDZ5ZJKVO47777AASR","AHV4U78TUUDKI","3566S7OX5D5NH74JOVOPTTMK8IR17K","","193.69999998807907","img/flower6.png","74","194.09999999403954","1","1","1","2","1,0,0,1,1,0,1,0,1","1,0,0,1,1,0,1,0,1","1",""
"","html-keyboard-response","103","56422","0.0-103.0","30X31N5D64C7GDZ5ZJKVO47777AASR","AHV4U78TUUDKI","3566S7OX5D5NH74JOVOPTTMK8IR17K","","null","<img src=""img/flower6.png"" style=""width:200px; border:14px solid green;"">","null","","","","","","","","",""
"","image-keyboard-response","104","56601","0.0-104.0","30X31N5D64C7GDZ5ZJKVO47777AASR","AHV4U78TUUDKI","3566S7OX5D5NH74JOVOPTTMK8IR17K","","178.19999998807907","img/flower6.png","74","178.59999999403954","1","1","1","2","1,0,0,1,1,0,1,0,1","1,0,0,1,1,0,1,0,1","1",""
"","html-keyboard-response","105","56903","0.0-105.0","30X31N5D64C7GDZ5ZJKVO47777AASR","AHV4U78TUUDKI","3566S7OX5D5NH74JOVOPTTMK8IR17K","","null","<img src=""img/flower6.png"" style=""width:200px; border:14px solid green;"">","null","","","","","","","","",""
"","image-keyboard-response","106","56929","0.0-106.0","30X31N5D64C7GDZ5ZJKVO47777AASR","AHV4U78TUUDKI","3566S7OX5D5NH74JOVOPTTMK8IR17K","","25.30000001192093","img/flower6.png","74","25.799999982118607","1","1","1","2","1,0,0,1,1,0,1,0,1","1,0,0,1,1,0,1,0,1","1",""
"","html-keyboard-response","107","57231","0.0-107.0","30X31N5D64C7GDZ5ZJKVO47777AASR","AHV4U78TUUDKI","3566S7OX5D5NH74JOVOPTTMK8IR17K","","null","<img src=""img/flower6.png"" style=""width:200px; border:14px solid green;"">","null","","","","","","","","",""
"","image-keyboard-response","108","57265","0.0-108.0","30X31N5D64C7GDZ5ZJKVO47777AASR","AHV4U78TUUDKI","3566S7OX5D5NH74JOVOPTTMK8IR17K","","33.79999998211861","img/flower4.png","74","34.099999994039536","1","1","3","2","1,0,0,1,1,0,1,0,1","1,0,0,1,1,0,1,0,1","1",""
"","html-keyboard-response","109","57566","0.0-109.0","30X31N5D64C7GDZ5ZJKVO47777AASR","AHV4U78TUUDKI","3566S7OX5D5NH74JOVOPTTMK8IR17K","","null","<img src=""img/flower4.png"" style=""width:200px; border:14px solid green;"">","null","","","","","","","","",""
"","image-keyboard-response","110","57889","0.0-110.0","30X31N5D64C7GDZ5ZJKVO47777AASR","AHV4U78TUUDKI","3566S7OX5D5NH74JOVOPTTMK8IR17K","","322.2999999821186","img/flower3.png","74","322.5","1","1","2","2","1,0,0,1,1,0,1,0,1","1,0,0,1,1,0,1,0,1","1",""
"","html-keyboard-response","111","58190","0.0-111.0","30X31N5D64C7GDZ5ZJKVO47777AASR","AHV4U78TUUDKI","3566S7OX5D5NH74JOVOPTTMK8IR17K","","null","<img src=""img/flower3.png"" style=""width:200px; border:14px solid green;"">","null","","","","","","","","",""
"","image-keyboard-response","112","58257","0.0-112.0","30X31N5D64C7GDZ5ZJKVO47777AASR","AHV4U78TUUDKI","3566S7OX5D5NH74JOVOPTTMK8IR17K","","66.5","img/flower4.png","74","66.89999997615814","1","1","3","2","1,0,0,1,1,0,1,0,1","1,0,0,1,1,0,1,0,1","1",""
"","html-keyboard-response","113","58558","0.0-113.0","30X31N5D64C7GDZ5ZJKVO47777AASR","AHV4U78TUUDKI","3566S7OX5D5NH74JOVOPTTMK8IR17K","","null","<img src=""img/flower4.png"" style=""width:200px; border:14px solid green;"">","null","","","","","","","","",""
"","image-keyboard-response","114","58737","0.0-114.0","30X31N5D64C7GDZ5ZJKVO47777AASR","AHV4U78TUUDKI","3566S7OX5D5NH74JOVOPTTMK8IR17K","","177.90000000596046","img/flower4.png","74","178.2999999821186","1","1","3","2","1,0,0,1,1,0,1,0,1","1,0,0,1,1,0,1,0,1","1",""
"","html-keyboard-response","115","59039","0.0-115.0","30X31N5D64C7GDZ5ZJKVO47777AASR","AHV4U78TUUDKI","3566S7OX5D5NH74JOVOPTTMK8IR17K","","null","<img src=""img/flower4.png"" style=""width:200px; border:14px solid green;"">","null","","","","","","","","",""
"","image-keyboard-response","116","59201","0.0-116.0","30X31N5D64C7GDZ5ZJKVO47777AASR","AHV4U78TUUDKI","3566S7OX5D5NH74JOVOPTTMK8IR17K","","161.40000000596046","img/flower3.png","74","161.69999998807907","1","1","2","2","1,0,0,1,1,0,1,0,1","1,0,0,1,1,0,1,0,1","1",""
"","html-keyboard-response","117","59503","0.0-117.0","30X31N5D64C7GDZ5ZJKVO47777AASR","AHV4U78TUUDKI","3566S7OX5D5NH74JOVOPTTMK8IR17K","","null","<img src=""img/flower3.png"" style=""width:200px; border:14px solid green;"">","null","","","","","","","","",""
"","image-keyboard-response","118","59697","0.0-118.0","30X31N5D64C7GDZ5ZJKVO47777AASR","AHV4U78TUUDKI","3566S7OX5D5NH74JOVOPTTMK8IR17K","","193.59999999403954","img/flower4.png","74","194","1","1","3","2","1,0,0,1,1,0,1,0,1","1,0,0,1,1,0,1,0,1","1",""
"","html-keyboard-response","119","59997","0.0-119.0","30X31N5D64C7GDZ5ZJKVO47777AASR","AHV4U78TUUDKI","3566S7OX5D5NH74JOVOPTTMK8IR17K","","null","<img src=""img/flower4.png"" style=""width:200px; border:14px solid green;"">","null","","","","","","","","",""
"","image-keyboard-response","120","60225","0.0-120.0","30X31N5D64C7GDZ5ZJKVO47777AASR","AHV4U78TUUDKI","3566S7OX5D5NH74JOVOPTTMK8IR17K","","226.80000001192093","img/flower4.png","74","227.09999999403954","1","1","3","2","1,0,0,1,1,0,1,0,1","1,0,0,1,1,0,1,0,1","1",""
"","html-keyboard-response","121","60526","0.0-121.0","30X31N5D64C7GDZ5ZJKVO47777AASR","AHV4U78TUUDKI","3566S7OX5D5NH74JOVOPTTMK8IR17K","","null","<img src=""img/flower4.png"" style=""width:200px; border:14px solid green;"">","null","","","","","","","","",""
"","image-keyboard-response","122","60769","0.0-122.0","30X31N5D64C7GDZ5ZJKVO47777AASR","AHV4U78TUUDKI","3566S7OX5D5NH74JOVOPTTMK8IR17K","","242.09999999403954","img/flower6.png","74","242.5","1","1","1","2","1,0,0,1,1,0,1,0,1","1,0,0,1,1,0,1,0,1","1",""
"","html-keyboard-response","123","61070","0.0-123.0","30X31N5D64C7GDZ5ZJKVO47777AASR","AHV4U78TUUDKI","3566S7OX5D5NH74JOVOPTTMK8IR17K","","null","<img src=""img/flower6.png"" style=""width:200px; border:14px solid green;"">","null","","","","","","","","",""
"","image-keyboard-response","124","61321","0.0-124.0","30X31N5D64C7GDZ5ZJKVO47777AASR","AHV4U78TUUDKI","3566S7OX5D5NH74JOVOPTTMK8IR17K","","250","img/flower6.png","74","250.2999999821186","1","1","1","2","1,0,0,1,1,0,1,0,1","1,0,0,1,1,0,1,0,1","1",""
"","html-keyboard-response","125","61623","0.0-125.0","30X31N5D64C7GDZ5ZJKVO47777AASR","AHV4U78TUUDKI","3566S7OX5D5NH74JOVOPTTMK8IR17K","","null","<img src=""img/flower6.png"" style=""width:200px; border:14px solid green;"">","null","","","","","","","","",""
"","image-keyboard-response","126","61833","0.0-126.0","30X31N5D64C7GDZ5ZJKVO47777AASR","AHV4U78TUUDKI","3566S7OX5D5NH74JOVOPTTMK8IR17K","","209.5","img/flower6.png","74","209.7999999821186","1","1","1","2","1,0,0,1,1,0,1,0,1","1,0,0,1,1,0,1,0,1","1",""
"","html-keyboard-response","127","62135","0.0-127.0","30X31N5D64C7GDZ5ZJKVO47777AASR","AHV4U78TUUDKI","3566S7OX5D5NH74JOVOPTTMK8IR17K","","null","<img src=""img/flower6.png"" style=""width:200px; border:14px solid green;"">","null","","","","","","","","",""
"","image-keyboard-response","128","62337","0.0-128.0","30X31N5D64C7GDZ5ZJKVO47777AASR","AHV4U78TUUDKI","3566S7OX5D5NH74JOVOPTTMK8IR17K","","201.69999998807907","img/flower4.png","74","202.19999998807907","1","1","3","2","1,0,0,1,1,0,1,0,1","1,0,0,1,1,0,1,0,1","1",""
"","html-keyboard-response","129","62639","0.0-129.0","30X31N5D64C7GDZ5ZJKVO47777AASR","AHV4U78TUUDKI","3566S7OX5D5NH74JOVOPTTMK8IR17K","","null","<img src=""img/flower4.png"" style=""width:200px; border:14px solid green;"">","null","","","","","","","","",""
"","image-keyboard-response","130","62833","0.0-130.0","30X31N5D64C7GDZ5ZJKVO47777AASR","AHV4U78TUUDKI","3566S7OX5D5NH74JOVOPTTMK8IR17K","","193.69999998807907","img/flower3.png","74","194","1","1","2","2","1,0,0,1,1,0,1,0,1","1,0,0,1,1,0,1,0,1","1",""
"","html-keyboard-response","131","63134","0.0-131.0","30X31N5D64C7GDZ5ZJKVO47777AASR","AHV4U78TUUDKI","3566S7OX5D5NH74JOVOPTTMK8IR17K","","null","<img src=""img/flower3.png"" style=""width:200px; border:14px solid green;"">","null","","","","","","","","",""
"","image-keyboard-response","132","63313","0.0-132.0","30X31N5D64C7GDZ5ZJKVO47777AASR","AHV4U78TUUDKI","3566S7OX5D5NH74JOVOPTTMK8IR17K","","177.90000000596046","img/flower6.png","74","178.2999999821186","1","1","1","2","1,0,0,1,1,0,1,0,1","1,0,0,1,1,0,1,0,1","1",""
"","html-keyboard-response","133","63614","0.0-133.0","30X31N5D64C7GDZ5ZJKVO47777AASR","AHV4U78TUUDKI","3566S7OX5D5NH74JOVOPTTMK8IR17K","","null","<img src=""img/flower6.png"" style=""width:200px; border:14px solid green;"">","null","","","","","","","","",""
"","image-keyboard-response","134","63833","0.0-134.0","30X31N5D64C7GDZ5ZJKVO47777AASR","AHV4U78TUUDKI","3566S7OX5D5NH74JOVOPTTMK8IR17K","","218.09999999403954","img/flower4.png","74","218.5","1","1","3","2","1,0,0,1,1,0,1,0,1","1,0,0,1,1,0,1,0,1","1",""
"","html-keyboard-response","135","64135","0.0-135.0","30X31N5D64C7GDZ5ZJKVO47777AASR","AHV4U78TUUDKI","3566S7OX5D5NH74JOVOPTTMK8IR17K","","null","<img src=""img/flower4.png"" style=""width:200px; border:14px solid green;"">","null","","","","","","","","",""
"","image-keyboard-response","136","64241","0.0-136.0","30X31N5D64C7GDZ5ZJKVO47777AASR","AHV4U78TUUDKI","3566S7OX5D5NH74JOVOPTTMK8IR17K","","105.5","img/flower4.png","74","105.90000000596046","1","1","3","2","1,0,0,1,1,0,1,0,1","1,0,0,1,1,0,1,0,1","1",""
"","html-keyboard-response","137","64542","0.0-137.0","30X31N5D64C7GDZ5ZJKVO47777AASR","AHV4U78TUUDKI","3566S7OX5D5NH74JOVOPTTMK8IR17K","","null","<img src=""img/flower4.png"" style=""width:200px; border:14px solid green;"">","null","","","","","","","","",""
"","image-keyboard-response","138","64737","0.0-138.0","30X31N5D64C7GDZ5ZJKVO47777AASR","AHV4U78TUUDKI","3566S7OX5D5NH74JOVOPTTMK8IR17K","","194.09999999403954","img/flower6.png","74","194.5","1","1","1","2","1,0,0,1,1,0,1,0,1","1,0,0,1,1,0,1,0,1","1",""
"","html-keyboard-response","139","65039","0.0-139.0","30X31N5D64C7GDZ5ZJKVO47777AASR","AHV4U78TUUDKI","3566S7OX5D5NH74JOVOPTTMK8IR17K","","null","<img src=""img/flower6.png"" style=""width:200px; border:14px solid green;"">","null","","","","","","","","",""
"","image-keyboard-response","140","65241","0.0-140.0","30X31N5D64C7GDZ5ZJKVO47777AASR","AHV4U78TUUDKI","3566S7OX5D5NH74JOVOPTTMK8IR17K","","201.59999999403954","img/flower6.png","74","202","1","1","1","2","1,0,0,1,1,0,1,0,1","1,0,0,1,1,0,1,0,1","1",""
"","html-keyboard-response","141","65542","0.0-141.0","30X31N5D64C7GDZ5ZJKVO47777AASR","AHV4U78TUUDKI","3566S7OX5D5NH74JOVOPTTMK8IR17K","","null","<img src=""img/flower6.png"" style=""width:200px; border:14px solid green;"">","null","","","","","","","","",""
"","image-keyboard-response","142","65705","0.0-142.0","30X31N5D64C7GDZ5ZJKVO47777AASR","AHV4U78TUUDKI","3566S7OX5D5NH74JOVOPTTMK8IR17K","","161.40000000596046","img/flower4.png","74","161.7999999821186","1","1","3","2","1,0,0,1,1,0,1,0,1","1,0,0,1,1,0,1,0,1","1",""
"","html-keyboard-response","143","66007","0.0-143.0","30X31N5D64C7GDZ5ZJKVO47777AASR","AHV4U78TUUDKI","3566S7OX5D5NH74JOVOPTTMK8IR17K","","null","<img src=""img/flower4.png"" style=""width:200px; border:14px solid green;"">","null","","","","","","","","",""
"","image-keyboard-response","144","66017","0.0-144.0","30X31N5D64C7GDZ5ZJKVO47777AASR","AHV4U78TUUDKI","3566S7OX5D5NH74JOVOPTTMK8IR17K","","9.300000011920929","img/flower4.png","74","9.799999982118607","1","1","3","2","1,0,0,1,1,0,1,0,1","1,0,0,1,1,0,1,0,1","1",""
"","html-keyboard-response","145","66318","0.0-145.0","30X31N5D64C7GDZ5ZJKVO47777AASR","AHV4U78TUUDKI","3566S7OX5D5NH74JOVOPTTMK8IR17K","","null","<img src=""img/flower4.png"" style=""width:200px; border:14px solid green;"">","null","","","","","","","","",""
"","image-keyboard-response","146","66481","0.0-146.0","30X31N5D64C7GDZ5ZJKVO47777AASR","AHV4U78TUUDKI","3566S7OX5D5NH74JOVOPTTMK8IR17K","","161.69999998807907","img/flower4.png","74","162.09999999403954","1","1","3","2","1,0,0,1,1,0,1,0,1","1,0,0,1,1,0,1,0,1","1",""
"","html-keyboard-response","147","66783","0.0-147.0","30X31N5D64C7GDZ5ZJKVO47777AASR","AHV4U78TUUDKI","3566S7OX5D5NH74JOVOPTTMK8IR17K","","null","<img src=""img/flower4.png"" style=""width:200px; border:14px solid green;"">","null","","","","","","","","",""
"","image-keyboard-response","148","67017","0.0-148.0","30X31N5D64C7GDZ5ZJKVO47777AASR","AHV4U78TUUDKI","3566S7OX5D5NH74JOVOPTTMK8IR17K","","233.59999999403954","img/flower6.png","74","234","1","1","1","2","1,0,0,1,1,0,1,0,1","1,0,0,1,1,0,1,0,1","1",""
"","html-keyboard-response","149","67318","0.0-149.0","30X31N5D64C7GDZ5ZJKVO47777AASR","AHV4U78TUUDKI","3566S7OX5D5NH74JOVOPTTMK8IR17K","","null","<img src=""img/flower6.png"" style=""width:200px; border:14px solid green;"">","null","","","","","","","","",""
"","image-keyboard-response","150","67528","0.0-150.0","30X31N5D64C7GDZ5ZJKVO47777AASR","AHV4U78TUUDKI","3566S7OX5D5NH74JOVOPTTMK8IR17K","","210.40000000596046","img/flower3.png","74","210.69999998807907","1","1","2","2","1,0,0,1,1,0,1,0,1","1,0,0,1,1,0,1,0,1","1",""
"","html-keyboard-response","151","67830","0.0-151.0","30X31N5D64C7GDZ5ZJKVO47777AASR","AHV4U78TUUDKI","3566S7OX5D5NH74JOVOPTTMK8IR17K","","null","<img src=""img/flower3.png"" style=""width:200px; border:14px solid green;"">","null","","","","","","","","",""
"","image-keyboard-response","152","68048","0.0-152.0","30X31N5D64C7GDZ5ZJKVO47777AASR","AHV4U78TUUDKI","3566S7OX5D5NH74JOVOPTTMK8IR17K","","217.59999999403954","img/flower4.png","74","218","1","1","3","2","1,0,0,1,1,0,1,0,1","1,0,0,1,1,0,1,0,1","1",""
"","html-keyboard-response","153","68351","0.0-153.0","30X31N5D64C7GDZ5ZJKVO47777AASR","AHV4U78TUUDKI","3566S7OX5D5NH74JOVOPTTMK8IR17K","","null","<img src=""img/flower4.png"" style=""width:200px; border:14px solid green;"">","null","","","","","","","","",""
"","image-keyboard-response","154","68601","0.0-154.0","30X31N5D64C7GDZ5ZJKVO47777AASR","AHV4U78TUUDKI","3566S7OX5D5NH74JOVOPTTMK8IR17K","","249.40000000596046","img/flower6.png","74","249.69999998807907","1","1","1","2","1,0,0,1,1,0,1,0,1","1,0,0,1,1,0,1,0,1","1",""
"","html-keyboard-response","155","68902","0.0-155.0","30X31N5D64C7GDZ5ZJKVO47777AASR","AHV4U78TUUDKI","3566S7OX5D5NH74JOVOPTTMK8IR17K","","null","<img src=""img/flower6.png"" style=""width:200px; border:14px solid green;"">","null","","","","","","","","",""
"","image-keyboard-response","156","69169","0.0-156.0","30X31N5D64C7GDZ5ZJKVO47777AASR","AHV4U78TUUDKI","3566S7OX5D5NH74JOVOPTTMK8IR17K","","266","img/flower6.png","74","266.40000000596046","1","1","1","2","1,0,0,1,1,0,1,0,1","1,0,0,1,1,0,1,0,1","1",""
"","html-keyboard-response","157","69470","0.0-157.0","30X31N5D64C7GDZ5ZJKVO47777AASR","AHV4U78TUUDKI","3566S7OX5D5NH74JOVOPTTMK8IR17K","","null","<img src=""img/flower6.png"" style=""width:200px; border:14px solid green;"">","null","","","","","","","","",""
"","image-keyboard-response","158","69721","0.0-158.0","30X31N5D64C7GDZ5ZJKVO47777AASR","AHV4U78TUUDKI","3566S7OX5D5NH74JOVOPTTMK8IR17K","","249.90000000596046","img/flower4.png","74","250.2999999821186","1","1","3","2","1,0,0,1,1,0,1,0,1","1,0,0,1,1,0,1,0,1","1",""
"","html-keyboard-response","159","70021","0.0-159.0","30X31N5D64C7GDZ5ZJKVO47777AASR","AHV4U78TUUDKI","3566S7OX5D5NH74JOVOPTTMK8IR17K","","null","<img src=""img/flower4.png"" style=""width:200px; border:14px solid green;"">","null","","","","","","","","",""
"","image-keyboard-response","160","70241","0.0-160.0","30X31N5D64C7GDZ5ZJKVO47777AASR","AHV4U78TUUDKI","3566S7OX5D5NH74JOVOPTTMK8IR17K","","218.59999999403954","img/flower3.png","74","219","1","1","2","2","1,0,0,1,1,0,1,0,1","1,0,0,1,1,0,1,0,1","1",""
"","html-keyboard-response","161","70541","0.0-161.0","30X31N5D64C7GDZ5ZJKVO47777AASR","AHV4U78TUUDKI","3566S7OX5D5NH74JOVOPTTMK8IR17K","","null","<img src=""img/flower3.png"" style=""width:200px; border:14px solid green;"">","null","","","","","","","","",""
"","image-keyboard-response","162","70761","0.0-162.0","30X31N5D64C7GDZ5ZJKVO47777AASR","AHV4U78TUUDKI","3566S7OX5D5NH74JOVOPTTMK8IR17K","","219.09999999403954","img/flower6.png","74","219.39999997615814","1","1","1","2","1,0,0,1,1,0,1,0,1","1,0,0,1,1,0,1,0,1","1",""
"","html-keyboard-response","163","71063","0.0-163.0","30X31N5D64C7GDZ5ZJKVO47777AASR","AHV4U78TUUDKI","3566S7OX5D5NH74JOVOPTTMK8IR17K","","null","<img src=""img/flower6.png"" style=""width:200px; border:14px solid green;"">","null","","","","","","","","",""
"","image-keyboard-response","164","71337","0.0-164.0","30X31N5D64C7GDZ5ZJKVO47777AASR","AHV4U78TUUDKI","3566S7OX5D5NH74JOVOPTTMK8IR17K","","273.19999998807907","img/flower4.png","74","273.59999999403954","1","1","3","2","1,0,0,1,1,0,1,0,1","1,0,0,1,1,0,1,0,1","1",""
"","html-keyboard-response","165","71638","0.0-165.0","30X31N5D64C7GDZ5ZJKVO47777AASR","AHV4U78TUUDKI","3566S7OX5D5NH74JOVOPTTMK8IR17K","","null","<img src=""img/flower4.png"" style=""width:200px; border:14px solid green;"">","null","","","","","","","","",""
"","image-keyboard-response","166","71816","0.0-166.0","30X31N5D64C7GDZ5ZJKVO47777AASR","AHV4U78TUUDKI","3566S7OX5D5NH74JOVOPTTMK8IR17K","","178","img/flower4.png","74","178.2999999821186","1","1","3","2","1,0,0,1,1,0,1,0,1","1,0,0,1,1,0,1,0,1","1",""
"","html-keyboard-response","167","72118","0.0-167.0","30X31N5D64C7GDZ5ZJKVO47777AASR","AHV4U78TUUDKI","3566S7OX5D5NH74JOVOPTTMK8IR17K","","null","<img src=""img/flower4.png"" style=""width:200px; border:14px solid green;"">","null","","","","","","","","",""
"","image-keyboard-response","168","72280","0.0-168.0","30X31N5D64C7GDZ5ZJKVO47777AASR","AHV4U78TUUDKI","3566S7OX5D5NH74JOVOPTTMK8IR17K","","162.30000001192093","img/flower3.png","74","162.69999998807907","1","1","2","2","1,0,0,1,1,0,1,0,1","1,0,0,1,1,0,1,0,1","1",""
"","html-keyboard-response","169","72582","0.0-169.0","30X31N5D64C7GDZ5ZJKVO47777AASR","AHV4U78TUUDKI","3566S7OX5D5NH74JOVOPTTMK8IR17K","","null","<img src=""img/flower3.png"" style=""width:200px; border:14px solid green;"">","null","","","","","","","","",""
"","image-keyboard-response","170","72729","0.0-170.0","30X31N5D64C7GDZ5ZJKVO47777AASR","AHV4U78TUUDKI","3566S7OX5D5NH74JOVOPTTMK8IR17K","","146.09999999403954","img/flower6.png","74","146.59999999403954","1","1","1","2","1,0,0,1,1,0,1,0,1","1,0,0,1,1,0,1,0,1","1",""
"","html-keyboard-response","171","73030","0.0-171.0","30X31N5D64C7GDZ5ZJKVO47777AASR","AHV4U78TUUDKI","3566S7OX5D5NH74JOVOPTTMK8IR17K","","null","<img src=""img/flower6.png"" style=""width:200px; border:14px solid green;"">","null","","","","","","","","",""
"","image-keyboard-response","172","73225","0.0-172.0","30X31N5D64C7GDZ5ZJKVO47777AASR","AHV4U78TUUDKI","3566S7OX5D5NH74JOVOPTTMK8IR17K","","194.5","img/flower3.png","74","195","1","1","2","2","1,0,0,1,1,0,1,0,1","1,0,0,1,1,0,1,0,1","1",""
"","html-keyboard-response","173","73526","0.0-173.0","30X31N5D64C7GDZ5ZJKVO47777AASR","AHV4U78TUUDKI","3566S7OX5D5NH74JOVOPTTMK8IR17K","","null","<img src=""img/flower3.png"" style=""width:200px; border:14px solid green;"">","null","","","","","","","","",""
"","image-keyboard-response","174","73673","0.0-174.0","30X31N5D64C7GDZ5ZJKVO47777AASR","AHV4U78TUUDKI","3566S7OX5D5NH74JOVOPTTMK8IR17K","","146.30000001192093","img/flower3.png","74","146.7999999821186","1","1","2","2","1,0,0,1,1,0,1,0,1","1,0,0,1,1,0,1,0,1","1",""
"","html-keyboard-response","175","73974","0.0-175.0","30X31N5D64C7GDZ5ZJKVO47777AASR","AHV4U78TUUDKI","3566S7OX5D5NH74JOVOPTTMK8IR17K","","null","<img src=""img/flower3.png"" style=""width:200px; border:14px solid green;"">","null","","","","","","","","",""
"","image-keyboard-response","176","74128","0.0-176.0","30X31N5D64C7GDZ5ZJKVO47777AASR","AHV4U78TUUDKI","3566S7OX5D5NH74JOVOPTTMK8IR17K","","154.09999999403954","img/flower6.png","74","154.5","1","1","1","2","1,0,0,1,1,0,1,0,1","1,0,0,1,1,0,1,0,1","1",""
"","html-keyboard-response","177","74430","0.0-177.0","30X31N5D64C7GDZ5ZJKVO47777AASR","AHV4U78TUUDKI","3566S7OX5D5NH74JOVOPTTMK8IR17K","","null","<img src=""img/flower6.png"" style=""width:200px; border:14px solid green;"">","null","","","","","","","","",""
"","image-keyboard-response","178","74680","0.0-178.0","30X31N5D64C7GDZ5ZJKVO47777AASR","AHV4U78TUUDKI","3566S7OX5D5NH74JOVOPTTMK8IR17K","","250.30000001192093","img/flower6.png","74","250.5","1","1","1","2","1,0,0,1,1,0,1,0,1","1,0,0,1,1,0,1,0,1","1",""
"","html-keyboard-response","179","74982","0.0-179.0","30X31N5D64C7GDZ5ZJKVO47777AASR","AHV4U78TUUDKI","3566S7OX5D5NH74JOVOPTTMK8IR17K","","null","<img src=""img/flower6.png"" style=""width:200px; border:14px solid green;"">","null","","","","","","","","",""
"","image-keyboard-response","180","74993","0.0-180.0","30X31N5D64C7GDZ5ZJKVO47777AASR","AHV4U78TUUDKI","3566S7OX5D5NH74JOVOPTTMK8IR17K","","9.5","img/flower6.png","74","10","1","1","1","2","1,0,0,1,1,0,1,0,1","1,0,0,1,1,0,1,0,1","1",""
"","html-keyboard-response","181","75294","0.0-181.0","30X31N5D64C7GDZ5ZJKVO47777AASR","AHV4U78TUUDKI","3566S7OX5D5NH74JOVOPTTMK8IR17K","","null","<img src=""img/flower6.png"" style=""width:200px; border:14px solid green;"">","null","","","","","","","","",""
"","image-keyboard-response","182","75456","0.0-182.0","30X31N5D64C7GDZ5ZJKVO47777AASR","AHV4U78TUUDKI","3566S7OX5D5NH74JOVOPTTMK8IR17K","","161.59999999403954","img/flower2.png","74","162","1","1","1","1","1,0.333,0.333,0.333,1,0.333,0.333,0.333,1","1,0.333,0.333,0.333,1,0.333,0.333,0.333,1","1",""
"","html-keyboard-response","183","75758","0.0-183.0","30X31N5D64C7GDZ5ZJKVO47777AASR","AHV4U78TUUDKI","3566S7OX5D5NH74JOVOPTTMK8IR17K","","null","<img src=""img/flower2.png"" style=""width:200px; border:14px solid green;"">","null","","","","","","","","",""
"","image-keyboard-response","184","75976","0.0-184.0","30X31N5D64C7GDZ5ZJKVO47777AASR","AHV4U78TUUDKI","3566S7OX5D5NH74JOVOPTTMK8IR17K","","217.90000000596046","img/flower1.png","74","218.2999999821186","1","1","2","1","1,0.333,0.333,0.333,1,0.333,0.333,0.333,1","1,0.333,0.333,0.333,1,0.333,0.333,0.333,1","1",""
"","html-keyboard-response","185","76278","0.0-185.0","30X31N5D64C7GDZ5ZJKVO47777AASR","AHV4U78TUUDKI","3566S7OX5D5NH74JOVOPTTMK8IR17K","","null","<img src=""img/flower1.png"" style=""width:200px; border:14px solid green;"">","null","","","","","","","","",""
"","image-keyboard-response","186","76560","0.0-186.0","30X31N5D64C7GDZ5ZJKVO47777AASR","AHV4U78TUUDKI","3566S7OX5D5NH74JOVOPTTMK8IR17K","","282.19999998807907","img/flower5.png","74","282.5","1","0","3","1","1,0.333,0.333,0.333,1,0.333,0.333,0.333,1","1,0.333,0.333,0.333,1,0.333,0.333,0.333,1","1",""
"","html-keyboard-response","187","76862","0.0-187.0","30X31N5D64C7GDZ5ZJKVO47777AASR","AHV4U78TUUDKI","3566S7OX5D5NH74JOVOPTTMK8IR17K","","null","<img src=""img/flower5.png"" style=""width:200px;border:14px solid red;"">","null","","","","","","","","",""
"","image-keyboard-response","188","77529","0.0-188.0","30X31N5D64C7GDZ5ZJKVO47777AASR","AHV4U78TUUDKI","3566S7OX5D5NH74JOVOPTTMK8IR17K","","666.2999999821186","img/flower5.png","74","666.5999999940395","1","1","3","1","1,0.333,0.333,0.333,1,0.333,0.333,0.333,1","1,0.333,0.333,0.333,1,0.333,0.333,0.333,1","1",""
"","html-keyboard-response","189","77830","0.0-189.0","30X31N5D64C7GDZ5ZJKVO47777AASR","AHV4U78TUUDKI","3566S7OX5D5NH74JOVOPTTMK8IR17K","","null","<img src=""img/flower5.png"" style=""width:200px; border:14px solid green;"">","null","","","","","","","","",""
"","image-keyboard-response","190","78336","0.0-190.0","30X31N5D64C7GDZ5ZJKVO47777AASR","AHV4U78TUUDKI","3566S7OX5D5NH74JOVOPTTMK8IR17K","","506.2000000178814","img/flower1.png","74","506.59999999403954","1","1","2","1","1,0.333,0.333,0.333,1,0.333,0.333,0.333,1","1,0.333,0.333,0.333,1,0.333,0.333,0.333,1","1",""
"","html-keyboard-response","191","78638","0.0-191.0","30X31N5D64C7GDZ5ZJKVO47777AASR","AHV4U78TUUDKI","3566S7OX5D5NH74JOVOPTTMK8IR17K","","null","<img src=""img/flower1.png"" style=""width:200px; border:14px solid green;"">","null","","","","","","","","",""
"","image-keyboard-response","192","78849","0.0-192.0","30X31N5D64C7GDZ5ZJKVO47777AASR","AHV4U78TUUDKI","3566S7OX5D5NH74JOVOPTTMK8IR17K","","210.5","img/flower5.png","75","210.90000000596046","2","0","3","1","1,0.333,0.333,0.333,1,0.333,0.333,0.333,1","1,0.333,0.333,0.333,1,0.333,0.333,0.333,1","1",""
"","html-keyboard-response","193","79150","0.0-193.0","30X31N5D64C7GDZ5ZJKVO47777AASR","AHV4U78TUUDKI","3566S7OX5D5NH74JOVOPTTMK8IR17K","","null","<img src=""img/flower5.png"" style=""width:200px;border:14px solid red;"">","null","","","","","","","","",""
"","image-keyboard-response","194","79761","0.0-194.0","30X31N5D64C7GDZ5ZJKVO47777AASR","AHV4U78TUUDKI","3566S7OX5D5NH74JOVOPTTMK8IR17K","","609.9000000059605","img/flower2.png","76","610.2999999821186","3","0","1","1","1,0.333,0.333,0.333,1,0.333,0.333,0.333,1","1,0.333,0.333,0.333,1,0.333,0.333,0.333,1","1",""
"","html-keyboard-response","195","80062","0.0-195.0","30X31N5D64C7GDZ5ZJKVO47777AASR","AHV4U78TUUDKI","3566S7OX5D5NH74JOVOPTTMK8IR17K","","null","<img src=""img/flower2.png"" style=""width:200px;border:14px solid red;"">","null","","","","","","","","",""
"","image-keyboard-response","196","80385","0.0-196.0","30X31N5D64C7GDZ5ZJKVO47777AASR","AHV4U78TUUDKI","3566S7OX5D5NH74JOVOPTTMK8IR17K","","321.90000000596046","img/flower5.png","75","322.2999999821186","2","1","3","1","1,0.333,0.333,0.333,1,0.333,0.333,0.333,1","1,0.333,0.333,0.333,1,0.333,0.333,0.333,1","1",""
"","html-keyboard-response","197","80687","0.0-197.0","30X31N5D64C7GDZ5ZJKVO47777AASR","AHV4U78TUUDKI","3566S7OX5D5NH74JOVOPTTMK8IR17K","","null","<img src=""img/flower5.png"" style=""width:200px; border:14px solid green;"">","null","","","","","","","","",""
"","image-keyboard-response","198","81081","0.0-198.0","30X31N5D64C7GDZ5ZJKVO47777AASR","AHV4U78TUUDKI","3566S7OX5D5NH74JOVOPTTMK8IR17K","","393.59999999403954","img/flower2.png","75","394","2","0","1","1","1,0.333,0.333,0.333,1,0.333,0.333,0.333,1","1,0.333,0.333,0.333,1,0.333,0.333,0.333,1","1",""
"","html-keyboard-response","199","81383","0.0-199.0","30X31N5D64C7GDZ5ZJKVO47777AASR","AHV4U78TUUDKI","3566S7OX5D5NH74JOVOPTTMK8IR17K","","null","<img src=""img/flower2.png"" style=""width:200px;border:14px solid red;"">","null","","","","","","","","",""
"","image-keyboard-response","200","81825","0.0-200.0","30X31N5D64C7GDZ5ZJKVO47777AASR","AHV4U78TUUDKI","3566S7OX5D5NH74JOVOPTTMK8IR17K","","441.2999999821186","img/flower5.png","74","441.7000000178814","1","1","3","1","1,0.333,0.333,0.333,1,0.333,0.333,0.333,1","1,0.333,0.333,0.333,1,0.333,0.333,0.333,1","1",""
"","html-keyboard-response","201","82126","0.0-201.0","30X31N5D64C7GDZ5ZJKVO47777AASR","AHV4U78TUUDKI","3566S7OX5D5NH74JOVOPTTMK8IR17K","","null","<img src=""img/flower5.png"" style=""width:200px; border:14px solid green;"">","null","","","","","","","","",""
"","image-keyboard-response","202","82313","0.0-202.0","30X31N5D64C7GDZ5ZJKVO47777AASR","AHV4U78TUUDKI","3566S7OX5D5NH74JOVOPTTMK8IR17K","","185.89999997615814","img/flower2.png","74","186.2000000178814","1","1","1","1","1,0.333,0.333,0.333,1,0.333,0.333,0.333,1","1,0.333,0.333,0.333,1,0.333,0.333,0.333,1","1",""
"","html-keyboard-response","203","82614","0.0-203.0","30X31N5D64C7GDZ5ZJKVO47777AASR","AHV4U78TUUDKI","3566S7OX5D5NH74JOVOPTTMK8IR17K","","null","<img src=""img/flower2.png"" style=""width:200px; border:14px solid green;"">","null","","","","","","","","",""
"","image-keyboard-response","204","82865","0.0-204.0","30X31N5D64C7GDZ5ZJKVO47777AASR","AHV4U78TUUDKI","3566S7OX5D5NH74JOVOPTTMK8IR17K","","249.80000001192093","img/flower1.png","74","250.19999998807907","1","1","2","1","1,0.333,0.333,0.333,1,0.333,0.333,0.333,1","1,0.333,0.333,0.333,1,0.333,0.333,0.333,1","1",""
"","html-keyboard-response","205","83165","0.0-205.0","30X31N5D64C7GDZ5ZJKVO47777AASR","AHV4U78TUUDKI","3566S7OX5D5NH74JOVOPTTMK8IR17K","","null","<img src=""img/flower1.png"" style=""width:200px; border:14px solid green;"">","null","","","","","","","","",""
"","image-keyboard-response","206","83376","0.0-206.0","30X31N5D64C7GDZ5ZJKVO47777AASR","AHV4U78TUUDKI","3566S7OX5D5NH74JOVOPTTMK8IR17K","","210.5","img/flower2.png","74","210.90000000596046","1","1","1","1","1,0.333,0.333,0.333,1,0.333,0.333,0.333,1","1,0.333,0.333,0.333,1,0.333,0.333,0.333,1","1",""
"","html-keyboard-response","207","83678","0.0-207.0","30X31N5D64C7GDZ5ZJKVO47777AASR","AHV4U78TUUDKI","3566S7OX5D5NH74JOVOPTTMK8IR17K","","null","<img src=""img/flower2.png"" style=""width:200px; border:14px solid green;"">","null","","","","","","","","",""
"","image-keyboard-response","208","83953","0.0-208.0","30X31N5D64C7GDZ5ZJKVO47777AASR","AHV4U78TUUDKI","3566S7OX5D5NH74JOVOPTTMK8IR17K","","273.90000000596046","img/flower1.png","74","274.2999999821186","1","0","2","1","1,0.333,0.333,0.333,1,0.333,0.333,0.333,1","1,0.333,0.333,0.333,1,0.333,0.333,0.333,1","1",""
"","html-keyboard-response","209","84253","0.0-209.0","30X31N5D64C7GDZ5ZJKVO47777AASR","AHV4U78TUUDKI","3566S7OX5D5NH74JOVOPTTMK8IR17K","","null","<img src=""img/flower1.png"" style=""width:200px;border:14px solid red;"">","null","","","","","","","","",""
"","image-keyboard-response","210","84401","0.0-210.0","30X31N5D64C7GDZ5ZJKVO47777AASR","AHV4U78TUUDKI","3566S7OX5D5NH74JOVOPTTMK8IR17K","","146.80000001192093","img/flower5.png","74","147.09999999403954","1","1","3","1","1,0.333,0.333,0.333,1,0.333,0.333,0.333,1","1,0.333,0.333,0.333,1,0.333,0.333,0.333,1","1",""
"","html-keyboard-response","211","84702","0.0-211.0","30X31N5D64C7GDZ5ZJKVO47777AASR","AHV4U78TUUDKI","3566S7OX5D5NH74JOVOPTTMK8IR17K","","null","<img src=""img/flower5.png"" style=""width:200px; border:14px solid green;"">","null","","","","","","","","",""
"","image-keyboard-response","212","85137","0.0-212.0","30X31N5D64C7GDZ5ZJKVO47777AASR","AHV4U78TUUDKI","3566S7OX5D5NH74JOVOPTTMK8IR17K","","434","img/flower2.png","74","434.5","1","1","1","1","1,0.333,0.333,0.333,1,0.333,0.333,0.333,1","1,0.333,0.333,0.333,1,0.333,0.333,0.333,1","1",""
"","html-keyboard-response","213","85438","0.0-213.0","30X31N5D64C7GDZ5ZJKVO47777AASR","AHV4U78TUUDKI","3566S7OX5D5NH74JOVOPTTMK8IR17K","","null","<img src=""img/flower2.png"" style=""width:200px; border:14px solid green;"">","null","","","","","","","","",""
"","image-keyboard-response","214","85785","0.0-214.0","30X31N5D64C7GDZ5ZJKVO47777AASR","AHV4U78TUUDKI","3566S7OX5D5NH74JOVOPTTMK8IR17K","","346.19999998807907","img/flower1.png","74","346.69999998807907","1","0","2","1","1,0.333,0.333,0.333,1,0.333,0.333,0.333,1","1,0.333,0.333,0.333,1,0.333,0.333,0.333,1","1",""
"","html-keyboard-response","215","86086","0.0-215.0","30X31N5D64C7GDZ5ZJKVO47777AASR","AHV4U78TUUDKI","3566S7OX5D5NH74JOVOPTTMK8IR17K","","null","<img src=""img/flower1.png"" style=""width:200px;border:14px solid red;"">","null","","","","","","","","",""
"","image-keyboard-response","216","86825","0.0-216.0","30X31N5D64C7GDZ5ZJKVO47777AASR","AHV4U78TUUDKI","3566S7OX5D5NH74JOVOPTTMK8IR17K","","738.0999999940395","img/flower1.png","76","738.5999999940395","3","1","2","1","1,0.333,0.333,0.333,1,0.333,0.333,0.333,1","1,0.333,0.333,0.333,1,0.333,0.333,0.333,1","1",""
"","html-keyboard-response","217","87126","0.0-217.0","30X31N5D64C7GDZ5ZJKVO47777AASR","AHV4U78TUUDKI","3566S7OX5D5NH74JOVOPTTMK8IR17K","","null","<img src=""img/flower1.png"" style=""width:200px; border:14px solid green;"">","null","","","","","","","","",""
"","image-keyboard-response","218","88097","0.0-218.0","30X31N5D64C7GDZ5ZJKVO47777AASR","AHV4U78TUUDKI","3566S7OX5D5NH74JOVOPTTMK8IR17K","","969.6999999880791","img/flower2.png","75","970.1999999880791","2","0","1","1","1,0.333,0.333,0.333,1,0.333,0.333,0.333,1","1,0.333,0.333,0.333,1,0.333,0.333,0.333,1","1",""
"","html-keyboard-response","219","88398","0.0-219.0","30X31N5D64C7GDZ5ZJKVO47777AASR","AHV4U78TUUDKI","3566S7OX5D5NH74JOVOPTTMK8IR17K","","null","<img src=""img/flower2.png"" style=""width:200px;border:14px solid red;"">","null","","","","","","","","",""
"","image-keyboard-response","220","88641","0.0-220.0","30X31N5D64C7GDZ5ZJKVO47777AASR","AHV4U78TUUDKI","3566S7OX5D5NH74JOVOPTTMK8IR17K","","241.80000001192093","img/flower1.png","74","242.59999999403954","1","0","2","1","1,0.333,0.333,0.333,1,0.333,0.333,0.333,1","1,0.333,0.333,0.333,1,0.333,0.333,0.333,1","1",""
"","html-keyboard-response","221","88943","0.0-221.0","30X31N5D64C7GDZ5ZJKVO47777AASR","AHV4U78TUUDKI","3566S7OX5D5NH74JOVOPTTMK8IR17K","","null","<img src=""img/flower1.png"" style=""width:200px;border:14px solid red;"">","null","","","","","","","","",""
"","image-keyboard-response","222","89441","0.0-222.0","30X31N5D64C7GDZ5ZJKVO47777AASR","AHV4U78TUUDKI","3566S7OX5D5NH74JOVOPTTMK8IR17K","","497.19999998807907","img/flower1.png","76","497.59999999403954","3","1","2","1","1,0.333,0.333,0.333,1,0.333,0.333,0.333,1","1,0.333,0.333,0.333,1,0.333,0.333,0.333,1","1",""
"","html-keyboard-response","223","89743","0.0-223.0","30X31N5D64C7GDZ5ZJKVO47777AASR","AHV4U78TUUDKI","3566S7OX5D5NH74JOVOPTTMK8IR17K","","null","<img src=""img/flower1.png"" style=""width:200px; border:14px solid green;"">","null","","","","","","","","",""
"","image-keyboard-response","224","90857","0.0-224.0","30X31N5D64C7GDZ5ZJKVO47777AASR","AHV4U78TUUDKI","3566S7OX5D5NH74JOVOPTTMK8IR17K","","1113.5","img/flower2.png","75","1113.8999999761581","2","0","1","1","1,0.333,0.333,0.333,1,0.333,0.333,0.333,1","1,0.333,0.333,0.333,1,0.333,0.333,0.333,1","1",""
"","html-keyboard-response","225","91158","0.0-225.0","30X31N5D64C7GDZ5ZJKVO47777AASR","AHV4U78TUUDKI","3566S7OX5D5NH74JOVOPTTMK8IR17K","","null","<img src=""img/flower2.png"" style=""width:200px;border:14px solid red;"">","null","","","","","","","","",""
"","image-keyboard-response","226","91320","0.0-226.0","30X31N5D64C7GDZ5ZJKVO47777AASR","AHV4U78TUUDKI","3566S7OX5D5NH74JOVOPTTMK8IR17K","","162","img/flower2.png","74","162.2999999821186","1","1","1","1","1,0.333,0.333,0.333,1,0.333,0.333,0.333,1","1,0.333,0.333,0.333,1,0.333,0.333,0.333,1","1",""
"","html-keyboard-response","227","91622","0.0-227.0","30X31N5D64C7GDZ5ZJKVO47777AASR","AHV4U78TUUDKI","3566S7OX5D5NH74JOVOPTTMK8IR17K","","null","<img src=""img/flower2.png"" style=""width:200px; border:14px solid green;"">","null","","","","","","","","",""
"","image-keyboard-response","228","92505","0.0-228.0","30X31N5D64C7GDZ5ZJKVO47777AASR","AHV4U78TUUDKI","3566S7OX5D5NH74JOVOPTTMK8IR17K","","882.6999999880791","img/flower1.png","76","883","3","0","2","1","1,0.333,0.333,0.333,1,0.333,0.333,0.333,1","1,0.333,0.333,0.333,1,0.333,0.333,0.333,1","1",""
"","html-keyboard-response","229","92807","0.0-229.0","30X31N5D64C7GDZ5ZJKVO47777AASR","AHV4U78TUUDKI","3566S7OX5D5NH74JOVOPTTMK8IR17K","","null","<img src=""img/flower1.png"" style=""width:200px;border:14px solid red;"">","null","","","","","","","","",""
"","image-keyboard-response","230","93897","0.0-230.0","30X31N5D64C7GDZ5ZJKVO47777AASR","AHV4U78TUUDKI","3566S7OX5D5NH74JOVOPTTMK8IR17K","","1088.9000000059605","img/flower5.png","75","1089.3999999761581","2","0","3","1","1,0.333,0.333,0.333,1,0.333,0.333,0.333,1","1,0.333,0.333,0.333,1,0.333,0.333,0.333,1","1",""
"","html-keyboard-response","231","94198","0.0-231.0","30X31N5D64C7GDZ5ZJKVO47777AASR","AHV4U78TUUDKI","3566S7OX5D5NH74JOVOPTTMK8IR17K","","null","<img src=""img/flower5.png"" style=""width:200px;border:14px solid red;"">","null","","","","","","","","",""
"","image-keyboard-response","232","94569","0.0-232.0","30X31N5D64C7GDZ5ZJKVO47777AASR","AHV4U78TUUDKI","3566S7OX5D5NH74JOVOPTTMK8IR17K","","370.5","img/flower5.png","74","371","1","1","3","1","1,0.333,0.333,0.333,1,0.333,0.333,0.333,1","1,0.333,0.333,0.333,1,0.333,0.333,0.333,1","1",""
"","html-keyboard-response","233","94878","0.0-233.0","30X31N5D64C7GDZ5ZJKVO47777AASR","AHV4U78TUUDKI","3566S7OX5D5NH74JOVOPTTMK8IR17K","","null","<img src=""img/flower5.png"" style=""width:200px; border:14px solid green;"">","null","","","","","","","","",""
"","image-keyboard-response","234","95465","0.0-234.0","30X31N5D64C7GDZ5ZJKVO47777AASR","AHV4U78TUUDKI","3566S7OX5D5NH74JOVOPTTMK8IR17K","","585.9000000059605","img/flower2.png","74","586.2999999821186","1","1","1","1","1,0.333,0.333,0.333,1,0.333,0.333,0.333,1","1,0.333,0.333,0.333,1,0.333,0.333,0.333,1","1",""
"","html-keyboard-response","235","95766","0.0-235.0","30X31N5D64C7GDZ5ZJKVO47777AASR","AHV4U78TUUDKI","3566S7OX5D5NH74JOVOPTTMK8IR17K","","null","<img src=""img/flower2.png"" style=""width:200px; border:14px solid green;"">","null","","","","","","","","",""
"","image-keyboard-response","236","96097","0.0-236.0","30X31N5D64C7GDZ5ZJKVO47777AASR","AHV4U78TUUDKI","3566S7OX5D5NH74JOVOPTTMK8IR17K","","329.80000001192093","img/flower1.png","74","330.19999998807907","1","1","2","1","1,0.333,0.333,0.333,1,0.333,0.333,0.333,1","1,0.333,0.333,0.333,1,0.333,0.333,0.333,1","1",""
"","html-keyboard-response","237","96398","0.0-237.0","30X31N5D64C7GDZ5ZJKVO47777AASR","AHV4U78TUUDKI","3566S7OX5D5NH74JOVOPTTMK8IR17K","","null","<img src=""img/flower1.png"" style=""width:200px; border:14px solid green;"">","null","","","","","","","","",""
"","image-keyboard-response","238","96657","0.0-238.0","30X31N5D64C7GDZ5ZJKVO47777AASR","AHV4U78TUUDKI","3566S7OX5D5NH74JOVOPTTMK8IR17K","","257.90000000596046","img/flower1.png","74","258.39999997615814","1","0","2","1","1,0.333,0.333,0.333,1,0.333,0.333,0.333,1","1,0.333,0.333,0.333,1,0.333,0.333,0.333,1","1",""
"","html-keyboard-response","239","96959","0.0-239.0","30X31N5D64C7GDZ5ZJKVO47777AASR","AHV4U78TUUDKI","3566S7OX5D5NH74JOVOPTTMK8IR17K","","null","<img src=""img/flower1.png"" style=""width:200px;border:14px solid red;"">","null","","","","","","","","",""
"","image-keyboard-response","240","97777","0.0-240.0","30X31N5D64C7GDZ5ZJKVO47777AASR","AHV4U78TUUDKI","3566S7OX5D5NH74JOVOPTTMK8IR17K","","817.3000000119209","img/flower5.png","75","817.6999999880791","2","1","3","1","1,0.333,0.333,0.333,1,0.333,0.333,0.333,1","1,0.333,0.333,0.333,1,0.333,0.333,0.333,1","1",""
"","html-keyboard-response","241","98078","0.0-241.0","30X31N5D64C7GDZ5ZJKVO47777AASR","AHV4U78TUUDKI","3566S7OX5D5NH74JOVOPTTMK8IR17K","","null","<img src=""img/flower5.png"" style=""width:200px; border:14px solid green;"">","null","","","","","","","","",""
"","image-keyboard-response","242","98376","0.0-242.0","30X31N5D64C7GDZ5ZJKVO47777AASR","AHV4U78TUUDKI","3566S7OX5D5NH74JOVOPTTMK8IR17K","","298.09999999403954","img/flower2.png","74","298.59999999403954","1","1","1","1","1,0.333,0.333,0.333,1,0.333,0.333,0.333,1","1,0.333,0.333,0.333,1,0.333,0.333,0.333,1","1",""
"","html-keyboard-response","243","98678","0.0-243.0","30X31N5D64C7GDZ5ZJKVO47777AASR","AHV4U78TUUDKI","3566S7OX5D5NH74JOVOPTTMK8IR17K","","null","<img src=""img/flower2.png"" style=""width:200px; border:14px solid green;"">","null","","","","","","","","",""
"","image-keyboard-response","244","99153","0.0-244.0","30X31N5D64C7GDZ5ZJKVO47777AASR","AHV4U78TUUDKI","3566S7OX5D5NH74JOVOPTTMK8IR17K","","474","img/flower2.png","74","474.39999997615814","1","1","1","1","1,0.333,0.333,0.333,1,0.333,0.333,0.333,1","1,0.333,0.333,0.333,1,0.333,0.333,0.333,1","1",""
"","html-keyboard-response","245","99455","0.0-245.0","30X31N5D64C7GDZ5ZJKVO47777AASR","AHV4U78TUUDKI","3566S7OX5D5NH74JOVOPTTMK8IR17K","","null","<img src=""img/flower2.png"" style=""width:200px; border:14px solid green;"">","null","","","","","","","","",""
"","image-keyboard-response","246","99552","0.0-246.0","30X31N5D64C7GDZ5ZJKVO47777AASR","AHV4U78TUUDKI","3566S7OX5D5NH74JOVOPTTMK8IR17K","","97.19999998807907","img/flower2.png","74","97.59999999403954","1","1","1","1","1,0.333,0.333,0.333,1,0.333,0.333,0.333,1","1,0.333,0.333,0.333,1,0.333,0.333,0.333,1","1",""
"","html-keyboard-response","247","99854","0.0-247.0","30X31N5D64C7GDZ5ZJKVO47777AASR","AHV4U78TUUDKI","3566S7OX5D5NH74JOVOPTTMK8IR17K","","null","<img src=""img/flower2.png"" style=""width:200px; border:14px solid green;"">","null","","","","","","","","",""
"","image-keyboard-response","248","100137","0.0-248.0","30X31N5D64C7GDZ5ZJKVO47777AASR","AHV4U78TUUDKI","3566S7OX5D5NH74JOVOPTTMK8IR17K","","282.19999998807907","img/flower2.png","74","282.69999998807907","1","1","1","1","1,0.333,0.333,0.333,1,0.333,0.333,0.333,1","1,0.333,0.333,0.333,1,0.333,0.333,0.333,1","1",""
"","html-keyboard-response","249","100438","0.0-249.0","30X31N5D64C7GDZ5ZJKVO47777AASR","AHV4U78TUUDKI","3566S7OX5D5NH74JOVOPTTMK8IR17K","","null","<img src=""img/flower2.png"" style=""width:200px; border:14px solid green;"">","null","","","","","","","","",""
"","image-keyboard-response","250","100496","0.0-250.0","30X31N5D64C7GDZ5ZJKVO47777AASR","AHV4U78TUUDKI","3566S7OX5D5NH74JOVOPTTMK8IR17K","","57.900000005960464","img/flower5.png","74","58.19999998807907","1","0","3","1","1,0.333,0.333,0.333,1,0.333,0.333,0.333,1","1,0.333,0.333,0.333,1,0.333,0.333,0.333,1","1",""
"","html-keyboard-response","251","100798","0.0-251.0","30X31N5D64C7GDZ5ZJKVO47777AASR","AHV4U78TUUDKI","3566S7OX5D5NH74JOVOPTTMK8IR17K","","null","<img src=""img/flower5.png"" style=""width:200px;border:14px solid red;"">","null","","","","","","","","",""
"","image-keyboard-response","252","101097","0.0-252.0","30X31N5D64C7GDZ5ZJKVO47777AASR","AHV4U78TUUDKI","3566S7OX5D5NH74JOVOPTTMK8IR17K","","298.30000001192093","img/flower1.png","75","298.7999999821186","2","1","2","1","1,0.333,0.333,0.333,1,0.333,0.333,0.333,1","1,0.333,0.333,0.333,1,0.333,0.333,0.333,1","1",""
"","html-keyboard-response","253","101398","0.0-253.0","30X31N5D64C7GDZ5ZJKVO47777AASR","AHV4U78TUUDKI","3566S7OX5D5NH74JOVOPTTMK8IR17K","","null","<img src=""img/flower1.png"" style=""width:200px; border:14px solid green;"">","null","","","","","","","","",""
"","image-keyboard-response","254","101528","0.0-254.0","30X31N5D64C7GDZ5ZJKVO47777AASR","AHV4U78TUUDKI","3566S7OX5D5NH74JOVOPTTMK8IR17K","","130.09999999403954","img/flower1.png","76","130.69999998807907","3","0","2","1","1,0.333,0.333,0.333,1,0.333,0.333,0.333,1","1,0.333,0.333,0.333,1,0.333,0.333,0.333,1","1",""
"","html-keyboard-response","255","101830","0.0-255.0","30X31N5D64C7GDZ5ZJKVO47777AASR","AHV4U78TUUDKI","3566S7OX5D5NH74JOVOPTTMK8IR17K","","null","<img src=""img/flower1.png"" style=""width:200px;border:14px solid red;"">","null","","","","","","","","",""
"","image-keyboard-response","256","101993","0.0-256.0","30X31N5D64C7GDZ5ZJKVO47777AASR","AHV4U78TUUDKI","3566S7OX5D5NH74JOVOPTTMK8IR17K","","162.09999999403954","img/flower2.png","75","162.40000000596046","2","0","1","1","1,0.333,0.333,0.333,1,0.333,0.333,0.333,1","1,0.333,0.333,0.333,1,0.333,0.333,0.333,1","1",""
"","html-keyboard-response","257","102293","0.0-257.0","30X31N5D64C7GDZ5ZJKVO47777AASR","AHV4U78TUUDKI","3566S7OX5D5NH74JOVOPTTMK8IR17K","","null","<img src=""img/flower2.png"" style=""width:200px;border:14px solid red;"">","null","","","","","","","","",""
"","image-keyboard-response","258","102601","0.0-258.0","30X31N5D64C7GDZ5ZJKVO47777AASR","AHV4U78TUUDKI","3566S7OX5D5NH74JOVOPTTMK8IR17K","","306.69999998807907","img/flower2.png","74","307.2000000178814","1","1","1","1","1,0.333,0.333,0.333,1,0.333,0.333,0.333,1","1,0.333,0.333,0.333,1,0.333,0.333,0.333,1","1",""
"","html-keyboard-response","259","102902","0.0-259.0","30X31N5D64C7GDZ5ZJKVO47777AASR","AHV4U78TUUDKI","3566S7OX5D5NH74JOVOPTTMK8IR17K","","null","<img src=""img/flower2.png"" style=""width:200px; border:14px solid green;"">","null","","","","","","","","",""
"","image-keyboard-response","260","103113","0.0-260.0","30X31N5D64C7GDZ5ZJKVO47777AASR","AHV4U78TUUDKI","3566S7OX5D5NH74JOVOPTTMK8IR17K","","209.90000000596046","img/flower1.png","74","210.39999997615814","1","0","2","1","1,0.333,0.333,0.333,1,0.333,0.333,0.333,1","1,0.333,0.333,0.333,1,0.333,0.333,0.333,1","1",""
"","html-keyboard-response","261","103414","0.0-261.0","30X31N5D64C7GDZ5ZJKVO47777AASR","AHV4U78TUUDKI","3566S7OX5D5NH74JOVOPTTMK8IR17K","","null","<img src=""img/flower1.png"" style=""width:200px;border:14px solid red;"">","null","","","","","","","","",""
"","image-keyboard-response","262","103809","0.0-262.0","30X31N5D64C7GDZ5ZJKVO47777AASR","AHV4U78TUUDKI","3566S7OX5D5NH74JOVOPTTMK8IR17K","","394.19999998807907","img/flower5.png","75","394.59999999403954","2","0","3","1","1,0.333,0.333,0.333,1,0.333,0.333,0.333,1","1,0.333,0.333,0.333,1,0.333,0.333,0.333,1","1",""
"","html-keyboard-response","263","104110","0.0-263.0","30X31N5D64C7GDZ5ZJKVO47777AASR","AHV4U78TUUDKI","3566S7OX5D5NH74JOVOPTTMK8IR17K","","null","<img src=""img/flower5.png"" style=""width:200px;border:14px solid red;"">","null","","","","","","","","",""
"","image-keyboard-response","264","104232","0.0-264.0","30X31N5D64C7GDZ5ZJKVO47777AASR","AHV4U78TUUDKI","3566S7OX5D5NH74JOVOPTTMK8IR17K","","121.80000001192093","img/flower1.png","74","122.19999998807907","1","1","2","1","1,0.333,0.333,0.333,1,0.333,0.333,0.333,1","1,0.333,0.333,0.333,1,0.333,0.333,0.333,1","1",""
"","html-keyboard-response","265","104535","0.0-265.0","30X31N5D64C7GDZ5ZJKVO47777AASR","AHV4U78TUUDKI","3566S7OX5D5NH74JOVOPTTMK8IR17K","","null","<img src=""img/flower1.png"" style=""width:200px; border:14px solid green;"">","null","","","","","","","","",""
"","image-keyboard-response","266","104953","0.0-266.0","30X31N5D64C7GDZ5ZJKVO47777AASR","AHV4U78TUUDKI","3566S7OX5D5NH74JOVOPTTMK8IR17K","","417.59999999403954","img/flower5.png","75","418","2","0","3","1","1,0.333,0.333,0.333,1,0.333,0.333,0.333,1","1,0.333,0.333,0.333,1,0.333,0.333,0.333,1","1",""
"","html-keyboard-response","267","105254","0.0-267.0","30X31N5D64C7GDZ5ZJKVO47777AASR","AHV4U78TUUDKI","3566S7OX5D5NH74JOVOPTTMK8IR17K","","null","<img src=""img/flower5.png"" style=""width:200px;border:14px solid red;"">","null","","","","","","","","",""
"","image-keyboard-response","268","105409","0.0-268.0","30X31N5D64C7GDZ5ZJKVO47777AASR","AHV4U78TUUDKI","3566S7OX5D5NH74JOVOPTTMK8IR17K","","154.59999999403954","img/flower1.png","74","155","1","0","2","1","1,0.333,0.333,0.333,1,0.333,0.333,0.333,1","1,0.333,0.333,0.333,1,0.333,0.333,0.333,1","1",""
"","html-keyboard-response","269","105710","0.0-269.0","30X31N5D64C7GDZ5ZJKVO47777AASR","AHV4U78TUUDKI","3566S7OX5D5NH74JOVOPTTMK8IR17K","","null","<img src=""img/flower1.png"" style=""width:200px;border:14px solid red;"">","null","","","","","","","","",""
"","image-keyboard-response","270","105913","0.0-270.0","30X31N5D64C7GDZ5ZJKVO47777AASR","AHV4U78TUUDKI","3566S7OX5D5NH74JOVOPTTMK8IR17K","","202","img/flower5.png","74","202.39999997615814","1","0","3","1","1,0.333,0.333,0.333,1,0.333,0.333,0.333,1","1,0.333,0.333,0.333,1,0.333,0.333,0.333,1","1",""
"","html-keyboard-response","271","106214","0.0-271.0","30X31N5D64C7GDZ5ZJKVO47777AASR","AHV4U78TUUDKI","3566S7OX5D5NH74JOVOPTTMK8IR17K","","null","<img src=""img/flower5.png"" style=""width:200px;border:14px solid red;"">","null","","","","","","","","",""
"","image-keyboard-response","272","106737","0.0-272.0","30X31N5D64C7GDZ5ZJKVO47777AASR","AHV4U78TUUDKI","3566S7OX5D5NH74JOVOPTTMK8IR17K","","521.5999999940395","img/flower5.png","76","522.1999999880791","3","1","3","1","1,0.333,0.333,0.333,1,0.333,0.333,0.333,1","1,0.333,0.333,0.333,1,0.333,0.333,0.333,1","1",""
"","html-keyboard-response","273","107038","0.0-273.0","30X31N5D64C7GDZ5ZJKVO47777AASR","AHV4U78TUUDKI","3566S7OX5D5NH74JOVOPTTMK8IR17K","","null","<img src=""img/flower5.png"" style=""width:200px; border:14px solid green;"">","null","","","","","","","","",""
"","image-keyboard-response","274","107313","0.0-274.0","30X31N5D64C7GDZ5ZJKVO47777AASR","AHV4U78TUUDKI","3566S7OX5D5NH74JOVOPTTMK8IR17K","","273.80000001192093","img/flower1.png","76","274.19999998807907","3","1","2","1","1,0.333,0.333,0.333,1,0.333,0.333,0.333,1","1,0.333,0.333,0.333,1,0.333,0.333,0.333,1","1",""
"","html-keyboard-response","275","107614","0.0-275.0","30X31N5D64C7GDZ5ZJKVO47777AASR","AHV4U78TUUDKI","3566S7OX5D5NH74JOVOPTTMK8IR17K","","null","<img src=""img/flower1.png"" style=""width:200px; border:14px solid green;"">","null","","","","","","","","",""
"","image-keyboard-response","276","107841","0.0-276.0","30X31N5D64C7GDZ5ZJKVO47777AASR","AHV4U78TUUDKI","3566S7OX5D5NH74JOVOPTTMK8IR17K","","226.5","img/flower2.png","76","226.89999997615814","3","0","1","1","1,0.333,0.333,0.333,1,0.333,0.333,0.333,1","1,0.333,0.333,0.333,1,0.333,0.333,0.333,1","1",""
"","html-keyboard-response","277","108142","0.0-277.0","30X31N5D64C7GDZ5ZJKVO47777AASR","AHV4U78TUUDKI","3566S7OX5D5NH74JOVOPTTMK8IR17K","","null","<img src=""img/flower2.png"" style=""width:200px;border:14px solid red;"">","null","","","","","","","","",""
"","image-keyboard-response","278","108409","0.0-278.0","30X31N5D64C7GDZ5ZJKVO47777AASR","AHV4U78TUUDKI","3566S7OX5D5NH74JOVOPTTMK8IR17K","","265.90000000596046","img/flower5.png","74","266.2999999821186","1","1","3","1","1,0.333,0.333,0.333,1,0.333,0.333,0.333,1","1,0.333,0.333,0.333,1,0.333,0.333,0.333,1","1",""
"","html-keyboard-response","279","108710","0.0-279.0","30X31N5D64C7GDZ5ZJKVO47777AASR","AHV4U78TUUDKI","3566S7OX5D5NH74JOVOPTTMK8IR17K","","null","<img src=""img/flower5.png"" style=""width:200px; border:14px solid green;"">","null","","","","","","","","",""
"","image-keyboard-response","280","108825","0.0-280.0","30X31N5D64C7GDZ5ZJKVO47777AASR","AHV4U78TUUDKI","3566S7OX5D5NH74JOVOPTTMK8IR17K","","114.09999999403954","img/flower1.png","74","114.39999997615814","1","1","2","1","1,0.333,0.333,0.333,1,0.333,0.333,0.333,1","1,0.333,0.333,0.333,1,0.333,0.333,0.333,1","1",""
"","html-keyboard-response","281","109126","0.0-281.0","30X31N5D64C7GDZ5ZJKVO47777AASR","AHV4U78TUUDKI","3566S7OX5D5NH74JOVOPTTMK8IR17K","","null","<img src=""img/flower1.png"" style=""width:200px; border:14px solid green;"">","null","","","","","","","","",""
"","image-keyboard-response","282","109353","0.0-282.0","30X31N5D64C7GDZ5ZJKVO47777AASR","AHV4U78TUUDKI","3566S7OX5D5NH74JOVOPTTMK8IR17K","","225.69999998807907","img/flower2.png","74","226.09999999403954","1","1","1","1","1,0.333,0.333,0.333,1,0.333,0.333,0.333,1","1,0.333,0.333,0.333,1,0.333,0.333,0.333,1","1",""
"","html-keyboard-response","283","109654","0.0-283.0","30X31N5D64C7GDZ5ZJKVO47777AASR","AHV4U78TUUDKI","3566S7OX5D5NH74JOVOPTTMK8IR17K","","null","<img src=""img/flower2.png"" style=""width:200px; border:14px solid green;"">","null","","","","","","","","",""
"","image-keyboard-response","284","110081","0.0-284.0","30X31N5D64C7GDZ5ZJKVO47777AASR","AHV4U78TUUDKI","3566S7OX5D5NH74JOVOPTTMK8IR17K","","426.40000000596046","img/flower1.png","74","426.69999998807907","1","0","2","1","1,0.333,0.333,0.333,1,0.333,0.333,0.333,1","1,0.333,0.333,0.333,1,0.333,0.333,0.333,1","1",""
"","html-keyboard-response","285","110382","0.0-285.0","30X31N5D64C7GDZ5ZJKVO47777AASR","AHV4U78TUUDKI","3566S7OX5D5NH74JOVOPTTMK8IR17K","","null","<img src=""img/flower1.png"" style=""width:200px;border:14px solid red;"">","null","","","","","","","","",""
"","image-keyboard-response","286","110857","0.0-286.0","30X31N5D64C7GDZ5ZJKVO47777AASR","AHV4U78TUUDKI","3566S7OX5D5NH74JOVOPTTMK8IR17K","","474","img/flower2.png","74","474.2999999821186","1","1","1","1","1,0.333,0.333,0.333,1,0.333,0.333,0.333,1","1,0.333,0.333,0.333,1,0.333,0.333,0.333,1","1",""
"","html-keyboard-response","287","111159","0.0-287.0","30X31N5D64C7GDZ5ZJKVO47777AASR","AHV4U78TUUDKI","3566S7OX5D5NH74JOVOPTTMK8IR17K","","null","<img src=""img/flower2.png"" style=""width:200px; border:14px solid green;"">","null","","","","","","","","",""
"","image-keyboard-response","288","111216","0.0-288.0","30X31N5D64C7GDZ5ZJKVO47777AASR","AHV4U78TUUDKI","3566S7OX5D5NH74JOVOPTTMK8IR17K","","57.400000005960464","img/flower2.png","74","57.69999998807907","1","1","1","1","1,0.333,0.333,0.333,1,0.333,0.333,0.333,1","1,0.333,0.333,0.333,1,0.333,0.333,0.333,1","1",""
"","html-keyboard-response","289","111518","0.0-289.0","30X31N5D64C7GDZ5ZJKVO47777AASR","AHV4U78TUUDKI","3566S7OX5D5NH74JOVOPTTMK8IR17K","","null","<img src=""img/flower2.png"" style=""width:200px; border:14px solid green;"">","null","","","","","","","","",""
"","image-keyboard-response","290","111640","0.0-290.0","30X31N5D64C7GDZ5ZJKVO47777AASR","AHV4U78TUUDKI","3566S7OX5D5NH74JOVOPTTMK8IR17K","","122.30000001192093","img/flower1.png","74","123","1","0","2","1","1,0.333,0.333,0.333,1,0.333,0.333,0.333,1","1,0.333,0.333,0.333,1,0.333,0.333,0.333,1","1",""
"","html-keyboard-response","291","111943","0.0-291.0","30X31N5D64C7GDZ5ZJKVO47777AASR","AHV4U78TUUDKI","3566S7OX5D5NH74JOVOPTTMK8IR17K","","null","<img src=""img/flower1.png"" style=""width:200px;border:14px solid red;"">","null","","","","","","","","",""
"","image-keyboard-response","292","112417","0.0-292.0","30X31N5D64C7GDZ5ZJKVO47777AASR","AHV4U78TUUDKI","3566S7OX5D5NH74JOVOPTTMK8IR17K","","473.40000000596046","img/flower1.png","74","473.7999999821186","1","1","2","1","1,0.333,0.333,0.333,1,0.333,0.333,0.333,1","1,0.333,0.333,0.333,1,0.333,0.333,0.333,1","1",""
"","html-keyboard-response","293","112718","0.0-293.0","30X31N5D64C7GDZ5ZJKVO47777AASR","AHV4U78TUUDKI","3566S7OX5D5NH74JOVOPTTMK8IR17K","","null","<img src=""img/flower1.png"" style=""width:200px; border:14px solid green;"">","null","","","","","","","","",""
"","image-keyboard-response","294","113281","0.0-294.0","30X31N5D64C7GDZ5ZJKVO47777AASR","AHV4U78TUUDKI","3566S7OX5D5NH74JOVOPTTMK8IR17K","","562.5","img/flower2.png","74","562.8000000119209","1","1","1","1","1,0.333,0.333,0.333,1,0.333,0.333,0.333,1","1,0.333,0.333,0.333,1,0.333,0.333,0.333,1","1",""
"","html-keyboard-response","295","113582","0.0-295.0","30X31N5D64C7GDZ5ZJKVO47777AASR","AHV4U78TUUDKI","3566S7OX5D5NH74JOVOPTTMK8IR17K","","null","<img src=""img/flower2.png"" style=""width:200px; border:14px solid green;"">","null","","","","","","","","",""
"","image-keyboard-response","296","113713","0.0-296.0","30X31N5D64C7GDZ5ZJKVO47777AASR","AHV4U78TUUDKI","3566S7OX5D5NH74JOVOPTTMK8IR17K","","130.09999999403954","img/flower2.png","74","130.39999997615814","1","1","1","1","1,0.333,0.333,0.333,1,0.333,0.333,0.333,1","1,0.333,0.333,0.333,1,0.333,0.333,0.333,1","1",""
"","html-keyboard-response","297","114014","0.0-297.0","30X31N5D64C7GDZ5ZJKVO47777AASR","AHV4U78TUUDKI","3566S7OX5D5NH74JOVOPTTMK8IR17K","","null","<img src=""img/flower2.png"" style=""width:200px; border:14px solid green;"">","null","","","","","","","","",""
"","image-keyboard-response","298","114177","0.0-298.0","30X31N5D64C7GDZ5ZJKVO47777AASR","AHV4U78TUUDKI","3566S7OX5D5NH74JOVOPTTMK8IR17K","","161.59999999403954","img/flower2.png","74","162.09999999403954","1","1","1","1","1,0.333,0.333,0.333,1,0.333,0.333,0.333,1","1,0.333,0.333,0.333,1,0.333,0.333,0.333,1","1",""
"","html-keyboard-response","299","114478","0.0-299.0","30X31N5D64C7GDZ5ZJKVO47777AASR","AHV4U78TUUDKI","3566S7OX5D5NH74JOVOPTTMK8IR17K","","null","<img src=""img/flower2.png"" style=""width:200px; border:14px solid green;"">","null","","","","","","","","",""
"","image-keyboard-response","300","114776","0.0-300.0","30X31N5D64C7GDZ5ZJKVO47777AASR","AHV4U78TUUDKI","3566S7OX5D5NH74JOVOPTTMK8IR17K","","297.7000000178814","img/flower2.png","74","298.19999998807907","1","1","1","1","1,0.333,0.333,0.333,1,0.333,0.333,0.333,1","1,0.333,0.333,0.333,1,0.333,0.333,0.333,1","1",""
"","html-keyboard-response","301","115078","0.0-301.0","30X31N5D64C7GDZ5ZJKVO47777AASR","AHV4U78TUUDKI","3566S7OX5D5NH74JOVOPTTMK8IR17K","","null","<img src=""img/flower2.png"" style=""width:200px; border:14px solid green;"">","null","","","","","","","","",""
"","image-keyboard-response","302","115649","0.0-302.0","30X31N5D64C7GDZ5ZJKVO47777AASR","AHV4U78TUUDKI","3566S7OX5D5NH74JOVOPTTMK8IR17K","","569.7999999821186","img/flower1.png","76","570.3000000119209","3","0","2","1","1,0.333,0.333,0.333,1,0.333,0.333,0.333,1","1,0.333,0.333,0.333,1,0.333,0.333,0.333,1","1",""
"","html-keyboard-response","303","115950","0.0-303.0","30X31N5D64C7GDZ5ZJKVO47777AASR","AHV4U78TUUDKI","3566S7OX5D5NH74JOVOPTTMK8IR17K","","null","<img src=""img/flower1.png"" style=""width:200px;border:14px solid red;"">","null","","","","","","","","",""
"","image-keyboard-response","304","116361","0.0-304.0","30X31N5D64C7GDZ5ZJKVO47777AASR","AHV4U78TUUDKI","3566S7OX5D5NH74JOVOPTTMK8IR17K","","409.69999998807907","img/flower5.png","74","410.09999999403954","1","0","3","1","1,0.333,0.333,0.333,1,0.333,0.333,0.333,1","1,0.333,0.333,0.333,1,0.333,0.333,0.333,1","1",""
"","html-keyboard-response","305","116663","0.0-305.0","30X31N5D64C7GDZ5ZJKVO47777AASR","AHV4U78TUUDKI","3566S7OX5D5NH74JOVOPTTMK8IR17K","","null","<img src=""img/flower5.png"" style=""width:200px;border:14px solid red;"">","null","","","","","","","","",""
"","image-keyboard-response","306","116713","0.0-306.0","30X31N5D64C7GDZ5ZJKVO47777AASR","AHV4U78TUUDKI","3566S7OX5D5NH74JOVOPTTMK8IR17K","","49.30000001192093","img/flower1.png","74","49.599999994039536","1","0","2","1","1,0.333,0.333,0.333,1,0.333,0.333,0.333,1","1,0.333,0.333,0.333,1,0.333,0.333,0.333,1","1",""
"","html-keyboard-response","307","117015","0.0-307.0","30X31N5D64C7GDZ5ZJKVO47777AASR","AHV4U78TUUDKI","3566S7OX5D5NH74JOVOPTTMK8IR17K","","null","<img src=""img/flower1.png"" style=""width:200px;border:14px solid red;"">","null","","","","","","","","",""
"","image-keyboard-response","308","117145","0.0-308.0","30X31N5D64C7GDZ5ZJKVO47777AASR","AHV4U78TUUDKI","3566S7OX5D5NH74JOVOPTTMK8IR17K","","129.40000000596046","img/flower5.png","74","129.7999999821186","1","0","3","1","1,0.333,0.333,0.333,1,0.333,0.333,0.333,1","1,0.333,0.333,0.333,1,0.333,0.333,0.333,1","1",""
"","html-keyboard-response","309","117447","0.0-309.0","30X31N5D64C7GDZ5ZJKVO47777AASR","AHV4U78TUUDKI","3566S7OX5D5NH74JOVOPTTMK8IR17K","","null","<img src=""img/flower5.png"" style=""width:200px;border:14px solid red;"">","null","","","","","","","","",""
"","image-keyboard-response","310","117545","0.0-310.0","30X31N5D64C7GDZ5ZJKVO47777AASR","AHV4U78TUUDKI","3566S7OX5D5NH74JOVOPTTMK8IR17K","","97.59999999403954","img/flower2.png","74","97.7999999821186","1","1","1","1","1,0.333,0.333,0.333,1,0.333,0.333,0.333,1","1,0.333,0.333,0.333,1,0.333,0.333,0.333,1","1",""
"","html-keyboard-response","311","117846","0.0-311.0","30X31N5D64C7GDZ5ZJKVO47777AASR","AHV4U78TUUDKI","3566S7OX5D5NH74JOVOPTTMK8IR17K","","null","<img src=""img/flower2.png"" style=""width:200px; border:14px solid green;"">","null","","","","","","","","",""
"","image-keyboard-response","312","117872","0.0-312.0","30X31N5D64C7GDZ5ZJKVO47777AASR","AHV4U78TUUDKI","3566S7OX5D5NH74JOVOPTTMK8IR17K","","26","img/flower2.png","74","26.400000005960464","1","1","1","1","1,0.333,0.333,0.333,1,0.333,0.333,0.333,1","1,0.333,0.333,0.333,1,0.333,0.333,0.333,1","1",""
"","html-keyboard-response","313","118174","0.0-313.0","30X31N5D64C7GDZ5ZJKVO47777AASR","AHV4U78TUUDKI","3566S7OX5D5NH74JOVOPTTMK8IR17K","","null","<img src=""img/flower2.png"" style=""width:200px; border:14px solid green;"">","null","","","","","","","","",""
"","image-keyboard-response","314","118200","0.0-314.0","30X31N5D64C7GDZ5ZJKVO47777AASR","AHV4U78TUUDKI","3566S7OX5D5NH74JOVOPTTMK8IR17K","","26.099999994039536","img/flower5.png","74","26.599999994039536","1","0","3","1","1,0.333,0.333,0.333,1,0.333,0.333,0.333,1","1,0.333,0.333,0.333,1,0.333,0.333,0.333,1","1",""
"","html-keyboard-response","315","118502","0.0-315.0","30X31N5D64C7GDZ5ZJKVO47777AASR","AHV4U78TUUDKI","3566S7OX5D5NH74JOVOPTTMK8IR17K","","null","<img src=""img/flower5.png"" style=""width:200px;border:14px solid red;"">","null","","","","","","","","",""
"","image-keyboard-response","316","118704","0.0-316.0","30X31N5D64C7GDZ5ZJKVO47777AASR","AHV4U78TUUDKI","3566S7OX5D5NH74JOVOPTTMK8IR17K","","202.19999998807907","img/flower2.png","74","202.5","1","1","1","1","1,0.333,0.333,0.333,1,0.333,0.333,0.333,1","1,0.333,0.333,0.333,1,0.333,0.333,0.333,1","1",""
"","html-keyboard-response","317","119006","0.0-317.0","30X31N5D64C7GDZ5ZJKVO47777AASR","AHV4U78TUUDKI","3566S7OX5D5NH74JOVOPTTMK8IR17K","","null","<img src=""img/flower2.png"" style=""width:200px; border:14px solid green;"">","null","","","","","","","","",""
"","image-keyboard-response","318","119249","0.0-318.0","30X31N5D64C7GDZ5ZJKVO47777AASR","AHV4U78TUUDKI","3566S7OX5D5NH74JOVOPTTMK8IR17K","","242.59999999403954","img/flower1.png","74","243","1","1","2","1","1,0.333,0.333,0.333,1,0.333,0.333,0.333,1","1,0.333,0.333,0.333,1,0.333,0.333,0.333,1","1",""
"","html-keyboard-response","319","119550","0.0-319.0","30X31N5D64C7GDZ5ZJKVO47777AASR","AHV4U78TUUDKI","3566S7OX5D5NH74JOVOPTTMK8IR17K","","null","<img src=""img/flower1.png"" style=""width:200px; border:14px solid green;"">","null","","","","","","","","",""
"","image-keyboard-response","320","119817","0.0-320.0","30X31N5D64C7GDZ5ZJKVO47777AASR","AHV4U78TUUDKI","3566S7OX5D5NH74JOVOPTTMK8IR17K","","265.7999999821186","img/flower5.png","74","266.09999999403954","1","1","3","1","1,0.333,0.333,0.333,1,0.333,0.333,0.333,1","1,0.333,0.333,0.333,1,0.333,0.333,0.333,1","1",""
"","html-keyboard-response","321","120118","0.0-321.0","30X31N5D64C7GDZ5ZJKVO47777AASR","AHV4U78TUUDKI","3566S7OX5D5NH74JOVOPTTMK8IR17K","","null","<img src=""img/flower5.png"" style=""width:200px; border:14px solid green;"">","null","","","","","","","","",""
"","image-keyboard-response","322","120129","0.0-322.0","30X31N5D64C7GDZ5ZJKVO47777AASR","AHV4U78TUUDKI","3566S7OX5D5NH74JOVOPTTMK8IR17K","","10.099999994039536","img/flower5.png","74","10.5","1","1","3","1","1,0.333,0.333,0.333,1,0.333,0.333,0.333,1","1,0.333,0.333,0.333,1,0.333,0.333,0.333,1","1",""
"","html-keyboard-response","323","120430","0.0-323.0","30X31N5D64C7GDZ5ZJKVO47777AASR","AHV4U78TUUDKI","3566S7OX5D5NH74JOVOPTTMK8IR17K","","null","<img src=""img/flower5.png"" style=""width:200px; border:14px solid green;"">","null","","","","","","","","",""
"","image-keyboard-response","324","120593","0.0-324.0","30X31N5D64C7GDZ5ZJKVO47777AASR","AHV4U78TUUDKI","3566S7OX5D5NH74JOVOPTTMK8IR17K","","162.09999999403954","img/flower2.png","74","162.5","1","1","1","1","1,0.333,0.333,0.333,1,0.333,0.333,0.333,1","1,0.333,0.333,0.333,1,0.333,0.333,0.333,1","1",""
"","html-keyboard-response","325","120894","0.0-325.0","30X31N5D64C7GDZ5ZJKVO47777AASR","AHV4U78TUUDKI","3566S7OX5D5NH74JOVOPTTMK8IR17K","","null","<img src=""img/flower2.png"" style=""width:200px; border:14px solid green;"">","null","","","","","","","","",""
"","image-keyboard-response","326","121033","0.0-326.0","30X31N5D64C7GDZ5ZJKVO47777AASR","AHV4U78TUUDKI","3566S7OX5D5NH74JOVOPTTMK8IR17K","","137.80000001192093","img/flower1.png","74","138.19999998807907","1","0","2","1","1,0.333,0.333,0.333,1,0.333,0.333,0.333,1","1,0.333,0.333,0.333,1,0.333,0.333,0.333,1","1",""
"","html-keyboard-response","327","121335","0.0-327.0","30X31N5D64C7GDZ5ZJKVO47777AASR","AHV4U78TUUDKI","3566S7OX5D5NH74JOVOPTTMK8IR17K","","null","<img src=""img/flower1.png"" style=""width:200px;border:14px solid red;"">","null","","","","","","","","",""
"","image-keyboard-response","328","121448","0.0-328.0","30X31N5D64C7GDZ5ZJKVO47777AASR","AHV4U78TUUDKI","3566S7OX5D5NH74JOVOPTTMK8IR17K","","113.09999999403954","img/flower1.png","74","113.5","1","0","2","1","1,0.333,0.333,0.333,1,0.333,0.333,0.333,1","1,0.333,0.333,0.333,1,0.333,0.333,0.333,1","1",""
"","html-keyboard-response","329","121750","0.0-329.0","30X31N5D64C7GDZ5ZJKVO47777AASR","AHV4U78TUUDKI","3566S7OX5D5NH74JOVOPTTMK8IR17K","","null","<img src=""img/flower1.png"" style=""width:200px;border:14px solid red;"">","null","","","","","","","","",""
"","image-keyboard-response","330","122065","0.0-330.0","30X31N5D64C7GDZ5ZJKVO47777AASR","AHV4U78TUUDKI","3566S7OX5D5NH74JOVOPTTMK8IR17K","","314.5","img/flower5.png","75","315","2","0","3","1","1,0.333,0.333,0.333,1,0.333,0.333,0.333,1","1,0.333,0.333,0.333,1,0.333,0.333,0.333,1","1",""
"","html-keyboard-response","331","122366","0.0-331.0","30X31N5D64C7GDZ5ZJKVO47777AASR","AHV4U78TUUDKI","3566S7OX5D5NH74JOVOPTTMK8IR17K","","null","<img src=""img/flower5.png"" style=""width:200px;border:14px solid red;"">","null","","","","","","","","",""
"","image-keyboard-response","332","122393","0.0-332.0","30X31N5D64C7GDZ5ZJKVO47777AASR","AHV4U78TUUDKI","3566S7OX5D5NH74JOVOPTTMK8IR17K","","26.30000001192093","img/flower5.png","75","26.799999982118607","2","1","3","1","1,0.333,0.333,0.333,1,0.333,0.333,0.333,1","1,0.333,0.333,0.333,1,0.333,0.333,0.333,1","1",""
"","html-keyboard-response","333","122695","0.0-333.0","30X31N5D64C7GDZ5ZJKVO47777AASR","AHV4U78TUUDKI","3566S7OX5D5NH74JOVOPTTMK8IR17K","","null","<img src=""img/flower5.png"" style=""width:200px; border:14px solid green;"">","null","","","","","","","","",""
"","image-keyboard-response","334","122985","0.0-334.0","30X31N5D64C7GDZ5ZJKVO47777AASR","AHV4U78TUUDKI","3566S7OX5D5NH74JOVOPTTMK8IR17K","","289.30000001192093","img/flower1.png","75","289.90000000596046","2","1","2","1","1,0.333,0.333,0.333,1,0.333,0.333,0.333,1","1,0.333,0.333,0.333,1,0.333,0.333,0.333,1","1",""
"","html-keyboard-response","335","123286","0.0-335.0","30X31N5D64C7GDZ5ZJKVO47777AASR","AHV4U78TUUDKI","3566S7OX5D5NH74JOVOPTTMK8IR17K","","null","<img src=""img/flower1.png"" style=""width:200px; border:14px solid green;"">","null","","","","","","","","",""
"","image-keyboard-response","336","123505","0.0-336.0","30X31N5D64C7GDZ5ZJKVO47777AASR","AHV4U78TUUDKI","3566S7OX5D5NH74JOVOPTTMK8IR17K","","217.7999999821186","img/flower5.png","75","218.2000000178814","2","0","3","1","1,0.333,0.333,0.333,1,0.333,0.333,0.333,1","1,0.333,0.333,0.333,1,0.333,0.333,0.333,1","1",""
"","html-keyboard-response","337","123807","0.0-337.0","30X31N5D64C7GDZ5ZJKVO47777AASR","AHV4U78TUUDKI","3566S7OX5D5NH74JOVOPTTMK8IR17K","","null","<img src=""img/flower5.png"" style=""width:200px;border:14px solid red;"">","null","","","","","","","","",""
"","image-keyboard-response","338","123977","0.0-338.0","30X31N5D64C7GDZ5ZJKVO47777AASR","AHV4U78TUUDKI","3566S7OX5D5NH74JOVOPTTMK8IR17K","","169.59999999403954","img/flower5.png","74","169.89999997615814","1","0","3","1","1,0.333,0.333,0.333,1,0.333,0.333,0.333,1","1,0.333,0.333,0.333,1,0.333,0.333,0.333,1","1",""
"","html-keyboard-response","339","124278","0.0-339.0","30X31N5D64C7GDZ5ZJKVO47777AASR","AHV4U78TUUDKI","3566S7OX5D5NH74JOVOPTTMK8IR17K","","null","<img src=""img/flower5.png"" style=""width:200px;border:14px solid red;"">","null","","","","","","","","",""
"","image-keyboard-response","340","124344","0.0-340.0","30X31N5D64C7GDZ5ZJKVO47777AASR","AHV4U78TUUDKI","3566S7OX5D5NH74JOVOPTTMK8IR17K","","65.90000000596046","img/flower5.png","74","66.2999999821186","1","0","3","1","1,0.333,0.333,0.333,1,0.333,0.333,0.333,1","1,0.333,0.333,0.333,1,0.333,0.333,0.333,1","1",""
"","html-keyboard-response","341","124646","0.0-341.0","30X31N5D64C7GDZ5ZJKVO47777AASR","AHV4U78TUUDKI","3566S7OX5D5NH74JOVOPTTMK8IR17K","","null","<img src=""img/flower5.png"" style=""width:200px;border:14px solid red;"">","null","","","","","","","","",""
"","image-keyboard-response","342","124760","0.0-342.0","30X31N5D64C7GDZ5ZJKVO47777AASR","AHV4U78TUUDKI","3566S7OX5D5NH74JOVOPTTMK8IR17K","","114","img/flower5.png","74","114.5","1","0","3","1","1,0.333,0.333,0.333,1,0.333,0.333,0.333,1","1,0.333,0.333,0.333,1,0.333,0.333,0.333,1","1",""
"","html-keyboard-response","343","125062","0.0-343.0","30X31N5D64C7GDZ5ZJKVO47777AASR","AHV4U78TUUDKI","3566S7OX5D5NH74JOVOPTTMK8IR17K","","null","<img src=""img/flower5.png"" style=""width:200px;border:14px solid red;"">","null","","","","","","","","",""
"","image-keyboard-response","344","125136","0.0-344.0","30X31N5D64C7GDZ5ZJKVO47777AASR","AHV4U78TUUDKI","3566S7OX5D5NH74JOVOPTTMK8IR17K","","73.5","img/flower5.png","74","73.90000000596046","1","0","3","1","1,0.333,0.333,0.333,1,0.333,0.333,0.333,1","1,0.333,0.333,0.333,1,0.333,0.333,0.333,1","1",""
"","html-keyboard-response","345","125438","0.0-345.0","30X31N5D64C7GDZ5ZJKVO47777AASR","AHV4U78TUUDKI","3566S7OX5D5NH74JOVOPTTMK8IR17K","","null","<img src=""img/flower5.png"" style=""width:200px;border:14px solid red;"">","null","","","","","","","","",""
"","image-keyboard-response","346","125584","0.0-346.0","30X31N5D64C7GDZ5ZJKVO47777AASR","AHV4U78TUUDKI","3566S7OX5D5NH74JOVOPTTMK8IR17K","","145.69999998807907","img/flower5.png","76","146.09999999403954","3","1","3","1","1,0.333,0.333,0.333,1,0.333,0.333,0.333,1","1,0.333,0.333,0.333,1,0.333,0.333,0.333,1","1",""
"","html-keyboard-response","347","125886","0.0-347.0","30X31N5D64C7GDZ5ZJKVO47777AASR","AHV4U78TUUDKI","3566S7OX5D5NH74JOVOPTTMK8IR17K","","null","<img src=""img/flower5.png"" style=""width:200px; border:14px solid green;"">","null","","","","","","","","",""
"","image-keyboard-response","348","125889","0.0-348.0","30X31N5D64C7GDZ5ZJKVO47777AASR","AHV4U78TUUDKI","3566S7OX5D5NH74JOVOPTTMK8IR17K","","2.300000011920929","img/flower5.png","76","2.9000000059604645","3","1","3","1","1,0.333,0.333,0.333,1,0.333,0.333,0.333,1","1,0.333,0.333,0.333,1,0.333,0.333,0.333,1","1",""
"","html-keyboard-response","349","126190","0.0-349.0","30X31N5D64C7GDZ5ZJKVO47777AASR","AHV4U78TUUDKI","3566S7OX5D5NH74JOVOPTTMK8IR17K","","null","<img src=""img/flower5.png"" style=""width:200px; border:14px solid green;"">","null","","","","","","","","",""
"","image-keyboard-response","350","126216","0.0-350.0","30X31N5D64C7GDZ5ZJKVO47777AASR","AHV4U78TUUDKI","3566S7OX5D5NH74JOVOPTTMK8IR17K","","26.099999994039536","img/flower1.png","76","26.299999982118607","3","0","2","1","1,0.333,0.333,0.333,1,0.333,0.333,0.333,1","1,0.333,0.333,0.333,1,0.333,0.333,0.333,1","1",""
"","html-keyboard-response","351","126519","0.0-351.0","30X31N5D64C7GDZ5ZJKVO47777AASR","AHV4U78TUUDKI","3566S7OX5D5NH74JOVOPTTMK8IR17K","","null","<img src=""img/flower1.png"" style=""width:200px;border:14px solid red;"">","null","","","","","","","","",""
"","image-keyboard-response","352","126521","0.0-352.0","30X31N5D64C7GDZ5ZJKVO47777AASR","AHV4U78TUUDKI","3566S7OX5D5NH74JOVOPTTMK8IR17K","","1.800000011920929","img/flower2.png","76","2.5","3","0","1","1","1,0.333,0.333,0.333,1,0.333,0.333,0.333,1","1,0.333,0.333,0.333,1,0.333,0.333,0.333,1","1",""
"","html-keyboard-response","353","126823","0.0-353.0","30X31N5D64C7GDZ5ZJKVO47777AASR","AHV4U78TUUDKI","3566S7OX5D5NH74JOVOPTTMK8IR17K","","null","<img src=""img/flower2.png"" style=""width:200px;border:14px solid red;"">","null","","","","","","","","",""
"","image-keyboard-response","354","127088","0.0-354.0","30X31N5D64C7GDZ5ZJKVO47777AASR","AHV4U78TUUDKI","3566S7OX5D5NH74JOVOPTTMK8IR17K","","264.69999998807907","img/flower2.png","74","264.90000000596046","1","1","1","1","1,0.333,0.333,0.333,1,0.333,0.333,0.333,1","1,0.333,0.333,0.333,1,0.333,0.333,0.333,1","1",""
"","html-keyboard-response","355","127390","0.0-355.0","30X31N5D64C7GDZ5ZJKVO47777AASR","AHV4U78TUUDKI","3566S7OX5D5NH74JOVOPTTMK8IR17K","","null","<img src=""img/flower2.png"" style=""width:200px; border:14px solid green;"">","null","","","","","","","","",""
"","image-keyboard-response","356","127449","0.0-356.0","30X31N5D64C7GDZ5ZJKVO47777AASR","AHV4U78TUUDKI","3566S7OX5D5NH74JOVOPTTMK8IR17K","","57.599999994039536","img/flower1.png","74","58","1","1","2","1","1,0.333,0.333,0.333,1,0.333,0.333,0.333,1","1,0.333,0.333,0.333,1,0.333,0.333,0.333,1","1",""
"","html-keyboard-response","357","127750","0.0-357.0","30X31N5D64C7GDZ5ZJKVO47777AASR","AHV4U78TUUDKI","3566S7OX5D5NH74JOVOPTTMK8IR17K","","null","<img src=""img/flower1.png"" style=""width:200px; border:14px solid green;"">","null","","","","","","","","",""
"","image-keyboard-response","358","127848","0.0-358.0","30X31N5D64C7GDZ5ZJKVO47777AASR","AHV4U78TUUDKI","3566S7OX5D5NH74JOVOPTTMK8IR17K","","97.5","img/flower1.png","74","97.7999999821186","1","1","2","1","1,0.333,0.333,0.333,1,0.333,0.333,0.333,1","1,0.333,0.333,0.333,1,0.333,0.333,0.333,1","1",""
"","html-keyboard-response","359","128150","0.0-359.0","30X31N5D64C7GDZ5ZJKVO47777AASR","AHV4U78TUUDKI","3566S7OX5D5NH74JOVOPTTMK8IR17K","","null","<img src=""img/flower1.png"" style=""width:200px; border:14px solid green;"">","null","","","","","","","","",""
"","image-keyboard-response","360","128192","0.0-360.0","30X31N5D64C7GDZ5ZJKVO47777AASR","AHV4U78TUUDKI","3566S7OX5D5NH74JOVOPTTMK8IR17K","","41.69999998807907","img/flower5.png","74","42","1","0","3","1","1,0.333,0.333,0.333,1,0.333,0.333,0.333,1","1,0.333,0.333,0.333,1,0.333,0.333,0.333,1","1",""
"","html-keyboard-response","361","128494","0.0-361.0","30X31N5D64C7GDZ5ZJKVO47777AASR","AHV4U78TUUDKI","3566S7OX5D5NH74JOVOPTTMK8IR17K","","null","<img src=""img/flower5.png"" style=""width:200px;border:14px solid red;"">","null","","","","","","","","",""
"","html-keyboard-response","362","132258","0.0-362.0","30X31N5D64C7GDZ5ZJKVO47777AASR","AHV4U78TUUDKI","3566S7OX5D5NH74JOVOPTTMK8IR17K","","","","","","","","","","","","",""
"","instructions","363","134157","0.0-363.0","30X31N5D64C7GDZ5ZJKVO47777AASR","AHV4U78TUUDKI","3566S7OX5D5NH74JOVOPTTMK8IR17K","[{""page_index"":0,""viewing_time"":1897.5999999940395}]","1897.9000000059605","","","","","","","","","","",""
"","survey-text","364","141791","0.0-364.0","30X31N5D64C7GDZ5ZJKVO47777AASR","AHV4U78TUUDKI","3566S7OX5D5NH74JOVOPTTMK8IR17K","","7631.199999988079","","","","","","","","","","","{""Q0"":""AHV4U78TUUDKI""}"
