"success","trial_type","trial_index","time_elapsed","internal_node_id","assignmentID","mturkID","hitID","view_history","rt","stimulus","key_press","reactionTime","a","r","s","cond","reward_cond","reward_cond_actual","reward_matrix_idx","responses"
"true","fullscreen","0","21804","0.0-0.0","30LSNF239VHTHW15HSX2EKIMMQHI2B","AJDHPRCJ985C7","3XT3KXP24ZKFDDMCDS43FE3AU9W6IW","","","","","","","","","","","","",""
"","instructions","1","64423","0.0-1.0","30LSNF239VHTHW15HSX2EKIMMQHI2B","AJDHPRCJ985C7","3XT3KXP24ZKFDDMCDS43FE3AU9W6IW","[{""page_index"":0,""viewing_time"":9922},{""page_index"":1,""viewing_time"":1896},{""page_index"":2,""viewing_time"":1604},{""page_index"":3,""viewing_time"":6574},{""page_index"":4,""viewing_time"":8862},{""page_index"":5,""viewing_time"":5255},{""page_index"":6,""viewing_time"":4426},{""page_index"":7,""viewing_time"":4077}]","42617","","","","","","","","","","",""
"","image-keyboard-response","2","65328","0.0-2.0","30LSNF239VHTHW15HSX2EKIMMQHI2B","AJDHPRCJ985C7","3XT3KXP24ZKFDDMCDS43FE3AU9W6IW","","903","img/flower4.png","76","904","3","0","2","2","1,0,0,1,1,0,1,0,1","1,0,0,1,1,0,1,0,1","1",""
"","html-keyboard-response","3","65632","0.0-3.0","30LSNF239VHTHW15HSX2EKIMMQHI2B","AJDHPRCJ985C7","3XT3KXP24ZKFDDMCDS43FE3AU9W6IW","","null","<img src=""img/flower4.png"" style=""width:200px;border:14px solid red;"">","null","","","","","","","","",""
"","image-keyboard-response","4","66400","0.0-4.0","30LSNF239VHTHW15HSX2EKIMMQHI2B","AJDHPRCJ985C7","3XT3KXP24ZKFDDMCDS43FE3AU9W6IW","","767","img/flower3.png","76","767","3","0","1","2","1,0,0,1,1,0,1,0,1","1,0,0,1,1,0,1,0,1","1",""
"","html-keyboard-response","5","66702","0.0-5.0","30LSNF239VHTHW15HSX2EKIMMQHI2B","AJDHPRCJ985C7","3XT3KXP24ZKFDDMCDS43FE3AU9W6IW","","null","<img src=""img/flower3.png"" style=""width:200px;border:14px solid red;"">","null","","","","","","","","",""
"","image-keyboard-response","6","68160","0.0-6.0","30LSNF239VHTHW15HSX2EKIMMQHI2B","AJDHPRCJ985C7","3XT3KXP24ZKFDDMCDS43FE3AU9W6IW","","1458","img/flower3.png","76","1459","3","0","1","2","1,0,0,1,1,0,1,0,1","1,0,0,1,1,0,1,0,1","1",""
"","html-keyboard-response","7","68465","0.0-7.0","30LSNF239VHTHW15HSX2EKIMMQHI2B","AJDHPRCJ985C7","3XT3KXP24ZKFDDMCDS43FE3AU9W6IW","","null","<img src=""img/flower3.png"" style=""width:200px;border:14px solid red;"">","null","","","","","","","","",""
"","image-keyboard-response","8","69328","0.0-8.0","30LSNF239VHTHW15HSX2EKIMMQHI2B","AJDHPRCJ985C7","3XT3KXP24ZKFDDMCDS43FE3AU9W6IW","","862","img/flower6.png","74","863","1","1","3","2","1,0,0,1,1,0,1,0,1","1,0,0,1,1,0,1,0,1","1",""
"","html-keyboard-response","9","69633","0.0-9.0","30LSNF239VHTHW15HSX2EKIMMQHI2B","AJDHPRCJ985C7","3XT3KXP24ZKFDDMCDS43FE3AU9W6IW","","null","<img src=""img/flower6.png"" style=""width:200px; border:14px solid green;"">","null","","","","","","","","",""
"","image-keyboard-response","10","70488","0.0-10.0","30LSNF239VHTHW15HSX2EKIMMQHI2B","AJDHPRCJ985C7","3XT3KXP24ZKFDDMCDS43FE3AU9W6IW","","854","img/flower3.png","76","855","3","0","1","2","1,0,0,1,1,0,1,0,1","1,0,0,1,1,0,1,0,1","1",""
"","html-keyboard-response","11","70793","0.0-11.0","30LSNF239VHTHW15HSX2EKIMMQHI2B","AJDHPRCJ985C7","3XT3KXP24ZKFDDMCDS43FE3AU9W6IW","","null","<img src=""img/flower3.png"" style=""width:200px;border:14px solid red;"">","null","","","","","","","","",""
"","image-keyboard-response","12","71543","0.0-12.0","30LSNF239VHTHW15HSX2EKIMMQHI2B","AJDHPRCJ985C7","3XT3KXP24ZKFDDMCDS43FE3AU9W6IW","","749","img/flower3.png","74","749","1","1","1","2","1,0,0,1,1,0,1,0,1","1,0,0,1,1,0,1,0,1","1",""
"","html-keyboard-response","13","71845","0.0-13.0","30LSNF239VHTHW15HSX2EKIMMQHI2B","AJDHPRCJ985C7","3XT3KXP24ZKFDDMCDS43FE3AU9W6IW","","null","<img src=""img/flower3.png"" style=""width:200px; border:14px solid green;"">","null","","","","","","","","",""
"","image-keyboard-response","14","72696","0.0-14.0","30LSNF239VHTHW15HSX2EKIMMQHI2B","AJDHPRCJ985C7","3XT3KXP24ZKFDDMCDS43FE3AU9W6IW","","850","img/flower6.png","74","851","1","1","3","2","1,0,0,1,1,0,1,0,1","1,0,0,1,1,0,1,0,1","1",""
"","html-keyboard-response","15","72997","0.0-15.0","30LSNF239VHTHW15HSX2EKIMMQHI2B","AJDHPRCJ985C7","3XT3KXP24ZKFDDMCDS43FE3AU9W6IW","","null","<img src=""img/flower6.png"" style=""width:200px; border:14px solid green;"">","null","","","","","","","","",""
"","image-keyboard-response","16","73776","0.0-16.0","30LSNF239VHTHW15HSX2EKIMMQHI2B","AJDHPRCJ985C7","3XT3KXP24ZKFDDMCDS43FE3AU9W6IW","","779","img/flower6.png","74","779","1","1","3","2","1,0,0,1,1,0,1,0,1","1,0,0,1,1,0,1,0,1","1",""
"","html-keyboard-response","17","74078","0.0-17.0","30LSNF239VHTHW15HSX2EKIMMQHI2B","AJDHPRCJ985C7","3XT3KXP24ZKFDDMCDS43FE3AU9W6IW","","null","<img src=""img/flower6.png"" style=""width:200px; border:14px solid green;"">","null","","","","","","","","",""
"","image-keyboard-response","18","74872","0.0-18.0","30LSNF239VHTHW15HSX2EKIMMQHI2B","AJDHPRCJ985C7","3XT3KXP24ZKFDDMCDS43FE3AU9W6IW","","792","img/flower3.png","75","794","2","0","1","2","1,0,0,1,1,0,1,0,1","1,0,0,1,1,0,1,0,1","1",""
"","html-keyboard-response","19","75177","0.0-19.0","30LSNF239VHTHW15HSX2EKIMMQHI2B","AJDHPRCJ985C7","3XT3KXP24ZKFDDMCDS43FE3AU9W6IW","","null","<img src=""img/flower3.png"" style=""width:200px;border:14px solid red;"">","null","","","","","","","","",""
"","image-keyboard-response","20","75592","0.0-20.0","30LSNF239VHTHW15HSX2EKIMMQHI2B","AJDHPRCJ985C7","3XT3KXP24ZKFDDMCDS43FE3AU9W6IW","","414","img/flower6.png","74","414","1","1","3","2","1,0,0,1,1,0,1,0,1","1,0,0,1,1,0,1,0,1","1",""
"","html-keyboard-response","21","75893","0.0-21.0","30LSNF239VHTHW15HSX2EKIMMQHI2B","AJDHPRCJ985C7","3XT3KXP24ZKFDDMCDS43FE3AU9W6IW","","null","<img src=""img/flower6.png"" style=""width:200px; border:14px solid green;"">","null","","","","","","","","",""
"","image-keyboard-response","22","76360","0.0-22.0","30LSNF239VHTHW15HSX2EKIMMQHI2B","AJDHPRCJ985C7","3XT3KXP24ZKFDDMCDS43FE3AU9W6IW","","466","img/flower3.png","74","467","1","1","1","2","1,0,0,1,1,0,1,0,1","1,0,0,1,1,0,1,0,1","1",""
"","html-keyboard-response","23","76665","0.0-23.0","30LSNF239VHTHW15HSX2EKIMMQHI2B","AJDHPRCJ985C7","3XT3KXP24ZKFDDMCDS43FE3AU9W6IW","","null","<img src=""img/flower3.png"" style=""width:200px; border:14px solid green;"">","null","","","","","","","","",""
"","image-keyboard-response","24","77168","0.0-24.0","30LSNF239VHTHW15HSX2EKIMMQHI2B","AJDHPRCJ985C7","3XT3KXP24ZKFDDMCDS43FE3AU9W6IW","","502","img/flower3.png","74","502","1","1","1","2","1,0,0,1,1,0,1,0,1","1,0,0,1,1,0,1,0,1","1",""
"","html-keyboard-response","25","77470","0.0-25.0","30LSNF239VHTHW15HSX2EKIMMQHI2B","AJDHPRCJ985C7","3XT3KXP24ZKFDDMCDS43FE3AU9W6IW","","null","<img src=""img/flower3.png"" style=""width:200px; border:14px solid green;"">","null","","","","","","","","",""
"","image-keyboard-response","26","77808","0.0-26.0","30LSNF239VHTHW15HSX2EKIMMQHI2B","AJDHPRCJ985C7","3XT3KXP24ZKFDDMCDS43FE3AU9W6IW","","337","img/flower3.png","74","337","1","1","1","2","1,0,0,1,1,0,1,0,1","1,0,0,1,1,0,1,0,1","1",""
"","html-keyboard-response","27","78110","0.0-27.0","30LSNF239VHTHW15HSX2EKIMMQHI2B","AJDHPRCJ985C7","3XT3KXP24ZKFDDMCDS43FE3AU9W6IW","","null","<img src=""img/flower3.png"" style=""width:200px; border:14px solid green;"">","null","","","","","","","","",""
"","image-keyboard-response","28","78608","0.0-28.0","30LSNF239VHTHW15HSX2EKIMMQHI2B","AJDHPRCJ985C7","3XT3KXP24ZKFDDMCDS43FE3AU9W6IW","","497","img/flower6.png","74","498","1","1","3","2","1,0,0,1,1,0,1,0,1","1,0,0,1,1,0,1,0,1","1",""
"","html-keyboard-response","29","78910","0.0-29.0","30LSNF239VHTHW15HSX2EKIMMQHI2B","AJDHPRCJ985C7","3XT3KXP24ZKFDDMCDS43FE3AU9W6IW","","null","<img src=""img/flower6.png"" style=""width:200px; border:14px solid green;"">","null","","","","","","","","",""
"","image-keyboard-response","30","79496","0.0-30.0","30LSNF239VHTHW15HSX2EKIMMQHI2B","AJDHPRCJ985C7","3XT3KXP24ZKFDDMCDS43FE3AU9W6IW","","586","img/flower4.png","74","587","1","1","2","2","1,0,0,1,1,0,1,0,1","1,0,0,1,1,0,1,0,1","1",""
"","html-keyboard-response","31","79801","0.0-31.0","30LSNF239VHTHW15HSX2EKIMMQHI2B","AJDHPRCJ985C7","3XT3KXP24ZKFDDMCDS43FE3AU9W6IW","","null","<img src=""img/flower4.png"" style=""width:200px; border:14px solid green;"">","null","","","","","","","","",""
"","image-keyboard-response","32","80248","0.0-32.0","30LSNF239VHTHW15HSX2EKIMMQHI2B","AJDHPRCJ985C7","3XT3KXP24ZKFDDMCDS43FE3AU9W6IW","","446","img/flower3.png","74","446","1","1","1","2","1,0,0,1,1,0,1,0,1","1,0,0,1,1,0,1,0,1","1",""
"","html-keyboard-response","33","80550","0.0-33.0","30LSNF239VHTHW15HSX2EKIMMQHI2B","AJDHPRCJ985C7","3XT3KXP24ZKFDDMCDS43FE3AU9W6IW","","null","<img src=""img/flower3.png"" style=""width:200px; border:14px solid green;"">","null","","","","","","","","",""
"","image-keyboard-response","34","80928","0.0-34.0","30LSNF239VHTHW15HSX2EKIMMQHI2B","AJDHPRCJ985C7","3XT3KXP24ZKFDDMCDS43FE3AU9W6IW","","377","img/flower6.png","74","378","1","1","3","2","1,0,0,1,1,0,1,0,1","1,0,0,1,1,0,1,0,1","1",""
"","html-keyboard-response","35","81232","0.0-35.0","30LSNF239VHTHW15HSX2EKIMMQHI2B","AJDHPRCJ985C7","3XT3KXP24ZKFDDMCDS43FE3AU9W6IW","","null","<img src=""img/flower6.png"" style=""width:200px; border:14px solid green;"">","null","","","","","","","","",""
"","image-keyboard-response","36","81600","0.0-36.0","30LSNF239VHTHW15HSX2EKIMMQHI2B","AJDHPRCJ985C7","3XT3KXP24ZKFDDMCDS43FE3AU9W6IW","","369","img/flower6.png","74","370","1","1","3","2","1,0,0,1,1,0,1,0,1","1,0,0,1,1,0,1,0,1","1",""
"","html-keyboard-response","37","81906","0.0-37.0","30LSNF239VHTHW15HSX2EKIMMQHI2B","AJDHPRCJ985C7","3XT3KXP24ZKFDDMCDS43FE3AU9W6IW","","null","<img src=""img/flower6.png"" style=""width:200px; border:14px solid green;"">","null","","","","","","","","",""
"","image-keyboard-response","38","82200","0.0-38.0","30LSNF239VHTHW15HSX2EKIMMQHI2B","AJDHPRCJ985C7","3XT3KXP24ZKFDDMCDS43FE3AU9W6IW","","293","img/flower3.png","74","294","1","1","1","2","1,0,0,1,1,0,1,0,1","1,0,0,1,1,0,1,0,1","1",""
"","html-keyboard-response","39","82506","0.0-39.0","30LSNF239VHTHW15HSX2EKIMMQHI2B","AJDHPRCJ985C7","3XT3KXP24ZKFDDMCDS43FE3AU9W6IW","","null","<img src=""img/flower3.png"" style=""width:200px; border:14px solid green;"">","null","","","","","","","","",""
"","image-keyboard-response","40","82848","0.0-40.0","30LSNF239VHTHW15HSX2EKIMMQHI2B","AJDHPRCJ985C7","3XT3KXP24ZKFDDMCDS43FE3AU9W6IW","","341","img/flower6.png","74","342","1","1","3","2","1,0,0,1,1,0,1,0,1","1,0,0,1,1,0,1,0,1","1",""
"","html-keyboard-response","41","83150","0.0-41.0","30LSNF239VHTHW15HSX2EKIMMQHI2B","AJDHPRCJ985C7","3XT3KXP24ZKFDDMCDS43FE3AU9W6IW","","null","<img src=""img/flower6.png"" style=""width:200px; border:14px solid green;"">","null","","","","","","","","",""
"","image-keyboard-response","42","83464","0.0-42.0","30LSNF239VHTHW15HSX2EKIMMQHI2B","AJDHPRCJ985C7","3XT3KXP24ZKFDDMCDS43FE3AU9W6IW","","315","img/flower6.png","74","315","1","1","3","2","1,0,0,1,1,0,1,0,1","1,0,0,1,1,0,1,0,1","1",""
"","html-keyboard-response","43","83766","0.0-43.0","30LSNF239VHTHW15HSX2EKIMMQHI2B","AJDHPRCJ985C7","3XT3KXP24ZKFDDMCDS43FE3AU9W6IW","","null","<img src=""img/flower6.png"" style=""width:200px; border:14px solid green;"">","null","","","","","","","","",""
"","image-keyboard-response","44","84088","0.0-44.0","30LSNF239VHTHW15HSX2EKIMMQHI2B","AJDHPRCJ985C7","3XT3KXP24ZKFDDMCDS43FE3AU9W6IW","","323","img/flower6.png","74","323","1","1","3","2","1,0,0,1,1,0,1,0,1","1,0,0,1,1,0,1,0,1","1",""
"","html-keyboard-response","45","84390","0.0-45.0","30LSNF239VHTHW15HSX2EKIMMQHI2B","AJDHPRCJ985C7","3XT3KXP24ZKFDDMCDS43FE3AU9W6IW","","null","<img src=""img/flower6.png"" style=""width:200px; border:14px solid green;"">","null","","","","","","","","",""
"","image-keyboard-response","46","84680","0.0-46.0","30LSNF239VHTHW15HSX2EKIMMQHI2B","AJDHPRCJ985C7","3XT3KXP24ZKFDDMCDS43FE3AU9W6IW","","289","img/flower4.png","74","290","1","1","2","2","1,0,0,1,1,0,1,0,1","1,0,0,1,1,0,1,0,1","1",""
"","html-keyboard-response","47","84983","0.0-47.0","30LSNF239VHTHW15HSX2EKIMMQHI2B","AJDHPRCJ985C7","3XT3KXP24ZKFDDMCDS43FE3AU9W6IW","","null","<img src=""img/flower4.png"" style=""width:200px; border:14px solid green;"">","null","","","","","","","","",""
"","image-keyboard-response","48","85256","0.0-48.0","30LSNF239VHTHW15HSX2EKIMMQHI2B","AJDHPRCJ985C7","3XT3KXP24ZKFDDMCDS43FE3AU9W6IW","","274","img/flower6.png","74","274","1","1","3","2","1,0,0,1,1,0,1,0,1","1,0,0,1,1,0,1,0,1","1",""
"","html-keyboard-response","49","85556","0.0-49.0","30LSNF239VHTHW15HSX2EKIMMQHI2B","AJDHPRCJ985C7","3XT3KXP24ZKFDDMCDS43FE3AU9W6IW","","null","<img src=""img/flower6.png"" style=""width:200px; border:14px solid green;"">","null","","","","","","","","",""
"","image-keyboard-response","50","85856","0.0-50.0","30LSNF239VHTHW15HSX2EKIMMQHI2B","AJDHPRCJ985C7","3XT3KXP24ZKFDDMCDS43FE3AU9W6IW","","298","img/flower6.png","74","298","1","1","3","2","1,0,0,1,1,0,1,0,1","1,0,0,1,1,0,1,0,1","1",""
"","html-keyboard-response","51","86159","0.0-51.0","30LSNF239VHTHW15HSX2EKIMMQHI2B","AJDHPRCJ985C7","3XT3KXP24ZKFDDMCDS43FE3AU9W6IW","","null","<img src=""img/flower6.png"" style=""width:200px; border:14px solid green;"">","null","","","","","","","","",""
"","image-keyboard-response","52","86472","0.0-52.0","30LSNF239VHTHW15HSX2EKIMMQHI2B","AJDHPRCJ985C7","3XT3KXP24ZKFDDMCDS43FE3AU9W6IW","","313","img/flower4.png","74","313","1","1","2","2","1,0,0,1,1,0,1,0,1","1,0,0,1,1,0,1,0,1","1",""
"","html-keyboard-response","53","86774","0.0-53.0","30LSNF239VHTHW15HSX2EKIMMQHI2B","AJDHPRCJ985C7","3XT3KXP24ZKFDDMCDS43FE3AU9W6IW","","null","<img src=""img/flower4.png"" style=""width:200px; border:14px solid green;"">","null","","","","","","","","",""
"","image-keyboard-response","54","87049","0.0-54.0","30LSNF239VHTHW15HSX2EKIMMQHI2B","AJDHPRCJ985C7","3XT3KXP24ZKFDDMCDS43FE3AU9W6IW","","273","img/flower3.png","74","273","1","1","1","2","1,0,0,1,1,0,1,0,1","1,0,0,1,1,0,1,0,1","1",""
"","html-keyboard-response","55","87352","0.0-55.0","30LSNF239VHTHW15HSX2EKIMMQHI2B","AJDHPRCJ985C7","3XT3KXP24ZKFDDMCDS43FE3AU9W6IW","","null","<img src=""img/flower3.png"" style=""width:200px; border:14px solid green;"">","null","","","","","","","","",""
"","image-keyboard-response","56","87616","0.0-56.0","30LSNF239VHTHW15HSX2EKIMMQHI2B","AJDHPRCJ985C7","3XT3KXP24ZKFDDMCDS43FE3AU9W6IW","","264","img/flower4.png","74","264","1","1","2","2","1,0,0,1,1,0,1,0,1","1,0,0,1,1,0,1,0,1","1",""
"","html-keyboard-response","57","87922","0.0-57.0","30LSNF239VHTHW15HSX2EKIMMQHI2B","AJDHPRCJ985C7","3XT3KXP24ZKFDDMCDS43FE3AU9W6IW","","null","<img src=""img/flower4.png"" style=""width:200px; border:14px solid green;"">","null","","","","","","","","",""
"","image-keyboard-response","58","88161","0.0-58.0","30LSNF239VHTHW15HSX2EKIMMQHI2B","AJDHPRCJ985C7","3XT3KXP24ZKFDDMCDS43FE3AU9W6IW","","238","img/flower4.png","74","238","1","1","2","2","1,0,0,1,1,0,1,0,1","1,0,0,1,1,0,1,0,1","1",""
"","html-keyboard-response","59","88462","0.0-59.0","30LSNF239VHTHW15HSX2EKIMMQHI2B","AJDHPRCJ985C7","3XT3KXP24ZKFDDMCDS43FE3AU9W6IW","","null","<img src=""img/flower4.png"" style=""width:200px; border:14px solid green;"">","null","","","","","","","","",""
"","image-keyboard-response","60","88744","0.0-60.0","30LSNF239VHTHW15HSX2EKIMMQHI2B","AJDHPRCJ985C7","3XT3KXP24ZKFDDMCDS43FE3AU9W6IW","","282","img/flower4.png","74","283","1","1","2","2","1,0,0,1,1,0,1,0,1","1,0,0,1,1,0,1,0,1","1",""
"","html-keyboard-response","61","89045","0.0-61.0","30LSNF239VHTHW15HSX2EKIMMQHI2B","AJDHPRCJ985C7","3XT3KXP24ZKFDDMCDS43FE3AU9W6IW","","null","<img src=""img/flower4.png"" style=""width:200px; border:14px solid green;"">","null","","","","","","","","",""
"","image-keyboard-response","62","89217","0.0-62.0","30LSNF239VHTHW15HSX2EKIMMQHI2B","AJDHPRCJ985C7","3XT3KXP24ZKFDDMCDS43FE3AU9W6IW","","170","img/flower3.png","74","171","1","1","1","2","1,0,0,1,1,0,1,0,1","1,0,0,1,1,0,1,0,1","1",""
"","html-keyboard-response","63","89522","0.0-63.0","30LSNF239VHTHW15HSX2EKIMMQHI2B","AJDHPRCJ985C7","3XT3KXP24ZKFDDMCDS43FE3AU9W6IW","","null","<img src=""img/flower3.png"" style=""width:200px; border:14px solid green;"">","null","","","","","","","","",""
"","image-keyboard-response","64","89665","0.0-64.0","30LSNF239VHTHW15HSX2EKIMMQHI2B","AJDHPRCJ985C7","3XT3KXP24ZKFDDMCDS43FE3AU9W6IW","","142","img/flower3.png","74","142","1","1","1","2","1,0,0,1,1,0,1,0,1","1,0,0,1,1,0,1,0,1","1",""
"","html-keyboard-response","65","89965","0.0-65.0","30LSNF239VHTHW15HSX2EKIMMQHI2B","AJDHPRCJ985C7","3XT3KXP24ZKFDDMCDS43FE3AU9W6IW","","null","<img src=""img/flower3.png"" style=""width:200px; border:14px solid green;"">","null","","","","","","","","",""
"","image-keyboard-response","66","90225","0.0-66.0","30LSNF239VHTHW15HSX2EKIMMQHI2B","AJDHPRCJ985C7","3XT3KXP24ZKFDDMCDS43FE3AU9W6IW","","259","img/flower3.png","74","259","1","1","1","2","1,0,0,1,1,0,1,0,1","1,0,0,1,1,0,1,0,1","1",""
"","html-keyboard-response","67","90528","0.0-67.0","30LSNF239VHTHW15HSX2EKIMMQHI2B","AJDHPRCJ985C7","3XT3KXP24ZKFDDMCDS43FE3AU9W6IW","","null","<img src=""img/flower3.png"" style=""width:200px; border:14px solid green;"">","null","","","","","","","","",""
"","image-keyboard-response","68","90681","0.0-68.0","30LSNF239VHTHW15HSX2EKIMMQHI2B","AJDHPRCJ985C7","3XT3KXP24ZKFDDMCDS43FE3AU9W6IW","","152","img/flower4.png","74","153","1","1","2","2","1,0,0,1,1,0,1,0,1","1,0,0,1,1,0,1,0,1","1",""
"","html-keyboard-response","69","90983","0.0-69.0","30LSNF239VHTHW15HSX2EKIMMQHI2B","AJDHPRCJ985C7","3XT3KXP24ZKFDDMCDS43FE3AU9W6IW","","null","<img src=""img/flower4.png"" style=""width:200px; border:14px solid green;"">","null","","","","","","","","",""
"","image-keyboard-response","70","91185","0.0-70.0","30LSNF239VHTHW15HSX2EKIMMQHI2B","AJDHPRCJ985C7","3XT3KXP24ZKFDDMCDS43FE3AU9W6IW","","201","img/flower6.png","74","202","1","1","3","2","1,0,0,1,1,0,1,0,1","1,0,0,1,1,0,1,0,1","1",""
"","html-keyboard-response","71","91490","0.0-71.0","30LSNF239VHTHW15HSX2EKIMMQHI2B","AJDHPRCJ985C7","3XT3KXP24ZKFDDMCDS43FE3AU9W6IW","","null","<img src=""img/flower6.png"" style=""width:200px; border:14px solid green;"">","null","","","","","","","","",""
"","image-keyboard-response","72","91624","0.0-72.0","30LSNF239VHTHW15HSX2EKIMMQHI2B","AJDHPRCJ985C7","3XT3KXP24ZKFDDMCDS43FE3AU9W6IW","","135","img/flower6.png","74","135","1","1","3","2","1,0,0,1,1,0,1,0,1","1,0,0,1,1,0,1,0,1","1",""
"","html-keyboard-response","73","91927","0.0-73.0","30LSNF239VHTHW15HSX2EKIMMQHI2B","AJDHPRCJ985C7","3XT3KXP24ZKFDDMCDS43FE3AU9W6IW","","null","<img src=""img/flower6.png"" style=""width:200px; border:14px solid green;"">","null","","","","","","","","",""
"","image-keyboard-response","74","92144","0.0-74.0","30LSNF239VHTHW15HSX2EKIMMQHI2B","AJDHPRCJ985C7","3XT3KXP24ZKFDDMCDS43FE3AU9W6IW","","215","img/flower4.png","74","215","1","1","2","2","1,0,0,1,1,0,1,0,1","1,0,0,1,1,0,1,0,1","1",""
"","html-keyboard-response","75","92448","0.0-75.0","30LSNF239VHTHW15HSX2EKIMMQHI2B","AJDHPRCJ985C7","3XT3KXP24ZKFDDMCDS43FE3AU9W6IW","","null","<img src=""img/flower4.png"" style=""width:200px; border:14px solid green;"">","null","","","","","","","","",""
"","image-keyboard-response","76","92704","0.0-76.0","30LSNF239VHTHW15HSX2EKIMMQHI2B","AJDHPRCJ985C7","3XT3KXP24ZKFDDMCDS43FE3AU9W6IW","","255","img/flower4.png","74","256","1","1","2","2","1,0,0,1,1,0,1,0,1","1,0,0,1,1,0,1,0,1","1",""
"","html-keyboard-response","77","93011","0.0-77.0","30LSNF239VHTHW15HSX2EKIMMQHI2B","AJDHPRCJ985C7","3XT3KXP24ZKFDDMCDS43FE3AU9W6IW","","null","<img src=""img/flower4.png"" style=""width:200px; border:14px solid green;"">","null","","","","","","","","",""
"","image-keyboard-response","78","93321","0.0-78.0","30LSNF239VHTHW15HSX2EKIMMQHI2B","AJDHPRCJ985C7","3XT3KXP24ZKFDDMCDS43FE3AU9W6IW","","310","img/flower4.png","74","310","1","1","2","2","1,0,0,1,1,0,1,0,1","1,0,0,1,1,0,1,0,1","1",""
"","html-keyboard-response","79","93622","0.0-79.0","30LSNF239VHTHW15HSX2EKIMMQHI2B","AJDHPRCJ985C7","3XT3KXP24ZKFDDMCDS43FE3AU9W6IW","","null","<img src=""img/flower4.png"" style=""width:200px; border:14px solid green;"">","null","","","","","","","","",""
"","image-keyboard-response","80","93849","0.0-80.0","30LSNF239VHTHW15HSX2EKIMMQHI2B","AJDHPRCJ985C7","3XT3KXP24ZKFDDMCDS43FE3AU9W6IW","","226","img/flower4.png","74","226","1","1","2","2","1,0,0,1,1,0,1,0,1","1,0,0,1,1,0,1,0,1","1",""
"","html-keyboard-response","81","94154","0.0-81.0","30LSNF239VHTHW15HSX2EKIMMQHI2B","AJDHPRCJ985C7","3XT3KXP24ZKFDDMCDS43FE3AU9W6IW","","null","<img src=""img/flower4.png"" style=""width:200px; border:14px solid green;"">","null","","","","","","","","",""
"","image-keyboard-response","82","94305","0.0-82.0","30LSNF239VHTHW15HSX2EKIMMQHI2B","AJDHPRCJ985C7","3XT3KXP24ZKFDDMCDS43FE3AU9W6IW","","150","img/flower6.png","74","150","1","1","3","2","1,0,0,1,1,0,1,0,1","1,0,0,1,1,0,1,0,1","1",""
"","html-keyboard-response","83","94608","0.0-83.0","30LSNF239VHTHW15HSX2EKIMMQHI2B","AJDHPRCJ985C7","3XT3KXP24ZKFDDMCDS43FE3AU9W6IW","","null","<img src=""img/flower6.png"" style=""width:200px; border:14px solid green;"">","null","","","","","","","","",""
"","image-keyboard-response","84","94905","0.0-84.0","30LSNF239VHTHW15HSX2EKIMMQHI2B","AJDHPRCJ985C7","3XT3KXP24ZKFDDMCDS43FE3AU9W6IW","","296","img/flower3.png","74","296","1","1","1","2","1,0,0,1,1,0,1,0,1","1,0,0,1,1,0,1,0,1","1",""
"","html-keyboard-response","85","95206","0.0-85.0","30LSNF239VHTHW15HSX2EKIMMQHI2B","AJDHPRCJ985C7","3XT3KXP24ZKFDDMCDS43FE3AU9W6IW","","null","<img src=""img/flower3.png"" style=""width:200px; border:14px solid green;"">","null","","","","","","","","",""
"","image-keyboard-response","86","95385","0.0-86.0","30LSNF239VHTHW15HSX2EKIMMQHI2B","AJDHPRCJ985C7","3XT3KXP24ZKFDDMCDS43FE3AU9W6IW","","179","img/flower3.png","74","179","1","1","1","2","1,0,0,1,1,0,1,0,1","1,0,0,1,1,0,1,0,1","1",""
"","html-keyboard-response","87","95686","0.0-87.0","30LSNF239VHTHW15HSX2EKIMMQHI2B","AJDHPRCJ985C7","3XT3KXP24ZKFDDMCDS43FE3AU9W6IW","","null","<img src=""img/flower3.png"" style=""width:200px; border:14px solid green;"">","null","","","","","","","","",""
"","image-keyboard-response","88","95969","0.0-88.0","30LSNF239VHTHW15HSX2EKIMMQHI2B","AJDHPRCJ985C7","3XT3KXP24ZKFDDMCDS43FE3AU9W6IW","","281","img/flower3.png","74","282","1","1","1","2","1,0,0,1,1,0,1,0,1","1,0,0,1,1,0,1,0,1","1",""
"","html-keyboard-response","89","96270","0.0-89.0","30LSNF239VHTHW15HSX2EKIMMQHI2B","AJDHPRCJ985C7","3XT3KXP24ZKFDDMCDS43FE3AU9W6IW","","null","<img src=""img/flower3.png"" style=""width:200px; border:14px solid green;"">","null","","","","","","","","",""
"","image-keyboard-response","90","96665","0.0-90.0","30LSNF239VHTHW15HSX2EKIMMQHI2B","AJDHPRCJ985C7","3XT3KXP24ZKFDDMCDS43FE3AU9W6IW","","394","img/flower4.png","74","395","1","1","2","2","1,0,0,1,1,0,1,0,1","1,0,0,1,1,0,1,0,1","1",""
"","html-keyboard-response","91","96966","0.0-91.0","30LSNF239VHTHW15HSX2EKIMMQHI2B","AJDHPRCJ985C7","3XT3KXP24ZKFDDMCDS43FE3AU9W6IW","","null","<img src=""img/flower4.png"" style=""width:200px; border:14px solid green;"">","null","","","","","","","","",""
"","image-keyboard-response","92","97384","0.0-92.0","30LSNF239VHTHW15HSX2EKIMMQHI2B","AJDHPRCJ985C7","3XT3KXP24ZKFDDMCDS43FE3AU9W6IW","","418","img/flower3.png","74","419","1","1","1","2","1,0,0,1,1,0,1,0,1","1,0,0,1,1,0,1,0,1","1",""
"","html-keyboard-response","93","97686","0.0-93.0","30LSNF239VHTHW15HSX2EKIMMQHI2B","AJDHPRCJ985C7","3XT3KXP24ZKFDDMCDS43FE3AU9W6IW","","null","<img src=""img/flower3.png"" style=""width:200px; border:14px solid green;"">","null","","","","","","","","",""
"","image-keyboard-response","94","98025","0.0-94.0","30LSNF239VHTHW15HSX2EKIMMQHI2B","AJDHPRCJ985C7","3XT3KXP24ZKFDDMCDS43FE3AU9W6IW","","337","img/flower3.png","74","338","1","1","1","2","1,0,0,1,1,0,1,0,1","1,0,0,1,1,0,1,0,1","1",""
"","html-keyboard-response","95","98328","0.0-95.0","30LSNF239VHTHW15HSX2EKIMMQHI2B","AJDHPRCJ985C7","3XT3KXP24ZKFDDMCDS43FE3AU9W6IW","","null","<img src=""img/flower3.png"" style=""width:200px; border:14px solid green;"">","null","","","","","","","","",""
"","image-keyboard-response","96","98561","0.0-96.0","30LSNF239VHTHW15HSX2EKIMMQHI2B","AJDHPRCJ985C7","3XT3KXP24ZKFDDMCDS43FE3AU9W6IW","","233","img/flower3.png","74","233","1","1","1","2","1,0,0,1,1,0,1,0,1","1,0,0,1,1,0,1,0,1","1",""
"","html-keyboard-response","97","98865","0.0-97.0","30LSNF239VHTHW15HSX2EKIMMQHI2B","AJDHPRCJ985C7","3XT3KXP24ZKFDDMCDS43FE3AU9W6IW","","null","<img src=""img/flower3.png"" style=""width:200px; border:14px solid green;"">","null","","","","","","","","",""
"","image-keyboard-response","98","99153","0.0-98.0","30LSNF239VHTHW15HSX2EKIMMQHI2B","AJDHPRCJ985C7","3XT3KXP24ZKFDDMCDS43FE3AU9W6IW","","287","img/flower6.png","74","288","1","1","3","2","1,0,0,1,1,0,1,0,1","1,0,0,1,1,0,1,0,1","1",""
"","html-keyboard-response","99","99456","0.0-99.0","30LSNF239VHTHW15HSX2EKIMMQHI2B","AJDHPRCJ985C7","3XT3KXP24ZKFDDMCDS43FE3AU9W6IW","","null","<img src=""img/flower6.png"" style=""width:200px; border:14px solid green;"">","null","","","","","","","","",""
"","image-keyboard-response","100","99688","0.0-100.0","30LSNF239VHTHW15HSX2EKIMMQHI2B","AJDHPRCJ985C7","3XT3KXP24ZKFDDMCDS43FE3AU9W6IW","","233","img/flower4.png","74","233","1","1","2","2","1,0,0,1,1,0,1,0,1","1,0,0,1,1,0,1,0,1","1",""
"","html-keyboard-response","101","99991","0.0-101.0","30LSNF239VHTHW15HSX2EKIMMQHI2B","AJDHPRCJ985C7","3XT3KXP24ZKFDDMCDS43FE3AU9W6IW","","null","<img src=""img/flower4.png"" style=""width:200px; border:14px solid green;"">","null","","","","","","","","",""
"","image-keyboard-response","102","100241","0.0-102.0","30LSNF239VHTHW15HSX2EKIMMQHI2B","AJDHPRCJ985C7","3XT3KXP24ZKFDDMCDS43FE3AU9W6IW","","250","img/flower3.png","74","251","1","1","1","2","1,0,0,1,1,0,1,0,1","1,0,0,1,1,0,1,0,1","1",""
"","html-keyboard-response","103","100546","0.0-103.0","30LSNF239VHTHW15HSX2EKIMMQHI2B","AJDHPRCJ985C7","3XT3KXP24ZKFDDMCDS43FE3AU9W6IW","","null","<img src=""img/flower3.png"" style=""width:200px; border:14px solid green;"">","null","","","","","","","","",""
"","image-keyboard-response","104","100792","0.0-104.0","30LSNF239VHTHW15HSX2EKIMMQHI2B","AJDHPRCJ985C7","3XT3KXP24ZKFDDMCDS43FE3AU9W6IW","","245","img/flower6.png","74","245","1","1","3","2","1,0,0,1,1,0,1,0,1","1,0,0,1,1,0,1,0,1","1",""
"","html-keyboard-response","105","101098","0.0-105.0","30LSNF239VHTHW15HSX2EKIMMQHI2B","AJDHPRCJ985C7","3XT3KXP24ZKFDDMCDS43FE3AU9W6IW","","null","<img src=""img/flower6.png"" style=""width:200px; border:14px solid green;"">","null","","","","","","","","",""
"","image-keyboard-response","106","101337","0.0-106.0","30LSNF239VHTHW15HSX2EKIMMQHI2B","AJDHPRCJ985C7","3XT3KXP24ZKFDDMCDS43FE3AU9W6IW","","238","img/flower4.png","74","238","1","1","2","2","1,0,0,1,1,0,1,0,1","1,0,0,1,1,0,1,0,1","1",""
"","html-keyboard-response","107","101642","0.0-107.0","30LSNF239VHTHW15HSX2EKIMMQHI2B","AJDHPRCJ985C7","3XT3KXP24ZKFDDMCDS43FE3AU9W6IW","","null","<img src=""img/flower4.png"" style=""width:200px; border:14px solid green;"">","null","","","","","","","","",""
"","image-keyboard-response","108","101881","0.0-108.0","30LSNF239VHTHW15HSX2EKIMMQHI2B","AJDHPRCJ985C7","3XT3KXP24ZKFDDMCDS43FE3AU9W6IW","","239","img/flower3.png","74","239","1","1","1","2","1,0,0,1,1,0,1,0,1","1,0,0,1,1,0,1,0,1","1",""
"","html-keyboard-response","109","102182","0.0-109.0","30LSNF239VHTHW15HSX2EKIMMQHI2B","AJDHPRCJ985C7","3XT3KXP24ZKFDDMCDS43FE3AU9W6IW","","null","<img src=""img/flower3.png"" style=""width:200px; border:14px solid green;"">","null","","","","","","","","",""
"","image-keyboard-response","110","102409","0.0-110.0","30LSNF239VHTHW15HSX2EKIMMQHI2B","AJDHPRCJ985C7","3XT3KXP24ZKFDDMCDS43FE3AU9W6IW","","226","img/flower6.png","74","226","1","1","3","2","1,0,0,1,1,0,1,0,1","1,0,0,1,1,0,1,0,1","1",""
"","html-keyboard-response","111","102711","0.0-111.0","30LSNF239VHTHW15HSX2EKIMMQHI2B","AJDHPRCJ985C7","3XT3KXP24ZKFDDMCDS43FE3AU9W6IW","","null","<img src=""img/flower6.png"" style=""width:200px; border:14px solid green;"">","null","","","","","","","","",""
"","image-keyboard-response","112","102904","0.0-112.0","30LSNF239VHTHW15HSX2EKIMMQHI2B","AJDHPRCJ985C7","3XT3KXP24ZKFDDMCDS43FE3AU9W6IW","","193","img/flower4.png","74","193","1","1","2","2","1,0,0,1,1,0,1,0,1","1,0,0,1,1,0,1,0,1","1",""
"","html-keyboard-response","113","103210","0.0-113.0","30LSNF239VHTHW15HSX2EKIMMQHI2B","AJDHPRCJ985C7","3XT3KXP24ZKFDDMCDS43FE3AU9W6IW","","null","<img src=""img/flower4.png"" style=""width:200px; border:14px solid green;"">","null","","","","","","","","",""
"","image-keyboard-response","114","103361","0.0-114.0","30LSNF239VHTHW15HSX2EKIMMQHI2B","AJDHPRCJ985C7","3XT3KXP24ZKFDDMCDS43FE3AU9W6IW","","151","img/flower6.png","74","151","1","1","3","2","1,0,0,1,1,0,1,0,1","1,0,0,1,1,0,1,0,1","1",""
"","html-keyboard-response","115","103666","0.0-115.0","30LSNF239VHTHW15HSX2EKIMMQHI2B","AJDHPRCJ985C7","3XT3KXP24ZKFDDMCDS43FE3AU9W6IW","","null","<img src=""img/flower6.png"" style=""width:200px; border:14px solid green;"">","null","","","","","","","","",""
"","image-keyboard-response","116","103873","0.0-116.0","30LSNF239VHTHW15HSX2EKIMMQHI2B","AJDHPRCJ985C7","3XT3KXP24ZKFDDMCDS43FE3AU9W6IW","","207","img/flower4.png","74","207","1","1","2","2","1,0,0,1,1,0,1,0,1","1,0,0,1,1,0,1,0,1","1",""
"","html-keyboard-response","117","104179","0.0-117.0","30LSNF239VHTHW15HSX2EKIMMQHI2B","AJDHPRCJ985C7","3XT3KXP24ZKFDDMCDS43FE3AU9W6IW","","null","<img src=""img/flower4.png"" style=""width:200px; border:14px solid green;"">","null","","","","","","","","",""
"","image-keyboard-response","118","104345","0.0-118.0","30LSNF239VHTHW15HSX2EKIMMQHI2B","AJDHPRCJ985C7","3XT3KXP24ZKFDDMCDS43FE3AU9W6IW","","165","img/flower4.png","74","167","1","1","2","2","1,0,0,1,1,0,1,0,1","1,0,0,1,1,0,1,0,1","1",""
"","html-keyboard-response","119","104647","0.0-119.0","30LSNF239VHTHW15HSX2EKIMMQHI2B","AJDHPRCJ985C7","3XT3KXP24ZKFDDMCDS43FE3AU9W6IW","","null","<img src=""img/flower4.png"" style=""width:200px; border:14px solid green;"">","null","","","","","","","","",""
"","image-keyboard-response","120","104889","0.0-120.0","30LSNF239VHTHW15HSX2EKIMMQHI2B","AJDHPRCJ985C7","3XT3KXP24ZKFDDMCDS43FE3AU9W6IW","","242","img/flower6.png","74","242","1","1","3","2","1,0,0,1,1,0,1,0,1","1,0,0,1,1,0,1,0,1","1",""
"","html-keyboard-response","121","105190","0.0-121.0","30LSNF239VHTHW15HSX2EKIMMQHI2B","AJDHPRCJ985C7","3XT3KXP24ZKFDDMCDS43FE3AU9W6IW","","null","<img src=""img/flower6.png"" style=""width:200px; border:14px solid green;"">","null","","","","","","","","",""
"","image-keyboard-response","122","105361","0.0-122.0","30LSNF239VHTHW15HSX2EKIMMQHI2B","AJDHPRCJ985C7","3XT3KXP24ZKFDDMCDS43FE3AU9W6IW","","169","img/flower6.png","74","169","1","1","3","2","1,0,0,1,1,0,1,0,1","1,0,0,1,1,0,1,0,1","1",""
"","html-keyboard-response","123","105666","0.0-123.0","30LSNF239VHTHW15HSX2EKIMMQHI2B","AJDHPRCJ985C7","3XT3KXP24ZKFDDMCDS43FE3AU9W6IW","","null","<img src=""img/flower6.png"" style=""width:200px; border:14px solid green;"">","null","","","","","","","","",""
"","image-keyboard-response","124","105945","0.0-124.0","30LSNF239VHTHW15HSX2EKIMMQHI2B","AJDHPRCJ985C7","3XT3KXP24ZKFDDMCDS43FE3AU9W6IW","","279","img/flower6.png","74","279","1","1","3","2","1,0,0,1,1,0,1,0,1","1,0,0,1,1,0,1,0,1","1",""
"","html-keyboard-response","125","106247","0.0-125.0","30LSNF239VHTHW15HSX2EKIMMQHI2B","AJDHPRCJ985C7","3XT3KXP24ZKFDDMCDS43FE3AU9W6IW","","null","<img src=""img/flower6.png"" style=""width:200px; border:14px solid green;"">","null","","","","","","","","",""
"","image-keyboard-response","126","106425","0.0-126.0","30LSNF239VHTHW15HSX2EKIMMQHI2B","AJDHPRCJ985C7","3XT3KXP24ZKFDDMCDS43FE3AU9W6IW","","178","img/flower4.png","74","178","1","1","2","2","1,0,0,1,1,0,1,0,1","1,0,0,1,1,0,1,0,1","1",""
"","html-keyboard-response","127","106728","0.0-127.0","30LSNF239VHTHW15HSX2EKIMMQHI2B","AJDHPRCJ985C7","3XT3KXP24ZKFDDMCDS43FE3AU9W6IW","","null","<img src=""img/flower4.png"" style=""width:200px; border:14px solid green;"">","null","","","","","","","","",""
"","image-keyboard-response","128","106913","0.0-128.0","30LSNF239VHTHW15HSX2EKIMMQHI2B","AJDHPRCJ985C7","3XT3KXP24ZKFDDMCDS43FE3AU9W6IW","","184","img/flower6.png","74","184","1","1","3","2","1,0,0,1,1,0,1,0,1","1,0,0,1,1,0,1,0,1","1",""
"","html-keyboard-response","129","107216","0.0-129.0","30LSNF239VHTHW15HSX2EKIMMQHI2B","AJDHPRCJ985C7","3XT3KXP24ZKFDDMCDS43FE3AU9W6IW","","null","<img src=""img/flower6.png"" style=""width:200px; border:14px solid green;"">","null","","","","","","","","",""
"","image-keyboard-response","130","107425","0.0-130.0","30LSNF239VHTHW15HSX2EKIMMQHI2B","AJDHPRCJ985C7","3XT3KXP24ZKFDDMCDS43FE3AU9W6IW","","208","img/flower3.png","74","208","1","1","1","2","1,0,0,1,1,0,1,0,1","1,0,0,1,1,0,1,0,1","1",""
"","html-keyboard-response","131","107728","0.0-131.0","30LSNF239VHTHW15HSX2EKIMMQHI2B","AJDHPRCJ985C7","3XT3KXP24ZKFDDMCDS43FE3AU9W6IW","","null","<img src=""img/flower3.png"" style=""width:200px; border:14px solid green;"">","null","","","","","","","","",""
"","image-keyboard-response","132","107872","0.0-132.0","30LSNF239VHTHW15HSX2EKIMMQHI2B","AJDHPRCJ985C7","3XT3KXP24ZKFDDMCDS43FE3AU9W6IW","","145","img/flower4.png","74","145","1","1","2","2","1,0,0,1,1,0,1,0,1","1,0,0,1,1,0,1,0,1","1",""
"","html-keyboard-response","133","108175","0.0-133.0","30LSNF239VHTHW15HSX2EKIMMQHI2B","AJDHPRCJ985C7","3XT3KXP24ZKFDDMCDS43FE3AU9W6IW","","null","<img src=""img/flower4.png"" style=""width:200px; border:14px solid green;"">","null","","","","","","","","",""
"","image-keyboard-response","134","108409","0.0-134.0","30LSNF239VHTHW15HSX2EKIMMQHI2B","AJDHPRCJ985C7","3XT3KXP24ZKFDDMCDS43FE3AU9W6IW","","234","img/flower6.png","74","234","1","1","3","2","1,0,0,1,1,0,1,0,1","1,0,0,1,1,0,1,0,1","1",""
"","html-keyboard-response","135","108715","0.0-135.0","30LSNF239VHTHW15HSX2EKIMMQHI2B","AJDHPRCJ985C7","3XT3KXP24ZKFDDMCDS43FE3AU9W6IW","","null","<img src=""img/flower6.png"" style=""width:200px; border:14px solid green;"">","null","","","","","","","","",""
"","image-keyboard-response","136","108856","0.0-136.0","30LSNF239VHTHW15HSX2EKIMMQHI2B","AJDHPRCJ985C7","3XT3KXP24ZKFDDMCDS43FE3AU9W6IW","","141","img/flower4.png","74","141","1","1","2","2","1,0,0,1,1,0,1,0,1","1,0,0,1,1,0,1,0,1","1",""
"","html-keyboard-response","137","109159","0.0-137.0","30LSNF239VHTHW15HSX2EKIMMQHI2B","AJDHPRCJ985C7","3XT3KXP24ZKFDDMCDS43FE3AU9W6IW","","null","<img src=""img/flower4.png"" style=""width:200px; border:14px solid green;"">","null","","","","","","","","",""
"","image-keyboard-response","138","109353","0.0-138.0","30LSNF239VHTHW15HSX2EKIMMQHI2B","AJDHPRCJ985C7","3XT3KXP24ZKFDDMCDS43FE3AU9W6IW","","194","img/flower3.png","74","194","1","1","1","2","1,0,0,1,1,0,1,0,1","1,0,0,1,1,0,1,0,1","1",""
"","html-keyboard-response","139","109655","0.0-139.0","30LSNF239VHTHW15HSX2EKIMMQHI2B","AJDHPRCJ985C7","3XT3KXP24ZKFDDMCDS43FE3AU9W6IW","","null","<img src=""img/flower3.png"" style=""width:200px; border:14px solid green;"">","null","","","","","","","","",""
"","image-keyboard-response","140","109849","0.0-140.0","30LSNF239VHTHW15HSX2EKIMMQHI2B","AJDHPRCJ985C7","3XT3KXP24ZKFDDMCDS43FE3AU9W6IW","","193","img/flower4.png","74","193","1","1","2","2","1,0,0,1,1,0,1,0,1","1,0,0,1,1,0,1,0,1","1",""
"","html-keyboard-response","141","110151","0.0-141.0","30LSNF239VHTHW15HSX2EKIMMQHI2B","AJDHPRCJ985C7","3XT3KXP24ZKFDDMCDS43FE3AU9W6IW","","null","<img src=""img/flower4.png"" style=""width:200px; border:14px solid green;"">","null","","","","","","","","",""
"","image-keyboard-response","142","110377","0.0-142.0","30LSNF239VHTHW15HSX2EKIMMQHI2B","AJDHPRCJ985C7","3XT3KXP24ZKFDDMCDS43FE3AU9W6IW","","226","img/flower4.png","74","227","1","1","2","2","1,0,0,1,1,0,1,0,1","1,0,0,1,1,0,1,0,1","1",""
"","html-keyboard-response","143","110678","0.0-143.0","30LSNF239VHTHW15HSX2EKIMMQHI2B","AJDHPRCJ985C7","3XT3KXP24ZKFDDMCDS43FE3AU9W6IW","","null","<img src=""img/flower4.png"" style=""width:200px; border:14px solid green;"">","null","","","","","","","","",""
"","image-keyboard-response","144","110809","0.0-144.0","30LSNF239VHTHW15HSX2EKIMMQHI2B","AJDHPRCJ985C7","3XT3KXP24ZKFDDMCDS43FE3AU9W6IW","","130","img/flower4.png","74","130","1","1","2","2","1,0,0,1,1,0,1,0,1","1,0,0,1,1,0,1,0,1","1",""
"","html-keyboard-response","145","111110","0.0-145.0","30LSNF239VHTHW15HSX2EKIMMQHI2B","AJDHPRCJ985C7","3XT3KXP24ZKFDDMCDS43FE3AU9W6IW","","null","<img src=""img/flower4.png"" style=""width:200px; border:14px solid green;"">","null","","","","","","","","",""
"","image-keyboard-response","146","111298","0.0-146.0","30LSNF239VHTHW15HSX2EKIMMQHI2B","AJDHPRCJ985C7","3XT3KXP24ZKFDDMCDS43FE3AU9W6IW","","187","img/flower3.png","74","187","1","1","1","2","1,0,0,1,1,0,1,0,1","1,0,0,1,1,0,1,0,1","1",""
"","html-keyboard-response","147","111599","0.0-147.0","30LSNF239VHTHW15HSX2EKIMMQHI2B","AJDHPRCJ985C7","3XT3KXP24ZKFDDMCDS43FE3AU9W6IW","","null","<img src=""img/flower3.png"" style=""width:200px; border:14px solid green;"">","null","","","","","","","","",""
"","image-keyboard-response","148","111801","0.0-148.0","30LSNF239VHTHW15HSX2EKIMMQHI2B","AJDHPRCJ985C7","3XT3KXP24ZKFDDMCDS43FE3AU9W6IW","","201","img/flower3.png","74","201","1","1","1","2","1,0,0,1,1,0,1,0,1","1,0,0,1,1,0,1,0,1","1",""
"","html-keyboard-response","149","112106","0.0-149.0","30LSNF239VHTHW15HSX2EKIMMQHI2B","AJDHPRCJ985C7","3XT3KXP24ZKFDDMCDS43FE3AU9W6IW","","null","<img src=""img/flower3.png"" style=""width:200px; border:14px solid green;"">","null","","","","","","","","",""
"","image-keyboard-response","150","112313","0.0-150.0","30LSNF239VHTHW15HSX2EKIMMQHI2B","AJDHPRCJ985C7","3XT3KXP24ZKFDDMCDS43FE3AU9W6IW","","207","img/flower6.png","74","207","1","1","3","2","1,0,0,1,1,0,1,0,1","1,0,0,1,1,0,1,0,1","1",""
"","html-keyboard-response","151","112616","0.0-151.0","30LSNF239VHTHW15HSX2EKIMMQHI2B","AJDHPRCJ985C7","3XT3KXP24ZKFDDMCDS43FE3AU9W6IW","","null","<img src=""img/flower6.png"" style=""width:200px; border:14px solid green;"">","null","","","","","","","","",""
"","image-keyboard-response","152","112729","0.0-152.0","30LSNF239VHTHW15HSX2EKIMMQHI2B","AJDHPRCJ985C7","3XT3KXP24ZKFDDMCDS43FE3AU9W6IW","","112","img/flower4.png","74","113","1","1","2","2","1,0,0,1,1,0,1,0,1","1,0,0,1,1,0,1,0,1","1",""
"","html-keyboard-response","153","113033","0.0-153.0","30LSNF239VHTHW15HSX2EKIMMQHI2B","AJDHPRCJ985C7","3XT3KXP24ZKFDDMCDS43FE3AU9W6IW","","null","<img src=""img/flower4.png"" style=""width:200px; border:14px solid green;"">","null","","","","","","","","",""
"","image-keyboard-response","154","113281","0.0-154.0","30LSNF239VHTHW15HSX2EKIMMQHI2B","AJDHPRCJ985C7","3XT3KXP24ZKFDDMCDS43FE3AU9W6IW","","248","img/flower6.png","74","248","1","1","3","2","1,0,0,1,1,0,1,0,1","1,0,0,1,1,0,1,0,1","1",""
"","html-keyboard-response","155","113583","0.0-155.0","30LSNF239VHTHW15HSX2EKIMMQHI2B","AJDHPRCJ985C7","3XT3KXP24ZKFDDMCDS43FE3AU9W6IW","","null","<img src=""img/flower6.png"" style=""width:200px; border:14px solid green;"">","null","","","","","","","","",""
"","image-keyboard-response","156","113777","0.0-156.0","30LSNF239VHTHW15HSX2EKIMMQHI2B","AJDHPRCJ985C7","3XT3KXP24ZKFDDMCDS43FE3AU9W6IW","","193","img/flower4.png","74","194","1","1","2","2","1,0,0,1,1,0,1,0,1","1,0,0,1,1,0,1,0,1","1",""
"","html-keyboard-response","157","114080","0.0-157.0","30LSNF239VHTHW15HSX2EKIMMQHI2B","AJDHPRCJ985C7","3XT3KXP24ZKFDDMCDS43FE3AU9W6IW","","null","<img src=""img/flower4.png"" style=""width:200px; border:14px solid green;"">","null","","","","","","","","",""
"","image-keyboard-response","158","114208","0.0-158.0","30LSNF239VHTHW15HSX2EKIMMQHI2B","AJDHPRCJ985C7","3XT3KXP24ZKFDDMCDS43FE3AU9W6IW","","128","img/flower4.png","74","128","1","1","2","2","1,0,0,1,1,0,1,0,1","1,0,0,1,1,0,1,0,1","1",""
"","html-keyboard-response","159","114511","0.0-159.0","30LSNF239VHTHW15HSX2EKIMMQHI2B","AJDHPRCJ985C7","3XT3KXP24ZKFDDMCDS43FE3AU9W6IW","","null","<img src=""img/flower4.png"" style=""width:200px; border:14px solid green;"">","null","","","","","","","","",""
"","image-keyboard-response","160","114681","0.0-160.0","30LSNF239VHTHW15HSX2EKIMMQHI2B","AJDHPRCJ985C7","3XT3KXP24ZKFDDMCDS43FE3AU9W6IW","","170","img/flower3.png","74","170","1","1","1","2","1,0,0,1,1,0,1,0,1","1,0,0,1,1,0,1,0,1","1",""
"","html-keyboard-response","161","114983","0.0-161.0","30LSNF239VHTHW15HSX2EKIMMQHI2B","AJDHPRCJ985C7","3XT3KXP24ZKFDDMCDS43FE3AU9W6IW","","null","<img src=""img/flower3.png"" style=""width:200px; border:14px solid green;"">","null","","","","","","","","",""
"","image-keyboard-response","162","115177","0.0-162.0","30LSNF239VHTHW15HSX2EKIMMQHI2B","AJDHPRCJ985C7","3XT3KXP24ZKFDDMCDS43FE3AU9W6IW","","193","img/flower3.png","74","194","1","1","1","2","1,0,0,1,1,0,1,0,1","1,0,0,1,1,0,1,0,1","1",""
"","html-keyboard-response","163","115479","0.0-163.0","30LSNF239VHTHW15HSX2EKIMMQHI2B","AJDHPRCJ985C7","3XT3KXP24ZKFDDMCDS43FE3AU9W6IW","","null","<img src=""img/flower3.png"" style=""width:200px; border:14px solid green;"">","null","","","","","","","","",""
"","image-keyboard-response","164","115649","0.0-164.0","30LSNF239VHTHW15HSX2EKIMMQHI2B","AJDHPRCJ985C7","3XT3KXP24ZKFDDMCDS43FE3AU9W6IW","","171","img/flower6.png","74","171","1","1","3","2","1,0,0,1,1,0,1,0,1","1,0,0,1,1,0,1,0,1","1",""
"","html-keyboard-response","165","115951","0.0-165.0","30LSNF239VHTHW15HSX2EKIMMQHI2B","AJDHPRCJ985C7","3XT3KXP24ZKFDDMCDS43FE3AU9W6IW","","null","<img src=""img/flower6.png"" style=""width:200px; border:14px solid green;"">","null","","","","","","","","",""
"","image-keyboard-response","166","116281","0.0-166.0","30LSNF239VHTHW15HSX2EKIMMQHI2B","AJDHPRCJ985C7","3XT3KXP24ZKFDDMCDS43FE3AU9W6IW","","329","img/flower6.png","74","330","1","1","3","2","1,0,0,1,1,0,1,0,1","1,0,0,1,1,0,1,0,1","1",""
"","html-keyboard-response","167","116583","0.0-167.0","30LSNF239VHTHW15HSX2EKIMMQHI2B","AJDHPRCJ985C7","3XT3KXP24ZKFDDMCDS43FE3AU9W6IW","","null","<img src=""img/flower6.png"" style=""width:200px; border:14px solid green;"">","null","","","","","","","","",""
"","image-keyboard-response","168","116817","0.0-168.0","30LSNF239VHTHW15HSX2EKIMMQHI2B","AJDHPRCJ985C7","3XT3KXP24ZKFDDMCDS43FE3AU9W6IW","","233","img/flower3.png","74","233","1","1","1","2","1,0,0,1,1,0,1,0,1","1,0,0,1,1,0,1,0,1","1",""
"","html-keyboard-response","169","117120","0.0-169.0","30LSNF239VHTHW15HSX2EKIMMQHI2B","AJDHPRCJ985C7","3XT3KXP24ZKFDDMCDS43FE3AU9W6IW","","null","<img src=""img/flower3.png"" style=""width:200px; border:14px solid green;"">","null","","","","","","","","",""
"","image-keyboard-response","170","117329","0.0-170.0","30LSNF239VHTHW15HSX2EKIMMQHI2B","AJDHPRCJ985C7","3XT3KXP24ZKFDDMCDS43FE3AU9W6IW","","209","img/flower4.png","74","209","1","1","2","2","1,0,0,1,1,0,1,0,1","1,0,0,1,1,0,1,0,1","1",""
"","html-keyboard-response","171","117633","0.0-171.0","30LSNF239VHTHW15HSX2EKIMMQHI2B","AJDHPRCJ985C7","3XT3KXP24ZKFDDMCDS43FE3AU9W6IW","","null","<img src=""img/flower4.png"" style=""width:200px; border:14px solid green;"">","null","","","","","","","","",""
"","image-keyboard-response","172","117873","0.0-172.0","30LSNF239VHTHW15HSX2EKIMMQHI2B","AJDHPRCJ985C7","3XT3KXP24ZKFDDMCDS43FE3AU9W6IW","","240","img/flower4.png","74","240","1","1","2","2","1,0,0,1,1,0,1,0,1","1,0,0,1,1,0,1,0,1","1",""
"","html-keyboard-response","173","118179","0.0-173.0","30LSNF239VHTHW15HSX2EKIMMQHI2B","AJDHPRCJ985C7","3XT3KXP24ZKFDDMCDS43FE3AU9W6IW","","null","<img src=""img/flower4.png"" style=""width:200px; border:14px solid green;"">","null","","","","","","","","",""
"","image-keyboard-response","174","118249","0.0-174.0","30LSNF239VHTHW15HSX2EKIMMQHI2B","AJDHPRCJ985C7","3XT3KXP24ZKFDDMCDS43FE3AU9W6IW","","69","img/flower3.png","74","70","1","1","1","2","1,0,0,1,1,0,1,0,1","1,0,0,1,1,0,1,0,1","1",""
"","html-keyboard-response","175","118551","0.0-175.0","30LSNF239VHTHW15HSX2EKIMMQHI2B","AJDHPRCJ985C7","3XT3KXP24ZKFDDMCDS43FE3AU9W6IW","","null","<img src=""img/flower3.png"" style=""width:200px; border:14px solid green;"">","null","","","","","","","","",""
"","image-keyboard-response","176","118809","0.0-176.0","30LSNF239VHTHW15HSX2EKIMMQHI2B","AJDHPRCJ985C7","3XT3KXP24ZKFDDMCDS43FE3AU9W6IW","","257","img/flower4.png","74","257","1","1","2","2","1,0,0,1,1,0,1,0,1","1,0,0,1,1,0,1,0,1","1",""
"","html-keyboard-response","177","119115","0.0-177.0","30LSNF239VHTHW15HSX2EKIMMQHI2B","AJDHPRCJ985C7","3XT3KXP24ZKFDDMCDS43FE3AU9W6IW","","null","<img src=""img/flower4.png"" style=""width:200px; border:14px solid green;"">","null","","","","","","","","",""
"","image-keyboard-response","178","119289","0.0-178.0","30LSNF239VHTHW15HSX2EKIMMQHI2B","AJDHPRCJ985C7","3XT3KXP24ZKFDDMCDS43FE3AU9W6IW","","173","img/flower6.png","74","173","1","1","3","2","1,0,0,1,1,0,1,0,1","1,0,0,1,1,0,1,0,1","1",""
"","html-keyboard-response","179","119591","0.0-179.0","30LSNF239VHTHW15HSX2EKIMMQHI2B","AJDHPRCJ985C7","3XT3KXP24ZKFDDMCDS43FE3AU9W6IW","","null","<img src=""img/flower6.png"" style=""width:200px; border:14px solid green;"">","null","","","","","","","","",""
"","image-keyboard-response","180","119793","0.0-180.0","30LSNF239VHTHW15HSX2EKIMMQHI2B","AJDHPRCJ985C7","3XT3KXP24ZKFDDMCDS43FE3AU9W6IW","","201","img/flower6.png","74","201","1","1","3","2","1,0,0,1,1,0,1,0,1","1,0,0,1,1,0,1,0,1","1",""
"","html-keyboard-response","181","120099","0.0-181.0","30LSNF239VHTHW15HSX2EKIMMQHI2B","AJDHPRCJ985C7","3XT3KXP24ZKFDDMCDS43FE3AU9W6IW","","null","<img src=""img/flower6.png"" style=""width:200px; border:14px solid green;"">","null","","","","","","","","",""
"","image-keyboard-response","182","120233","0.0-182.0","30LSNF239VHTHW15HSX2EKIMMQHI2B","AJDHPRCJ985C7","3XT3KXP24ZKFDDMCDS43FE3AU9W6IW","","134","img/flower5.png","74","135","1","1","1","1","1,0.333,0.333,0.333,1,0.333,0.333,0.333,1","1,0.333,0.333,0.333,1,0.333,0.333,0.333,1","1",""
"","html-keyboard-response","183","120538","0.0-183.0","30LSNF239VHTHW15HSX2EKIMMQHI2B","AJDHPRCJ985C7","3XT3KXP24ZKFDDMCDS43FE3AU9W6IW","","null","<img src=""img/flower5.png"" style=""width:200px; border:14px solid green;"">","null","","","","","","","","",""
"","image-keyboard-response","184","120761","0.0-184.0","30LSNF239VHTHW15HSX2EKIMMQHI2B","AJDHPRCJ985C7","3XT3KXP24ZKFDDMCDS43FE3AU9W6IW","","223","img/flower1.png","74","223","1","0","3","1","1,0.333,0.333,0.333,1,0.333,0.333,0.333,1","1,0.333,0.333,0.333,1,0.333,0.333,0.333,1","1",""
"","html-keyboard-response","185","121066","0.0-185.0","30LSNF239VHTHW15HSX2EKIMMQHI2B","AJDHPRCJ985C7","3XT3KXP24ZKFDDMCDS43FE3AU9W6IW","","null","<img src=""img/flower1.png"" style=""width:200px;border:14px solid red;"">","null","","","","","","","","",""
"","image-keyboard-response","186","121249","0.0-186.0","30LSNF239VHTHW15HSX2EKIMMQHI2B","AJDHPRCJ985C7","3XT3KXP24ZKFDDMCDS43FE3AU9W6IW","","182","img/flower5.png","74","183","1","1","1","1","1,0.333,0.333,0.333,1,0.333,0.333,0.333,1","1,0.333,0.333,0.333,1,0.333,0.333,0.333,1","1",""
"","html-keyboard-response","187","121551","0.0-187.0","30LSNF239VHTHW15HSX2EKIMMQHI2B","AJDHPRCJ985C7","3XT3KXP24ZKFDDMCDS43FE3AU9W6IW","","null","<img src=""img/flower5.png"" style=""width:200px; border:14px solid green;"">","null","","","","","","","","",""
"","image-keyboard-response","188","121729","0.0-188.0","30LSNF239VHTHW15HSX2EKIMMQHI2B","AJDHPRCJ985C7","3XT3KXP24ZKFDDMCDS43FE3AU9W6IW","","177","img/flower5.png","74","177","1","1","1","1","1,0.333,0.333,0.333,1,0.333,0.333,0.333,1","1,0.333,0.333,0.333,1,0.333,0.333,0.333,1","1",""
"","html-keyboard-response","189","122033","0.0-189.0","30LSNF239VHTHW15HSX2EKIMMQHI2B","AJDHPRCJ985C7","3XT3KXP24ZKFDDMCDS43FE3AU9W6IW","","null","<img src=""img/flower5.png"" style=""width:200px; border:14px solid green;"">","null","","","","","","","","",""
"","image-keyboard-response","190","122185","0.0-190.0","30LSNF239VHTHW15HSX2EKIMMQHI2B","AJDHPRCJ985C7","3XT3KXP24ZKFDDMCDS43FE3AU9W6IW","","152","img/flower1.png","74","152","1","0","3","1","1,0.333,0.333,0.333,1,0.333,0.333,0.333,1","1,0.333,0.333,0.333,1,0.333,0.333,0.333,1","1",""
"","html-keyboard-response","191","122490","0.0-191.0","30LSNF239VHTHW15HSX2EKIMMQHI2B","AJDHPRCJ985C7","3XT3KXP24ZKFDDMCDS43FE3AU9W6IW","","null","<img src=""img/flower1.png"" style=""width:200px;border:14px solid red;"">","null","","","","","","","","",""
"","image-keyboard-response","192","122753","0.0-192.0","30LSNF239VHTHW15HSX2EKIMMQHI2B","AJDHPRCJ985C7","3XT3KXP24ZKFDDMCDS43FE3AU9W6IW","","263","img/flower1.png","74","263","1","1","3","1","1,0.333,0.333,0.333,1,0.333,0.333,0.333,1","1,0.333,0.333,0.333,1,0.333,0.333,0.333,1","1",""
"","html-keyboard-response","193","123055","0.0-193.0","30LSNF239VHTHW15HSX2EKIMMQHI2B","AJDHPRCJ985C7","3XT3KXP24ZKFDDMCDS43FE3AU9W6IW","","null","<img src=""img/flower1.png"" style=""width:200px; border:14px solid green;"">","null","","","","","","","","",""
"","image-keyboard-response","194","123329","0.0-194.0","30LSNF239VHTHW15HSX2EKIMMQHI2B","AJDHPRCJ985C7","3XT3KXP24ZKFDDMCDS43FE3AU9W6IW","","275","img/flower1.png","74","275","1","0","3","1","1,0.333,0.333,0.333,1,0.333,0.333,0.333,1","1,0.333,0.333,0.333,1,0.333,0.333,0.333,1","1",""
"","html-keyboard-response","195","123633","0.0-195.0","30LSNF239VHTHW15HSX2EKIMMQHI2B","AJDHPRCJ985C7","3XT3KXP24ZKFDDMCDS43FE3AU9W6IW","","null","<img src=""img/flower1.png"" style=""width:200px;border:14px solid red;"">","null","","","","","","","","",""
"","image-keyboard-response","196","123985","0.0-196.0","30LSNF239VHTHW15HSX2EKIMMQHI2B","AJDHPRCJ985C7","3XT3KXP24ZKFDDMCDS43FE3AU9W6IW","","351","img/flower1.png","74","352","1","1","3","1","1,0.333,0.333,0.333,1,0.333,0.333,0.333,1","1,0.333,0.333,0.333,1,0.333,0.333,0.333,1","1",""
"","html-keyboard-response","197","124287","0.0-197.0","30LSNF239VHTHW15HSX2EKIMMQHI2B","AJDHPRCJ985C7","3XT3KXP24ZKFDDMCDS43FE3AU9W6IW","","null","<img src=""img/flower1.png"" style=""width:200px; border:14px solid green;"">","null","","","","","","","","",""
"","image-keyboard-response","198","124802","0.0-198.0","30LSNF239VHTHW15HSX2EKIMMQHI2B","AJDHPRCJ985C7","3XT3KXP24ZKFDDMCDS43FE3AU9W6IW","","514","img/flower1.png","74","514","1","0","3","1","1,0.333,0.333,0.333,1,0.333,0.333,0.333,1","1,0.333,0.333,0.333,1,0.333,0.333,0.333,1","1",""
"","html-keyboard-response","199","125103","0.0-199.0","30LSNF239VHTHW15HSX2EKIMMQHI2B","AJDHPRCJ985C7","3XT3KXP24ZKFDDMCDS43FE3AU9W6IW","","null","<img src=""img/flower1.png"" style=""width:200px;border:14px solid red;"">","null","","","","","","","","",""
"","image-keyboard-response","200","125729","0.0-200.0","30LSNF239VHTHW15HSX2EKIMMQHI2B","AJDHPRCJ985C7","3XT3KXP24ZKFDDMCDS43FE3AU9W6IW","","626","img/flower2.png","74","627","1","0","2","1","1,0.333,0.333,0.333,1,0.333,0.333,0.333,1","1,0.333,0.333,0.333,1,0.333,0.333,0.333,1","1",""
"","html-keyboard-response","201","126032","0.0-201.0","30LSNF239VHTHW15HSX2EKIMMQHI2B","AJDHPRCJ985C7","3XT3KXP24ZKFDDMCDS43FE3AU9W6IW","","null","<img src=""img/flower2.png"" style=""width:200px;border:14px solid red;"">","null","","","","","","","","",""
"","image-keyboard-response","202","126234","0.0-202.0","30LSNF239VHTHW15HSX2EKIMMQHI2B","AJDHPRCJ985C7","3XT3KXP24ZKFDDMCDS43FE3AU9W6IW","","202","img/flower2.png","74","202","1","1","2","1","1,0.333,0.333,0.333,1,0.333,0.333,0.333,1","1,0.333,0.333,0.333,1,0.333,0.333,0.333,1","1",""
"","html-keyboard-response","203","126535","0.0-203.0","30LSNF239VHTHW15HSX2EKIMMQHI2B","AJDHPRCJ985C7","3XT3KXP24ZKFDDMCDS43FE3AU9W6IW","","null","<img src=""img/flower2.png"" style=""width:200px; border:14px solid green;"">","null","","","","","","","","",""
"","image-keyboard-response","204","126873","0.0-204.0","30LSNF239VHTHW15HSX2EKIMMQHI2B","AJDHPRCJ985C7","3XT3KXP24ZKFDDMCDS43FE3AU9W6IW","","337","img/flower1.png","74","338","1","1","3","1","1,0.333,0.333,0.333,1,0.333,0.333,0.333,1","1,0.333,0.333,0.333,1,0.333,0.333,0.333,1","1",""
"","html-keyboard-response","205","127175","0.0-205.0","30LSNF239VHTHW15HSX2EKIMMQHI2B","AJDHPRCJ985C7","3XT3KXP24ZKFDDMCDS43FE3AU9W6IW","","null","<img src=""img/flower1.png"" style=""width:200px; border:14px solid green;"">","null","","","","","","","","",""
"","image-keyboard-response","206","127673","0.0-206.0","30LSNF239VHTHW15HSX2EKIMMQHI2B","AJDHPRCJ985C7","3XT3KXP24ZKFDDMCDS43FE3AU9W6IW","","498","img/flower1.png","74","499","1","0","3","1","1,0.333,0.333,0.333,1,0.333,0.333,0.333,1","1,0.333,0.333,0.333,1,0.333,0.333,0.333,1","1",""
"","html-keyboard-response","207","127978","0.0-207.0","30LSNF239VHTHW15HSX2EKIMMQHI2B","AJDHPRCJ985C7","3XT3KXP24ZKFDDMCDS43FE3AU9W6IW","","null","<img src=""img/flower1.png"" style=""width:200px;border:14px solid red;"">","null","","","","","","","","",""
"","image-keyboard-response","208","128713","0.0-208.0","30LSNF239VHTHW15HSX2EKIMMQHI2B","AJDHPRCJ985C7","3XT3KXP24ZKFDDMCDS43FE3AU9W6IW","","733","img/flower5.png","74","734","1","1","1","1","1,0.333,0.333,0.333,1,0.333,0.333,0.333,1","1,0.333,0.333,0.333,1,0.333,0.333,0.333,1","1",""
"","html-keyboard-response","209","129016","0.0-209.0","30LSNF239VHTHW15HSX2EKIMMQHI2B","AJDHPRCJ985C7","3XT3KXP24ZKFDDMCDS43FE3AU9W6IW","","null","<img src=""img/flower5.png"" style=""width:200px; border:14px solid green;"">","null","","","","","","","","",""
"","image-keyboard-response","210","129410","0.0-210.0","30LSNF239VHTHW15HSX2EKIMMQHI2B","AJDHPRCJ985C7","3XT3KXP24ZKFDDMCDS43FE3AU9W6IW","","392","img/flower1.png","74","392","1","0","3","1","1,0.333,0.333,0.333,1,0.333,0.333,0.333,1","1,0.333,0.333,0.333,1,0.333,0.333,0.333,1","1",""
"","html-keyboard-response","211","129712","0.0-211.0","30LSNF239VHTHW15HSX2EKIMMQHI2B","AJDHPRCJ985C7","3XT3KXP24ZKFDDMCDS43FE3AU9W6IW","","null","<img src=""img/flower1.png"" style=""width:200px;border:14px solid red;"">","null","","","","","","","","",""
"","image-keyboard-response","212","130257","0.0-212.0","30LSNF239VHTHW15HSX2EKIMMQHI2B","AJDHPRCJ985C7","3XT3KXP24ZKFDDMCDS43FE3AU9W6IW","","546","img/flower5.png","74","547","1","1","1","1","1,0.333,0.333,0.333,1,0.333,0.333,0.333,1","1,0.333,0.333,0.333,1,0.333,0.333,0.333,1","1",""
"","html-keyboard-response","213","130563","0.0-213.0","30LSNF239VHTHW15HSX2EKIMMQHI2B","AJDHPRCJ985C7","3XT3KXP24ZKFDDMCDS43FE3AU9W6IW","","null","<img src=""img/flower5.png"" style=""width:200px; border:14px solid green;"">","null","","","","","","","","",""
"","image-keyboard-response","214","131002","0.0-214.0","30LSNF239VHTHW15HSX2EKIMMQHI2B","AJDHPRCJ985C7","3XT3KXP24ZKFDDMCDS43FE3AU9W6IW","","437","img/flower5.png","74","437","1","1","1","1","1,0.333,0.333,0.333,1,0.333,0.333,0.333,1","1,0.333,0.333,0.333,1,0.333,0.333,0.333,1","1",""
"","html-keyboard-response","215","131305","0.0-215.0","30LSNF239VHTHW15HSX2EKIMMQHI2B","AJDHPRCJ985C7","3XT3KXP24ZKFDDMCDS43FE3AU9W6IW","","null","<img src=""img/flower5.png"" style=""width:200px; border:14px solid green;"">","null","","","","","","","","",""
"","image-keyboard-response","216","131746","0.0-216.0","30LSNF239VHTHW15HSX2EKIMMQHI2B","AJDHPRCJ985C7","3XT3KXP24ZKFDDMCDS43FE3AU9W6IW","","439","img/flower2.png","74","439","1","1","2","1","1,0.333,0.333,0.333,1,0.333,0.333,0.333,1","1,0.333,0.333,0.333,1,0.333,0.333,0.333,1","1",""
"","html-keyboard-response","217","132051","0.0-217.0","30LSNF239VHTHW15HSX2EKIMMQHI2B","AJDHPRCJ985C7","3XT3KXP24ZKFDDMCDS43FE3AU9W6IW","","null","<img src=""img/flower2.png"" style=""width:200px; border:14px solid green;"">","null","","","","","","","","",""
"","image-keyboard-response","218","132361","0.0-218.0","30LSNF239VHTHW15HSX2EKIMMQHI2B","AJDHPRCJ985C7","3XT3KXP24ZKFDDMCDS43FE3AU9W6IW","","309","img/flower2.png","74","310","1","0","2","1","1,0.333,0.333,0.333,1,0.333,0.333,0.333,1","1,0.333,0.333,0.333,1,0.333,0.333,0.333,1","1",""
"","html-keyboard-response","219","132667","0.0-219.0","30LSNF239VHTHW15HSX2EKIMMQHI2B","AJDHPRCJ985C7","3XT3KXP24ZKFDDMCDS43FE3AU9W6IW","","null","<img src=""img/flower2.png"" style=""width:200px;border:14px solid red;"">","null","","","","","","","","",""
"","image-keyboard-response","220","133113","0.0-220.0","30LSNF239VHTHW15HSX2EKIMMQHI2B","AJDHPRCJ985C7","3XT3KXP24ZKFDDMCDS43FE3AU9W6IW","","446","img/flower2.png","74","446","1","1","2","1","1,0.333,0.333,0.333,1,0.333,0.333,0.333,1","1,0.333,0.333,0.333,1,0.333,0.333,0.333,1","1",""
"","html-keyboard-response","221","133416","0.0-221.0","30LSNF239VHTHW15HSX2EKIMMQHI2B","AJDHPRCJ985C7","3XT3KXP24ZKFDDMCDS43FE3AU9W6IW","","null","<img src=""img/flower2.png"" style=""width:200px; border:14px solid green;"">","null","","","","","","","","",""
"","image-keyboard-response","222","133834","0.0-222.0","30LSNF239VHTHW15HSX2EKIMMQHI2B","AJDHPRCJ985C7","3XT3KXP24ZKFDDMCDS43FE3AU9W6IW","","417","img/flower2.png","74","417","1","1","2","1","1,0.333,0.333,0.333,1,0.333,0.333,0.333,1","1,0.333,0.333,0.333,1,0.333,0.333,0.333,1","1",""
"","html-keyboard-response","223","134136","0.0-223.0","30LSNF239VHTHW15HSX2EKIMMQHI2B","AJDHPRCJ985C7","3XT3KXP24ZKFDDMCDS43FE3AU9W6IW","","null","<img src=""img/flower2.png"" style=""width:200px; border:14px solid green;"">","null","","","","","","","","",""
"","image-keyboard-response","224","134537","0.0-224.0","30LSNF239VHTHW15HSX2EKIMMQHI2B","AJDHPRCJ985C7","3XT3KXP24ZKFDDMCDS43FE3AU9W6IW","","402","img/flower2.png","74","402","1","1","2","1","1,0.333,0.333,0.333,1,0.333,0.333,0.333,1","1,0.333,0.333,0.333,1,0.333,0.333,0.333,1","1",""
"","html-keyboard-response","225","134839","0.0-225.0","30LSNF239VHTHW15HSX2EKIMMQHI2B","AJDHPRCJ985C7","3XT3KXP24ZKFDDMCDS43FE3AU9W6IW","","null","<img src=""img/flower2.png"" style=""width:200px; border:14px solid green;"">","null","","","","","","","","",""
"","image-keyboard-response","226","135250","0.0-226.0","30LSNF239VHTHW15HSX2EKIMMQHI2B","AJDHPRCJ985C7","3XT3KXP24ZKFDDMCDS43FE3AU9W6IW","","409","img/flower1.png","74","409","1","1","3","1","1,0.333,0.333,0.333,1,0.333,0.333,0.333,1","1,0.333,0.333,0.333,1,0.333,0.333,0.333,1","1",""
"","html-keyboard-response","227","135566","0.0-227.0","30LSNF239VHTHW15HSX2EKIMMQHI2B","AJDHPRCJ985C7","3XT3KXP24ZKFDDMCDS43FE3AU9W6IW","","null","<img src=""img/flower1.png"" style=""width:200px; border:14px solid green;"">","null","","","","","","","","",""
"","image-keyboard-response","228","136097","0.0-228.0","30LSNF239VHTHW15HSX2EKIMMQHI2B","AJDHPRCJ985C7","3XT3KXP24ZKFDDMCDS43FE3AU9W6IW","","530","img/flower2.png","74","531","1","0","2","1","1,0.333,0.333,0.333,1,0.333,0.333,0.333,1","1,0.333,0.333,0.333,1,0.333,0.333,0.333,1","1",""
"","html-keyboard-response","229","136403","0.0-229.0","30LSNF239VHTHW15HSX2EKIMMQHI2B","AJDHPRCJ985C7","3XT3KXP24ZKFDDMCDS43FE3AU9W6IW","","null","<img src=""img/flower2.png"" style=""width:200px;border:14px solid red;"">","null","","","","","","","","",""
"","image-keyboard-response","230","136914","0.0-230.0","30LSNF239VHTHW15HSX2EKIMMQHI2B","AJDHPRCJ985C7","3XT3KXP24ZKFDDMCDS43FE3AU9W6IW","","511","img/flower5.png","74","511","1","1","1","1","1,0.333,0.333,0.333,1,0.333,0.333,0.333,1","1,0.333,0.333,0.333,1,0.333,0.333,0.333,1","1",""
"","html-keyboard-response","231","137254","0.0-231.0","30LSNF239VHTHW15HSX2EKIMMQHI2B","AJDHPRCJ985C7","3XT3KXP24ZKFDDMCDS43FE3AU9W6IW","","null","<img src=""img/flower5.png"" style=""width:200px; border:14px solid green;"">","null","","","","","","","","",""
"","image-keyboard-response","232","137601","0.0-232.0","30LSNF239VHTHW15HSX2EKIMMQHI2B","AJDHPRCJ985C7","3XT3KXP24ZKFDDMCDS43FE3AU9W6IW","","346","img/flower5.png","74","346","1","1","1","1","1,0.333,0.333,0.333,1,0.333,0.333,0.333,1","1,0.333,0.333,0.333,1,0.333,0.333,0.333,1","1",""
"","html-keyboard-response","233","137903","0.0-233.0","30LSNF239VHTHW15HSX2EKIMMQHI2B","AJDHPRCJ985C7","3XT3KXP24ZKFDDMCDS43FE3AU9W6IW","","null","<img src=""img/flower5.png"" style=""width:200px; border:14px solid green;"">","null","","","","","","","","",""
"","image-keyboard-response","234","138266","0.0-234.0","30LSNF239VHTHW15HSX2EKIMMQHI2B","AJDHPRCJ985C7","3XT3KXP24ZKFDDMCDS43FE3AU9W6IW","","361","img/flower2.png","74","361","1","0","2","1","1,0.333,0.333,0.333,1,0.333,0.333,0.333,1","1,0.333,0.333,0.333,1,0.333,0.333,0.333,1","1",""
"","html-keyboard-response","235","138567","0.0-235.0","30LSNF239VHTHW15HSX2EKIMMQHI2B","AJDHPRCJ985C7","3XT3KXP24ZKFDDMCDS43FE3AU9W6IW","","null","<img src=""img/flower2.png"" style=""width:200px;border:14px solid red;"">","null","","","","","","","","",""
"","image-keyboard-response","236","139010","0.0-236.0","30LSNF239VHTHW15HSX2EKIMMQHI2B","AJDHPRCJ985C7","3XT3KXP24ZKFDDMCDS43FE3AU9W6IW","","443","img/flower2.png","74","443","1","1","2","1","1,0.333,0.333,0.333,1,0.333,0.333,0.333,1","1,0.333,0.333,0.333,1,0.333,0.333,0.333,1","1",""
"","html-keyboard-response","237","139314","0.0-237.0","30LSNF239VHTHW15HSX2EKIMMQHI2B","AJDHPRCJ985C7","3XT3KXP24ZKFDDMCDS43FE3AU9W6IW","","null","<img src=""img/flower2.png"" style=""width:200px; border:14px solid green;"">","null","","","","","","","","",""
"","image-keyboard-response","238","139746","0.0-238.0","30LSNF239VHTHW15HSX2EKIMMQHI2B","AJDHPRCJ985C7","3XT3KXP24ZKFDDMCDS43FE3AU9W6IW","","432","img/flower2.png","74","432","1","0","2","1","1,0.333,0.333,0.333,1,0.333,0.333,0.333,1","1,0.333,0.333,0.333,1,0.333,0.333,0.333,1","1",""
"","html-keyboard-response","239","140050","0.0-239.0","30LSNF239VHTHW15HSX2EKIMMQHI2B","AJDHPRCJ985C7","3XT3KXP24ZKFDDMCDS43FE3AU9W6IW","","null","<img src=""img/flower2.png"" style=""width:200px;border:14px solid red;"">","null","","","","","","","","",""
"","image-keyboard-response","240","140434","0.0-240.0","30LSNF239VHTHW15HSX2EKIMMQHI2B","AJDHPRCJ985C7","3XT3KXP24ZKFDDMCDS43FE3AU9W6IW","","384","img/flower2.png","74","384","1","1","2","1","1,0.333,0.333,0.333,1,0.333,0.333,0.333,1","1,0.333,0.333,0.333,1,0.333,0.333,0.333,1","1",""
"","html-keyboard-response","241","140739","0.0-241.0","30LSNF239VHTHW15HSX2EKIMMQHI2B","AJDHPRCJ985C7","3XT3KXP24ZKFDDMCDS43FE3AU9W6IW","","null","<img src=""img/flower2.png"" style=""width:200px; border:14px solid green;"">","null","","","","","","","","",""
"","image-keyboard-response","242","141218","0.0-242.0","30LSNF239VHTHW15HSX2EKIMMQHI2B","AJDHPRCJ985C7","3XT3KXP24ZKFDDMCDS43FE3AU9W6IW","","478","img/flower5.png","74","479","1","1","1","1","1,0.333,0.333,0.333,1,0.333,0.333,0.333,1","1,0.333,0.333,0.333,1,0.333,0.333,0.333,1","1",""
"","html-keyboard-response","243","141522","0.0-243.0","30LSNF239VHTHW15HSX2EKIMMQHI2B","AJDHPRCJ985C7","3XT3KXP24ZKFDDMCDS43FE3AU9W6IW","","null","<img src=""img/flower5.png"" style=""width:200px; border:14px solid green;"">","null","","","","","","","","",""
"","image-keyboard-response","244","141882","0.0-244.0","30LSNF239VHTHW15HSX2EKIMMQHI2B","AJDHPRCJ985C7","3XT3KXP24ZKFDDMCDS43FE3AU9W6IW","","360","img/flower5.png","74","360","1","1","1","1","1,0.333,0.333,0.333,1,0.333,0.333,0.333,1","1,0.333,0.333,0.333,1,0.333,0.333,0.333,1","1",""
"","html-keyboard-response","245","142184","0.0-245.0","30LSNF239VHTHW15HSX2EKIMMQHI2B","AJDHPRCJ985C7","3XT3KXP24ZKFDDMCDS43FE3AU9W6IW","","null","<img src=""img/flower5.png"" style=""width:200px; border:14px solid green;"">","null","","","","","","","","",""
"","image-keyboard-response","246","142770","0.0-246.0","30LSNF239VHTHW15HSX2EKIMMQHI2B","AJDHPRCJ985C7","3XT3KXP24ZKFDDMCDS43FE3AU9W6IW","","585","img/flower2.png","74","585","1","0","2","1","1,0.333,0.333,0.333,1,0.333,0.333,0.333,1","1,0.333,0.333,0.333,1,0.333,0.333,0.333,1","1",""
"","html-keyboard-response","247","143075","0.0-247.0","30LSNF239VHTHW15HSX2EKIMMQHI2B","AJDHPRCJ985C7","3XT3KXP24ZKFDDMCDS43FE3AU9W6IW","","null","<img src=""img/flower2.png"" style=""width:200px;border:14px solid red;"">","null","","","","","","","","",""
"","image-keyboard-response","248","143490","0.0-248.0","30LSNF239VHTHW15HSX2EKIMMQHI2B","AJDHPRCJ985C7","3XT3KXP24ZKFDDMCDS43FE3AU9W6IW","","414","img/flower1.png","74","414","1","0","3","1","1,0.333,0.333,0.333,1,0.333,0.333,0.333,1","1,0.333,0.333,0.333,1,0.333,0.333,0.333,1","1",""
"","html-keyboard-response","249","143795","0.0-249.0","30LSNF239VHTHW15HSX2EKIMMQHI2B","AJDHPRCJ985C7","3XT3KXP24ZKFDDMCDS43FE3AU9W6IW","","null","<img src=""img/flower1.png"" style=""width:200px;border:14px solid red;"">","null","","","","","","","","",""
"","image-keyboard-response","250","144362","0.0-250.0","30LSNF239VHTHW15HSX2EKIMMQHI2B","AJDHPRCJ985C7","3XT3KXP24ZKFDDMCDS43FE3AU9W6IW","","565","img/flower5.png","74","565","1","1","1","1","1,0.333,0.333,0.333,1,0.333,0.333,0.333,1","1,0.333,0.333,0.333,1,0.333,0.333,0.333,1","1",""
"","html-keyboard-response","251","144667","0.0-251.0","30LSNF239VHTHW15HSX2EKIMMQHI2B","AJDHPRCJ985C7","3XT3KXP24ZKFDDMCDS43FE3AU9W6IW","","null","<img src=""img/flower5.png"" style=""width:200px; border:14px solid green;"">","null","","","","","","","","",""
"","image-keyboard-response","252","145002","0.0-252.0","30LSNF239VHTHW15HSX2EKIMMQHI2B","AJDHPRCJ985C7","3XT3KXP24ZKFDDMCDS43FE3AU9W6IW","","335","img/flower5.png","74","335","1","1","1","1","1,0.333,0.333,0.333,1,0.333,0.333,0.333,1","1,0.333,0.333,0.333,1,0.333,0.333,0.333,1","1",""
"","html-keyboard-response","253","145307","0.0-253.0","30LSNF239VHTHW15HSX2EKIMMQHI2B","AJDHPRCJ985C7","3XT3KXP24ZKFDDMCDS43FE3AU9W6IW","","null","<img src=""img/flower5.png"" style=""width:200px; border:14px solid green;"">","null","","","","","","","","",""
"","image-keyboard-response","254","145578","0.0-254.0","30LSNF239VHTHW15HSX2EKIMMQHI2B","AJDHPRCJ985C7","3XT3KXP24ZKFDDMCDS43FE3AU9W6IW","","269","img/flower1.png","74","270","1","0","3","1","1,0.333,0.333,0.333,1,0.333,0.333,0.333,1","1,0.333,0.333,0.333,1,0.333,0.333,0.333,1","1",""
"","html-keyboard-response","255","145880","0.0-255.0","30LSNF239VHTHW15HSX2EKIMMQHI2B","AJDHPRCJ985C7","3XT3KXP24ZKFDDMCDS43FE3AU9W6IW","","null","<img src=""img/flower1.png"" style=""width:200px;border:14px solid red;"">","null","","","","","","","","",""
"","image-keyboard-response","256","145978","0.0-256.0","30LSNF239VHTHW15HSX2EKIMMQHI2B","AJDHPRCJ985C7","3XT3KXP24ZKFDDMCDS43FE3AU9W6IW","","98","img/flower5.png","74","98","1","1","1","1","1,0.333,0.333,0.333,1,0.333,0.333,0.333,1","1,0.333,0.333,0.333,1,0.333,0.333,0.333,1","1",""
"","html-keyboard-response","257","146279","0.0-257.0","30LSNF239VHTHW15HSX2EKIMMQHI2B","AJDHPRCJ985C7","3XT3KXP24ZKFDDMCDS43FE3AU9W6IW","","null","<img src=""img/flower5.png"" style=""width:200px; border:14px solid green;"">","null","","","","","","","","",""
"","image-keyboard-response","258","146938","0.0-258.0","30LSNF239VHTHW15HSX2EKIMMQHI2B","AJDHPRCJ985C7","3XT3KXP24ZKFDDMCDS43FE3AU9W6IW","","658","img/flower2.png","74","658","1","1","2","1","1,0.333,0.333,0.333,1,0.333,0.333,0.333,1","1,0.333,0.333,0.333,1,0.333,0.333,0.333,1","1",""
"","html-keyboard-response","259","147239","0.0-259.0","30LSNF239VHTHW15HSX2EKIMMQHI2B","AJDHPRCJ985C7","3XT3KXP24ZKFDDMCDS43FE3AU9W6IW","","null","<img src=""img/flower2.png"" style=""width:200px; border:14px solid green;"">","null","","","","","","","","",""
"","image-keyboard-response","260","147778","0.0-260.0","30LSNF239VHTHW15HSX2EKIMMQHI2B","AJDHPRCJ985C7","3XT3KXP24ZKFDDMCDS43FE3AU9W6IW","","539","img/flower2.png","74","539","1","1","2","1","1,0.333,0.333,0.333,1,0.333,0.333,0.333,1","1,0.333,0.333,0.333,1,0.333,0.333,0.333,1","1",""
"","html-keyboard-response","261","148079","0.0-261.0","30LSNF239VHTHW15HSX2EKIMMQHI2B","AJDHPRCJ985C7","3XT3KXP24ZKFDDMCDS43FE3AU9W6IW","","null","<img src=""img/flower2.png"" style=""width:200px; border:14px solid green;"">","null","","","","","","","","",""
"","image-keyboard-response","262","148554","0.0-262.0","30LSNF239VHTHW15HSX2EKIMMQHI2B","AJDHPRCJ985C7","3XT3KXP24ZKFDDMCDS43FE3AU9W6IW","","473","img/flower1.png","74","474","1","0","3","1","1,0.333,0.333,0.333,1,0.333,0.333,0.333,1","1,0.333,0.333,0.333,1,0.333,0.333,0.333,1","1",""
"","html-keyboard-response","263","148858","0.0-263.0","30LSNF239VHTHW15HSX2EKIMMQHI2B","AJDHPRCJ985C7","3XT3KXP24ZKFDDMCDS43FE3AU9W6IW","","null","<img src=""img/flower1.png"" style=""width:200px;border:14px solid red;"">","null","","","","","","","","",""
"","image-keyboard-response","264","149354","0.0-264.0","30LSNF239VHTHW15HSX2EKIMMQHI2B","AJDHPRCJ985C7","3XT3KXP24ZKFDDMCDS43FE3AU9W6IW","","496","img/flower2.png","75","496","2","1","2","1","1,0.333,0.333,0.333,1,0.333,0.333,0.333,1","1,0.333,0.333,0.333,1,0.333,0.333,0.333,1","1",""
"","html-keyboard-response","265","149655","0.0-265.0","30LSNF239VHTHW15HSX2EKIMMQHI2B","AJDHPRCJ985C7","3XT3KXP24ZKFDDMCDS43FE3AU9W6IW","","null","<img src=""img/flower2.png"" style=""width:200px; border:14px solid green;"">","null","","","","","","","","",""
"","image-keyboard-response","266","150218","0.0-266.0","30LSNF239VHTHW15HSX2EKIMMQHI2B","AJDHPRCJ985C7","3XT3KXP24ZKFDDMCDS43FE3AU9W6IW","","563","img/flower5.png","74","563","1","1","1","1","1,0.333,0.333,0.333,1,0.333,0.333,0.333,1","1,0.333,0.333,0.333,1,0.333,0.333,0.333,1","1",""
"","html-keyboard-response","267","150523","0.0-267.0","30LSNF239VHTHW15HSX2EKIMMQHI2B","AJDHPRCJ985C7","3XT3KXP24ZKFDDMCDS43FE3AU9W6IW","","null","<img src=""img/flower5.png"" style=""width:200px; border:14px solid green;"">","null","","","","","","","","",""
"","image-keyboard-response","268","151122","0.0-268.0","30LSNF239VHTHW15HSX2EKIMMQHI2B","AJDHPRCJ985C7","3XT3KXP24ZKFDDMCDS43FE3AU9W6IW","","598","img/flower1.png","74","598","1","0","3","1","1,0.333,0.333,0.333,1,0.333,0.333,0.333,1","1,0.333,0.333,0.333,1,0.333,0.333,0.333,1","1",""
"","html-keyboard-response","269","151424","0.0-269.0","30LSNF239VHTHW15HSX2EKIMMQHI2B","AJDHPRCJ985C7","3XT3KXP24ZKFDDMCDS43FE3AU9W6IW","","null","<img src=""img/flower1.png"" style=""width:200px;border:14px solid red;"">","null","","","","","","","","",""
"","image-keyboard-response","270","151890","0.0-270.0","30LSNF239VHTHW15HSX2EKIMMQHI2B","AJDHPRCJ985C7","3XT3KXP24ZKFDDMCDS43FE3AU9W6IW","","465","img/flower5.png","74","466","1","1","1","1","1,0.333,0.333,0.333,1,0.333,0.333,0.333,1","1,0.333,0.333,0.333,1,0.333,0.333,0.333,1","1",""
"","html-keyboard-response","271","152194","0.0-271.0","30LSNF239VHTHW15HSX2EKIMMQHI2B","AJDHPRCJ985C7","3XT3KXP24ZKFDDMCDS43FE3AU9W6IW","","null","<img src=""img/flower5.png"" style=""width:200px; border:14px solid green;"">","null","","","","","","","","",""
"","image-keyboard-response","272","152594","0.0-272.0","30LSNF239VHTHW15HSX2EKIMMQHI2B","AJDHPRCJ985C7","3XT3KXP24ZKFDDMCDS43FE3AU9W6IW","","400","img/flower1.png","74","400","1","1","3","1","1,0.333,0.333,0.333,1,0.333,0.333,0.333,1","1,0.333,0.333,0.333,1,0.333,0.333,0.333,1","1",""
"","html-keyboard-response","273","152896","0.0-273.0","30LSNF239VHTHW15HSX2EKIMMQHI2B","AJDHPRCJ985C7","3XT3KXP24ZKFDDMCDS43FE3AU9W6IW","","null","<img src=""img/flower1.png"" style=""width:200px; border:14px solid green;"">","null","","","","","","","","",""
"","image-keyboard-response","274","153194","0.0-274.0","30LSNF239VHTHW15HSX2EKIMMQHI2B","AJDHPRCJ985C7","3XT3KXP24ZKFDDMCDS43FE3AU9W6IW","","298","img/flower1.png","74","298","1","1","3","1","1,0.333,0.333,0.333,1,0.333,0.333,0.333,1","1,0.333,0.333,0.333,1,0.333,0.333,0.333,1","1",""
"","html-keyboard-response","275","153498","0.0-275.0","30LSNF239VHTHW15HSX2EKIMMQHI2B","AJDHPRCJ985C7","3XT3KXP24ZKFDDMCDS43FE3AU9W6IW","","null","<img src=""img/flower1.png"" style=""width:200px; border:14px solid green;"">","null","","","","","","","","",""
"","image-keyboard-response","276","153746","0.0-276.0","30LSNF239VHTHW15HSX2EKIMMQHI2B","AJDHPRCJ985C7","3XT3KXP24ZKFDDMCDS43FE3AU9W6IW","","248","img/flower5.png","74","249","1","1","1","1","1,0.333,0.333,0.333,1,0.333,0.333,0.333,1","1,0.333,0.333,0.333,1,0.333,0.333,0.333,1","1",""
"","html-keyboard-response","277","154051","0.0-277.0","30LSNF239VHTHW15HSX2EKIMMQHI2B","AJDHPRCJ985C7","3XT3KXP24ZKFDDMCDS43FE3AU9W6IW","","null","<img src=""img/flower5.png"" style=""width:200px; border:14px solid green;"">","null","","","","","","","","",""
"","image-keyboard-response","278","154218","0.0-278.0","30LSNF239VHTHW15HSX2EKIMMQHI2B","AJDHPRCJ985C7","3XT3KXP24ZKFDDMCDS43FE3AU9W6IW","","167","img/flower1.png","74","167","1","0","3","1","1,0.333,0.333,0.333,1,0.333,0.333,0.333,1","1,0.333,0.333,0.333,1,0.333,0.333,0.333,1","1",""
"","html-keyboard-response","279","154519","0.0-279.0","30LSNF239VHTHW15HSX2EKIMMQHI2B","AJDHPRCJ985C7","3XT3KXP24ZKFDDMCDS43FE3AU9W6IW","","null","<img src=""img/flower1.png"" style=""width:200px;border:14px solid red;"">","null","","","","","","","","",""
"","image-keyboard-response","280","154802","0.0-280.0","30LSNF239VHTHW15HSX2EKIMMQHI2B","AJDHPRCJ985C7","3XT3KXP24ZKFDDMCDS43FE3AU9W6IW","","284","img/flower1.png","74","284","1","0","3","1","1,0.333,0.333,0.333,1,0.333,0.333,0.333,1","1,0.333,0.333,0.333,1,0.333,0.333,0.333,1","1",""
"","html-keyboard-response","281","155106","0.0-281.0","30LSNF239VHTHW15HSX2EKIMMQHI2B","AJDHPRCJ985C7","3XT3KXP24ZKFDDMCDS43FE3AU9W6IW","","null","<img src=""img/flower1.png"" style=""width:200px;border:14px solid red;"">","null","","","","","","","","",""
"","image-keyboard-response","282","155826","0.0-282.0","30LSNF239VHTHW15HSX2EKIMMQHI2B","AJDHPRCJ985C7","3XT3KXP24ZKFDDMCDS43FE3AU9W6IW","","720","img/flower2.png","75","720","2","1","2","1","1,0.333,0.333,0.333,1,0.333,0.333,0.333,1","1,0.333,0.333,0.333,1,0.333,0.333,0.333,1","1",""
"","html-keyboard-response","283","156130","0.0-283.0","30LSNF239VHTHW15HSX2EKIMMQHI2B","AJDHPRCJ985C7","3XT3KXP24ZKFDDMCDS43FE3AU9W6IW","","null","<img src=""img/flower2.png"" style=""width:200px; border:14px solid green;"">","null","","","","","","","","",""
"","image-keyboard-response","284","156210","0.0-284.0","30LSNF239VHTHW15HSX2EKIMMQHI2B","AJDHPRCJ985C7","3XT3KXP24ZKFDDMCDS43FE3AU9W6IW","","80","img/flower5.png","74","81","1","1","1","1","1,0.333,0.333,0.333,1,0.333,0.333,0.333,1","1,0.333,0.333,0.333,1,0.333,0.333,0.333,1","1",""
"","html-keyboard-response","285","156511","0.0-285.0","30LSNF239VHTHW15HSX2EKIMMQHI2B","AJDHPRCJ985C7","3XT3KXP24ZKFDDMCDS43FE3AU9W6IW","","null","<img src=""img/flower5.png"" style=""width:200px; border:14px solid green;"">","null","","","","","","","","",""
"","image-keyboard-response","286","156850","0.0-286.0","30LSNF239VHTHW15HSX2EKIMMQHI2B","AJDHPRCJ985C7","3XT3KXP24ZKFDDMCDS43FE3AU9W6IW","","338","img/flower1.png","74","338","1","0","3","1","1,0.333,0.333,0.333,1,0.333,0.333,0.333,1","1,0.333,0.333,0.333,1,0.333,0.333,0.333,1","1",""
"","html-keyboard-response","287","157151","0.0-287.0","30LSNF239VHTHW15HSX2EKIMMQHI2B","AJDHPRCJ985C7","3XT3KXP24ZKFDDMCDS43FE3AU9W6IW","","null","<img src=""img/flower1.png"" style=""width:200px;border:14px solid red;"">","null","","","","","","","","",""
"","image-keyboard-response","288","157490","0.0-288.0","30LSNF239VHTHW15HSX2EKIMMQHI2B","AJDHPRCJ985C7","3XT3KXP24ZKFDDMCDS43FE3AU9W6IW","","338","img/flower2.png","74","340","1","0","2","1","1,0.333,0.333,0.333,1,0.333,0.333,0.333,1","1,0.333,0.333,0.333,1,0.333,0.333,0.333,1","1",""
"","html-keyboard-response","289","157792","0.0-289.0","30LSNF239VHTHW15HSX2EKIMMQHI2B","AJDHPRCJ985C7","3XT3KXP24ZKFDDMCDS43FE3AU9W6IW","","null","<img src=""img/flower2.png"" style=""width:200px;border:14px solid red;"">","null","","","","","","","","",""
"","image-keyboard-response","290","158241","0.0-290.0","30LSNF239VHTHW15HSX2EKIMMQHI2B","AJDHPRCJ985C7","3XT3KXP24ZKFDDMCDS43FE3AU9W6IW","","450","img/flower2.png","74","450","1","0","2","1","1,0.333,0.333,0.333,1,0.333,0.333,0.333,1","1,0.333,0.333,0.333,1,0.333,0.333,0.333,1","1",""
"","html-keyboard-response","291","158542","0.0-291.0","30LSNF239VHTHW15HSX2EKIMMQHI2B","AJDHPRCJ985C7","3XT3KXP24ZKFDDMCDS43FE3AU9W6IW","","null","<img src=""img/flower2.png"" style=""width:200px;border:14px solid red;"">","null","","","","","","","","",""
"","image-keyboard-response","292","158610","0.0-292.0","30LSNF239VHTHW15HSX2EKIMMQHI2B","AJDHPRCJ985C7","3XT3KXP24ZKFDDMCDS43FE3AU9W6IW","","68","img/flower5.png","75","68","2","1","1","1","1,0.333,0.333,0.333,1,0.333,0.333,0.333,1","1,0.333,0.333,0.333,1,0.333,0.333,0.333,1","1",""
"","html-keyboard-response","293","158915","0.0-293.0","30LSNF239VHTHW15HSX2EKIMMQHI2B","AJDHPRCJ985C7","3XT3KXP24ZKFDDMCDS43FE3AU9W6IW","","null","<img src=""img/flower5.png"" style=""width:200px; border:14px solid green;"">","null","","","","","","","","",""
"","image-keyboard-response","294","159258","0.0-294.0","30LSNF239VHTHW15HSX2EKIMMQHI2B","AJDHPRCJ985C7","3XT3KXP24ZKFDDMCDS43FE3AU9W6IW","","342","img/flower1.png","74","342","1","0","3","1","1,0.333,0.333,0.333,1,0.333,0.333,0.333,1","1,0.333,0.333,0.333,1,0.333,0.333,0.333,1","1",""
"","html-keyboard-response","295","159560","0.0-295.0","30LSNF239VHTHW15HSX2EKIMMQHI2B","AJDHPRCJ985C7","3XT3KXP24ZKFDDMCDS43FE3AU9W6IW","","null","<img src=""img/flower1.png"" style=""width:200px;border:14px solid red;"">","null","","","","","","","","",""
"","image-keyboard-response","296","159786","0.0-296.0","30LSNF239VHTHW15HSX2EKIMMQHI2B","AJDHPRCJ985C7","3XT3KXP24ZKFDDMCDS43FE3AU9W6IW","","227","img/flower5.png","74","227","1","1","1","1","1,0.333,0.333,0.333,1,0.333,0.333,0.333,1","1,0.333,0.333,0.333,1,0.333,0.333,0.333,1","1",""
"","html-keyboard-response","297","160091","0.0-297.0","30LSNF239VHTHW15HSX2EKIMMQHI2B","AJDHPRCJ985C7","3XT3KXP24ZKFDDMCDS43FE3AU9W6IW","","null","<img src=""img/flower5.png"" style=""width:200px; border:14px solid green;"">","null","","","","","","","","",""
"","image-keyboard-response","298","160242","0.0-298.0","30LSNF239VHTHW15HSX2EKIMMQHI2B","AJDHPRCJ985C7","3XT3KXP24ZKFDDMCDS43FE3AU9W6IW","","150","img/flower5.png","75","150","2","1","1","1","1,0.333,0.333,0.333,1,0.333,0.333,0.333,1","1,0.333,0.333,0.333,1,0.333,0.333,0.333,1","1",""
"","html-keyboard-response","299","160544","0.0-299.0","30LSNF239VHTHW15HSX2EKIMMQHI2B","AJDHPRCJ985C7","3XT3KXP24ZKFDDMCDS43FE3AU9W6IW","","null","<img src=""img/flower5.png"" style=""width:200px; border:14px solid green;"">","null","","","","","","","","",""
"","image-keyboard-response","300","160746","0.0-300.0","30LSNF239VHTHW15HSX2EKIMMQHI2B","AJDHPRCJ985C7","3XT3KXP24ZKFDDMCDS43FE3AU9W6IW","","201","img/flower5.png","75","202","2","0","1","1","1,0.333,0.333,0.333,1,0.333,0.333,0.333,1","1,0.333,0.333,0.333,1,0.333,0.333,0.333,1","1",""
"","html-keyboard-response","301","161048","0.0-301.0","30LSNF239VHTHW15HSX2EKIMMQHI2B","AJDHPRCJ985C7","3XT3KXP24ZKFDDMCDS43FE3AU9W6IW","","null","<img src=""img/flower5.png"" style=""width:200px;border:14px solid red;"">","null","","","","","","","","",""
"","image-keyboard-response","302","161218","0.0-302.0","30LSNF239VHTHW15HSX2EKIMMQHI2B","AJDHPRCJ985C7","3XT3KXP24ZKFDDMCDS43FE3AU9W6IW","","170","img/flower2.png","75","170","2","1","2","1","1,0.333,0.333,0.333,1,0.333,0.333,0.333,1","1,0.333,0.333,0.333,1,0.333,0.333,0.333,1","1",""
"","html-keyboard-response","303","161520","0.0-303.0","30LSNF239VHTHW15HSX2EKIMMQHI2B","AJDHPRCJ985C7","3XT3KXP24ZKFDDMCDS43FE3AU9W6IW","","null","<img src=""img/flower2.png"" style=""width:200px; border:14px solid green;"">","null","","","","","","","","",""
"","image-keyboard-response","304","161698","0.0-304.0","30LSNF239VHTHW15HSX2EKIMMQHI2B","AJDHPRCJ985C7","3XT3KXP24ZKFDDMCDS43FE3AU9W6IW","","178","img/flower5.png","74","178","1","1","1","1","1,0.333,0.333,0.333,1,0.333,0.333,0.333,1","1,0.333,0.333,0.333,1,0.333,0.333,0.333,1","1",""
"","html-keyboard-response","305","161999","0.0-305.0","30LSNF239VHTHW15HSX2EKIMMQHI2B","AJDHPRCJ985C7","3XT3KXP24ZKFDDMCDS43FE3AU9W6IW","","null","<img src=""img/flower5.png"" style=""width:200px; border:14px solid green;"">","null","","","","","","","","",""
"","image-keyboard-response","306","162330","0.0-306.0","30LSNF239VHTHW15HSX2EKIMMQHI2B","AJDHPRCJ985C7","3XT3KXP24ZKFDDMCDS43FE3AU9W6IW","","330","img/flower1.png","74","331","1","0","3","1","1,0.333,0.333,0.333,1,0.333,0.333,0.333,1","1,0.333,0.333,0.333,1,0.333,0.333,0.333,1","1",""
"","html-keyboard-response","307","162634","0.0-307.0","30LSNF239VHTHW15HSX2EKIMMQHI2B","AJDHPRCJ985C7","3XT3KXP24ZKFDDMCDS43FE3AU9W6IW","","null","<img src=""img/flower1.png"" style=""width:200px;border:14px solid red;"">","null","","","","","","","","",""
"","image-keyboard-response","308","163274","0.0-308.0","30LSNF239VHTHW15HSX2EKIMMQHI2B","AJDHPRCJ985C7","3XT3KXP24ZKFDDMCDS43FE3AU9W6IW","","640","img/flower1.png","75","640","2","0","3","1","1,0.333,0.333,0.333,1,0.333,0.333,0.333,1","1,0.333,0.333,0.333,1,0.333,0.333,0.333,1","1",""
"","html-keyboard-response","309","163575","0.0-309.0","30LSNF239VHTHW15HSX2EKIMMQHI2B","AJDHPRCJ985C7","3XT3KXP24ZKFDDMCDS43FE3AU9W6IW","","null","<img src=""img/flower1.png"" style=""width:200px;border:14px solid red;"">","null","","","","","","","","",""
"","image-keyboard-response","310","163794","0.0-310.0","30LSNF239VHTHW15HSX2EKIMMQHI2B","AJDHPRCJ985C7","3XT3KXP24ZKFDDMCDS43FE3AU9W6IW","","218","img/flower5.png","74","219","1","1","1","1","1,0.333,0.333,0.333,1,0.333,0.333,0.333,1","1,0.333,0.333,0.333,1,0.333,0.333,0.333,1","1",""
"","html-keyboard-response","311","164094","0.0-311.0","30LSNF239VHTHW15HSX2EKIMMQHI2B","AJDHPRCJ985C7","3XT3KXP24ZKFDDMCDS43FE3AU9W6IW","","null","<img src=""img/flower5.png"" style=""width:200px; border:14px solid green;"">","null","","","","","","","","",""
"","image-keyboard-response","312","164362","0.0-312.0","30LSNF239VHTHW15HSX2EKIMMQHI2B","AJDHPRCJ985C7","3XT3KXP24ZKFDDMCDS43FE3AU9W6IW","","266","img/flower2.png","74","266","1","1","2","1","1,0.333,0.333,0.333,1,0.333,0.333,0.333,1","1,0.333,0.333,0.333,1,0.333,0.333,0.333,1","1",""
"","html-keyboard-response","313","164668","0.0-313.0","30LSNF239VHTHW15HSX2EKIMMQHI2B","AJDHPRCJ985C7","3XT3KXP24ZKFDDMCDS43FE3AU9W6IW","","null","<img src=""img/flower2.png"" style=""width:200px; border:14px solid green;"">","null","","","","","","","","",""
"","image-keyboard-response","314","164954","0.0-314.0","30LSNF239VHTHW15HSX2EKIMMQHI2B","AJDHPRCJ985C7","3XT3KXP24ZKFDDMCDS43FE3AU9W6IW","","286","img/flower5.png","74","287","1","1","1","1","1,0.333,0.333,0.333,1,0.333,0.333,0.333,1","1,0.333,0.333,0.333,1,0.333,0.333,0.333,1","1",""
"","html-keyboard-response","315","165260","0.0-315.0","30LSNF239VHTHW15HSX2EKIMMQHI2B","AJDHPRCJ985C7","3XT3KXP24ZKFDDMCDS43FE3AU9W6IW","","null","<img src=""img/flower5.png"" style=""width:200px; border:14px solid green;"">","null","","","","","","","","",""
"","image-keyboard-response","316","165570","0.0-316.0","30LSNF239VHTHW15HSX2EKIMMQHI2B","AJDHPRCJ985C7","3XT3KXP24ZKFDDMCDS43FE3AU9W6IW","","310","img/flower1.png","74","310","1","0","3","1","1,0.333,0.333,0.333,1,0.333,0.333,0.333,1","1,0.333,0.333,0.333,1,0.333,0.333,0.333,1","1",""
"","html-keyboard-response","317","165872","0.0-317.0","30LSNF239VHTHW15HSX2EKIMMQHI2B","AJDHPRCJ985C7","3XT3KXP24ZKFDDMCDS43FE3AU9W6IW","","null","<img src=""img/flower1.png"" style=""width:200px;border:14px solid red;"">","null","","","","","","","","",""
"","image-keyboard-response","318","166194","0.0-318.0","30LSNF239VHTHW15HSX2EKIMMQHI2B","AJDHPRCJ985C7","3XT3KXP24ZKFDDMCDS43FE3AU9W6IW","","321","img/flower2.png","74","321","1","0","2","1","1,0.333,0.333,0.333,1,0.333,0.333,0.333,1","1,0.333,0.333,0.333,1,0.333,0.333,0.333,1","1",""
"","html-keyboard-response","319","166500","0.0-319.0","30LSNF239VHTHW15HSX2EKIMMQHI2B","AJDHPRCJ985C7","3XT3KXP24ZKFDDMCDS43FE3AU9W6IW","","null","<img src=""img/flower2.png"" style=""width:200px;border:14px solid red;"">","null","","","","","","","","",""
"","image-keyboard-response","320","166722","0.0-320.0","30LSNF239VHTHW15HSX2EKIMMQHI2B","AJDHPRCJ985C7","3XT3KXP24ZKFDDMCDS43FE3AU9W6IW","","221","img/flower2.png","74","222","1","0","2","1","1,0.333,0.333,0.333,1,0.333,0.333,0.333,1","1,0.333,0.333,0.333,1,0.333,0.333,0.333,1","1",""
"","html-keyboard-response","321","167024","0.0-321.0","30LSNF239VHTHW15HSX2EKIMMQHI2B","AJDHPRCJ985C7","3XT3KXP24ZKFDDMCDS43FE3AU9W6IW","","null","<img src=""img/flower2.png"" style=""width:200px;border:14px solid red;"">","null","","","","","","","","",""
"","image-keyboard-response","322","167171","0.0-322.0","30LSNF239VHTHW15HSX2EKIMMQHI2B","AJDHPRCJ985C7","3XT3KXP24ZKFDDMCDS43FE3AU9W6IW","","145","img/flower5.png","75","146","2","1","1","1","1,0.333,0.333,0.333,1,0.333,0.333,0.333,1","1,0.333,0.333,0.333,1,0.333,0.333,0.333,1","1",""
"","html-keyboard-response","323","167472","0.0-323.0","30LSNF239VHTHW15HSX2EKIMMQHI2B","AJDHPRCJ985C7","3XT3KXP24ZKFDDMCDS43FE3AU9W6IW","","null","<img src=""img/flower5.png"" style=""width:200px; border:14px solid green;"">","null","","","","","","","","",""
"","image-keyboard-response","324","168195","0.0-324.0","30LSNF239VHTHW15HSX2EKIMMQHI2B","AJDHPRCJ985C7","3XT3KXP24ZKFDDMCDS43FE3AU9W6IW","","721","img/flower2.png","75","722","2","1","2","1","1,0.333,0.333,0.333,1,0.333,0.333,0.333,1","1,0.333,0.333,0.333,1,0.333,0.333,0.333,1","1",""
"","html-keyboard-response","325","168506","0.0-325.0","30LSNF239VHTHW15HSX2EKIMMQHI2B","AJDHPRCJ985C7","3XT3KXP24ZKFDDMCDS43FE3AU9W6IW","","null","<img src=""img/flower2.png"" style=""width:200px; border:14px solid green;"">","null","","","","","","","","",""
"","image-keyboard-response","326","168666","0.0-326.0","30LSNF239VHTHW15HSX2EKIMMQHI2B","AJDHPRCJ985C7","3XT3KXP24ZKFDDMCDS43FE3AU9W6IW","","161","img/flower1.png","75","161","2","0","3","1","1,0.333,0.333,0.333,1,0.333,0.333,0.333,1","1,0.333,0.333,0.333,1,0.333,0.333,0.333,1","1",""
"","html-keyboard-response","327","168972","0.0-327.0","30LSNF239VHTHW15HSX2EKIMMQHI2B","AJDHPRCJ985C7","3XT3KXP24ZKFDDMCDS43FE3AU9W6IW","","null","<img src=""img/flower1.png"" style=""width:200px;border:14px solid red;"">","null","","","","","","","","",""
"","image-keyboard-response","328","169275","0.0-328.0","30LSNF239VHTHW15HSX2EKIMMQHI2B","AJDHPRCJ985C7","3XT3KXP24ZKFDDMCDS43FE3AU9W6IW","","302","img/flower1.png","74","302","1","0","3","1","1,0.333,0.333,0.333,1,0.333,0.333,0.333,1","1,0.333,0.333,0.333,1,0.333,0.333,0.333,1","1",""
"","html-keyboard-response","329","169580","0.0-329.0","30LSNF239VHTHW15HSX2EKIMMQHI2B","AJDHPRCJ985C7","3XT3KXP24ZKFDDMCDS43FE3AU9W6IW","","null","<img src=""img/flower1.png"" style=""width:200px;border:14px solid red;"">","null","","","","","","","","",""
"","image-keyboard-response","330","169874","0.0-330.0","30LSNF239VHTHW15HSX2EKIMMQHI2B","AJDHPRCJ985C7","3XT3KXP24ZKFDDMCDS43FE3AU9W6IW","","295","img/flower5.png","74","295","1","1","1","1","1,0.333,0.333,0.333,1,0.333,0.333,0.333,1","1,0.333,0.333,0.333,1,0.333,0.333,0.333,1","1",""
"","html-keyboard-response","331","170180","0.0-331.0","30LSNF239VHTHW15HSX2EKIMMQHI2B","AJDHPRCJ985C7","3XT3KXP24ZKFDDMCDS43FE3AU9W6IW","","null","<img src=""img/flower5.png"" style=""width:200px; border:14px solid green;"">","null","","","","","","","","",""
"","image-keyboard-response","332","170762","0.0-332.0","30LSNF239VHTHW15HSX2EKIMMQHI2B","AJDHPRCJ985C7","3XT3KXP24ZKFDDMCDS43FE3AU9W6IW","","581","img/flower2.png","75","583","2","1","2","1","1,0.333,0.333,0.333,1,0.333,0.333,0.333,1","1,0.333,0.333,0.333,1,0.333,0.333,0.333,1","1",""
"","html-keyboard-response","333","171065","0.0-333.0","30LSNF239VHTHW15HSX2EKIMMQHI2B","AJDHPRCJ985C7","3XT3KXP24ZKFDDMCDS43FE3AU9W6IW","","null","<img src=""img/flower2.png"" style=""width:200px; border:14px solid green;"">","null","","","","","","","","",""
"","image-keyboard-response","334","171683","0.0-334.0","30LSNF239VHTHW15HSX2EKIMMQHI2B","AJDHPRCJ985C7","3XT3KXP24ZKFDDMCDS43FE3AU9W6IW","","618","img/flower1.png","74","619","1","0","3","1","1,0.333,0.333,0.333,1,0.333,0.333,0.333,1","1,0.333,0.333,0.333,1,0.333,0.333,0.333,1","1",""
"","html-keyboard-response","335","171984","0.0-335.0","30LSNF239VHTHW15HSX2EKIMMQHI2B","AJDHPRCJ985C7","3XT3KXP24ZKFDDMCDS43FE3AU9W6IW","","null","<img src=""img/flower1.png"" style=""width:200px;border:14px solid red;"">","null","","","","","","","","",""
"","image-keyboard-response","336","172627","0.0-336.0","30LSNF239VHTHW15HSX2EKIMMQHI2B","AJDHPRCJ985C7","3XT3KXP24ZKFDDMCDS43FE3AU9W6IW","","643","img/flower5.png","74","643","1","1","1","1","1,0.333,0.333,0.333,1,0.333,0.333,0.333,1","1,0.333,0.333,0.333,1,0.333,0.333,0.333,1","1",""
"","html-keyboard-response","337","172930","0.0-337.0","30LSNF239VHTHW15HSX2EKIMMQHI2B","AJDHPRCJ985C7","3XT3KXP24ZKFDDMCDS43FE3AU9W6IW","","null","<img src=""img/flower5.png"" style=""width:200px; border:14px solid green;"">","null","","","","","","","","",""
"","image-keyboard-response","338","173290","0.0-338.0","30LSNF239VHTHW15HSX2EKIMMQHI2B","AJDHPRCJ985C7","3XT3KXP24ZKFDDMCDS43FE3AU9W6IW","","360","img/flower1.png","74","360","1","0","3","1","1,0.333,0.333,0.333,1,0.333,0.333,0.333,1","1,0.333,0.333,0.333,1,0.333,0.333,0.333,1","1",""
"","html-keyboard-response","339","173594","0.0-339.0","30LSNF239VHTHW15HSX2EKIMMQHI2B","AJDHPRCJ985C7","3XT3KXP24ZKFDDMCDS43FE3AU9W6IW","","null","<img src=""img/flower1.png"" style=""width:200px;border:14px solid red;"">","null","","","","","","","","",""
"","image-keyboard-response","340","173883","0.0-340.0","30LSNF239VHTHW15HSX2EKIMMQHI2B","AJDHPRCJ985C7","3XT3KXP24ZKFDDMCDS43FE3AU9W6IW","","287","img/flower1.png","74","288","1","0","3","1","1,0.333,0.333,0.333,1,0.333,0.333,0.333,1","1,0.333,0.333,0.333,1,0.333,0.333,0.333,1","1",""
"","html-keyboard-response","341","174185","0.0-341.0","30LSNF239VHTHW15HSX2EKIMMQHI2B","AJDHPRCJ985C7","3XT3KXP24ZKFDDMCDS43FE3AU9W6IW","","null","<img src=""img/flower1.png"" style=""width:200px;border:14px solid red;"">","null","","","","","","","","",""
"","image-keyboard-response","342","174779","0.0-342.0","30LSNF239VHTHW15HSX2EKIMMQHI2B","AJDHPRCJ985C7","3XT3KXP24ZKFDDMCDS43FE3AU9W6IW","","594","img/flower2.png","75","594","2","1","2","1","1,0.333,0.333,0.333,1,0.333,0.333,0.333,1","1,0.333,0.333,0.333,1,0.333,0.333,0.333,1","1",""
"","html-keyboard-response","343","175080","0.0-343.0","30LSNF239VHTHW15HSX2EKIMMQHI2B","AJDHPRCJ985C7","3XT3KXP24ZKFDDMCDS43FE3AU9W6IW","","null","<img src=""img/flower2.png"" style=""width:200px; border:14px solid green;"">","null","","","","","","","","",""
"","image-keyboard-response","344","175418","0.0-344.0","30LSNF239VHTHW15HSX2EKIMMQHI2B","AJDHPRCJ985C7","3XT3KXP24ZKFDDMCDS43FE3AU9W6IW","","338","img/flower5.png","75","338","2","0","1","1","1,0.333,0.333,0.333,1,0.333,0.333,0.333,1","1,0.333,0.333,0.333,1,0.333,0.333,0.333,1","1",""
"","html-keyboard-response","345","175720","0.0-345.0","30LSNF239VHTHW15HSX2EKIMMQHI2B","AJDHPRCJ985C7","3XT3KXP24ZKFDDMCDS43FE3AU9W6IW","","null","<img src=""img/flower5.png"" style=""width:200px;border:14px solid red;"">","null","","","","","","","","",""
"","image-keyboard-response","346","176242","0.0-346.0","30LSNF239VHTHW15HSX2EKIMMQHI2B","AJDHPRCJ985C7","3XT3KXP24ZKFDDMCDS43FE3AU9W6IW","","522","img/flower2.png","74","522","1","0","2","1","1,0.333,0.333,0.333,1,0.333,0.333,0.333,1","1,0.333,0.333,0.333,1,0.333,0.333,0.333,1","1",""
"","html-keyboard-response","347","176545","0.0-347.0","30LSNF239VHTHW15HSX2EKIMMQHI2B","AJDHPRCJ985C7","3XT3KXP24ZKFDDMCDS43FE3AU9W6IW","","null","<img src=""img/flower2.png"" style=""width:200px;border:14px solid red;"">","null","","","","","","","","",""
"","image-keyboard-response","348","176979","0.0-348.0","30LSNF239VHTHW15HSX2EKIMMQHI2B","AJDHPRCJ985C7","3XT3KXP24ZKFDDMCDS43FE3AU9W6IW","","433","img/flower5.png","75","433","2","0","1","1","1,0.333,0.333,0.333,1,0.333,0.333,0.333,1","1,0.333,0.333,0.333,1,0.333,0.333,0.333,1","1",""
"","html-keyboard-response","349","177280","0.0-349.0","30LSNF239VHTHW15HSX2EKIMMQHI2B","AJDHPRCJ985C7","3XT3KXP24ZKFDDMCDS43FE3AU9W6IW","","null","<img src=""img/flower5.png"" style=""width:200px;border:14px solid red;"">","null","","","","","","","","",""
"","image-keyboard-response","350","177834","0.0-350.0","30LSNF239VHTHW15HSX2EKIMMQHI2B","AJDHPRCJ985C7","3XT3KXP24ZKFDDMCDS43FE3AU9W6IW","","553","img/flower2.png","74","554","1","0","2","1","1,0.333,0.333,0.333,1,0.333,0.333,0.333,1","1,0.333,0.333,0.333,1,0.333,0.333,0.333,1","1",""
"","html-keyboard-response","351","178139","0.0-351.0","30LSNF239VHTHW15HSX2EKIMMQHI2B","AJDHPRCJ985C7","3XT3KXP24ZKFDDMCDS43FE3AU9W6IW","","null","<img src=""img/flower2.png"" style=""width:200px;border:14px solid red;"">","null","","","","","","","","",""
"","image-keyboard-response","352","178499","0.0-352.0","30LSNF239VHTHW15HSX2EKIMMQHI2B","AJDHPRCJ985C7","3XT3KXP24ZKFDDMCDS43FE3AU9W6IW","","360","img/flower2.png","74","360","1","0","2","1","1,0.333,0.333,0.333,1,0.333,0.333,0.333,1","1,0.333,0.333,0.333,1,0.333,0.333,0.333,1","1",""
"","html-keyboard-response","353","178799","0.0-353.0","30LSNF239VHTHW15HSX2EKIMMQHI2B","AJDHPRCJ985C7","3XT3KXP24ZKFDDMCDS43FE3AU9W6IW","","null","<img src=""img/flower2.png"" style=""width:200px;border:14px solid red;"">","null","","","","","","","","",""
"","image-keyboard-response","354","179235","0.0-354.0","30LSNF239VHTHW15HSX2EKIMMQHI2B","AJDHPRCJ985C7","3XT3KXP24ZKFDDMCDS43FE3AU9W6IW","","435","img/flower2.png","75","435","2","1","2","1","1,0.333,0.333,0.333,1,0.333,0.333,0.333,1","1,0.333,0.333,0.333,1,0.333,0.333,0.333,1","1",""
"","html-keyboard-response","355","179536","0.0-355.0","30LSNF239VHTHW15HSX2EKIMMQHI2B","AJDHPRCJ985C7","3XT3KXP24ZKFDDMCDS43FE3AU9W6IW","","null","<img src=""img/flower2.png"" style=""width:200px; border:14px solid green;"">","null","","","","","","","","",""
"","image-keyboard-response","356","180219","0.0-356.0","30LSNF239VHTHW15HSX2EKIMMQHI2B","AJDHPRCJ985C7","3XT3KXP24ZKFDDMCDS43FE3AU9W6IW","","681","img/flower1.png","74","681","1","0","3","1","1,0.333,0.333,0.333,1,0.333,0.333,0.333,1","1,0.333,0.333,0.333,1,0.333,0.333,0.333,1","1",""
"","html-keyboard-response","357","180523","0.0-357.0","30LSNF239VHTHW15HSX2EKIMMQHI2B","AJDHPRCJ985C7","3XT3KXP24ZKFDDMCDS43FE3AU9W6IW","","null","<img src=""img/flower1.png"" style=""width:200px;border:14px solid red;"">","null","","","","","","","","",""
"","image-keyboard-response","358","181082","0.0-358.0","30LSNF239VHTHW15HSX2EKIMMQHI2B","AJDHPRCJ985C7","3XT3KXP24ZKFDDMCDS43FE3AU9W6IW","","559","img/flower5.png","75","559","2","0","1","1","1,0.333,0.333,0.333,1,0.333,0.333,0.333,1","1,0.333,0.333,0.333,1,0.333,0.333,0.333,1","1",""
"","html-keyboard-response","359","181386","0.0-359.0","30LSNF239VHTHW15HSX2EKIMMQHI2B","AJDHPRCJ985C7","3XT3KXP24ZKFDDMCDS43FE3AU9W6IW","","null","<img src=""img/flower5.png"" style=""width:200px;border:14px solid red;"">","null","","","","","","","","",""
"","image-keyboard-response","360","181795","0.0-360.0","30LSNF239VHTHW15HSX2EKIMMQHI2B","AJDHPRCJ985C7","3XT3KXP24ZKFDDMCDS43FE3AU9W6IW","","409","img/flower1.png","75","409","2","0","3","1","1,0.333,0.333,0.333,1,0.333,0.333,0.333,1","1,0.333,0.333,0.333,1,0.333,0.333,0.333,1","1",""
"","html-keyboard-response","361","182098","0.0-361.0","30LSNF239VHTHW15HSX2EKIMMQHI2B","AJDHPRCJ985C7","3XT3KXP24ZKFDDMCDS43FE3AU9W6IW","","null","<img src=""img/flower1.png"" style=""width:200px;border:14px solid red;"">","null","","","","","","","","",""
"","html-keyboard-response","362","187518","0.0-362.0","30LSNF239VHTHW15HSX2EKIMMQHI2B","AJDHPRCJ985C7","3XT3KXP24ZKFDDMCDS43FE3AU9W6IW","","","","","","","","","","","","",""
"","instructions","363","192557","0.0-363.0","30LSNF239VHTHW15HSX2EKIMMQHI2B","AJDHPRCJ985C7","3XT3KXP24ZKFDDMCDS43FE3AU9W6IW","[{""page_index"":0,""viewing_time"":5037}]","5037","","","","","","","","","","",""
"","survey-text","364","205263","0.0-364.0","30LSNF239VHTHW15HSX2EKIMMQHI2B","AJDHPRCJ985C7","3XT3KXP24ZKFDDMCDS43FE3AU9W6IW","","12703","","","","","","","","","","","{""Q0"":""AJDHPRCJ985C7""}"
