"success","trial_type","trial_index","time_elapsed","internal_node_id","assignmentID","mturkID","hitID","view_history","rt","stimulus","key_press","reactionTime","a","r","s","cond","reward_cond","reward_cond_actual","reward_matrix_idx","responses"
"true","fullscreen","0","4010","0.0-0.0","3MD9PLUKKJ0B18F83FJ863OATUONZA","AJDXSXAWDDAEO","30UZJB2POHY4464FN6NBJ2NLFWF354","","","","","","","","","","","","",""
"","instructions","1","39869","0.0-1.0","3MD9PLUKKJ0B18F83FJ863OATUONZA","AJDXSXAWDDAEO","30UZJB2POHY4464FN6NBJ2NLFWF354","[{""page_index"":0,""viewing_time"":2113.800000000745},{""page_index"":1,""viewing_time"":1196},{""page_index"":2,""viewing_time"":862.6999999992549},{""page_index"":3,""viewing_time"":574},{""page_index"":4,""viewing_time"":26900.199999999255},{""page_index"":5,""viewing_time"":1659.300000000745},{""page_index"":6,""viewing_time"":1331.800000000745},{""page_index"":7,""viewing_time"":1220.300000000745}]","35858.5","","","","","","","","","","",""
"","image-keyboard-response","2","40767","0.0-2.0","3MD9PLUKKJ0B18F83FJ863OATUONZA","AJDXSXAWDDAEO","30UZJB2POHY4464FN6NBJ2NLFWF354","","895.1999999992549","img/flower2.png","74","897.3999999985099","1","1","1","1","1,0.333,0.333,0.333,1,0.333,0.333,0.333,1","1,0.333,0.333,0.333,1,0.333,0.333,0.333,1","1",""
"","html-keyboard-response","3","41072","0.0-3.0","3MD9PLUKKJ0B18F83FJ863OATUONZA","AJDXSXAWDDAEO","30UZJB2POHY4464FN6NBJ2NLFWF354","","null","<img src=""img/flower2.png"" style=""width:200px; border:14px solid green;"">","null","","","","","","","","",""
"","image-keyboard-response","4","41394","0.0-4.0","3MD9PLUKKJ0B18F83FJ863OATUONZA","AJDXSXAWDDAEO","30UZJB2POHY4464FN6NBJ2NLFWF354","","317.19999999925494","img/flower2.png","74","321.5","1","1","1","1","1,0.333,0.333,0.333,1,0.333,0.333,0.333,1","1,0.333,0.333,0.333,1,0.333,0.333,0.333,1","1",""
"","html-keyboard-response","5","41697","0.0-5.0","3MD9PLUKKJ0B18F83FJ863OATUONZA","AJDXSXAWDDAEO","30UZJB2POHY4464FN6NBJ2NLFWF354","","null","<img src=""img/flower2.png"" style=""width:200px; border:14px solid green;"">","null","","","","","","","","",""
"","image-keyboard-response","6","41902","0.0-6.0","3MD9PLUKKJ0B18F83FJ863OATUONZA","AJDXSXAWDDAEO","30UZJB2POHY4464FN6NBJ2NLFWF354","","203.90000000223517","img/flower2.png","74","204.69999999925494","1","1","1","1","1,0.333,0.333,0.333,1,0.333,0.333,0.333,1","1,0.333,0.333,0.333,1,0.333,0.333,0.333,1","1",""
"","html-keyboard-response","7","42204","0.0-7.0","3MD9PLUKKJ0B18F83FJ863OATUONZA","AJDXSXAWDDAEO","30UZJB2POHY4464FN6NBJ2NLFWF354","","null","<img src=""img/flower2.png"" style=""width:200px; border:14px solid green;"">","null","","","","","","","","",""
"","image-keyboard-response","8","42469","0.0-8.0","3MD9PLUKKJ0B18F83FJ863OATUONZA","AJDXSXAWDDAEO","30UZJB2POHY4464FN6NBJ2NLFWF354","","262.80000000074506","img/flower2.png","74","264.69999999925494","1","1","1","1","1,0.333,0.333,0.333,1,0.333,0.333,0.333,1","1,0.333,0.333,0.333,1,0.333,0.333,0.333,1","1",""
"","html-keyboard-response","9","42773","0.0-9.0","3MD9PLUKKJ0B18F83FJ863OATUONZA","AJDXSXAWDDAEO","30UZJB2POHY4464FN6NBJ2NLFWF354","","null","<img src=""img/flower2.png"" style=""width:200px; border:14px solid green;"">","null","","","","","","","","",""
"","image-keyboard-response","10","42893","0.0-10.0","3MD9PLUKKJ0B18F83FJ863OATUONZA","AJDXSXAWDDAEO","30UZJB2POHY4464FN6NBJ2NLFWF354","","116.60000000149012","img/flower5.png","74","119.30000000074506","1","1","2","1","1,0.333,0.333,0.333,1,0.333,0.333,0.333,1","1,0.333,0.333,0.333,1,0.333,0.333,0.333,1","1",""
"","html-keyboard-response","11","43196","0.0-11.0","3MD9PLUKKJ0B18F83FJ863OATUONZA","AJDXSXAWDDAEO","30UZJB2POHY4464FN6NBJ2NLFWF354","","null","<img src=""img/flower5.png"" style=""width:200px; border:14px solid green;"">","null","","","","","","","","",""
"","image-keyboard-response","12","43256","0.0-12.0","3MD9PLUKKJ0B18F83FJ863OATUONZA","AJDXSXAWDDAEO","30UZJB2POHY4464FN6NBJ2NLFWF354","","56.19999999925494","img/flower2.png","75","58.900000002235174","2","0","1","1","1,0.333,0.333,0.333,1,0.333,0.333,0.333,1","1,0.333,0.333,0.333,1,0.333,0.333,0.333,1","1",""
"","html-keyboard-response","13","43560","0.0-13.0","3MD9PLUKKJ0B18F83FJ863OATUONZA","AJDXSXAWDDAEO","30UZJB2POHY4464FN6NBJ2NLFWF354","","null","<img src=""img/flower2.png"" style=""width:200px;border:14px solid red;"">","null","","","","","","","","",""
"","image-keyboard-response","14","43726","0.0-14.0","3MD9PLUKKJ0B18F83FJ863OATUONZA","AJDXSXAWDDAEO","30UZJB2POHY4464FN6NBJ2NLFWF354","","163.40000000223517","img/flower6.png","74","166.19999999925494","1","0","3","1","1,0.333,0.333,0.333,1,0.333,0.333,0.333,1","1,0.333,0.333,0.333,1,0.333,0.333,0.333,1","1",""
"","html-keyboard-response","15","44028","0.0-15.0","3MD9PLUKKJ0B18F83FJ863OATUONZA","AJDXSXAWDDAEO","30UZJB2POHY4464FN6NBJ2NLFWF354","","null","<img src=""img/flower6.png"" style=""width:200px;border:14px solid red;"">","null","","","","","","","","",""
"","image-keyboard-response","16","44518","0.0-16.0","3MD9PLUKKJ0B18F83FJ863OATUONZA","AJDXSXAWDDAEO","30UZJB2POHY4464FN6NBJ2NLFWF354","","488","img/flower2.png","74","490.30000000074506","1","1","1","1","1,0.333,0.333,0.333,1,0.333,0.333,0.333,1","1,0.333,0.333,0.333,1,0.333,0.333,0.333,1","1",""
"","html-keyboard-response","17","44822","0.0-17.0","3MD9PLUKKJ0B18F83FJ863OATUONZA","AJDXSXAWDDAEO","30UZJB2POHY4464FN6NBJ2NLFWF354","","null","<img src=""img/flower2.png"" style=""width:200px; border:14px solid green;"">","null","","","","","","","","",""
"","image-keyboard-response","18","44975","0.0-18.0","3MD9PLUKKJ0B18F83FJ863OATUONZA","AJDXSXAWDDAEO","30UZJB2POHY4464FN6NBJ2NLFWF354","","150.19999999925494","img/flower5.png","74","152.79999999701977","1","0","2","1","1,0.333,0.333,0.333,1,0.333,0.333,0.333,1","1,0.333,0.333,0.333,1,0.333,0.333,0.333,1","1",""
"","html-keyboard-response","19","45278","0.0-19.0","3MD9PLUKKJ0B18F83FJ863OATUONZA","AJDXSXAWDDAEO","30UZJB2POHY4464FN6NBJ2NLFWF354","","null","<img src=""img/flower5.png"" style=""width:200px;border:14px solid red;"">","null","","","","","","","","",""
"","image-keyboard-response","20","45487","0.0-20.0","3MD9PLUKKJ0B18F83FJ863OATUONZA","AJDXSXAWDDAEO","30UZJB2POHY4464FN6NBJ2NLFWF354","","206.19999999925494","img/flower5.png","75","208.29999999701977","2","1","2","1","1,0.333,0.333,0.333,1,0.333,0.333,0.333,1","1,0.333,0.333,0.333,1,0.333,0.333,0.333,1","1",""
"","html-keyboard-response","21","45789","0.0-21.0","3MD9PLUKKJ0B18F83FJ863OATUONZA","AJDXSXAWDDAEO","30UZJB2POHY4464FN6NBJ2NLFWF354","","null","<img src=""img/flower5.png"" style=""width:200px; border:14px solid green;"">","null","","","","","","","","",""
"","image-keyboard-response","22","45923","0.0-22.0","3MD9PLUKKJ0B18F83FJ863OATUONZA","AJDXSXAWDDAEO","30UZJB2POHY4464FN6NBJ2NLFWF354","","132.40000000223517","img/flower5.png","75","133.30000000074506","2","1","2","1","1,0.333,0.333,0.333,1,0.333,0.333,0.333,1","1,0.333,0.333,0.333,1,0.333,0.333,0.333,1","1",""
"","html-keyboard-response","23","46224","0.0-23.0","3MD9PLUKKJ0B18F83FJ863OATUONZA","AJDXSXAWDDAEO","30UZJB2POHY4464FN6NBJ2NLFWF354","","null","<img src=""img/flower5.png"" style=""width:200px; border:14px solid green;"">","null","","","","","","","","",""
"","image-keyboard-response","24","46349","0.0-24.0","3MD9PLUKKJ0B18F83FJ863OATUONZA","AJDXSXAWDDAEO","30UZJB2POHY4464FN6NBJ2NLFWF354","","121.30000000074506","img/flower2.png","75","123.80000000074506","2","0","1","1","1,0.333,0.333,0.333,1,0.333,0.333,0.333,1","1,0.333,0.333,0.333,1,0.333,0.333,0.333,1","1",""
"","html-keyboard-response","25","46651","0.0-25.0","3MD9PLUKKJ0B18F83FJ863OATUONZA","AJDXSXAWDDAEO","30UZJB2POHY4464FN6NBJ2NLFWF354","","null","<img src=""img/flower2.png"" style=""width:200px;border:14px solid red;"">","null","","","","","","","","",""
"","image-keyboard-response","26","46777","0.0-26.0","3MD9PLUKKJ0B18F83FJ863OATUONZA","AJDXSXAWDDAEO","30UZJB2POHY4464FN6NBJ2NLFWF354","","123.10000000149012","img/flower6.png","74","125.59999999776483","1","1","3","1","1,0.333,0.333,0.333,1,0.333,0.333,0.333,1","1,0.333,0.333,0.333,1,0.333,0.333,0.333,1","1",""
"","html-keyboard-response","27","47080","0.0-27.0","3MD9PLUKKJ0B18F83FJ863OATUONZA","AJDXSXAWDDAEO","30UZJB2POHY4464FN6NBJ2NLFWF354","","null","<img src=""img/flower6.png"" style=""width:200px; border:14px solid green;"">","null","","","","","","","","",""
"","image-keyboard-response","28","47264","0.0-28.0","3MD9PLUKKJ0B18F83FJ863OATUONZA","AJDXSXAWDDAEO","30UZJB2POHY4464FN6NBJ2NLFWF354","","183.5","img/flower2.png","76","184.60000000149012","3","1","1","1","1,0.333,0.333,0.333,1,0.333,0.333,0.333,1","1,0.333,0.333,0.333,1,0.333,0.333,0.333,1","1",""
"","html-keyboard-response","29","47567","0.0-29.0","3MD9PLUKKJ0B18F83FJ863OATUONZA","AJDXSXAWDDAEO","30UZJB2POHY4464FN6NBJ2NLFWF354","","null","<img src=""img/flower2.png"" style=""width:200px; border:14px solid green;"">","null","","","","","","","","",""
"","image-keyboard-response","30","48266","0.0-30.0","3MD9PLUKKJ0B18F83FJ863OATUONZA","AJDXSXAWDDAEO","30UZJB2POHY4464FN6NBJ2NLFWF354","","698","img/flower5.png","74","699","1","1","2","1","1,0.333,0.333,0.333,1,0.333,0.333,0.333,1","1,0.333,0.333,0.333,1,0.333,0.333,0.333,1","1",""
"","html-keyboard-response","31","48568","0.0-31.0","3MD9PLUKKJ0B18F83FJ863OATUONZA","AJDXSXAWDDAEO","30UZJB2POHY4464FN6NBJ2NLFWF354","","null","<img src=""img/flower5.png"" style=""width:200px; border:14px solid green;"">","null","","","","","","","","",""
"","image-keyboard-response","32","49062","0.0-32.0","3MD9PLUKKJ0B18F83FJ863OATUONZA","AJDXSXAWDDAEO","30UZJB2POHY4464FN6NBJ2NLFWF354","","489.9000000022352","img/flower2.png","75","492.19999999925494","2","0","1","1","1,0.333,0.333,0.333,1,0.333,0.333,0.333,1","1,0.333,0.333,0.333,1,0.333,0.333,0.333,1","1",""
"","html-keyboard-response","33","49364","0.0-33.0","3MD9PLUKKJ0B18F83FJ863OATUONZA","AJDXSXAWDDAEO","30UZJB2POHY4464FN6NBJ2NLFWF354","","null","<img src=""img/flower2.png"" style=""width:200px;border:14px solid red;"">","null","","","","","","","","",""
"","image-keyboard-response","34","50065","0.0-34.0","3MD9PLUKKJ0B18F83FJ863OATUONZA","AJDXSXAWDDAEO","30UZJB2POHY4464FN6NBJ2NLFWF354","","698.6000000014901","img/flower6.png","76","701","3","1","3","1","1,0.333,0.333,0.333,1,0.333,0.333,0.333,1","1,0.333,0.333,0.333,1,0.333,0.333,0.333,1","1",""
"","html-keyboard-response","35","50368","0.0-35.0","3MD9PLUKKJ0B18F83FJ863OATUONZA","AJDXSXAWDDAEO","30UZJB2POHY4464FN6NBJ2NLFWF354","","null","<img src=""img/flower6.png"" style=""width:200px; border:14px solid green;"">","null","","","","","","","","",""
"","image-keyboard-response","36","50718","0.0-36.0","3MD9PLUKKJ0B18F83FJ863OATUONZA","AJDXSXAWDDAEO","30UZJB2POHY4464FN6NBJ2NLFWF354","","347.6000000014901","img/flower6.png","76","350","3","1","3","1","1,0.333,0.333,0.333,1,0.333,0.333,0.333,1","1,0.333,0.333,0.333,1,0.333,0.333,0.333,1","1",""
"","html-keyboard-response","37","51021","0.0-37.0","3MD9PLUKKJ0B18F83FJ863OATUONZA","AJDXSXAWDDAEO","30UZJB2POHY4464FN6NBJ2NLFWF354","","null","<img src=""img/flower6.png"" style=""width:200px; border:14px solid green;"">","null","","","","","","","","",""
"","image-keyboard-response","38","51343","0.0-38.0","3MD9PLUKKJ0B18F83FJ863OATUONZA","AJDXSXAWDDAEO","30UZJB2POHY4464FN6NBJ2NLFWF354","","318.9000000022352","img/flower6.png","76","321.5","3","1","3","1","1,0.333,0.333,0.333,1,0.333,0.333,0.333,1","1,0.333,0.333,0.333,1,0.333,0.333,0.333,1","1",""
"","html-keyboard-response","39","51646","0.0-39.0","3MD9PLUKKJ0B18F83FJ863OATUONZA","AJDXSXAWDDAEO","30UZJB2POHY4464FN6NBJ2NLFWF354","","null","<img src=""img/flower6.png"" style=""width:200px; border:14px solid green;"">","null","","","","","","","","",""
"","image-keyboard-response","40","51984","0.0-40.0","3MD9PLUKKJ0B18F83FJ863OATUONZA","AJDXSXAWDDAEO","30UZJB2POHY4464FN6NBJ2NLFWF354","","335.69999999925494","img/flower6.png","76","337.5","3","1","3","1","1,0.333,0.333,0.333,1,0.333,0.333,0.333,1","1,0.333,0.333,0.333,1,0.333,0.333,0.333,1","1",""
"","html-keyboard-response","41","52286","0.0-41.0","3MD9PLUKKJ0B18F83FJ863OATUONZA","AJDXSXAWDDAEO","30UZJB2POHY4464FN6NBJ2NLFWF354","","null","<img src=""img/flower6.png"" style=""width:200px; border:14px solid green;"">","null","","","","","","","","",""
"","image-keyboard-response","42","52542","0.0-42.0","3MD9PLUKKJ0B18F83FJ863OATUONZA","AJDXSXAWDDAEO","30UZJB2POHY4464FN6NBJ2NLFWF354","","253","img/flower2.png","76","255.19999999925494","3","0","1","1","1,0.333,0.333,0.333,1,0.333,0.333,0.333,1","1,0.333,0.333,0.333,1,0.333,0.333,0.333,1","1",""
"","html-keyboard-response","43","52844","0.0-43.0","3MD9PLUKKJ0B18F83FJ863OATUONZA","AJDXSXAWDDAEO","30UZJB2POHY4464FN6NBJ2NLFWF354","","null","<img src=""img/flower2.png"" style=""width:200px;border:14px solid red;"">","null","","","","","","","","",""
"","image-keyboard-response","44","53349","0.0-44.0","3MD9PLUKKJ0B18F83FJ863OATUONZA","AJDXSXAWDDAEO","30UZJB2POHY4464FN6NBJ2NLFWF354","","501.80000000074506","img/flower5.png","74","503.80000000074506","1","1","2","1","1,0.333,0.333,0.333,1,0.333,0.333,0.333,1","1,0.333,0.333,0.333,1,0.333,0.333,0.333,1","1",""
"","html-keyboard-response","45","53652","0.0-45.0","3MD9PLUKKJ0B18F83FJ863OATUONZA","AJDXSXAWDDAEO","30UZJB2POHY4464FN6NBJ2NLFWF354","","null","<img src=""img/flower5.png"" style=""width:200px; border:14px solid green;"">","null","","","","","","","","",""
"","image-keyboard-response","46","54019","0.0-46.0","3MD9PLUKKJ0B18F83FJ863OATUONZA","AJDXSXAWDDAEO","30UZJB2POHY4464FN6NBJ2NLFWF354","","366.3999999985099","img/flower5.png","74","367.3999999985099","1","0","2","1","1,0.333,0.333,0.333,1,0.333,0.333,0.333,1","1,0.333,0.333,0.333,1,0.333,0.333,0.333,1","1",""
"","html-keyboard-response","47","54326","0.0-47.0","3MD9PLUKKJ0B18F83FJ863OATUONZA","AJDXSXAWDDAEO","30UZJB2POHY4464FN6NBJ2NLFWF354","","null","<img src=""img/flower5.png"" style=""width:200px;border:14px solid red;"">","null","","","","","","","","",""
"","image-keyboard-response","48","55134","0.0-48.0","3MD9PLUKKJ0B18F83FJ863OATUONZA","AJDXSXAWDDAEO","30UZJB2POHY4464FN6NBJ2NLFWF354","","804.8000000007451","img/flower6.png","75","807.6000000014901","2","0","3","1","1,0.333,0.333,0.333,1,0.333,0.333,0.333,1","1,0.333,0.333,0.333,1,0.333,0.333,0.333,1","1",""
"","html-keyboard-response","49","55438","0.0-49.0","3MD9PLUKKJ0B18F83FJ863OATUONZA","AJDXSXAWDDAEO","30UZJB2POHY4464FN6NBJ2NLFWF354","","null","<img src=""img/flower6.png"" style=""width:200px;border:14px solid red;"">","null","","","","","","","","",""
"","image-keyboard-response","50","56063","0.0-50.0","3MD9PLUKKJ0B18F83FJ863OATUONZA","AJDXSXAWDDAEO","30UZJB2POHY4464FN6NBJ2NLFWF354","","621.7000000029802","img/flower2.png","75","624.1000000014901","2","1","1","1","1,0.333,0.333,0.333,1,0.333,0.333,0.333,1","1,0.333,0.333,0.333,1,0.333,0.333,0.333,1","1",""
"","html-keyboard-response","51","56366","0.0-51.0","3MD9PLUKKJ0B18F83FJ863OATUONZA","AJDXSXAWDDAEO","30UZJB2POHY4464FN6NBJ2NLFWF354","","null","<img src=""img/flower2.png"" style=""width:200px; border:14px solid green;"">","null","","","","","","","","",""
"","image-keyboard-response","52","56555","0.0-52.0","3MD9PLUKKJ0B18F83FJ863OATUONZA","AJDXSXAWDDAEO","30UZJB2POHY4464FN6NBJ2NLFWF354","","186","img/flower6.png","75","188.60000000149012","2","1","3","1","1,0.333,0.333,0.333,1,0.333,0.333,0.333,1","1,0.333,0.333,0.333,1,0.333,0.333,0.333,1","1",""
"","html-keyboard-response","53","56859","0.0-53.0","3MD9PLUKKJ0B18F83FJ863OATUONZA","AJDXSXAWDDAEO","30UZJB2POHY4464FN6NBJ2NLFWF354","","null","<img src=""img/flower6.png"" style=""width:200px; border:14px solid green;"">","null","","","","","","","","",""
"","image-keyboard-response","54","56990","0.0-54.0","3MD9PLUKKJ0B18F83FJ863OATUONZA","AJDXSXAWDDAEO","30UZJB2POHY4464FN6NBJ2NLFWF354","","128","img/flower2.png","75","130.39999999850988","2","0","1","1","1,0.333,0.333,0.333,1,0.333,0.333,0.333,1","1,0.333,0.333,0.333,1,0.333,0.333,0.333,1","1",""
"","html-keyboard-response","55","57293","0.0-55.0","3MD9PLUKKJ0B18F83FJ863OATUONZA","AJDXSXAWDDAEO","30UZJB2POHY4464FN6NBJ2NLFWF354","","null","<img src=""img/flower2.png"" style=""width:200px;border:14px solid red;"">","null","","","","","","","","",""
"","image-keyboard-response","56","57370","0.0-56.0","3MD9PLUKKJ0B18F83FJ863OATUONZA","AJDXSXAWDDAEO","30UZJB2POHY4464FN6NBJ2NLFWF354","","74.19999999925494","img/flower6.png","75","76.5","2","1","3","1","1,0.333,0.333,0.333,1,0.333,0.333,0.333,1","1,0.333,0.333,0.333,1,0.333,0.333,0.333,1","1",""
"","html-keyboard-response","57","57672","0.0-57.0","3MD9PLUKKJ0B18F83FJ863OATUONZA","AJDXSXAWDDAEO","30UZJB2POHY4464FN6NBJ2NLFWF354","","null","<img src=""img/flower6.png"" style=""width:200px; border:14px solid green;"">","null","","","","","","","","",""
"","image-keyboard-response","58","57745","0.0-58.0","3MD9PLUKKJ0B18F83FJ863OATUONZA","AJDXSXAWDDAEO","30UZJB2POHY4464FN6NBJ2NLFWF354","","70.30000000074506","img/flower5.png","75","72.20000000298023","2","1","2","1","1,0.333,0.333,0.333,1,0.333,0.333,0.333,1","1,0.333,0.333,0.333,1,0.333,0.333,0.333,1","1",""
"","html-keyboard-response","59","58047","0.0-59.0","3MD9PLUKKJ0B18F83FJ863OATUONZA","AJDXSXAWDDAEO","30UZJB2POHY4464FN6NBJ2NLFWF354","","null","<img src=""img/flower5.png"" style=""width:200px; border:14px solid green;"">","null","","","","","","","","",""
"","image-keyboard-response","60","58122","0.0-60.0","3MD9PLUKKJ0B18F83FJ863OATUONZA","AJDXSXAWDDAEO","30UZJB2POHY4464FN6NBJ2NLFWF354","","73.90000000223517","img/flower6.png","75","74.89999999850988","2","0","3","1","1,0.333,0.333,0.333,1,0.333,0.333,0.333,1","1,0.333,0.333,0.333,1,0.333,0.333,0.333,1","1",""
"","html-keyboard-response","61","58424","0.0-61.0","3MD9PLUKKJ0B18F83FJ863OATUONZA","AJDXSXAWDDAEO","30UZJB2POHY4464FN6NBJ2NLFWF354","","null","<img src=""img/flower6.png"" style=""width:200px;border:14px solid red;"">","null","","","","","","","","",""
"","image-keyboard-response","62","58498","0.0-62.0","3MD9PLUKKJ0B18F83FJ863OATUONZA","AJDXSXAWDDAEO","30UZJB2POHY4464FN6NBJ2NLFWF354","","71.40000000223517","img/flower2.png","75","74","2","0","1","1","1,0.333,0.333,0.333,1,0.333,0.333,0.333,1","1,0.333,0.333,0.333,1,0.333,0.333,0.333,1","1",""
"","html-keyboard-response","63","58802","0.0-63.0","3MD9PLUKKJ0B18F83FJ863OATUONZA","AJDXSXAWDDAEO","30UZJB2POHY4464FN6NBJ2NLFWF354","","null","<img src=""img/flower2.png"" style=""width:200px;border:14px solid red;"">","null","","","","","","","","",""
"","image-keyboard-response","64","58886","0.0-64.0","3MD9PLUKKJ0B18F83FJ863OATUONZA","AJDXSXAWDDAEO","30UZJB2POHY4464FN6NBJ2NLFWF354","","81.19999999925494","img/flower5.png","75","83.5","2","1","2","1","1,0.333,0.333,0.333,1,0.333,0.333,0.333,1","1,0.333,0.333,0.333,1,0.333,0.333,0.333,1","1",""
"","html-keyboard-response","65","59189","0.0-65.0","3MD9PLUKKJ0B18F83FJ863OATUONZA","AJDXSXAWDDAEO","30UZJB2POHY4464FN6NBJ2NLFWF354","","null","<img src=""img/flower5.png"" style=""width:200px; border:14px solid green;"">","null","","","","","","","","",""
"","image-keyboard-response","66","59236","0.0-66.0","3MD9PLUKKJ0B18F83FJ863OATUONZA","AJDXSXAWDDAEO","30UZJB2POHY4464FN6NBJ2NLFWF354","","44","img/flower2.png","76","46.5","3","1","1","1","1,0.333,0.333,0.333,1,0.333,0.333,0.333,1","1,0.333,0.333,0.333,1,0.333,0.333,0.333,1","1",""
"","html-keyboard-response","67","59539","0.0-67.0","3MD9PLUKKJ0B18F83FJ863OATUONZA","AJDXSXAWDDAEO","30UZJB2POHY4464FN6NBJ2NLFWF354","","null","<img src=""img/flower2.png"" style=""width:200px; border:14px solid green;"">","null","","","","","","","","",""
"","image-keyboard-response","68","59729","0.0-68.0","3MD9PLUKKJ0B18F83FJ863OATUONZA","AJDXSXAWDDAEO","30UZJB2POHY4464FN6NBJ2NLFWF354","","186","img/flower2.png","76","188.10000000149012","3","0","1","1","1,0.333,0.333,0.333,1,0.333,0.333,0.333,1","1,0.333,0.333,0.333,1,0.333,0.333,0.333,1","1",""
"","html-keyboard-response","69","60032","0.0-69.0","3MD9PLUKKJ0B18F83FJ863OATUONZA","AJDXSXAWDDAEO","30UZJB2POHY4464FN6NBJ2NLFWF354","","null","<img src=""img/flower2.png"" style=""width:200px;border:14px solid red;"">","null","","","","","","","","",""
"","image-keyboard-response","70","60126","0.0-70.0","3MD9PLUKKJ0B18F83FJ863OATUONZA","AJDXSXAWDDAEO","30UZJB2POHY4464FN6NBJ2NLFWF354","","90.39999999850988","img/flower2.png","76","93.30000000074506","3","0","1","1","1,0.333,0.333,0.333,1,0.333,0.333,0.333,1","1,0.333,0.333,0.333,1,0.333,0.333,0.333,1","1",""
"","html-keyboard-response","71","60429","0.0-71.0","3MD9PLUKKJ0B18F83FJ863OATUONZA","AJDXSXAWDDAEO","30UZJB2POHY4464FN6NBJ2NLFWF354","","null","<img src=""img/flower2.png"" style=""width:200px;border:14px solid red;"">","null","","","","","","","","",""
"","image-keyboard-response","72","60555","0.0-72.0","3MD9PLUKKJ0B18F83FJ863OATUONZA","AJDXSXAWDDAEO","30UZJB2POHY4464FN6NBJ2NLFWF354","","123.39999999850988","img/flower5.png","75","125.60000000149012","2","1","2","1","1,0.333,0.333,0.333,1,0.333,0.333,0.333,1","1,0.333,0.333,0.333,1,0.333,0.333,0.333,1","1",""
"","html-keyboard-response","73","60858","0.0-73.0","3MD9PLUKKJ0B18F83FJ863OATUONZA","AJDXSXAWDDAEO","30UZJB2POHY4464FN6NBJ2NLFWF354","","null","<img src=""img/flower5.png"" style=""width:200px; border:14px solid green;"">","null","","","","","","","","",""
"","image-keyboard-response","74","61066","0.0-74.0","3MD9PLUKKJ0B18F83FJ863OATUONZA","AJDXSXAWDDAEO","30UZJB2POHY4464FN6NBJ2NLFWF354","","205.59999999776483","img/flower5.png","74","207.90000000223517","1","1","2","1","1,0.333,0.333,0.333,1,0.333,0.333,0.333,1","1,0.333,0.333,0.333,1,0.333,0.333,0.333,1","1",""
"","html-keyboard-response","75","61369","0.0-75.0","3MD9PLUKKJ0B18F83FJ863OATUONZA","AJDXSXAWDDAEO","30UZJB2POHY4464FN6NBJ2NLFWF354","","null","<img src=""img/flower5.png"" style=""width:200px; border:14px solid green;"">","null","","","","","","","","",""
"","image-keyboard-response","76","61730","0.0-76.0","3MD9PLUKKJ0B18F83FJ863OATUONZA","AJDXSXAWDDAEO","30UZJB2POHY4464FN6NBJ2NLFWF354","","357.3999999985099","img/flower2.png","74","361.6000000014901","1","1","1","1","1,0.333,0.333,0.333,1,0.333,0.333,0.333,1","1,0.333,0.333,0.333,1,0.333,0.333,0.333,1","1",""
"","html-keyboard-response","77","62040","0.0-77.0","3MD9PLUKKJ0B18F83FJ863OATUONZA","AJDXSXAWDDAEO","30UZJB2POHY4464FN6NBJ2NLFWF354","","null","<img src=""img/flower2.png"" style=""width:200px; border:14px solid green;"">","null","","","","","","","","",""
"","image-keyboard-response","78","62239","0.0-78.0","3MD9PLUKKJ0B18F83FJ863OATUONZA","AJDXSXAWDDAEO","30UZJB2POHY4464FN6NBJ2NLFWF354","","197","img/flower6.png","74","198.29999999701977","1","1","3","1","1,0.333,0.333,0.333,1,0.333,0.333,0.333,1","1,0.333,0.333,0.333,1,0.333,0.333,0.333,1","1",""
"","html-keyboard-response","79","62542","0.0-79.0","3MD9PLUKKJ0B18F83FJ863OATUONZA","AJDXSXAWDDAEO","30UZJB2POHY4464FN6NBJ2NLFWF354","","null","<img src=""img/flower6.png"" style=""width:200px; border:14px solid green;"">","null","","","","","","","","",""
"","image-keyboard-response","80","62698","0.0-80.0","3MD9PLUKKJ0B18F83FJ863OATUONZA","AJDXSXAWDDAEO","30UZJB2POHY4464FN6NBJ2NLFWF354","","153","img/flower2.png","75","155.60000000149012","2","1","1","1","1,0.333,0.333,0.333,1,0.333,0.333,0.333,1","1,0.333,0.333,0.333,1,0.333,0.333,0.333,1","1",""
"","html-keyboard-response","81","63002","0.0-81.0","3MD9PLUKKJ0B18F83FJ863OATUONZA","AJDXSXAWDDAEO","30UZJB2POHY4464FN6NBJ2NLFWF354","","null","<img src=""img/flower2.png"" style=""width:200px; border:14px solid green;"">","null","","","","","","","","",""
"","image-keyboard-response","82","63460","0.0-82.0","3MD9PLUKKJ0B18F83FJ863OATUONZA","AJDXSXAWDDAEO","30UZJB2POHY4464FN6NBJ2NLFWF354","","453.1000000014901","img/flower6.png","74","457.5","1","0","3","1","1,0.333,0.333,0.333,1,0.333,0.333,0.333,1","1,0.333,0.333,0.333,1,0.333,0.333,0.333,1","1",""
"","html-keyboard-response","83","63763","0.0-83.0","3MD9PLUKKJ0B18F83FJ863OATUONZA","AJDXSXAWDDAEO","30UZJB2POHY4464FN6NBJ2NLFWF354","","null","<img src=""img/flower6.png"" style=""width:200px;border:14px solid red;"">","null","","","","","","","","",""
"","image-keyboard-response","84","64374","0.0-84.0","3MD9PLUKKJ0B18F83FJ863OATUONZA","AJDXSXAWDDAEO","30UZJB2POHY4464FN6NBJ2NLFWF354","","609.8999999985099","img/flower2.png","74","611.1000000014901","1","1","1","1","1,0.333,0.333,0.333,1,0.333,0.333,0.333,1","1,0.333,0.333,0.333,1,0.333,0.333,0.333,1","1",""
"","html-keyboard-response","85","64677","0.0-85.0","3MD9PLUKKJ0B18F83FJ863OATUONZA","AJDXSXAWDDAEO","30UZJB2POHY4464FN6NBJ2NLFWF354","","null","<img src=""img/flower2.png"" style=""width:200px; border:14px solid green;"">","null","","","","","","","","",""
"","image-keyboard-response","86","64808","0.0-86.0","3MD9PLUKKJ0B18F83FJ863OATUONZA","AJDXSXAWDDAEO","30UZJB2POHY4464FN6NBJ2NLFWF354","","128.40000000223517","img/flower2.png","74","130.19999999925494","1","1","1","1","1,0.333,0.333,0.333,1,0.333,0.333,0.333,1","1,0.333,0.333,0.333,1,0.333,0.333,0.333,1","1",""
"","html-keyboard-response","87","65109","0.0-87.0","3MD9PLUKKJ0B18F83FJ863OATUONZA","AJDXSXAWDDAEO","30UZJB2POHY4464FN6NBJ2NLFWF354","","null","<img src=""img/flower2.png"" style=""width:200px; border:14px solid green;"">","null","","","","","","","","",""
"","image-keyboard-response","88","65254","0.0-88.0","3MD9PLUKKJ0B18F83FJ863OATUONZA","AJDXSXAWDDAEO","30UZJB2POHY4464FN6NBJ2NLFWF354","","142.10000000149012","img/flower6.png","74","144.69999999925494","1","0","3","1","1,0.333,0.333,0.333,1,0.333,0.333,0.333,1","1,0.333,0.333,0.333,1,0.333,0.333,0.333,1","1",""
"","html-keyboard-response","89","65557","0.0-89.0","3MD9PLUKKJ0B18F83FJ863OATUONZA","AJDXSXAWDDAEO","30UZJB2POHY4464FN6NBJ2NLFWF354","","null","<img src=""img/flower6.png"" style=""width:200px;border:14px solid red;"">","null","","","","","","","","",""
"","image-keyboard-response","90","65748","0.0-90.0","3MD9PLUKKJ0B18F83FJ863OATUONZA","AJDXSXAWDDAEO","30UZJB2POHY4464FN6NBJ2NLFWF354","","188.60000000149012","img/flower6.png","74","190.40000000223517","1","0","3","1","1,0.333,0.333,0.333,1,0.333,0.333,0.333,1","1,0.333,0.333,0.333,1,0.333,0.333,0.333,1","1",""
"","html-keyboard-response","91","66050","0.0-91.0","3MD9PLUKKJ0B18F83FJ863OATUONZA","AJDXSXAWDDAEO","30UZJB2POHY4464FN6NBJ2NLFWF354","","null","<img src=""img/flower6.png"" style=""width:200px;border:14px solid red;"">","null","","","","","","","","",""
"","image-keyboard-response","92","66253","0.0-92.0","3MD9PLUKKJ0B18F83FJ863OATUONZA","AJDXSXAWDDAEO","30UZJB2POHY4464FN6NBJ2NLFWF354","","200.19999999925494","img/flower6.png","75","201.90000000223517","2","0","3","1","1,0.333,0.333,0.333,1,0.333,0.333,0.333,1","1,0.333,0.333,0.333,1,0.333,0.333,0.333,1","1",""
"","html-keyboard-response","93","66555","0.0-93.0","3MD9PLUKKJ0B18F83FJ863OATUONZA","AJDXSXAWDDAEO","30UZJB2POHY4464FN6NBJ2NLFWF354","","null","<img src=""img/flower6.png"" style=""width:200px;border:14px solid red;"">","null","","","","","","","","",""
"","image-keyboard-response","94","66823","0.0-94.0","3MD9PLUKKJ0B18F83FJ863OATUONZA","AJDXSXAWDDAEO","30UZJB2POHY4464FN6NBJ2NLFWF354","","265.30000000074506","img/flower2.png","76","267.5","3","0","1","1","1,0.333,0.333,0.333,1,0.333,0.333,0.333,1","1,0.333,0.333,0.333,1,0.333,0.333,0.333,1","1",""
"","html-keyboard-response","95","67126","0.0-95.0","3MD9PLUKKJ0B18F83FJ863OATUONZA","AJDXSXAWDDAEO","30UZJB2POHY4464FN6NBJ2NLFWF354","","null","<img src=""img/flower2.png"" style=""width:200px;border:14px solid red;"">","null","","","","","","","","",""
"","image-keyboard-response","96","67686","0.0-96.0","3MD9PLUKKJ0B18F83FJ863OATUONZA","AJDXSXAWDDAEO","30UZJB2POHY4464FN6NBJ2NLFWF354","","557.9000000022352","img/flower2.png","74","559.5","1","1","1","1","1,0.333,0.333,0.333,1,0.333,0.333,0.333,1","1,0.333,0.333,0.333,1,0.333,0.333,0.333,1","1",""
"","html-keyboard-response","97","67987","0.0-97.0","3MD9PLUKKJ0B18F83FJ863OATUONZA","AJDXSXAWDDAEO","30UZJB2POHY4464FN6NBJ2NLFWF354","","null","<img src=""img/flower2.png"" style=""width:200px; border:14px solid green;"">","null","","","","","","","","",""
"","image-keyboard-response","98","68757","0.0-98.0","3MD9PLUKKJ0B18F83FJ863OATUONZA","AJDXSXAWDDAEO","30UZJB2POHY4464FN6NBJ2NLFWF354","","766.5","img/flower5.png","76","768.8000000007451","3","0","2","1","1,0.333,0.333,0.333,1,0.333,0.333,0.333,1","1,0.333,0.333,0.333,1,0.333,0.333,0.333,1","1",""
"","html-keyboard-response","99","69059","0.0-99.0","3MD9PLUKKJ0B18F83FJ863OATUONZA","AJDXSXAWDDAEO","30UZJB2POHY4464FN6NBJ2NLFWF354","","null","<img src=""img/flower5.png"" style=""width:200px;border:14px solid red;"">","null","","","","","","","","",""
"","image-keyboard-response","100","69773","0.0-100.0","3MD9PLUKKJ0B18F83FJ863OATUONZA","AJDXSXAWDDAEO","30UZJB2POHY4464FN6NBJ2NLFWF354","","712.9000000022352","img/flower2.png","74","714","1","1","1","1","1,0.333,0.333,0.333,1,0.333,0.333,0.333,1","1,0.333,0.333,0.333,1,0.333,0.333,0.333,1","1",""
"","html-keyboard-response","101","70075","0.0-101.0","3MD9PLUKKJ0B18F83FJ863OATUONZA","AJDXSXAWDDAEO","30UZJB2POHY4464FN6NBJ2NLFWF354","","null","<img src=""img/flower2.png"" style=""width:200px; border:14px solid green;"">","null","","","","","","","","",""
"","image-keyboard-response","102","70982","0.0-102.0","3MD9PLUKKJ0B18F83FJ863OATUONZA","AJDXSXAWDDAEO","30UZJB2POHY4464FN6NBJ2NLFWF354","","904.5","img/flower6.png","76","906.8999999985099","3","1","3","1","1,0.333,0.333,0.333,1,0.333,0.333,0.333,1","1,0.333,0.333,0.333,1,0.333,0.333,0.333,1","1",""
"","html-keyboard-response","103","71285","0.0-103.0","3MD9PLUKKJ0B18F83FJ863OATUONZA","AJDXSXAWDDAEO","30UZJB2POHY4464FN6NBJ2NLFWF354","","null","<img src=""img/flower6.png"" style=""width:200px; border:14px solid green;"">","null","","","","","","","","",""
"","image-keyboard-response","104","71909","0.0-104.0","3MD9PLUKKJ0B18F83FJ863OATUONZA","AJDXSXAWDDAEO","30UZJB2POHY4464FN6NBJ2NLFWF354","","621.4000000022352","img/flower2.png","75","623.6000000014901","2","0","1","1","1,0.333,0.333,0.333,1,0.333,0.333,0.333,1","1,0.333,0.333,0.333,1,0.333,0.333,0.333,1","1",""
"","html-keyboard-response","105","72212","0.0-105.0","3MD9PLUKKJ0B18F83FJ863OATUONZA","AJDXSXAWDDAEO","30UZJB2POHY4464FN6NBJ2NLFWF354","","null","<img src=""img/flower2.png"" style=""width:200px;border:14px solid red;"">","null","","","","","","","","",""
"","image-keyboard-response","106","73081","0.0-106.0","3MD9PLUKKJ0B18F83FJ863OATUONZA","AJDXSXAWDDAEO","30UZJB2POHY4464FN6NBJ2NLFWF354","","866.0999999977648","img/flower6.png","76","868.1999999992549","3","1","3","1","1,0.333,0.333,0.333,1,0.333,0.333,0.333,1","1,0.333,0.333,0.333,1,0.333,0.333,0.333,1","1",""
"","html-keyboard-response","107","73383","0.0-107.0","3MD9PLUKKJ0B18F83FJ863OATUONZA","AJDXSXAWDDAEO","30UZJB2POHY4464FN6NBJ2NLFWF354","","null","<img src=""img/flower6.png"" style=""width:200px; border:14px solid green;"">","null","","","","","","","","",""
"","image-keyboard-response","108","74111","0.0-108.0","3MD9PLUKKJ0B18F83FJ863OATUONZA","AJDXSXAWDDAEO","30UZJB2POHY4464FN6NBJ2NLFWF354","","725.5","img/flower5.png","74","727.4000000022352","1","0","2","1","1,0.333,0.333,0.333,1,0.333,0.333,0.333,1","1,0.333,0.333,0.333,1,0.333,0.333,0.333,1","1",""
"","html-keyboard-response","109","74414","0.0-109.0","3MD9PLUKKJ0B18F83FJ863OATUONZA","AJDXSXAWDDAEO","30UZJB2POHY4464FN6NBJ2NLFWF354","","null","<img src=""img/flower5.png"" style=""width:200px;border:14px solid red;"">","null","","","","","","","","",""
"","image-keyboard-response","110","75342","0.0-110.0","3MD9PLUKKJ0B18F83FJ863OATUONZA","AJDXSXAWDDAEO","30UZJB2POHY4464FN6NBJ2NLFWF354","","925.1999999992549","img/flower2.png","74","927.0999999977648","1","1","1","1","1,0.333,0.333,0.333,1,0.333,0.333,0.333,1","1,0.333,0.333,0.333,1,0.333,0.333,0.333,1","1",""
"","html-keyboard-response","111","75644","0.0-111.0","3MD9PLUKKJ0B18F83FJ863OATUONZA","AJDXSXAWDDAEO","30UZJB2POHY4464FN6NBJ2NLFWF354","","null","<img src=""img/flower2.png"" style=""width:200px; border:14px solid green;"">","null","","","","","","","","",""
"","image-keyboard-response","112","76333","0.0-112.0","3MD9PLUKKJ0B18F83FJ863OATUONZA","AJDXSXAWDDAEO","30UZJB2POHY4464FN6NBJ2NLFWF354","","687.6999999992549","img/flower6.png","76","689.1999999992549","3","1","3","1","1,0.333,0.333,0.333,1,0.333,0.333,0.333,1","1,0.333,0.333,0.333,1,0.333,0.333,0.333,1","1",""
"","html-keyboard-response","113","76636","0.0-113.0","3MD9PLUKKJ0B18F83FJ863OATUONZA","AJDXSXAWDDAEO","30UZJB2POHY4464FN6NBJ2NLFWF354","","null","<img src=""img/flower6.png"" style=""width:200px; border:14px solid green;"">","null","","","","","","","","",""
"","image-keyboard-response","114","77272","0.0-114.0","3MD9PLUKKJ0B18F83FJ863OATUONZA","AJDXSXAWDDAEO","30UZJB2POHY4464FN6NBJ2NLFWF354","","632.8999999985099","img/flower2.png","74","635.1000000014901","1","1","1","1","1,0.333,0.333,0.333,1,0.333,0.333,0.333,1","1,0.333,0.333,0.333,1,0.333,0.333,0.333,1","1",""
"","html-keyboard-response","115","77574","0.0-115.0","3MD9PLUKKJ0B18F83FJ863OATUONZA","AJDXSXAWDDAEO","30UZJB2POHY4464FN6NBJ2NLFWF354","","null","<img src=""img/flower2.png"" style=""width:200px; border:14px solid green;"">","null","","","","","","","","",""
"","image-keyboard-response","116","77995","0.0-116.0","3MD9PLUKKJ0B18F83FJ863OATUONZA","AJDXSXAWDDAEO","30UZJB2POHY4464FN6NBJ2NLFWF354","","419","img/flower2.png","74","420.69999999925494","1","1","1","1","1,0.333,0.333,0.333,1,0.333,0.333,0.333,1","1,0.333,0.333,0.333,1,0.333,0.333,0.333,1","1",""
"","html-keyboard-response","117","78297","0.0-117.0","3MD9PLUKKJ0B18F83FJ863OATUONZA","AJDXSXAWDDAEO","30UZJB2POHY4464FN6NBJ2NLFWF354","","null","<img src=""img/flower2.png"" style=""width:200px; border:14px solid green;"">","null","","","","","","","","",""
"","image-keyboard-response","118","78924","0.0-118.0","3MD9PLUKKJ0B18F83FJ863OATUONZA","AJDXSXAWDDAEO","30UZJB2POHY4464FN6NBJ2NLFWF354","","624.3999999985099","img/flower5.png","75","626.3000000007451","2","1","2","1","1,0.333,0.333,0.333,1,0.333,0.333,0.333,1","1,0.333,0.333,0.333,1,0.333,0.333,0.333,1","1",""
"","html-keyboard-response","119","79227","0.0-119.0","3MD9PLUKKJ0B18F83FJ863OATUONZA","AJDXSXAWDDAEO","30UZJB2POHY4464FN6NBJ2NLFWF354","","null","<img src=""img/flower5.png"" style=""width:200px; border:14px solid green;"">","null","","","","","","","","",""
"","image-keyboard-response","120","79939","0.0-120.0","3MD9PLUKKJ0B18F83FJ863OATUONZA","AJDXSXAWDDAEO","30UZJB2POHY4464FN6NBJ2NLFWF354","","710.3999999985099","img/flower6.png","76","712.5","3","1","3","1","1,0.333,0.333,0.333,1,0.333,0.333,0.333,1","1,0.333,0.333,0.333,1,0.333,0.333,0.333,1","1",""
"","html-keyboard-response","121","80242","0.0-121.0","3MD9PLUKKJ0B18F83FJ863OATUONZA","AJDXSXAWDDAEO","30UZJB2POHY4464FN6NBJ2NLFWF354","","null","<img src=""img/flower6.png"" style=""width:200px; border:14px solid green;"">","null","","","","","","","","",""
"","image-keyboard-response","122","80926","0.0-122.0","3MD9PLUKKJ0B18F83FJ863OATUONZA","AJDXSXAWDDAEO","30UZJB2POHY4464FN6NBJ2NLFWF354","","680","img/flower2.png","75","683.5","2","1","1","1","1,0.333,0.333,0.333,1,0.333,0.333,0.333,1","1,0.333,0.333,0.333,1,0.333,0.333,0.333,1","1",""
"","html-keyboard-response","123","81230","0.0-123.0","3MD9PLUKKJ0B18F83FJ863OATUONZA","AJDXSXAWDDAEO","30UZJB2POHY4464FN6NBJ2NLFWF354","","null","<img src=""img/flower2.png"" style=""width:200px; border:14px solid green;"">","null","","","","","","","","",""
"","image-keyboard-response","124","81866","0.0-124.0","3MD9PLUKKJ0B18F83FJ863OATUONZA","AJDXSXAWDDAEO","30UZJB2POHY4464FN6NBJ2NLFWF354","","633.1999999992549","img/flower6.png","76","635","3","1","3","1","1,0.333,0.333,0.333,1,0.333,0.333,0.333,1","1,0.333,0.333,0.333,1,0.333,0.333,0.333,1","1",""
"","html-keyboard-response","125","82167","0.0-125.0","3MD9PLUKKJ0B18F83FJ863OATUONZA","AJDXSXAWDDAEO","30UZJB2POHY4464FN6NBJ2NLFWF354","","null","<img src=""img/flower6.png"" style=""width:200px; border:14px solid green;"">","null","","","","","","","","",""
"","image-keyboard-response","126","82813","0.0-126.0","3MD9PLUKKJ0B18F83FJ863OATUONZA","AJDXSXAWDDAEO","30UZJB2POHY4464FN6NBJ2NLFWF354","","642.3999999985099","img/flower5.png","75","645.4000000022352","2","1","2","1","1,0.333,0.333,0.333,1,0.333,0.333,0.333,1","1,0.333,0.333,0.333,1,0.333,0.333,0.333,1","1",""
"","html-keyboard-response","127","83116","0.0-127.0","3MD9PLUKKJ0B18F83FJ863OATUONZA","AJDXSXAWDDAEO","30UZJB2POHY4464FN6NBJ2NLFWF354","","null","<img src=""img/flower5.png"" style=""width:200px; border:14px solid green;"">","null","","","","","","","","",""
"","image-keyboard-response","128","83480","0.0-128.0","3MD9PLUKKJ0B18F83FJ863OATUONZA","AJDXSXAWDDAEO","30UZJB2POHY4464FN6NBJ2NLFWF354","","360.5","img/flower5.png","75","363","2","1","2","1","1,0.333,0.333,0.333,1,0.333,0.333,0.333,1","1,0.333,0.333,0.333,1,0.333,0.333,0.333,1","1",""
"","html-keyboard-response","129","83783","0.0-129.0","3MD9PLUKKJ0B18F83FJ863OATUONZA","AJDXSXAWDDAEO","30UZJB2POHY4464FN6NBJ2NLFWF354","","null","<img src=""img/flower5.png"" style=""width:200px; border:14px solid green;"">","null","","","","","","","","",""
"","image-keyboard-response","130","84130","0.0-130.0","3MD9PLUKKJ0B18F83FJ863OATUONZA","AJDXSXAWDDAEO","30UZJB2POHY4464FN6NBJ2NLFWF354","","343.5999999977648","img/flower5.png","75","345.69999999925494","2","1","2","1","1,0.333,0.333,0.333,1,0.333,0.333,0.333,1","1,0.333,0.333,0.333,1,0.333,0.333,0.333,1","1",""
"","html-keyboard-response","131","84433","0.0-131.0","3MD9PLUKKJ0B18F83FJ863OATUONZA","AJDXSXAWDDAEO","30UZJB2POHY4464FN6NBJ2NLFWF354","","null","<img src=""img/flower5.png"" style=""width:200px; border:14px solid green;"">","null","","","","","","","","",""
"","image-keyboard-response","132","84807","0.0-132.0","3MD9PLUKKJ0B18F83FJ863OATUONZA","AJDXSXAWDDAEO","30UZJB2POHY4464FN6NBJ2NLFWF354","","371.5999999977648","img/flower5.png","75","373.5999999977648","2","1","2","1","1,0.333,0.333,0.333,1,0.333,0.333,0.333,1","1,0.333,0.333,0.333,1,0.333,0.333,0.333,1","1",""
"","html-keyboard-response","133","85109","0.0-133.0","3MD9PLUKKJ0B18F83FJ863OATUONZA","AJDXSXAWDDAEO","30UZJB2POHY4464FN6NBJ2NLFWF354","","null","<img src=""img/flower5.png"" style=""width:200px; border:14px solid green;"">","null","","","","","","","","",""
"","image-keyboard-response","134","85727","0.0-134.0","3MD9PLUKKJ0B18F83FJ863OATUONZA","AJDXSXAWDDAEO","30UZJB2POHY4464FN6NBJ2NLFWF354","","614.6000000014901","img/flower2.png","74","616.8000000007451","1","1","1","1","1,0.333,0.333,0.333,1,0.333,0.333,0.333,1","1,0.333,0.333,0.333,1,0.333,0.333,0.333,1","1",""
"","html-keyboard-response","135","86030","0.0-135.0","3MD9PLUKKJ0B18F83FJ863OATUONZA","AJDXSXAWDDAEO","30UZJB2POHY4464FN6NBJ2NLFWF354","","null","<img src=""img/flower2.png"" style=""width:200px; border:14px solid green;"">","null","","","","","","","","",""
"","image-keyboard-response","136","86588","0.0-136.0","3MD9PLUKKJ0B18F83FJ863OATUONZA","AJDXSXAWDDAEO","30UZJB2POHY4464FN6NBJ2NLFWF354","","556","img/flower5.png","75","558.1999999992549","2","1","2","1","1,0.333,0.333,0.333,1,0.333,0.333,0.333,1","1,0.333,0.333,0.333,1,0.333,0.333,0.333,1","1",""
"","html-keyboard-response","137","86891","0.0-137.0","3MD9PLUKKJ0B18F83FJ863OATUONZA","AJDXSXAWDDAEO","30UZJB2POHY4464FN6NBJ2NLFWF354","","null","<img src=""img/flower5.png"" style=""width:200px; border:14px solid green;"">","null","","","","","","","","",""
"","image-keyboard-response","138","87492","0.0-138.0","3MD9PLUKKJ0B18F83FJ863OATUONZA","AJDXSXAWDDAEO","30UZJB2POHY4464FN6NBJ2NLFWF354","","598.8999999985099","img/flower6.png","76","600.6999999992549","3","1","3","1","1,0.333,0.333,0.333,1,0.333,0.333,0.333,1","1,0.333,0.333,0.333,1,0.333,0.333,0.333,1","1",""
"","html-keyboard-response","139","87796","0.0-139.0","3MD9PLUKKJ0B18F83FJ863OATUONZA","AJDXSXAWDDAEO","30UZJB2POHY4464FN6NBJ2NLFWF354","","null","<img src=""img/flower6.png"" style=""width:200px; border:14px solid green;"">","null","","","","","","","","",""
"","image-keyboard-response","140","88372","0.0-140.0","3MD9PLUKKJ0B18F83FJ863OATUONZA","AJDXSXAWDDAEO","30UZJB2POHY4464FN6NBJ2NLFWF354","","574.8000000007451","img/flower5.png","75","576.4000000022352","2","1","2","1","1,0.333,0.333,0.333,1,0.333,0.333,0.333,1","1,0.333,0.333,0.333,1,0.333,0.333,0.333,1","1",""
"","html-keyboard-response","141","88675","0.0-141.0","3MD9PLUKKJ0B18F83FJ863OATUONZA","AJDXSXAWDDAEO","30UZJB2POHY4464FN6NBJ2NLFWF354","","null","<img src=""img/flower5.png"" style=""width:200px; border:14px solid green;"">","null","","","","","","","","",""
"","image-keyboard-response","142","89250","0.0-142.0","3MD9PLUKKJ0B18F83FJ863OATUONZA","AJDXSXAWDDAEO","30UZJB2POHY4464FN6NBJ2NLFWF354","","571.6999999992549","img/flower6.png","74","574.0999999977648","1","0","3","1","1,0.333,0.333,0.333,1,0.333,0.333,0.333,1","1,0.333,0.333,0.333,1,0.333,0.333,0.333,1","1",""
"","html-keyboard-response","143","89553","0.0-143.0","3MD9PLUKKJ0B18F83FJ863OATUONZA","AJDXSXAWDDAEO","30UZJB2POHY4464FN6NBJ2NLFWF354","","null","<img src=""img/flower6.png"" style=""width:200px;border:14px solid red;"">","null","","","","","","","","",""
"","image-keyboard-response","144","90031","0.0-144.0","3MD9PLUKKJ0B18F83FJ863OATUONZA","AJDXSXAWDDAEO","30UZJB2POHY4464FN6NBJ2NLFWF354","","476.0999999977648","img/flower6.png","76","478","3","1","3","1","1,0.333,0.333,0.333,1,0.333,0.333,0.333,1","1,0.333,0.333,0.333,1,0.333,0.333,0.333,1","1",""
"","html-keyboard-response","145","90333","0.0-145.0","3MD9PLUKKJ0B18F83FJ863OATUONZA","AJDXSXAWDDAEO","30UZJB2POHY4464FN6NBJ2NLFWF354","","null","<img src=""img/flower6.png"" style=""width:200px; border:14px solid green;"">","null","","","","","","","","",""
"","image-keyboard-response","146","90620","0.0-146.0","3MD9PLUKKJ0B18F83FJ863OATUONZA","AJDXSXAWDDAEO","30UZJB2POHY4464FN6NBJ2NLFWF354","","285","img/flower6.png","76","287.20000000298023","3","1","3","1","1,0.333,0.333,0.333,1,0.333,0.333,0.333,1","1,0.333,0.333,0.333,1,0.333,0.333,0.333,1","1",""
"","html-keyboard-response","147","90923","0.0-147.0","3MD9PLUKKJ0B18F83FJ863OATUONZA","AJDXSXAWDDAEO","30UZJB2POHY4464FN6NBJ2NLFWF354","","null","<img src=""img/flower6.png"" style=""width:200px; border:14px solid green;"">","null","","","","","","","","",""
"","image-keyboard-response","148","91545","0.0-148.0","3MD9PLUKKJ0B18F83FJ863OATUONZA","AJDXSXAWDDAEO","30UZJB2POHY4464FN6NBJ2NLFWF354","","618","img/flower5.png","75","620.5","2","1","2","1","1,0.333,0.333,0.333,1,0.333,0.333,0.333,1","1,0.333,0.333,0.333,1,0.333,0.333,0.333,1","1",""
"","html-keyboard-response","149","91847","0.0-149.0","3MD9PLUKKJ0B18F83FJ863OATUONZA","AJDXSXAWDDAEO","30UZJB2POHY4464FN6NBJ2NLFWF354","","null","<img src=""img/flower5.png"" style=""width:200px; border:14px solid green;"">","null","","","","","","","","",""
"","image-keyboard-response","150","92235","0.0-150.0","3MD9PLUKKJ0B18F83FJ863OATUONZA","AJDXSXAWDDAEO","30UZJB2POHY4464FN6NBJ2NLFWF354","","385.9000000022352","img/flower6.png","75","387.5","2","0","3","1","1,0.333,0.333,0.333,1,0.333,0.333,0.333,1","1,0.333,0.333,0.333,1,0.333,0.333,0.333,1","1",""
"","html-keyboard-response","151","92538","0.0-151.0","3MD9PLUKKJ0B18F83FJ863OATUONZA","AJDXSXAWDDAEO","30UZJB2POHY4464FN6NBJ2NLFWF354","","null","<img src=""img/flower6.png"" style=""width:200px;border:14px solid red;"">","null","","","","","","","","",""
"","image-keyboard-response","152","92761","0.0-152.0","3MD9PLUKKJ0B18F83FJ863OATUONZA","AJDXSXAWDDAEO","30UZJB2POHY4464FN6NBJ2NLFWF354","","219.5","img/flower5.png","76","222.30000000074506","3","0","2","1","1,0.333,0.333,0.333,1,0.333,0.333,0.333,1","1,0.333,0.333,0.333,1,0.333,0.333,0.333,1","1",""
"","html-keyboard-response","153","93064","0.0-153.0","3MD9PLUKKJ0B18F83FJ863OATUONZA","AJDXSXAWDDAEO","30UZJB2POHY4464FN6NBJ2NLFWF354","","null","<img src=""img/flower5.png"" style=""width:200px;border:14px solid red;"">","null","","","","","","","","",""
"","image-keyboard-response","154","93346","0.0-154.0","3MD9PLUKKJ0B18F83FJ863OATUONZA","AJDXSXAWDDAEO","30UZJB2POHY4464FN6NBJ2NLFWF354","","280.30000000074506","img/flower5.png","74","281.9000000022352","1","1","2","1","1,0.333,0.333,0.333,1,0.333,0.333,0.333,1","1,0.333,0.333,0.333,1,0.333,0.333,0.333,1","1",""
"","html-keyboard-response","155","93648","0.0-155.0","3MD9PLUKKJ0B18F83FJ863OATUONZA","AJDXSXAWDDAEO","30UZJB2POHY4464FN6NBJ2NLFWF354","","null","<img src=""img/flower5.png"" style=""width:200px; border:14px solid green;"">","null","","","","","","","","",""
"","image-keyboard-response","156","93930","0.0-156.0","3MD9PLUKKJ0B18F83FJ863OATUONZA","AJDXSXAWDDAEO","30UZJB2POHY4464FN6NBJ2NLFWF354","","279.1000000014901","img/flower5.png","74","281.1000000014901","1","1","2","1","1,0.333,0.333,0.333,1,0.333,0.333,0.333,1","1,0.333,0.333,0.333,1,0.333,0.333,0.333,1","1",""
"","html-keyboard-response","157","94233","0.0-157.0","3MD9PLUKKJ0B18F83FJ863OATUONZA","AJDXSXAWDDAEO","30UZJB2POHY4464FN6NBJ2NLFWF354","","null","<img src=""img/flower5.png"" style=""width:200px; border:14px solid green;"">","null","","","","","","","","",""
"","image-keyboard-response","158","94569","0.0-158.0","3MD9PLUKKJ0B18F83FJ863OATUONZA","AJDXSXAWDDAEO","30UZJB2POHY4464FN6NBJ2NLFWF354","","333.5","img/flower5.png","74","336.1000000014901","1","0","2","1","1,0.333,0.333,0.333,1,0.333,0.333,0.333,1","1,0.333,0.333,0.333,1,0.333,0.333,0.333,1","1",""
"","html-keyboard-response","159","94873","0.0-159.0","3MD9PLUKKJ0B18F83FJ863OATUONZA","AJDXSXAWDDAEO","30UZJB2POHY4464FN6NBJ2NLFWF354","","null","<img src=""img/flower5.png"" style=""width:200px;border:14px solid red;"">","null","","","","","","","","",""
"","image-keyboard-response","160","95343","0.0-160.0","3MD9PLUKKJ0B18F83FJ863OATUONZA","AJDXSXAWDDAEO","30UZJB2POHY4464FN6NBJ2NLFWF354","","466.6000000014901","img/flower6.png","75","470","2","0","3","1","1,0.333,0.333,0.333,1,0.333,0.333,0.333,1","1,0.333,0.333,0.333,1,0.333,0.333,0.333,1","1",""
"","html-keyboard-response","161","95654","0.0-161.0","3MD9PLUKKJ0B18F83FJ863OATUONZA","AJDXSXAWDDAEO","30UZJB2POHY4464FN6NBJ2NLFWF354","","null","<img src=""img/flower6.png"" style=""width:200px;border:14px solid red;"">","null","","","","","","","","",""
"","image-keyboard-response","162","95982","0.0-162.0","3MD9PLUKKJ0B18F83FJ863OATUONZA","AJDXSXAWDDAEO","30UZJB2POHY4464FN6NBJ2NLFWF354","","324.30000000074506","img/flower5.png","76","327.4000000022352","3","1","2","1","1,0.333,0.333,0.333,1,0.333,0.333,0.333,1","1,0.333,0.333,0.333,1,0.333,0.333,0.333,1","1",""
"","html-keyboard-response","163","96285","0.0-163.0","3MD9PLUKKJ0B18F83FJ863OATUONZA","AJDXSXAWDDAEO","30UZJB2POHY4464FN6NBJ2NLFWF354","","null","<img src=""img/flower5.png"" style=""width:200px; border:14px solid green;"">","null","","","","","","","","",""
"","image-keyboard-response","164","97124","0.0-164.0","3MD9PLUKKJ0B18F83FJ863OATUONZA","AJDXSXAWDDAEO","30UZJB2POHY4464FN6NBJ2NLFWF354","","835.8999999985099","img/flower6.png","76","838.5","3","1","3","1","1,0.333,0.333,0.333,1,0.333,0.333,0.333,1","1,0.333,0.333,0.333,1,0.333,0.333,0.333,1","1",""
"","html-keyboard-response","165","97428","0.0-165.0","3MD9PLUKKJ0B18F83FJ863OATUONZA","AJDXSXAWDDAEO","30UZJB2POHY4464FN6NBJ2NLFWF354","","null","<img src=""img/flower6.png"" style=""width:200px; border:14px solid green;"">","null","","","","","","","","",""
"","image-keyboard-response","166","98100","0.0-166.0","3MD9PLUKKJ0B18F83FJ863OATUONZA","AJDXSXAWDDAEO","30UZJB2POHY4464FN6NBJ2NLFWF354","","668.3999999985099","img/flower5.png","75","671.3000000007451","2","1","2","1","1,0.333,0.333,0.333,1,0.333,0.333,0.333,1","1,0.333,0.333,0.333,1,0.333,0.333,0.333,1","1",""
"","html-keyboard-response","167","98404","0.0-167.0","3MD9PLUKKJ0B18F83FJ863OATUONZA","AJDXSXAWDDAEO","30UZJB2POHY4464FN6NBJ2NLFWF354","","null","<img src=""img/flower5.png"" style=""width:200px; border:14px solid green;"">","null","","","","","","","","",""
"","image-keyboard-response","168","98764","0.0-168.0","3MD9PLUKKJ0B18F83FJ863OATUONZA","AJDXSXAWDDAEO","30UZJB2POHY4464FN6NBJ2NLFWF354","","357.30000000074506","img/flower5.png","75","360.3999999985099","2","1","2","1","1,0.333,0.333,0.333,1,0.333,0.333,0.333,1","1,0.333,0.333,0.333,1,0.333,0.333,0.333,1","1",""
"","html-keyboard-response","169","99067","0.0-169.0","3MD9PLUKKJ0B18F83FJ863OATUONZA","AJDXSXAWDDAEO","30UZJB2POHY4464FN6NBJ2NLFWF354","","null","<img src=""img/flower5.png"" style=""width:200px; border:14px solid green;"">","null","","","","","","","","",""
"","image-keyboard-response","170","99416","0.0-170.0","3MD9PLUKKJ0B18F83FJ863OATUONZA","AJDXSXAWDDAEO","30UZJB2POHY4464FN6NBJ2NLFWF354","","347.30000000074506","img/flower5.png","75","348.80000000074506","2","1","2","1","1,0.333,0.333,0.333,1,0.333,0.333,0.333,1","1,0.333,0.333,0.333,1,0.333,0.333,0.333,1","1",""
"","html-keyboard-response","171","99718","0.0-171.0","3MD9PLUKKJ0B18F83FJ863OATUONZA","AJDXSXAWDDAEO","30UZJB2POHY4464FN6NBJ2NLFWF354","","null","<img src=""img/flower5.png"" style=""width:200px; border:14px solid green;"">","null","","","","","","","","",""
"","image-keyboard-response","172","100070","0.0-172.0","3MD9PLUKKJ0B18F83FJ863OATUONZA","AJDXSXAWDDAEO","30UZJB2POHY4464FN6NBJ2NLFWF354","","350.80000000074506","img/flower5.png","75","352.1000000014901","2","1","2","1","1,0.333,0.333,0.333,1,0.333,0.333,0.333,1","1,0.333,0.333,0.333,1,0.333,0.333,0.333,1","1",""
"","html-keyboard-response","173","100373","0.0-173.0","3MD9PLUKKJ0B18F83FJ863OATUONZA","AJDXSXAWDDAEO","30UZJB2POHY4464FN6NBJ2NLFWF354","","null","<img src=""img/flower5.png"" style=""width:200px; border:14px solid green;"">","null","","","","","","","","",""
"","image-keyboard-response","174","101219","0.0-174.0","3MD9PLUKKJ0B18F83FJ863OATUONZA","AJDXSXAWDDAEO","30UZJB2POHY4464FN6NBJ2NLFWF354","","842.5999999977648","img/flower6.png","76","845.3000000007451","3","1","3","1","1,0.333,0.333,0.333,1,0.333,0.333,0.333,1","1,0.333,0.333,0.333,1,0.333,0.333,0.333,1","1",""
"","html-keyboard-response","175","101522","0.0-175.0","3MD9PLUKKJ0B18F83FJ863OATUONZA","AJDXSXAWDDAEO","30UZJB2POHY4464FN6NBJ2NLFWF354","","null","<img src=""img/flower6.png"" style=""width:200px; border:14px solid green;"">","null","","","","","","","","",""
"","image-keyboard-response","176","101912","0.0-176.0","3MD9PLUKKJ0B18F83FJ863OATUONZA","AJDXSXAWDDAEO","30UZJB2POHY4464FN6NBJ2NLFWF354","","386.8999999985099","img/flower6.png","76","388.69999999925494","3","1","3","1","1,0.333,0.333,0.333,1,0.333,0.333,0.333,1","1,0.333,0.333,0.333,1,0.333,0.333,0.333,1","1",""
"","html-keyboard-response","177","102213","0.0-177.0","3MD9PLUKKJ0B18F83FJ863OATUONZA","AJDXSXAWDDAEO","30UZJB2POHY4464FN6NBJ2NLFWF354","","null","<img src=""img/flower6.png"" style=""width:200px; border:14px solid green;"">","null","","","","","","","","",""
"","image-keyboard-response","178","103027","0.0-178.0","3MD9PLUKKJ0B18F83FJ863OATUONZA","AJDXSXAWDDAEO","30UZJB2POHY4464FN6NBJ2NLFWF354","","804.8000000007451","img/flower2.png","74","813.6000000014901","1","1","1","1","1,0.333,0.333,0.333,1,0.333,0.333,0.333,1","1,0.333,0.333,0.333,1,0.333,0.333,0.333,1","1",""
"","html-keyboard-response","179","103330","0.0-179.0","3MD9PLUKKJ0B18F83FJ863OATUONZA","AJDXSXAWDDAEO","30UZJB2POHY4464FN6NBJ2NLFWF354","","null","<img src=""img/flower2.png"" style=""width:200px; border:14px solid green;"">","null","","","","","","","","",""
"","image-keyboard-response","180","104012","0.0-180.0","3MD9PLUKKJ0B18F83FJ863OATUONZA","AJDXSXAWDDAEO","30UZJB2POHY4464FN6NBJ2NLFWF354","","678.8000000007451","img/flower6.png","75","681","2","0","3","1","1,0.333,0.333,0.333,1,0.333,0.333,0.333,1","1,0.333,0.333,0.333,1,0.333,0.333,0.333,1","1",""
"","html-keyboard-response","181","104315","0.0-181.0","3MD9PLUKKJ0B18F83FJ863OATUONZA","AJDXSXAWDDAEO","30UZJB2POHY4464FN6NBJ2NLFWF354","","null","<img src=""img/flower6.png"" style=""width:200px;border:14px solid red;"">","null","","","","","","","","",""
"","html-keyboard-response","182","107111","0.0-182.0","3MD9PLUKKJ0B18F83FJ863OATUONZA","AJDXSXAWDDAEO","30UZJB2POHY4464FN6NBJ2NLFWF354","","","","","","","","","","","","",""
"","image-keyboard-response","183","108099","0.0-183.0","3MD9PLUKKJ0B18F83FJ863OATUONZA","AJDXSXAWDDAEO","30UZJB2POHY4464FN6NBJ2NLFWF354","","984.5","img/flower1.png","74","987.8000000007451","1","1","3","2","1,0,0,1,1,0,1,0,1","1,0,0,1,1,0,1,0,1","1",""
"","html-keyboard-response","184","108402","0.0-184.0","3MD9PLUKKJ0B18F83FJ863OATUONZA","AJDXSXAWDDAEO","30UZJB2POHY4464FN6NBJ2NLFWF354","","null","<img src=""img/flower1.png"" style=""width:200px; border:14px solid green;"">","null","","","","","","","","",""
"","image-keyboard-response","185","108704","0.0-185.0","3MD9PLUKKJ0B18F83FJ863OATUONZA","AJDXSXAWDDAEO","30UZJB2POHY4464FN6NBJ2NLFWF354","","297.9000000022352","img/flower1.png","74","301.5","1","1","3","2","1,0,0,1,1,0,1,0,1","1,0,0,1,1,0,1,0,1","1",""
"","html-keyboard-response","186","109008","0.0-186.0","3MD9PLUKKJ0B18F83FJ863OATUONZA","AJDXSXAWDDAEO","30UZJB2POHY4464FN6NBJ2NLFWF354","","null","<img src=""img/flower1.png"" style=""width:200px; border:14px solid green;"">","null","","","","","","","","",""
"","image-keyboard-response","187","109493","0.0-187.0","3MD9PLUKKJ0B18F83FJ863OATUONZA","AJDXSXAWDDAEO","30UZJB2POHY4464FN6NBJ2NLFWF354","","481.30000000074506","img/flower3.png","75","484.19999999925494","2","0","1","2","1,0,0,1,1,0,1,0,1","1,0,0,1,1,0,1,0,1","1",""
"","html-keyboard-response","188","109795","0.0-188.0","3MD9PLUKKJ0B18F83FJ863OATUONZA","AJDXSXAWDDAEO","30UZJB2POHY4464FN6NBJ2NLFWF354","","null","<img src=""img/flower3.png"" style=""width:200px;border:14px solid red;"">","null","","","","","","","","",""
"","image-keyboard-response","189","110097","0.0-189.0","3MD9PLUKKJ0B18F83FJ863OATUONZA","AJDXSXAWDDAEO","30UZJB2POHY4464FN6NBJ2NLFWF354","","300.30000000074506","img/flower4.png","76","301.8999999985099","3","0","2","2","1,0,0,1,1,0,1,0,1","1,0,0,1,1,0,1,0,1","1",""
"","html-keyboard-response","190","110400","0.0-190.0","3MD9PLUKKJ0B18F83FJ863OATUONZA","AJDXSXAWDDAEO","30UZJB2POHY4464FN6NBJ2NLFWF354","","null","<img src=""img/flower4.png"" style=""width:200px;border:14px solid red;"">","null","","","","","","","","",""
"","image-keyboard-response","191","110739","0.0-191.0","3MD9PLUKKJ0B18F83FJ863OATUONZA","AJDXSXAWDDAEO","30UZJB2POHY4464FN6NBJ2NLFWF354","","335.69999999925494","img/flower3.png","75","338","2","0","1","2","1,0,0,1,1,0,1,0,1","1,0,0,1,1,0,1,0,1","1",""
"","html-keyboard-response","192","111042","0.0-192.0","3MD9PLUKKJ0B18F83FJ863OATUONZA","AJDXSXAWDDAEO","30UZJB2POHY4464FN6NBJ2NLFWF354","","null","<img src=""img/flower3.png"" style=""width:200px;border:14px solid red;"">","null","","","","","","","","",""
"","image-keyboard-response","193","111320","0.0-193.0","3MD9PLUKKJ0B18F83FJ863OATUONZA","AJDXSXAWDDAEO","30UZJB2POHY4464FN6NBJ2NLFWF354","","276.19999999925494","img/flower4.png","74","278","1","1","2","2","1,0,0,1,1,0,1,0,1","1,0,0,1,1,0,1,0,1","1",""
"","html-keyboard-response","194","111623","0.0-194.0","3MD9PLUKKJ0B18F83FJ863OATUONZA","AJDXSXAWDDAEO","30UZJB2POHY4464FN6NBJ2NLFWF354","","null","<img src=""img/flower4.png"" style=""width:200px; border:14px solid green;"">","null","","","","","","","","",""
"","image-keyboard-response","195","111789","0.0-195.0","3MD9PLUKKJ0B18F83FJ863OATUONZA","AJDXSXAWDDAEO","30UZJB2POHY4464FN6NBJ2NLFWF354","","162.59999999776483","img/flower4.png","74","164.89999999850988","1","1","2","2","1,0,0,1,1,0,1,0,1","1,0,0,1,1,0,1,0,1","1",""
"","html-keyboard-response","196","112091","0.0-196.0","3MD9PLUKKJ0B18F83FJ863OATUONZA","AJDXSXAWDDAEO","30UZJB2POHY4464FN6NBJ2NLFWF354","","null","<img src=""img/flower4.png"" style=""width:200px; border:14px solid green;"">","null","","","","","","","","",""
"","image-keyboard-response","197","112214","0.0-197.0","3MD9PLUKKJ0B18F83FJ863OATUONZA","AJDXSXAWDDAEO","30UZJB2POHY4464FN6NBJ2NLFWF354","","121.5","img/flower1.png","74","122.80000000074506","1","1","3","2","1,0,0,1,1,0,1,0,1","1,0,0,1,1,0,1,0,1","1",""
"","html-keyboard-response","198","112516","0.0-198.0","3MD9PLUKKJ0B18F83FJ863OATUONZA","AJDXSXAWDDAEO","30UZJB2POHY4464FN6NBJ2NLFWF354","","null","<img src=""img/flower1.png"" style=""width:200px; border:14px solid green;"">","null","","","","","","","","",""
"","image-keyboard-response","199","112681","0.0-199.0","3MD9PLUKKJ0B18F83FJ863OATUONZA","AJDXSXAWDDAEO","30UZJB2POHY4464FN6NBJ2NLFWF354","","161.89999999850988","img/flower4.png","74","165.39999999850988","1","1","2","2","1,0,0,1,1,0,1,0,1","1,0,0,1,1,0,1,0,1","1",""
"","html-keyboard-response","200","112985","0.0-200.0","3MD9PLUKKJ0B18F83FJ863OATUONZA","AJDXSXAWDDAEO","30UZJB2POHY4464FN6NBJ2NLFWF354","","null","<img src=""img/flower4.png"" style=""width:200px; border:14px solid green;"">","null","","","","","","","","",""
"","image-keyboard-response","201","113092","0.0-201.0","3MD9PLUKKJ0B18F83FJ863OATUONZA","AJDXSXAWDDAEO","30UZJB2POHY4464FN6NBJ2NLFWF354","","103.5","img/flower1.png","74","106.60000000149012","1","1","3","2","1,0,0,1,1,0,1,0,1","1,0,0,1,1,0,1,0,1","1",""
"","html-keyboard-response","202","113397","0.0-202.0","3MD9PLUKKJ0B18F83FJ863OATUONZA","AJDXSXAWDDAEO","30UZJB2POHY4464FN6NBJ2NLFWF354","","null","<img src=""img/flower1.png"" style=""width:200px; border:14px solid green;"">","null","","","","","","","","",""
"","image-keyboard-response","203","113545","0.0-203.0","3MD9PLUKKJ0B18F83FJ863OATUONZA","AJDXSXAWDDAEO","30UZJB2POHY4464FN6NBJ2NLFWF354","","142.90000000223517","img/flower3.png","74","147.39999999850988","1","1","1","2","1,0,0,1,1,0,1,0,1","1,0,0,1,1,0,1,0,1","1",""
"","html-keyboard-response","204","113847","0.0-204.0","3MD9PLUKKJ0B18F83FJ863OATUONZA","AJDXSXAWDDAEO","30UZJB2POHY4464FN6NBJ2NLFWF354","","null","<img src=""img/flower3.png"" style=""width:200px; border:14px solid green;"">","null","","","","","","","","",""
"","image-keyboard-response","205","113979","0.0-205.0","3MD9PLUKKJ0B18F83FJ863OATUONZA","AJDXSXAWDDAEO","30UZJB2POHY4464FN6NBJ2NLFWF354","","128.60000000149012","img/flower1.png","74","131.79999999701977","1","1","3","2","1,0,0,1,1,0,1,0,1","1,0,0,1,1,0,1,0,1","1",""
"","html-keyboard-response","206","114282","0.0-206.0","3MD9PLUKKJ0B18F83FJ863OATUONZA","AJDXSXAWDDAEO","30UZJB2POHY4464FN6NBJ2NLFWF354","","null","<img src=""img/flower1.png"" style=""width:200px; border:14px solid green;"">","null","","","","","","","","",""
"","image-keyboard-response","207","114406","0.0-207.0","3MD9PLUKKJ0B18F83FJ863OATUONZA","AJDXSXAWDDAEO","30UZJB2POHY4464FN6NBJ2NLFWF354","","119.89999999850988","img/flower1.png","74","122.80000000074506","1","1","3","2","1,0,0,1,1,0,1,0,1","1,0,0,1,1,0,1,0,1","1",""
"","html-keyboard-response","208","114709","0.0-208.0","3MD9PLUKKJ0B18F83FJ863OATUONZA","AJDXSXAWDDAEO","30UZJB2POHY4464FN6NBJ2NLFWF354","","null","<img src=""img/flower1.png"" style=""width:200px; border:14px solid green;"">","null","","","","","","","","",""
"","image-keyboard-response","209","114838","0.0-209.0","3MD9PLUKKJ0B18F83FJ863OATUONZA","AJDXSXAWDDAEO","30UZJB2POHY4464FN6NBJ2NLFWF354","","126.10000000149012","img/flower3.png","74","129","1","1","1","2","1,0,0,1,1,0,1,0,1","1,0,0,1,1,0,1,0,1","1",""
"","html-keyboard-response","210","115141","0.0-210.0","3MD9PLUKKJ0B18F83FJ863OATUONZA","AJDXSXAWDDAEO","30UZJB2POHY4464FN6NBJ2NLFWF354","","null","<img src=""img/flower3.png"" style=""width:200px; border:14px solid green;"">","null","","","","","","","","",""
"","image-keyboard-response","211","115252","0.0-211.0","3MD9PLUKKJ0B18F83FJ863OATUONZA","AJDXSXAWDDAEO","30UZJB2POHY4464FN6NBJ2NLFWF354","","107.5","img/flower4.png","74","110.19999999925494","1","1","2","2","1,0,0,1,1,0,1,0,1","1,0,0,1,1,0,1,0,1","1",""
"","html-keyboard-response","212","115555","0.0-212.0","3MD9PLUKKJ0B18F83FJ863OATUONZA","AJDXSXAWDDAEO","30UZJB2POHY4464FN6NBJ2NLFWF354","","null","<img src=""img/flower4.png"" style=""width:200px; border:14px solid green;"">","null","","","","","","","","",""
"","image-keyboard-response","213","115663","0.0-213.0","3MD9PLUKKJ0B18F83FJ863OATUONZA","AJDXSXAWDDAEO","30UZJB2POHY4464FN6NBJ2NLFWF354","","104.60000000149012","img/flower3.png","74","107.30000000074506","1","1","1","2","1,0,0,1,1,0,1,0,1","1,0,0,1,1,0,1,0,1","1",""
"","html-keyboard-response","214","115966","0.0-214.0","3MD9PLUKKJ0B18F83FJ863OATUONZA","AJDXSXAWDDAEO","30UZJB2POHY4464FN6NBJ2NLFWF354","","null","<img src=""img/flower3.png"" style=""width:200px; border:14px solid green;"">","null","","","","","","","","",""
"","image-keyboard-response","215","116096","0.0-215.0","3MD9PLUKKJ0B18F83FJ863OATUONZA","AJDXSXAWDDAEO","30UZJB2POHY4464FN6NBJ2NLFWF354","","126","img/flower1.png","74","129.30000000074506","1","1","3","2","1,0,0,1,1,0,1,0,1","1,0,0,1,1,0,1,0,1","1",""
"","html-keyboard-response","216","116399","0.0-216.0","3MD9PLUKKJ0B18F83FJ863OATUONZA","AJDXSXAWDDAEO","30UZJB2POHY4464FN6NBJ2NLFWF354","","null","<img src=""img/flower1.png"" style=""width:200px; border:14px solid green;"">","null","","","","","","","","",""
"","image-keyboard-response","217","116553","0.0-217.0","3MD9PLUKKJ0B18F83FJ863OATUONZA","AJDXSXAWDDAEO","30UZJB2POHY4464FN6NBJ2NLFWF354","","152.59999999776483","img/flower3.png","74","153.89999999850988","1","1","1","2","1,0,0,1,1,0,1,0,1","1,0,0,1,1,0,1,0,1","1",""
"","html-keyboard-response","218","116856","0.0-218.0","3MD9PLUKKJ0B18F83FJ863OATUONZA","AJDXSXAWDDAEO","30UZJB2POHY4464FN6NBJ2NLFWF354","","null","<img src=""img/flower3.png"" style=""width:200px; border:14px solid green;"">","null","","","","","","","","",""
"","image-keyboard-response","219","116972","0.0-219.0","3MD9PLUKKJ0B18F83FJ863OATUONZA","AJDXSXAWDDAEO","30UZJB2POHY4464FN6NBJ2NLFWF354","","113.39999999850988","img/flower4.png","74","115.5","1","1","2","2","1,0,0,1,1,0,1,0,1","1,0,0,1,1,0,1,0,1","1",""
"","html-keyboard-response","220","117275","0.0-220.0","3MD9PLUKKJ0B18F83FJ863OATUONZA","AJDXSXAWDDAEO","30UZJB2POHY4464FN6NBJ2NLFWF354","","null","<img src=""img/flower4.png"" style=""width:200px; border:14px solid green;"">","null","","","","","","","","",""
"","image-keyboard-response","221","117381","0.0-221.0","3MD9PLUKKJ0B18F83FJ863OATUONZA","AJDXSXAWDDAEO","30UZJB2POHY4464FN6NBJ2NLFWF354","","103.20000000298023","img/flower3.png","74","105.19999999925494","1","1","1","2","1,0,0,1,1,0,1,0,1","1,0,0,1,1,0,1,0,1","1",""
"","html-keyboard-response","222","117685","0.0-222.0","3MD9PLUKKJ0B18F83FJ863OATUONZA","AJDXSXAWDDAEO","30UZJB2POHY4464FN6NBJ2NLFWF354","","null","<img src=""img/flower3.png"" style=""width:200px; border:14px solid green;"">","null","","","","","","","","",""
"","image-keyboard-response","223","117838","0.0-223.0","3MD9PLUKKJ0B18F83FJ863OATUONZA","AJDXSXAWDDAEO","30UZJB2POHY4464FN6NBJ2NLFWF354","","150.39999999850988","img/flower1.png","74","152.80000000074506","1","1","3","2","1,0,0,1,1,0,1,0,1","1,0,0,1,1,0,1,0,1","1",""
"","html-keyboard-response","224","118141","0.0-224.0","3MD9PLUKKJ0B18F83FJ863OATUONZA","AJDXSXAWDDAEO","30UZJB2POHY4464FN6NBJ2NLFWF354","","null","<img src=""img/flower1.png"" style=""width:200px; border:14px solid green;"">","null","","","","","","","","",""
"","image-keyboard-response","225","118208","0.0-225.0","3MD9PLUKKJ0B18F83FJ863OATUONZA","AJDXSXAWDDAEO","30UZJB2POHY4464FN6NBJ2NLFWF354","","60.70000000298023","img/flower1.png","74","64.09999999776483","1","1","3","2","1,0,0,1,1,0,1,0,1","1,0,0,1,1,0,1,0,1","1",""
"","html-keyboard-response","226","118512","0.0-226.0","3MD9PLUKKJ0B18F83FJ863OATUONZA","AJDXSXAWDDAEO","30UZJB2POHY4464FN6NBJ2NLFWF354","","null","<img src=""img/flower1.png"" style=""width:200px; border:14px solid green;"">","null","","","","","","","","",""
"","image-keyboard-response","227","118660","0.0-227.0","3MD9PLUKKJ0B18F83FJ863OATUONZA","AJDXSXAWDDAEO","30UZJB2POHY4464FN6NBJ2NLFWF354","","144.5","img/flower4.png","74","148.30000000074506","1","1","2","2","1,0,0,1,1,0,1,0,1","1,0,0,1,1,0,1,0,1","1",""
"","html-keyboard-response","228","118963","0.0-228.0","3MD9PLUKKJ0B18F83FJ863OATUONZA","AJDXSXAWDDAEO","30UZJB2POHY4464FN6NBJ2NLFWF354","","null","<img src=""img/flower4.png"" style=""width:200px; border:14px solid green;"">","null","","","","","","","","",""
"","image-keyboard-response","229","119059","0.0-229.0","3MD9PLUKKJ0B18F83FJ863OATUONZA","AJDXSXAWDDAEO","30UZJB2POHY4464FN6NBJ2NLFWF354","","94.89999999850988","img/flower4.png","74","96.5","1","1","2","2","1,0,0,1,1,0,1,0,1","1,0,0,1,1,0,1,0,1","1",""
"","html-keyboard-response","230","119363","0.0-230.0","3MD9PLUKKJ0B18F83FJ863OATUONZA","AJDXSXAWDDAEO","30UZJB2POHY4464FN6NBJ2NLFWF354","","null","<img src=""img/flower4.png"" style=""width:200px; border:14px solid green;"">","null","","","","","","","","",""
"","image-keyboard-response","231","119443","0.0-231.0","3MD9PLUKKJ0B18F83FJ863OATUONZA","AJDXSXAWDDAEO","30UZJB2POHY4464FN6NBJ2NLFWF354","","77.10000000149012","img/flower3.png","74","79.79999999701977","1","1","1","2","1,0,0,1,1,0,1,0,1","1,0,0,1,1,0,1,0,1","1",""
"","html-keyboard-response","232","119749","0.0-232.0","3MD9PLUKKJ0B18F83FJ863OATUONZA","AJDXSXAWDDAEO","30UZJB2POHY4464FN6NBJ2NLFWF354","","null","<img src=""img/flower3.png"" style=""width:200px; border:14px solid green;"">","null","","","","","","","","",""
"","image-keyboard-response","233","119757","0.0-233.0","3MD9PLUKKJ0B18F83FJ863OATUONZA","AJDXSXAWDDAEO","30UZJB2POHY4464FN6NBJ2NLFWF354","","4.100000001490116","img/flower4.png","74","6.699999999254942","1","1","2","2","1,0,0,1,1,0,1,0,1","1,0,0,1,1,0,1,0,1","1",""
"","html-keyboard-response","234","120062","0.0-234.0","3MD9PLUKKJ0B18F83FJ863OATUONZA","AJDXSXAWDDAEO","30UZJB2POHY4464FN6NBJ2NLFWF354","","null","<img src=""img/flower4.png"" style=""width:200px; border:14px solid green;"">","null","","","","","","","","",""
"","image-keyboard-response","235","120089","0.0-235.0","3MD9PLUKKJ0B18F83FJ863OATUONZA","AJDXSXAWDDAEO","30UZJB2POHY4464FN6NBJ2NLFWF354","","24.099999997764826","img/flower3.png","74","26.699999999254942","1","1","1","2","1,0,0,1,1,0,1,0,1","1,0,0,1,1,0,1,0,1","1",""
"","html-keyboard-response","236","120392","0.0-236.0","3MD9PLUKKJ0B18F83FJ863OATUONZA","AJDXSXAWDDAEO","30UZJB2POHY4464FN6NBJ2NLFWF354","","null","<img src=""img/flower3.png"" style=""width:200px; border:14px solid green;"">","null","","","","","","","","",""
"","image-keyboard-response","237","120554","0.0-237.0","3MD9PLUKKJ0B18F83FJ863OATUONZA","AJDXSXAWDDAEO","30UZJB2POHY4464FN6NBJ2NLFWF354","","159.69999999925494","img/flower3.png","74","161.90000000223517","1","1","1","2","1,0,0,1,1,0,1,0,1","1,0,0,1,1,0,1,0,1","1",""
"","html-keyboard-response","238","120857","0.0-238.0","3MD9PLUKKJ0B18F83FJ863OATUONZA","AJDXSXAWDDAEO","30UZJB2POHY4464FN6NBJ2NLFWF354","","null","<img src=""img/flower3.png"" style=""width:200px; border:14px solid green;"">","null","","","","","","","","",""
"","image-keyboard-response","239","121000","0.0-239.0","3MD9PLUKKJ0B18F83FJ863OATUONZA","AJDXSXAWDDAEO","30UZJB2POHY4464FN6NBJ2NLFWF354","","142.5","img/flower4.png","74","143.60000000149012","1","1","2","2","1,0,0,1,1,0,1,0,1","1,0,0,1,1,0,1,0,1","1",""
"","html-keyboard-response","240","121306","0.0-240.0","3MD9PLUKKJ0B18F83FJ863OATUONZA","AJDXSXAWDDAEO","30UZJB2POHY4464FN6NBJ2NLFWF354","","null","<img src=""img/flower4.png"" style=""width:200px; border:14px solid green;"">","null","","","","","","","","",""
"","image-keyboard-response","241","121425","0.0-241.0","3MD9PLUKKJ0B18F83FJ863OATUONZA","AJDXSXAWDDAEO","30UZJB2POHY4464FN6NBJ2NLFWF354","","116.60000000149012","img/flower4.png","74","119.19999999925494","1","1","2","2","1,0,0,1,1,0,1,0,1","1,0,0,1,1,0,1,0,1","1",""
"","html-keyboard-response","242","121728","0.0-242.0","3MD9PLUKKJ0B18F83FJ863OATUONZA","AJDXSXAWDDAEO","30UZJB2POHY4464FN6NBJ2NLFWF354","","null","<img src=""img/flower4.png"" style=""width:200px; border:14px solid green;"">","null","","","","","","","","",""
"","image-keyboard-response","243","121796","0.0-243.0","3MD9PLUKKJ0B18F83FJ863OATUONZA","AJDXSXAWDDAEO","30UZJB2POHY4464FN6NBJ2NLFWF354","","64.89999999850988","img/flower3.png","74","66.89999999850988","1","1","1","2","1,0,0,1,1,0,1,0,1","1,0,0,1,1,0,1,0,1","1",""
"","html-keyboard-response","244","122099","0.0-244.0","3MD9PLUKKJ0B18F83FJ863OATUONZA","AJDXSXAWDDAEO","30UZJB2POHY4464FN6NBJ2NLFWF354","","null","<img src=""img/flower3.png"" style=""width:200px; border:14px solid green;"">","null","","","","","","","","",""
"","image-keyboard-response","245","122290","0.0-245.0","3MD9PLUKKJ0B18F83FJ863OATUONZA","AJDXSXAWDDAEO","30UZJB2POHY4464FN6NBJ2NLFWF354","","188.80000000074506","img/flower1.png","74","191.20000000298023","1","1","3","2","1,0,0,1,1,0,1,0,1","1,0,0,1,1,0,1,0,1","1",""
"","html-keyboard-response","246","122595","0.0-246.0","3MD9PLUKKJ0B18F83FJ863OATUONZA","AJDXSXAWDDAEO","30UZJB2POHY4464FN6NBJ2NLFWF354","","null","<img src=""img/flower1.png"" style=""width:200px; border:14px solid green;"">","null","","","","","","","","",""
"","image-keyboard-response","247","122702","0.0-247.0","3MD9PLUKKJ0B18F83FJ863OATUONZA","AJDXSXAWDDAEO","30UZJB2POHY4464FN6NBJ2NLFWF354","","104.5","img/flower4.png","74","106.60000000149012","1","1","2","2","1,0,0,1,1,0,1,0,1","1,0,0,1,1,0,1,0,1","1",""
"","html-keyboard-response","248","123006","0.0-248.0","3MD9PLUKKJ0B18F83FJ863OATUONZA","AJDXSXAWDDAEO","30UZJB2POHY4464FN6NBJ2NLFWF354","","null","<img src=""img/flower4.png"" style=""width:200px; border:14px solid green;"">","null","","","","","","","","",""
"","image-keyboard-response","249","123085","0.0-249.0","3MD9PLUKKJ0B18F83FJ863OATUONZA","AJDXSXAWDDAEO","30UZJB2POHY4464FN6NBJ2NLFWF354","","77","img/flower3.png","74","78.5","1","1","1","2","1,0,0,1,1,0,1,0,1","1,0,0,1,1,0,1,0,1","1",""
"","html-keyboard-response","250","123388","0.0-250.0","3MD9PLUKKJ0B18F83FJ863OATUONZA","AJDXSXAWDDAEO","30UZJB2POHY4464FN6NBJ2NLFWF354","","null","<img src=""img/flower3.png"" style=""width:200px; border:14px solid green;"">","null","","","","","","","","",""
"","image-keyboard-response","251","123470","0.0-251.0","3MD9PLUKKJ0B18F83FJ863OATUONZA","AJDXSXAWDDAEO","30UZJB2POHY4464FN6NBJ2NLFWF354","","77.80000000074506","img/flower3.png","74","81.60000000149012","1","1","1","2","1,0,0,1,1,0,1,0,1","1,0,0,1,1,0,1,0,1","1",""
"","html-keyboard-response","252","123774","0.0-252.0","3MD9PLUKKJ0B18F83FJ863OATUONZA","AJDXSXAWDDAEO","30UZJB2POHY4464FN6NBJ2NLFWF354","","null","<img src=""img/flower3.png"" style=""width:200px; border:14px solid green;"">","null","","","","","","","","",""
"","image-keyboard-response","253","123835","0.0-253.0","3MD9PLUKKJ0B18F83FJ863OATUONZA","AJDXSXAWDDAEO","30UZJB2POHY4464FN6NBJ2NLFWF354","","57.5","img/flower4.png","74","60.099999997764826","1","1","2","2","1,0,0,1,1,0,1,0,1","1,0,0,1,1,0,1,0,1","1",""
"","html-keyboard-response","254","124137","0.0-254.0","3MD9PLUKKJ0B18F83FJ863OATUONZA","AJDXSXAWDDAEO","30UZJB2POHY4464FN6NBJ2NLFWF354","","null","<img src=""img/flower4.png"" style=""width:200px; border:14px solid green;"">","null","","","","","","","","",""
"","image-keyboard-response","255","124226","0.0-255.0","3MD9PLUKKJ0B18F83FJ863OATUONZA","AJDXSXAWDDAEO","30UZJB2POHY4464FN6NBJ2NLFWF354","","84.80000000074506","img/flower3.png","74","87.5","1","1","1","2","1,0,0,1,1,0,1,0,1","1,0,0,1,1,0,1,0,1","1",""
"","html-keyboard-response","256","124528","0.0-256.0","3MD9PLUKKJ0B18F83FJ863OATUONZA","AJDXSXAWDDAEO","30UZJB2POHY4464FN6NBJ2NLFWF354","","null","<img src=""img/flower3.png"" style=""width:200px; border:14px solid green;"">","null","","","","","","","","",""
"","image-keyboard-response","257","124608","0.0-257.0","3MD9PLUKKJ0B18F83FJ863OATUONZA","AJDXSXAWDDAEO","30UZJB2POHY4464FN6NBJ2NLFWF354","","78.5","img/flower3.png","74","79.30000000074506","1","1","1","2","1,0,0,1,1,0,1,0,1","1,0,0,1,1,0,1,0,1","1",""
"","html-keyboard-response","258","124910","0.0-258.0","3MD9PLUKKJ0B18F83FJ863OATUONZA","AJDXSXAWDDAEO","30UZJB2POHY4464FN6NBJ2NLFWF354","","null","<img src=""img/flower3.png"" style=""width:200px; border:14px solid green;"">","null","","","","","","","","",""
"","image-keyboard-response","259","125011","0.0-259.0","3MD9PLUKKJ0B18F83FJ863OATUONZA","AJDXSXAWDDAEO","30UZJB2POHY4464FN6NBJ2NLFWF354","","98.40000000223517","img/flower4.png","74","100.60000000149012","1","1","2","2","1,0,0,1,1,0,1,0,1","1,0,0,1,1,0,1,0,1","1",""
"","html-keyboard-response","260","125314","0.0-260.0","3MD9PLUKKJ0B18F83FJ863OATUONZA","AJDXSXAWDDAEO","30UZJB2POHY4464FN6NBJ2NLFWF354","","null","<img src=""img/flower4.png"" style=""width:200px; border:14px solid green;"">","null","","","","","","","","",""
"","image-keyboard-response","261","125410","0.0-261.0","3MD9PLUKKJ0B18F83FJ863OATUONZA","AJDXSXAWDDAEO","30UZJB2POHY4464FN6NBJ2NLFWF354","","93.90000000223517","img/flower3.png","74","96.10000000149012","1","1","1","2","1,0,0,1,1,0,1,0,1","1,0,0,1,1,0,1,0,1","1",""
"","html-keyboard-response","262","125713","0.0-262.0","3MD9PLUKKJ0B18F83FJ863OATUONZA","AJDXSXAWDDAEO","30UZJB2POHY4464FN6NBJ2NLFWF354","","null","<img src=""img/flower3.png"" style=""width:200px; border:14px solid green;"">","null","","","","","","","","",""
"","image-keyboard-response","263","125788","0.0-263.0","3MD9PLUKKJ0B18F83FJ863OATUONZA","AJDXSXAWDDAEO","30UZJB2POHY4464FN6NBJ2NLFWF354","","72.59999999776483","img/flower1.png","74","75","1","1","3","2","1,0,0,1,1,0,1,0,1","1,0,0,1,1,0,1,0,1","1",""
"","html-keyboard-response","264","126091","0.0-264.0","3MD9PLUKKJ0B18F83FJ863OATUONZA","AJDXSXAWDDAEO","30UZJB2POHY4464FN6NBJ2NLFWF354","","null","<img src=""img/flower1.png"" style=""width:200px; border:14px solid green;"">","null","","","","","","","","",""
"","image-keyboard-response","265","126157","0.0-265.0","3MD9PLUKKJ0B18F83FJ863OATUONZA","AJDXSXAWDDAEO","30UZJB2POHY4464FN6NBJ2NLFWF354","","63.79999999701977","img/flower4.png","74","65.80000000074506","1","1","2","2","1,0,0,1,1,0,1,0,1","1,0,0,1,1,0,1,0,1","1",""
"","html-keyboard-response","266","126460","0.0-266.0","3MD9PLUKKJ0B18F83FJ863OATUONZA","AJDXSXAWDDAEO","30UZJB2POHY4464FN6NBJ2NLFWF354","","null","<img src=""img/flower4.png"" style=""width:200px; border:14px solid green;"">","null","","","","","","","","",""
"","image-keyboard-response","267","126523","0.0-267.0","3MD9PLUKKJ0B18F83FJ863OATUONZA","AJDXSXAWDDAEO","30UZJB2POHY4464FN6NBJ2NLFWF354","","59.80000000074506","img/flower1.png","74","62.19999999925494","1","1","3","2","1,0,0,1,1,0,1,0,1","1,0,0,1,1,0,1,0,1","1",""
"","html-keyboard-response","268","126825","0.0-268.0","3MD9PLUKKJ0B18F83FJ863OATUONZA","AJDXSXAWDDAEO","30UZJB2POHY4464FN6NBJ2NLFWF354","","null","<img src=""img/flower1.png"" style=""width:200px; border:14px solid green;"">","null","","","","","","","","",""
"","image-keyboard-response","269","126916","0.0-269.0","3MD9PLUKKJ0B18F83FJ863OATUONZA","AJDXSXAWDDAEO","30UZJB2POHY4464FN6NBJ2NLFWF354","","89.19999999925494","img/flower1.png","74","90","1","1","3","2","1,0,0,1,1,0,1,0,1","1,0,0,1,1,0,1,0,1","1",""
"","html-keyboard-response","270","127217","0.0-270.0","3MD9PLUKKJ0B18F83FJ863OATUONZA","AJDXSXAWDDAEO","30UZJB2POHY4464FN6NBJ2NLFWF354","","null","<img src=""img/flower1.png"" style=""width:200px; border:14px solid green;"">","null","","","","","","","","",""
"","image-keyboard-response","271","127300","0.0-271.0","3MD9PLUKKJ0B18F83FJ863OATUONZA","AJDXSXAWDDAEO","30UZJB2POHY4464FN6NBJ2NLFWF354","","79.5","img/flower4.png","74","82.39999999850988","1","1","2","2","1,0,0,1,1,0,1,0,1","1,0,0,1,1,0,1,0,1","1",""
"","html-keyboard-response","272","127603","0.0-272.0","3MD9PLUKKJ0B18F83FJ863OATUONZA","AJDXSXAWDDAEO","30UZJB2POHY4464FN6NBJ2NLFWF354","","null","<img src=""img/flower4.png"" style=""width:200px; border:14px solid green;"">","null","","","","","","","","",""
"","image-keyboard-response","273","127686","0.0-273.0","3MD9PLUKKJ0B18F83FJ863OATUONZA","AJDXSXAWDDAEO","30UZJB2POHY4464FN6NBJ2NLFWF354","","80.09999999776483","img/flower4.png","74","83","1","1","2","2","1,0,0,1,1,0,1,0,1","1,0,0,1,1,0,1,0,1","1",""
"","html-keyboard-response","274","127990","0.0-274.0","3MD9PLUKKJ0B18F83FJ863OATUONZA","AJDXSXAWDDAEO","30UZJB2POHY4464FN6NBJ2NLFWF354","","null","<img src=""img/flower4.png"" style=""width:200px; border:14px solid green;"">","null","","","","","","","","",""
"","image-keyboard-response","275","128093","0.0-275.0","3MD9PLUKKJ0B18F83FJ863OATUONZA","AJDXSXAWDDAEO","30UZJB2POHY4464FN6NBJ2NLFWF354","","99.80000000074506","img/flower4.png","74","101.80000000074506","1","1","2","2","1,0,0,1,1,0,1,0,1","1,0,0,1,1,0,1,0,1","1",""
"","html-keyboard-response","276","128395","0.0-276.0","3MD9PLUKKJ0B18F83FJ863OATUONZA","AJDXSXAWDDAEO","30UZJB2POHY4464FN6NBJ2NLFWF354","","null","<img src=""img/flower4.png"" style=""width:200px; border:14px solid green;"">","null","","","","","","","","",""
"","image-keyboard-response","277","128500","0.0-277.0","3MD9PLUKKJ0B18F83FJ863OATUONZA","AJDXSXAWDDAEO","30UZJB2POHY4464FN6NBJ2NLFWF354","","103.30000000074506","img/flower3.png","74","105.40000000223517","1","1","1","2","1,0,0,1,1,0,1,0,1","1,0,0,1,1,0,1,0,1","1",""
"","html-keyboard-response","278","128803","0.0-278.0","3MD9PLUKKJ0B18F83FJ863OATUONZA","AJDXSXAWDDAEO","30UZJB2POHY4464FN6NBJ2NLFWF354","","null","<img src=""img/flower3.png"" style=""width:200px; border:14px solid green;"">","null","","","","","","","","",""
"","image-keyboard-response","279","128924","0.0-279.0","3MD9PLUKKJ0B18F83FJ863OATUONZA","AJDXSXAWDDAEO","30UZJB2POHY4464FN6NBJ2NLFWF354","","117.90000000223517","img/flower3.png","74","119.89999999850988","1","1","1","2","1,0,0,1,1,0,1,0,1","1,0,0,1,1,0,1,0,1","1",""
"","html-keyboard-response","280","129226","0.0-280.0","3MD9PLUKKJ0B18F83FJ863OATUONZA","AJDXSXAWDDAEO","30UZJB2POHY4464FN6NBJ2NLFWF354","","null","<img src=""img/flower3.png"" style=""width:200px; border:14px solid green;"">","null","","","","","","","","",""
"","image-keyboard-response","281","129360","0.0-281.0","3MD9PLUKKJ0B18F83FJ863OATUONZA","AJDXSXAWDDAEO","30UZJB2POHY4464FN6NBJ2NLFWF354","","129.80000000074506","img/flower4.png","74","132.79999999701977","1","1","2","2","1,0,0,1,1,0,1,0,1","1,0,0,1,1,0,1,0,1","1",""
"","html-keyboard-response","282","129663","0.0-282.0","3MD9PLUKKJ0B18F83FJ863OATUONZA","AJDXSXAWDDAEO","30UZJB2POHY4464FN6NBJ2NLFWF354","","null","<img src=""img/flower4.png"" style=""width:200px; border:14px solid green;"">","null","","","","","","","","",""
"","image-keyboard-response","283","129818","0.0-283.0","3MD9PLUKKJ0B18F83FJ863OATUONZA","AJDXSXAWDDAEO","30UZJB2POHY4464FN6NBJ2NLFWF354","","152.19999999925494","img/flower4.png","74","154.5","1","1","2","2","1,0,0,1,1,0,1,0,1","1,0,0,1,1,0,1,0,1","1",""
"","html-keyboard-response","284","130122","0.0-284.0","3MD9PLUKKJ0B18F83FJ863OATUONZA","AJDXSXAWDDAEO","30UZJB2POHY4464FN6NBJ2NLFWF354","","null","<img src=""img/flower4.png"" style=""width:200px; border:14px solid green;"">","null","","","","","","","","",""
"","image-keyboard-response","285","130270","0.0-285.0","3MD9PLUKKJ0B18F83FJ863OATUONZA","AJDXSXAWDDAEO","30UZJB2POHY4464FN6NBJ2NLFWF354","","145.89999999850988","img/flower1.png","74","148.10000000149012","1","1","3","2","1,0,0,1,1,0,1,0,1","1,0,0,1,1,0,1,0,1","1",""
"","html-keyboard-response","286","130575","0.0-286.0","3MD9PLUKKJ0B18F83FJ863OATUONZA","AJDXSXAWDDAEO","30UZJB2POHY4464FN6NBJ2NLFWF354","","null","<img src=""img/flower1.png"" style=""width:200px; border:14px solid green;"">","null","","","","","","","","",""
"","image-keyboard-response","287","130668","0.0-287.0","3MD9PLUKKJ0B18F83FJ863OATUONZA","AJDXSXAWDDAEO","30UZJB2POHY4464FN6NBJ2NLFWF354","","90.5","img/flower3.png","74","92.80000000074506","1","1","1","2","1,0,0,1,1,0,1,0,1","1,0,0,1,1,0,1,0,1","1",""
"","html-keyboard-response","288","130971","0.0-288.0","3MD9PLUKKJ0B18F83FJ863OATUONZA","AJDXSXAWDDAEO","30UZJB2POHY4464FN6NBJ2NLFWF354","","null","<img src=""img/flower3.png"" style=""width:200px; border:14px solid green;"">","null","","","","","","","","",""
"","image-keyboard-response","289","131050","0.0-289.0","3MD9PLUKKJ0B18F83FJ863OATUONZA","AJDXSXAWDDAEO","30UZJB2POHY4464FN6NBJ2NLFWF354","","75.30000000074506","img/flower1.png","74","78","1","1","3","2","1,0,0,1,1,0,1,0,1","1,0,0,1,1,0,1,0,1","1",""
"","html-keyboard-response","290","131352","0.0-290.0","3MD9PLUKKJ0B18F83FJ863OATUONZA","AJDXSXAWDDAEO","30UZJB2POHY4464FN6NBJ2NLFWF354","","null","<img src=""img/flower1.png"" style=""width:200px; border:14px solid green;"">","null","","","","","","","","",""
"","image-keyboard-response","291","131441","0.0-291.0","3MD9PLUKKJ0B18F83FJ863OATUONZA","AJDXSXAWDDAEO","30UZJB2POHY4464FN6NBJ2NLFWF354","","85.69999999925494","img/flower1.png","74","88.19999999925494","1","1","3","2","1,0,0,1,1,0,1,0,1","1,0,0,1,1,0,1,0,1","1",""
"","html-keyboard-response","292","131743","0.0-292.0","3MD9PLUKKJ0B18F83FJ863OATUONZA","AJDXSXAWDDAEO","30UZJB2POHY4464FN6NBJ2NLFWF354","","null","<img src=""img/flower1.png"" style=""width:200px; border:14px solid green;"">","null","","","","","","","","",""
"","image-keyboard-response","293","131835","0.0-293.0","3MD9PLUKKJ0B18F83FJ863OATUONZA","AJDXSXAWDDAEO","30UZJB2POHY4464FN6NBJ2NLFWF354","","90.5","img/flower1.png","74","92.09999999776483","1","1","3","2","1,0,0,1,1,0,1,0,1","1,0,0,1,1,0,1,0,1","1",""
"","html-keyboard-response","294","132138","0.0-294.0","3MD9PLUKKJ0B18F83FJ863OATUONZA","AJDXSXAWDDAEO","30UZJB2POHY4464FN6NBJ2NLFWF354","","null","<img src=""img/flower1.png"" style=""width:200px; border:14px solid green;"">","null","","","","","","","","",""
"","image-keyboard-response","295","132233","0.0-295.0","3MD9PLUKKJ0B18F83FJ863OATUONZA","AJDXSXAWDDAEO","30UZJB2POHY4464FN6NBJ2NLFWF354","","91.60000000149012","img/flower4.png","74","94.60000000149012","1","1","2","2","1,0,0,1,1,0,1,0,1","1,0,0,1,1,0,1,0,1","1",""
"","html-keyboard-response","296","132536","0.0-296.0","3MD9PLUKKJ0B18F83FJ863OATUONZA","AJDXSXAWDDAEO","30UZJB2POHY4464FN6NBJ2NLFWF354","","null","<img src=""img/flower4.png"" style=""width:200px; border:14px solid green;"">","null","","","","","","","","",""
"","image-keyboard-response","297","132640","0.0-297.0","3MD9PLUKKJ0B18F83FJ863OATUONZA","AJDXSXAWDDAEO","30UZJB2POHY4464FN6NBJ2NLFWF354","","100.60000000149012","img/flower4.png","74","103.39999999850988","1","1","2","2","1,0,0,1,1,0,1,0,1","1,0,0,1,1,0,1,0,1","1",""
"","html-keyboard-response","298","132943","0.0-298.0","3MD9PLUKKJ0B18F83FJ863OATUONZA","AJDXSXAWDDAEO","30UZJB2POHY4464FN6NBJ2NLFWF354","","null","<img src=""img/flower4.png"" style=""width:200px; border:14px solid green;"">","null","","","","","","","","",""
"","image-keyboard-response","299","133041","0.0-299.0","3MD9PLUKKJ0B18F83FJ863OATUONZA","AJDXSXAWDDAEO","30UZJB2POHY4464FN6NBJ2NLFWF354","","96.89999999850988","img/flower4.png","74","97.70000000298023","1","1","2","2","1,0,0,1,1,0,1,0,1","1,0,0,1,1,0,1,0,1","1",""
"","html-keyboard-response","300","133343","0.0-300.0","3MD9PLUKKJ0B18F83FJ863OATUONZA","AJDXSXAWDDAEO","30UZJB2POHY4464FN6NBJ2NLFWF354","","null","<img src=""img/flower4.png"" style=""width:200px; border:14px solid green;"">","null","","","","","","","","",""
"","image-keyboard-response","301","133446","0.0-301.0","3MD9PLUKKJ0B18F83FJ863OATUONZA","AJDXSXAWDDAEO","30UZJB2POHY4464FN6NBJ2NLFWF354","","99.69999999925494","img/flower3.png","74","102.5","1","1","1","2","1,0,0,1,1,0,1,0,1","1,0,0,1,1,0,1,0,1","1",""
"","html-keyboard-response","302","133749","0.0-302.0","3MD9PLUKKJ0B18F83FJ863OATUONZA","AJDXSXAWDDAEO","30UZJB2POHY4464FN6NBJ2NLFWF354","","null","<img src=""img/flower3.png"" style=""width:200px; border:14px solid green;"">","null","","","","","","","","",""
"","image-keyboard-response","303","133835","0.0-303.0","3MD9PLUKKJ0B18F83FJ863OATUONZA","AJDXSXAWDDAEO","30UZJB2POHY4464FN6NBJ2NLFWF354","","83","img/flower3.png","74","85.80000000074506","1","1","1","2","1,0,0,1,1,0,1,0,1","1,0,0,1,1,0,1,0,1","1",""
"","html-keyboard-response","304","134138","0.0-304.0","3MD9PLUKKJ0B18F83FJ863OATUONZA","AJDXSXAWDDAEO","30UZJB2POHY4464FN6NBJ2NLFWF354","","null","<img src=""img/flower3.png"" style=""width:200px; border:14px solid green;"">","null","","","","","","","","",""
"","image-keyboard-response","305","134232","0.0-305.0","3MD9PLUKKJ0B18F83FJ863OATUONZA","AJDXSXAWDDAEO","30UZJB2POHY4464FN6NBJ2NLFWF354","","91.09999999776483","img/flower4.png","74","93.39999999850988","1","1","2","2","1,0,0,1,1,0,1,0,1","1,0,0,1,1,0,1,0,1","1",""
"","html-keyboard-response","306","134535","0.0-306.0","3MD9PLUKKJ0B18F83FJ863OATUONZA","AJDXSXAWDDAEO","30UZJB2POHY4464FN6NBJ2NLFWF354","","null","<img src=""img/flower4.png"" style=""width:200px; border:14px solid green;"">","null","","","","","","","","",""
"","image-keyboard-response","307","134621","0.0-307.0","3MD9PLUKKJ0B18F83FJ863OATUONZA","AJDXSXAWDDAEO","30UZJB2POHY4464FN6NBJ2NLFWF354","","83.5","img/flower1.png","74","85.90000000223517","1","1","3","2","1,0,0,1,1,0,1,0,1","1,0,0,1,1,0,1,0,1","1",""
"","html-keyboard-response","308","134924","0.0-308.0","3MD9PLUKKJ0B18F83FJ863OATUONZA","AJDXSXAWDDAEO","30UZJB2POHY4464FN6NBJ2NLFWF354","","null","<img src=""img/flower1.png"" style=""width:200px; border:14px solid green;"">","null","","","","","","","","",""
"","image-keyboard-response","309","135008","0.0-309.0","3MD9PLUKKJ0B18F83FJ863OATUONZA","AJDXSXAWDDAEO","30UZJB2POHY4464FN6NBJ2NLFWF354","","82.39999999850988","img/flower3.png","74","83.69999999925494","1","1","1","2","1,0,0,1,1,0,1,0,1","1,0,0,1,1,0,1,0,1","1",""
"","html-keyboard-response","310","135311","0.0-310.0","3MD9PLUKKJ0B18F83FJ863OATUONZA","AJDXSXAWDDAEO","30UZJB2POHY4464FN6NBJ2NLFWF354","","null","<img src=""img/flower3.png"" style=""width:200px; border:14px solid green;"">","null","","","","","","","","",""
"","image-keyboard-response","311","135378","0.0-311.0","3MD9PLUKKJ0B18F83FJ863OATUONZA","AJDXSXAWDDAEO","30UZJB2POHY4464FN6NBJ2NLFWF354","","64.59999999776483","img/flower3.png","74","66.89999999850988","1","1","1","2","1,0,0,1,1,0,1,0,1","1,0,0,1,1,0,1,0,1","1",""
"","html-keyboard-response","312","135682","0.0-312.0","3MD9PLUKKJ0B18F83FJ863OATUONZA","AJDXSXAWDDAEO","30UZJB2POHY4464FN6NBJ2NLFWF354","","null","<img src=""img/flower3.png"" style=""width:200px; border:14px solid green;"">","null","","","","","","","","",""
"","image-keyboard-response","313","135764","0.0-313.0","3MD9PLUKKJ0B18F83FJ863OATUONZA","AJDXSXAWDDAEO","30UZJB2POHY4464FN6NBJ2NLFWF354","","79.59999999776483","img/flower1.png","74","82.40000000223517","1","1","3","2","1,0,0,1,1,0,1,0,1","1,0,0,1,1,0,1,0,1","1",""
"","html-keyboard-response","314","136068","0.0-314.0","3MD9PLUKKJ0B18F83FJ863OATUONZA","AJDXSXAWDDAEO","30UZJB2POHY4464FN6NBJ2NLFWF354","","null","<img src=""img/flower1.png"" style=""width:200px; border:14px solid green;"">","null","","","","","","","","",""
"","image-keyboard-response","315","136164","0.0-315.0","3MD9PLUKKJ0B18F83FJ863OATUONZA","AJDXSXAWDDAEO","30UZJB2POHY4464FN6NBJ2NLFWF354","","93.89999999850988","img/flower1.png","74","96","1","1","3","2","1,0,0,1,1,0,1,0,1","1,0,0,1,1,0,1,0,1","1",""
"","html-keyboard-response","316","136467","0.0-316.0","3MD9PLUKKJ0B18F83FJ863OATUONZA","AJDXSXAWDDAEO","30UZJB2POHY4464FN6NBJ2NLFWF354","","null","<img src=""img/flower1.png"" style=""width:200px; border:14px solid green;"">","null","","","","","","","","",""
"","image-keyboard-response","317","136574","0.0-317.0","3MD9PLUKKJ0B18F83FJ863OATUONZA","AJDXSXAWDDAEO","30UZJB2POHY4464FN6NBJ2NLFWF354","","104.5","img/flower3.png","74","106.89999999850988","1","1","1","2","1,0,0,1,1,0,1,0,1","1,0,0,1,1,0,1,0,1","1",""
"","html-keyboard-response","318","136877","0.0-318.0","3MD9PLUKKJ0B18F83FJ863OATUONZA","AJDXSXAWDDAEO","30UZJB2POHY4464FN6NBJ2NLFWF354","","null","<img src=""img/flower3.png"" style=""width:200px; border:14px solid green;"">","null","","","","","","","","",""
"","image-keyboard-response","319","136980","0.0-319.0","3MD9PLUKKJ0B18F83FJ863OATUONZA","AJDXSXAWDDAEO","30UZJB2POHY4464FN6NBJ2NLFWF354","","102.60000000149012","img/flower1.png","74","103.5","1","1","3","2","1,0,0,1,1,0,1,0,1","1,0,0,1,1,0,1,0,1","1",""
"","html-keyboard-response","320","137282","0.0-320.0","3MD9PLUKKJ0B18F83FJ863OATUONZA","AJDXSXAWDDAEO","30UZJB2POHY4464FN6NBJ2NLFWF354","","null","<img src=""img/flower1.png"" style=""width:200px; border:14px solid green;"">","null","","","","","","","","",""
"","image-keyboard-response","321","137398","0.0-321.0","3MD9PLUKKJ0B18F83FJ863OATUONZA","AJDXSXAWDDAEO","30UZJB2POHY4464FN6NBJ2NLFWF354","","112.89999999850988","img/flower4.png","74","115.30000000074506","1","1","2","2","1,0,0,1,1,0,1,0,1","1,0,0,1,1,0,1,0,1","1",""
"","html-keyboard-response","322","137702","0.0-322.0","3MD9PLUKKJ0B18F83FJ863OATUONZA","AJDXSXAWDDAEO","30UZJB2POHY4464FN6NBJ2NLFWF354","","null","<img src=""img/flower4.png"" style=""width:200px; border:14px solid green;"">","null","","","","","","","","",""
"","image-keyboard-response","323","137791","0.0-323.0","3MD9PLUKKJ0B18F83FJ863OATUONZA","AJDXSXAWDDAEO","30UZJB2POHY4464FN6NBJ2NLFWF354","","86.29999999701977","img/flower3.png","74","88.89999999850988","1","1","1","2","1,0,0,1,1,0,1,0,1","1,0,0,1,1,0,1,0,1","1",""
"","html-keyboard-response","324","138094","0.0-324.0","3MD9PLUKKJ0B18F83FJ863OATUONZA","AJDXSXAWDDAEO","30UZJB2POHY4464FN6NBJ2NLFWF354","","null","<img src=""img/flower3.png"" style=""width:200px; border:14px solid green;"">","null","","","","","","","","",""
"","image-keyboard-response","325","138203","0.0-325.0","3MD9PLUKKJ0B18F83FJ863OATUONZA","AJDXSXAWDDAEO","30UZJB2POHY4464FN6NBJ2NLFWF354","","105.5","img/flower3.png","74","107.80000000074506","1","1","1","2","1,0,0,1,1,0,1,0,1","1,0,0,1,1,0,1,0,1","1",""
"","html-keyboard-response","326","138506","0.0-326.0","3MD9PLUKKJ0B18F83FJ863OATUONZA","AJDXSXAWDDAEO","30UZJB2POHY4464FN6NBJ2NLFWF354","","null","<img src=""img/flower3.png"" style=""width:200px; border:14px solid green;"">","null","","","","","","","","",""
"","image-keyboard-response","327","138587","0.0-327.0","3MD9PLUKKJ0B18F83FJ863OATUONZA","AJDXSXAWDDAEO","30UZJB2POHY4464FN6NBJ2NLFWF354","","75.39999999850988","img/flower1.png","74","78.10000000149012","1","1","3","2","1,0,0,1,1,0,1,0,1","1,0,0,1,1,0,1,0,1","1",""
"","html-keyboard-response","328","138890","0.0-328.0","3MD9PLUKKJ0B18F83FJ863OATUONZA","AJDXSXAWDDAEO","30UZJB2POHY4464FN6NBJ2NLFWF354","","null","<img src=""img/flower1.png"" style=""width:200px; border:14px solid green;"">","null","","","","","","","","",""
"","image-keyboard-response","329","138960","0.0-329.0","3MD9PLUKKJ0B18F83FJ863OATUONZA","AJDXSXAWDDAEO","30UZJB2POHY4464FN6NBJ2NLFWF354","","66.5","img/flower1.png","74","69.5","1","1","3","2","1,0,0,1,1,0,1,0,1","1,0,0,1,1,0,1,0,1","1",""
"","html-keyboard-response","330","139261","0.0-330.0","3MD9PLUKKJ0B18F83FJ863OATUONZA","AJDXSXAWDDAEO","30UZJB2POHY4464FN6NBJ2NLFWF354","","null","<img src=""img/flower1.png"" style=""width:200px; border:14px solid green;"">","null","","","","","","","","",""
"","image-keyboard-response","331","139333","0.0-331.0","3MD9PLUKKJ0B18F83FJ863OATUONZA","AJDXSXAWDDAEO","30UZJB2POHY4464FN6NBJ2NLFWF354","","67.59999999776483","img/flower4.png","74","70.69999999925494","1","1","2","2","1,0,0,1,1,0,1,0,1","1,0,0,1,1,0,1,0,1","1",""
"","html-keyboard-response","332","139636","0.0-332.0","3MD9PLUKKJ0B18F83FJ863OATUONZA","AJDXSXAWDDAEO","30UZJB2POHY4464FN6NBJ2NLFWF354","","null","<img src=""img/flower4.png"" style=""width:200px; border:14px solid green;"">","null","","","","","","","","",""
"","image-keyboard-response","333","139743","0.0-333.0","3MD9PLUKKJ0B18F83FJ863OATUONZA","AJDXSXAWDDAEO","30UZJB2POHY4464FN6NBJ2NLFWF354","","104.5","img/flower1.png","74","106.5","1","1","3","2","1,0,0,1,1,0,1,0,1","1,0,0,1,1,0,1,0,1","1",""
"","html-keyboard-response","334","140045","0.0-334.0","3MD9PLUKKJ0B18F83FJ863OATUONZA","AJDXSXAWDDAEO","30UZJB2POHY4464FN6NBJ2NLFWF354","","null","<img src=""img/flower1.png"" style=""width:200px; border:14px solid green;"">","null","","","","","","","","",""
"","image-keyboard-response","335","140149","0.0-335.0","3MD9PLUKKJ0B18F83FJ863OATUONZA","AJDXSXAWDDAEO","30UZJB2POHY4464FN6NBJ2NLFWF354","","101.30000000074506","img/flower3.png","74","103.80000000074506","1","1","1","2","1,0,0,1,1,0,1,0,1","1,0,0,1,1,0,1,0,1","1",""
"","html-keyboard-response","336","140451","0.0-336.0","3MD9PLUKKJ0B18F83FJ863OATUONZA","AJDXSXAWDDAEO","30UZJB2POHY4464FN6NBJ2NLFWF354","","null","<img src=""img/flower3.png"" style=""width:200px; border:14px solid green;"">","null","","","","","","","","",""
"","image-keyboard-response","337","140530","0.0-337.0","3MD9PLUKKJ0B18F83FJ863OATUONZA","AJDXSXAWDDAEO","30UZJB2POHY4464FN6NBJ2NLFWF354","","77.59999999776483","img/flower1.png","74","78.39999999850988","1","1","3","2","1,0,0,1,1,0,1,0,1","1,0,0,1,1,0,1,0,1","1",""
"","html-keyboard-response","338","140831","0.0-338.0","3MD9PLUKKJ0B18F83FJ863OATUONZA","AJDXSXAWDDAEO","30UZJB2POHY4464FN6NBJ2NLFWF354","","null","<img src=""img/flower1.png"" style=""width:200px; border:14px solid green;"">","null","","","","","","","","",""
"","image-keyboard-response","339","140947","0.0-339.0","3MD9PLUKKJ0B18F83FJ863OATUONZA","AJDXSXAWDDAEO","30UZJB2POHY4464FN6NBJ2NLFWF354","","113","img/flower3.png","74","116.09999999776483","1","1","1","2","1,0,0,1,1,0,1,0,1","1,0,0,1,1,0,1,0,1","1",""
"","html-keyboard-response","340","141251","0.0-340.0","3MD9PLUKKJ0B18F83FJ863OATUONZA","AJDXSXAWDDAEO","30UZJB2POHY4464FN6NBJ2NLFWF354","","null","<img src=""img/flower3.png"" style=""width:200px; border:14px solid green;"">","null","","","","","","","","",""
"","image-keyboard-response","341","141363","0.0-341.0","3MD9PLUKKJ0B18F83FJ863OATUONZA","AJDXSXAWDDAEO","30UZJB2POHY4464FN6NBJ2NLFWF354","","108.40000000223517","img/flower1.png","74","111.5","1","1","3","2","1,0,0,1,1,0,1,0,1","1,0,0,1,1,0,1,0,1","1",""
"","html-keyboard-response","342","141666","0.0-342.0","3MD9PLUKKJ0B18F83FJ863OATUONZA","AJDXSXAWDDAEO","30UZJB2POHY4464FN6NBJ2NLFWF354","","null","<img src=""img/flower1.png"" style=""width:200px; border:14px solid green;"">","null","","","","","","","","",""
"","image-keyboard-response","343","141770","0.0-343.0","3MD9PLUKKJ0B18F83FJ863OATUONZA","AJDXSXAWDDAEO","30UZJB2POHY4464FN6NBJ2NLFWF354","","101.5","img/flower3.png","74","103.69999999925494","1","1","1","2","1,0,0,1,1,0,1,0,1","1,0,0,1,1,0,1,0,1","1",""
"","html-keyboard-response","344","142073","0.0-344.0","3MD9PLUKKJ0B18F83FJ863OATUONZA","AJDXSXAWDDAEO","30UZJB2POHY4464FN6NBJ2NLFWF354","","null","<img src=""img/flower3.png"" style=""width:200px; border:14px solid green;"">","null","","","","","","","","",""
"","image-keyboard-response","345","142168","0.0-345.0","3MD9PLUKKJ0B18F83FJ863OATUONZA","AJDXSXAWDDAEO","30UZJB2POHY4464FN6NBJ2NLFWF354","","91.30000000074506","img/flower3.png","74","94.5","1","1","1","2","1,0,0,1,1,0,1,0,1","1,0,0,1,1,0,1,0,1","1",""
"","html-keyboard-response","346","142471","0.0-346.0","3MD9PLUKKJ0B18F83FJ863OATUONZA","AJDXSXAWDDAEO","30UZJB2POHY4464FN6NBJ2NLFWF354","","null","<img src=""img/flower3.png"" style=""width:200px; border:14px solid green;"">","null","","","","","","","","",""
"","image-keyboard-response","347","142591","0.0-347.0","3MD9PLUKKJ0B18F83FJ863OATUONZA","AJDXSXAWDDAEO","30UZJB2POHY4464FN6NBJ2NLFWF354","","118.5","img/flower1.png","74","119.60000000149012","1","1","3","2","1,0,0,1,1,0,1,0,1","1,0,0,1,1,0,1,0,1","1",""
"","html-keyboard-response","348","142892","0.0-348.0","3MD9PLUKKJ0B18F83FJ863OATUONZA","AJDXSXAWDDAEO","30UZJB2POHY4464FN6NBJ2NLFWF354","","null","<img src=""img/flower1.png"" style=""width:200px; border:14px solid green;"">","null","","","","","","","","",""
"","image-keyboard-response","349","142997","0.0-349.0","3MD9PLUKKJ0B18F83FJ863OATUONZA","AJDXSXAWDDAEO","30UZJB2POHY4464FN6NBJ2NLFWF354","","102.09999999776483","img/flower4.png","74","105.09999999776483","1","1","2","2","1,0,0,1,1,0,1,0,1","1,0,0,1,1,0,1,0,1","1",""
"","html-keyboard-response","350","143303","0.0-350.0","3MD9PLUKKJ0B18F83FJ863OATUONZA","AJDXSXAWDDAEO","30UZJB2POHY4464FN6NBJ2NLFWF354","","null","<img src=""img/flower4.png"" style=""width:200px; border:14px solid green;"">","null","","","","","","","","",""
"","image-keyboard-response","351","143403","0.0-351.0","3MD9PLUKKJ0B18F83FJ863OATUONZA","AJDXSXAWDDAEO","30UZJB2POHY4464FN6NBJ2NLFWF354","","97.59999999776483","img/flower4.png","74","99.70000000298023","1","1","2","2","1,0,0,1,1,0,1,0,1","1,0,0,1,1,0,1,0,1","1",""
"","html-keyboard-response","352","143706","0.0-352.0","3MD9PLUKKJ0B18F83FJ863OATUONZA","AJDXSXAWDDAEO","30UZJB2POHY4464FN6NBJ2NLFWF354","","null","<img src=""img/flower4.png"" style=""width:200px; border:14px solid green;"">","null","","","","","","","","",""
"","image-keyboard-response","353","143793","0.0-353.0","3MD9PLUKKJ0B18F83FJ863OATUONZA","AJDXSXAWDDAEO","30UZJB2POHY4464FN6NBJ2NLFWF354","","84","img/flower4.png","74","86.89999999850988","1","1","2","2","1,0,0,1,1,0,1,0,1","1,0,0,1,1,0,1,0,1","1",""
"","html-keyboard-response","354","144096","0.0-354.0","3MD9PLUKKJ0B18F83FJ863OATUONZA","AJDXSXAWDDAEO","30UZJB2POHY4464FN6NBJ2NLFWF354","","null","<img src=""img/flower4.png"" style=""width:200px; border:14px solid green;"">","null","","","","","","","","",""
"","image-keyboard-response","355","144208","0.0-355.0","3MD9PLUKKJ0B18F83FJ863OATUONZA","AJDXSXAWDDAEO","30UZJB2POHY4464FN6NBJ2NLFWF354","","108.19999999925494","img/flower1.png","74","111.19999999925494","1","1","3","2","1,0,0,1,1,0,1,0,1","1,0,0,1,1,0,1,0,1","1",""
"","html-keyboard-response","356","144511","0.0-356.0","3MD9PLUKKJ0B18F83FJ863OATUONZA","AJDXSXAWDDAEO","30UZJB2POHY4464FN6NBJ2NLFWF354","","null","<img src=""img/flower1.png"" style=""width:200px; border:14px solid green;"">","null","","","","","","","","",""
"","image-keyboard-response","357","144607","0.0-357.0","3MD9PLUKKJ0B18F83FJ863OATUONZA","AJDXSXAWDDAEO","30UZJB2POHY4464FN6NBJ2NLFWF354","","92.80000000074506","img/flower4.png","74","95","1","1","2","2","1,0,0,1,1,0,1,0,1","1,0,0,1,1,0,1,0,1","1",""
"","html-keyboard-response","358","144910","0.0-358.0","3MD9PLUKKJ0B18F83FJ863OATUONZA","AJDXSXAWDDAEO","30UZJB2POHY4464FN6NBJ2NLFWF354","","null","<img src=""img/flower4.png"" style=""width:200px; border:14px solid green;"">","null","","","","","","","","",""
"","image-keyboard-response","359","145036","0.0-359.0","3MD9PLUKKJ0B18F83FJ863OATUONZA","AJDXSXAWDDAEO","30UZJB2POHY4464FN6NBJ2NLFWF354","","124.79999999701977","img/flower1.png","74","126.60000000149012","1","1","3","2","1,0,0,1,1,0,1,0,1","1,0,0,1,1,0,1,0,1","1",""
"","html-keyboard-response","360","145342","0.0-360.0","3MD9PLUKKJ0B18F83FJ863OATUONZA","AJDXSXAWDDAEO","30UZJB2POHY4464FN6NBJ2NLFWF354","","null","<img src=""img/flower1.png"" style=""width:200px; border:14px solid green;"">","null","","","","","","","","",""
"","image-keyboard-response","361","145514","0.0-361.0","3MD9PLUKKJ0B18F83FJ863OATUONZA","AJDXSXAWDDAEO","30UZJB2POHY4464FN6NBJ2NLFWF354","","169","img/flower1.png","74","171.10000000149012","1","1","3","2","1,0,0,1,1,0,1,0,1","1,0,0,1,1,0,1,0,1","1",""
"","html-keyboard-response","362","145817","0.0-362.0","3MD9PLUKKJ0B18F83FJ863OATUONZA","AJDXSXAWDDAEO","30UZJB2POHY4464FN6NBJ2NLFWF354","","null","<img src=""img/flower1.png"" style=""width:200px; border:14px solid green;"">","null","","","","","","","","",""
"","instructions","363","147770","0.0-363.0","3MD9PLUKKJ0B18F83FJ863OATUONZA","AJDXSXAWDDAEO","30UZJB2POHY4464FN6NBJ2NLFWF354","[{""page_index"":0,""viewing_time"":1949.699999999255}]","1950.7999999970198","","","","","","","","","","",""
"","survey-text","364","150876","0.0-364.0","3MD9PLUKKJ0B18F83FJ863OATUONZA","AJDXSXAWDDAEO","30UZJB2POHY4464FN6NBJ2NLFWF354","","3090","","","","","","","","","","","{""Q0"":""AJDXSXAWDDAEO""}"
