"success","trial_type","trial_index","time_elapsed","internal_node_id","assignmentID","mturkID","hitID","view_history","rt","stimulus","key_press","reactionTime","a","r","s","cond","reward_cond","reward_cond_actual","reward_matrix_idx","responses"
"true","fullscreen","0","2204","0.0-0.0","32AT8R96GMVRVMD35O1MO5J1EAFUS0","AK35CJJEYFVYK","36U4VBVNQOZD8NFWZXWF9CIHKRIURB","","","","","","","","","","","","",""
"","instructions","1","27702","0.0-1.0","32AT8R96GMVRVMD35O1MO5J1EAFUS0","AK35CJJEYFVYK","36U4VBVNQOZD8NFWZXWF9CIHKRIURB","[{""page_index"":0,""viewing_time"":1882.5999999940395},{""page_index"":1,""viewing_time"":2125.9000000059605},{""page_index"":2,""viewing_time"":455},{""page_index"":3,""viewing_time"":565.1999999880791},{""page_index"":4,""viewing_time"":2051.7000000178814},{""page_index"":5,""viewing_time"":5313.199999988079},{""page_index"":6,""viewing_time"":10255.699999988079},{""page_index"":7,""viewing_time"":2848.2000000178814}]","25497.69999998808","","","","","","","","","","",""
"","image-keyboard-response","2","28304","0.0-2.0","32AT8R96GMVRVMD35O1MO5J1EAFUS0","AK35CJJEYFVYK","36U4VBVNQOZD8NFWZXWF9CIHKRIURB","","601.1999999880791","img/flower4.png","74","602","1","1","3","2","1,0,0,1,1,0,1,0,1","1,0,0,1,1,0,1,0,1","1",""
"","html-keyboard-response","3","28605","0.0-3.0","32AT8R96GMVRVMD35O1MO5J1EAFUS0","AK35CJJEYFVYK","36U4VBVNQOZD8NFWZXWF9CIHKRIURB","","null","<img src=""img/flower4.png"" style=""width:200px; border:14px solid green;"">","null","","","","","","","","",""
"","image-keyboard-response","4","29101","0.0-4.0","32AT8R96GMVRVMD35O1MO5J1EAFUS0","AK35CJJEYFVYK","36U4VBVNQOZD8NFWZXWF9CIHKRIURB","","495.2000000178814","img/flower1.png","74","495.5","1","1","1","2","1,0,0,1,1,0,1,0,1","1,0,0,1,1,0,1,0,1","1",""
"","html-keyboard-response","5","29403","0.0-5.0","32AT8R96GMVRVMD35O1MO5J1EAFUS0","AK35CJJEYFVYK","36U4VBVNQOZD8NFWZXWF9CIHKRIURB","","null","<img src=""img/flower1.png"" style=""width:200px; border:14px solid green;"">","null","","","","","","","","",""
"","image-keyboard-response","6","29778","0.0-6.0","32AT8R96GMVRVMD35O1MO5J1EAFUS0","AK35CJJEYFVYK","36U4VBVNQOZD8NFWZXWF9CIHKRIURB","","375","img/flower4.png","74","375.40000000596046","1","1","3","2","1,0,0,1,1,0,1,0,1","1,0,0,1,1,0,1,0,1","1",""
"","html-keyboard-response","7","30080","0.0-7.0","32AT8R96GMVRVMD35O1MO5J1EAFUS0","AK35CJJEYFVYK","36U4VBVNQOZD8NFWZXWF9CIHKRIURB","","null","<img src=""img/flower4.png"" style=""width:200px; border:14px solid green;"">","null","","","","","","","","",""
"","image-keyboard-response","8","30355","0.0-8.0","32AT8R96GMVRVMD35O1MO5J1EAFUS0","AK35CJJEYFVYK","36U4VBVNQOZD8NFWZXWF9CIHKRIURB","","274.7000000178814","img/flower4.png","74","275","1","1","3","2","1,0,0,1,1,0,1,0,1","1,0,0,1,1,0,1,0,1","1",""
"","html-keyboard-response","9","30656","0.0-9.0","32AT8R96GMVRVMD35O1MO5J1EAFUS0","AK35CJJEYFVYK","36U4VBVNQOZD8NFWZXWF9CIHKRIURB","","null","<img src=""img/flower4.png"" style=""width:200px; border:14px solid green;"">","null","","","","","","","","",""
"","image-keyboard-response","10","31145","0.0-10.0","32AT8R96GMVRVMD35O1MO5J1EAFUS0","AK35CJJEYFVYK","36U4VBVNQOZD8NFWZXWF9CIHKRIURB","","489","img/flower2.png","74","489.5","1","1","2","2","1,0,0,1,1,0,1,0,1","1,0,0,1,1,0,1,0,1","1",""
"","html-keyboard-response","11","31446","0.0-11.0","32AT8R96GMVRVMD35O1MO5J1EAFUS0","AK35CJJEYFVYK","36U4VBVNQOZD8NFWZXWF9CIHKRIURB","","null","<img src=""img/flower2.png"" style=""width:200px; border:14px solid green;"">","null","","","","","","","","",""
"","image-keyboard-response","12","31706","0.0-12.0","32AT8R96GMVRVMD35O1MO5J1EAFUS0","AK35CJJEYFVYK","36U4VBVNQOZD8NFWZXWF9CIHKRIURB","","259.40000000596046","img/flower2.png","74","259.59999999403954","1","1","2","2","1,0,0,1,1,0,1,0,1","1,0,0,1,1,0,1,0,1","1",""
"","html-keyboard-response","13","32007","0.0-13.0","32AT8R96GMVRVMD35O1MO5J1EAFUS0","AK35CJJEYFVYK","36U4VBVNQOZD8NFWZXWF9CIHKRIURB","","null","<img src=""img/flower2.png"" style=""width:200px; border:14px solid green;"">","null","","","","","","","","",""
"","image-keyboard-response","14","32349","0.0-14.0","32AT8R96GMVRVMD35O1MO5J1EAFUS0","AK35CJJEYFVYK","36U4VBVNQOZD8NFWZXWF9CIHKRIURB","","341.5","img/flower4.png","74","341.80000001192093","1","1","3","2","1,0,0,1,1,0,1,0,1","1,0,0,1,1,0,1,0,1","1",""
"","html-keyboard-response","15","32650","0.0-15.0","32AT8R96GMVRVMD35O1MO5J1EAFUS0","AK35CJJEYFVYK","36U4VBVNQOZD8NFWZXWF9CIHKRIURB","","null","<img src=""img/flower4.png"" style=""width:200px; border:14px solid green;"">","null","","","","","","","","",""
"","image-keyboard-response","16","33009","0.0-16.0","32AT8R96GMVRVMD35O1MO5J1EAFUS0","AK35CJJEYFVYK","36U4VBVNQOZD8NFWZXWF9CIHKRIURB","","358.2000000178814","img/flower2.png","74","358.59999999403954","1","1","2","2","1,0,0,1,1,0,1,0,1","1,0,0,1,1,0,1,0,1","1",""
"","html-keyboard-response","17","33310","0.0-17.0","32AT8R96GMVRVMD35O1MO5J1EAFUS0","AK35CJJEYFVYK","36U4VBVNQOZD8NFWZXWF9CIHKRIURB","","null","<img src=""img/flower2.png"" style=""width:200px; border:14px solid green;"">","null","","","","","","","","",""
"","image-keyboard-response","18","33580","0.0-18.0","32AT8R96GMVRVMD35O1MO5J1EAFUS0","AK35CJJEYFVYK","36U4VBVNQOZD8NFWZXWF9CIHKRIURB","","269.2000000178814","img/flower1.png","74","269.69999998807907","1","1","1","2","1,0,0,1,1,0,1,0,1","1,0,0,1,1,0,1,0,1","1",""
"","html-keyboard-response","19","33882","0.0-19.0","32AT8R96GMVRVMD35O1MO5J1EAFUS0","AK35CJJEYFVYK","36U4VBVNQOZD8NFWZXWF9CIHKRIURB","","null","<img src=""img/flower1.png"" style=""width:200px; border:14px solid green;"">","null","","","","","","","","",""
"","image-keyboard-response","20","34111","0.0-20.0","32AT8R96GMVRVMD35O1MO5J1EAFUS0","AK35CJJEYFVYK","36U4VBVNQOZD8NFWZXWF9CIHKRIURB","","228.90000000596046","img/flower2.png","74","229.19999998807907","1","1","2","2","1,0,0,1,1,0,1,0,1","1,0,0,1,1,0,1,0,1","1",""
"","html-keyboard-response","21","34413","0.0-21.0","32AT8R96GMVRVMD35O1MO5J1EAFUS0","AK35CJJEYFVYK","36U4VBVNQOZD8NFWZXWF9CIHKRIURB","","null","<img src=""img/flower2.png"" style=""width:200px; border:14px solid green;"">","null","","","","","","","","",""
"","image-keyboard-response","22","34500","0.0-22.0","32AT8R96GMVRVMD35O1MO5J1EAFUS0","AK35CJJEYFVYK","36U4VBVNQOZD8NFWZXWF9CIHKRIURB","","87.09999999403954","img/flower2.png","74","87.30000001192093","1","1","2","2","1,0,0,1,1,0,1,0,1","1,0,0,1,1,0,1,0,1","1",""
"","html-keyboard-response","23","34801","0.0-23.0","32AT8R96GMVRVMD35O1MO5J1EAFUS0","AK35CJJEYFVYK","36U4VBVNQOZD8NFWZXWF9CIHKRIURB","","null","<img src=""img/flower2.png"" style=""width:200px; border:14px solid green;"">","null","","","","","","","","",""
"","image-keyboard-response","24","35245","0.0-24.0","32AT8R96GMVRVMD35O1MO5J1EAFUS0","AK35CJJEYFVYK","36U4VBVNQOZD8NFWZXWF9CIHKRIURB","","444","img/flower4.png","74","444.2999999821186","1","1","3","2","1,0,0,1,1,0,1,0,1","1,0,0,1,1,0,1,0,1","1",""
"","html-keyboard-response","25","35546","0.0-25.0","32AT8R96GMVRVMD35O1MO5J1EAFUS0","AK35CJJEYFVYK","36U4VBVNQOZD8NFWZXWF9CIHKRIURB","","null","<img src=""img/flower4.png"" style=""width:200px; border:14px solid green;"">","null","","","","","","","","",""
"","image-keyboard-response","26","35737","0.0-26.0","32AT8R96GMVRVMD35O1MO5J1EAFUS0","AK35CJJEYFVYK","36U4VBVNQOZD8NFWZXWF9CIHKRIURB","","190.59999999403954","img/flower4.png","74","190.90000000596046","1","1","3","2","1,0,0,1,1,0,1,0,1","1,0,0,1,1,0,1,0,1","1",""
"","html-keyboard-response","27","36046","0.0-27.0","32AT8R96GMVRVMD35O1MO5J1EAFUS0","AK35CJJEYFVYK","36U4VBVNQOZD8NFWZXWF9CIHKRIURB","","null","<img src=""img/flower4.png"" style=""width:200px; border:14px solid green;"">","null","","","","","","","","",""
"","image-keyboard-response","28","36255","0.0-28.0","32AT8R96GMVRVMD35O1MO5J1EAFUS0","AK35CJJEYFVYK","36U4VBVNQOZD8NFWZXWF9CIHKRIURB","","208.59999999403954","img/flower1.png","74","208.80000001192093","1","1","1","2","1,0,0,1,1,0,1,0,1","1,0,0,1,1,0,1,0,1","1",""
"","html-keyboard-response","29","36557","0.0-29.0","32AT8R96GMVRVMD35O1MO5J1EAFUS0","AK35CJJEYFVYK","36U4VBVNQOZD8NFWZXWF9CIHKRIURB","","null","<img src=""img/flower1.png"" style=""width:200px; border:14px solid green;"">","null","","","","","","","","",""
"","image-keyboard-response","30","36723","0.0-30.0","32AT8R96GMVRVMD35O1MO5J1EAFUS0","AK35CJJEYFVYK","36U4VBVNQOZD8NFWZXWF9CIHKRIURB","","165.5","img/flower1.png","74","165.90000000596046","1","1","1","2","1,0,0,1,1,0,1,0,1","1,0,0,1,1,0,1,0,1","1",""
"","html-keyboard-response","31","37025","0.0-31.0","32AT8R96GMVRVMD35O1MO5J1EAFUS0","AK35CJJEYFVYK","36U4VBVNQOZD8NFWZXWF9CIHKRIURB","","null","<img src=""img/flower1.png"" style=""width:200px; border:14px solid green;"">","null","","","","","","","","",""
"","image-keyboard-response","32","37207","0.0-32.0","32AT8R96GMVRVMD35O1MO5J1EAFUS0","AK35CJJEYFVYK","36U4VBVNQOZD8NFWZXWF9CIHKRIURB","","182.09999999403954","img/flower4.png","74","182.40000000596046","1","1","3","2","1,0,0,1,1,0,1,0,1","1,0,0,1,1,0,1,0,1","1",""
"","html-keyboard-response","33","37508","0.0-33.0","32AT8R96GMVRVMD35O1MO5J1EAFUS0","AK35CJJEYFVYK","36U4VBVNQOZD8NFWZXWF9CIHKRIURB","","null","<img src=""img/flower4.png"" style=""width:200px; border:14px solid green;"">","null","","","","","","","","",""
"","image-keyboard-response","34","37687","0.0-34.0","32AT8R96GMVRVMD35O1MO5J1EAFUS0","AK35CJJEYFVYK","36U4VBVNQOZD8NFWZXWF9CIHKRIURB","","178.10000002384186","img/flower4.png","74","178.59999999403954","1","1","3","2","1,0,0,1,1,0,1,0,1","1,0,0,1,1,0,1,0,1","1",""
"","html-keyboard-response","35","37988","0.0-35.0","32AT8R96GMVRVMD35O1MO5J1EAFUS0","AK35CJJEYFVYK","36U4VBVNQOZD8NFWZXWF9CIHKRIURB","","null","<img src=""img/flower4.png"" style=""width:200px; border:14px solid green;"">","null","","","","","","","","",""
"","image-keyboard-response","36","38119","0.0-36.0","32AT8R96GMVRVMD35O1MO5J1EAFUS0","AK35CJJEYFVYK","36U4VBVNQOZD8NFWZXWF9CIHKRIURB","","130.7000000178814","img/flower4.png","74","131.30000001192093","1","1","3","2","1,0,0,1,1,0,1,0,1","1,0,0,1,1,0,1,0,1","1",""
"","html-keyboard-response","37","38420","0.0-37.0","32AT8R96GMVRVMD35O1MO5J1EAFUS0","AK35CJJEYFVYK","36U4VBVNQOZD8NFWZXWF9CIHKRIURB","","null","<img src=""img/flower4.png"" style=""width:200px; border:14px solid green;"">","null","","","","","","","","",""
"","image-keyboard-response","38","38603","0.0-38.0","32AT8R96GMVRVMD35O1MO5J1EAFUS0","AK35CJJEYFVYK","36U4VBVNQOZD8NFWZXWF9CIHKRIURB","","182.80000001192093","img/flower2.png","74","183.19999998807907","1","1","2","2","1,0,0,1,1,0,1,0,1","1,0,0,1,1,0,1,0,1","1",""
"","html-keyboard-response","39","38905","0.0-39.0","32AT8R96GMVRVMD35O1MO5J1EAFUS0","AK35CJJEYFVYK","36U4VBVNQOZD8NFWZXWF9CIHKRIURB","","null","<img src=""img/flower2.png"" style=""width:200px; border:14px solid green;"">","null","","","","","","","","",""
"","image-keyboard-response","40","39057","0.0-40.0","32AT8R96GMVRVMD35O1MO5J1EAFUS0","AK35CJJEYFVYK","36U4VBVNQOZD8NFWZXWF9CIHKRIURB","","151.69999998807907","img/flower1.png","74","151.90000000596046","1","1","1","2","1,0,0,1,1,0,1,0,1","1,0,0,1,1,0,1,0,1","1",""
"","html-keyboard-response","41","39358","0.0-41.0","32AT8R96GMVRVMD35O1MO5J1EAFUS0","AK35CJJEYFVYK","36U4VBVNQOZD8NFWZXWF9CIHKRIURB","","null","<img src=""img/flower1.png"" style=""width:200px; border:14px solid green;"">","null","","","","","","","","",""
"","image-keyboard-response","42","39468","0.0-42.0","32AT8R96GMVRVMD35O1MO5J1EAFUS0","AK35CJJEYFVYK","36U4VBVNQOZD8NFWZXWF9CIHKRIURB","","109.30000001192093","img/flower4.png","74","109.80000001192093","1","1","3","2","1,0,0,1,1,0,1,0,1","1,0,0,1,1,0,1,0,1","1",""
"","html-keyboard-response","43","39769","0.0-43.0","32AT8R96GMVRVMD35O1MO5J1EAFUS0","AK35CJJEYFVYK","36U4VBVNQOZD8NFWZXWF9CIHKRIURB","","null","<img src=""img/flower4.png"" style=""width:200px; border:14px solid green;"">","null","","","","","","","","",""
"","image-keyboard-response","44","39879","0.0-44.0","32AT8R96GMVRVMD35O1MO5J1EAFUS0","AK35CJJEYFVYK","36U4VBVNQOZD8NFWZXWF9CIHKRIURB","","110","img/flower2.png","74","110.30000001192093","1","1","2","2","1,0,0,1,1,0,1,0,1","1,0,0,1,1,0,1,0,1","1",""
"","html-keyboard-response","45","40180","0.0-45.0","32AT8R96GMVRVMD35O1MO5J1EAFUS0","AK35CJJEYFVYK","36U4VBVNQOZD8NFWZXWF9CIHKRIURB","","null","<img src=""img/flower2.png"" style=""width:200px; border:14px solid green;"">","null","","","","","","","","",""
"","image-keyboard-response","46","40278","0.0-46.0","32AT8R96GMVRVMD35O1MO5J1EAFUS0","AK35CJJEYFVYK","36U4VBVNQOZD8NFWZXWF9CIHKRIURB","","97.80000001192093","img/flower2.png","74","98","1","1","2","2","1,0,0,1,1,0,1,0,1","1,0,0,1,1,0,1,0,1","1",""
"","html-keyboard-response","47","40579","0.0-47.0","32AT8R96GMVRVMD35O1MO5J1EAFUS0","AK35CJJEYFVYK","36U4VBVNQOZD8NFWZXWF9CIHKRIURB","","null","<img src=""img/flower2.png"" style=""width:200px; border:14px solid green;"">","null","","","","","","","","",""
"","image-keyboard-response","48","40613","0.0-48.0","32AT8R96GMVRVMD35O1MO5J1EAFUS0","AK35CJJEYFVYK","36U4VBVNQOZD8NFWZXWF9CIHKRIURB","","33.599999994039536","img/flower1.png","74","34","1","1","1","2","1,0,0,1,1,0,1,0,1","1,0,0,1,1,0,1,0,1","1",""
"","html-keyboard-response","49","40914","0.0-49.0","32AT8R96GMVRVMD35O1MO5J1EAFUS0","AK35CJJEYFVYK","36U4VBVNQOZD8NFWZXWF9CIHKRIURB","","null","<img src=""img/flower1.png"" style=""width:200px; border:14px solid green;"">","null","","","","","","","","",""
"","image-keyboard-response","50","41134","0.0-50.0","32AT8R96GMVRVMD35O1MO5J1EAFUS0","AK35CJJEYFVYK","36U4VBVNQOZD8NFWZXWF9CIHKRIURB","","219.40000000596046","img/flower1.png","74","219.80000001192093","1","1","1","2","1,0,0,1,1,0,1,0,1","1,0,0,1,1,0,1,0,1","1",""
"","html-keyboard-response","51","41436","0.0-51.0","32AT8R96GMVRVMD35O1MO5J1EAFUS0","AK35CJJEYFVYK","36U4VBVNQOZD8NFWZXWF9CIHKRIURB","","null","<img src=""img/flower1.png"" style=""width:200px; border:14px solid green;"">","null","","","","","","","","",""
"","image-keyboard-response","52","41513","0.0-52.0","32AT8R96GMVRVMD35O1MO5J1EAFUS0","AK35CJJEYFVYK","36U4VBVNQOZD8NFWZXWF9CIHKRIURB","","77.09999999403954","img/flower1.png","74","77.40000000596046","1","1","1","2","1,0,0,1,1,0,1,0,1","1,0,0,1,1,0,1,0,1","1",""
"","html-keyboard-response","53","41814","0.0-53.0","32AT8R96GMVRVMD35O1MO5J1EAFUS0","AK35CJJEYFVYK","36U4VBVNQOZD8NFWZXWF9CIHKRIURB","","null","<img src=""img/flower1.png"" style=""width:200px; border:14px solid green;"">","null","","","","","","","","",""
"","image-keyboard-response","54","41878","0.0-54.0","32AT8R96GMVRVMD35O1MO5J1EAFUS0","AK35CJJEYFVYK","36U4VBVNQOZD8NFWZXWF9CIHKRIURB","","63.20000001788139","img/flower4.png","74","63.599999994039536","1","1","3","2","1,0,0,1,1,0,1,0,1","1,0,0,1,1,0,1,0,1","1",""
"","html-keyboard-response","55","42179","0.0-55.0","32AT8R96GMVRVMD35O1MO5J1EAFUS0","AK35CJJEYFVYK","36U4VBVNQOZD8NFWZXWF9CIHKRIURB","","null","<img src=""img/flower4.png"" style=""width:200px; border:14px solid green;"">","null","","","","","","","","",""
"","image-keyboard-response","56","42239","0.0-56.0","32AT8R96GMVRVMD35O1MO5J1EAFUS0","AK35CJJEYFVYK","36U4VBVNQOZD8NFWZXWF9CIHKRIURB","","59.5","img/flower4.png","74","59.80000001192093","1","1","3","2","1,0,0,1,1,0,1,0,1","1,0,0,1,1,0,1,0,1","1",""
"","html-keyboard-response","57","42540","0.0-57.0","32AT8R96GMVRVMD35O1MO5J1EAFUS0","AK35CJJEYFVYK","36U4VBVNQOZD8NFWZXWF9CIHKRIURB","","null","<img src=""img/flower4.png"" style=""width:200px; border:14px solid green;"">","null","","","","","","","","",""
"","image-keyboard-response","58","42605","0.0-58.0","32AT8R96GMVRVMD35O1MO5J1EAFUS0","AK35CJJEYFVYK","36U4VBVNQOZD8NFWZXWF9CIHKRIURB","","64.30000001192093","img/flower2.png","74","64.59999999403954","1","1","2","2","1,0,0,1,1,0,1,0,1","1,0,0,1,1,0,1,0,1","1",""
"","html-keyboard-response","59","42906","0.0-59.0","32AT8R96GMVRVMD35O1MO5J1EAFUS0","AK35CJJEYFVYK","36U4VBVNQOZD8NFWZXWF9CIHKRIURB","","null","<img src=""img/flower2.png"" style=""width:200px; border:14px solid green;"">","null","","","","","","","","",""
"","image-keyboard-response","60","42961","0.0-60.0","32AT8R96GMVRVMD35O1MO5J1EAFUS0","AK35CJJEYFVYK","36U4VBVNQOZD8NFWZXWF9CIHKRIURB","","54.80000001192093","img/flower4.png","74","55","1","1","3","2","1,0,0,1,1,0,1,0,1","1,0,0,1,1,0,1,0,1","1",""
"","html-keyboard-response","61","43262","0.0-61.0","32AT8R96GMVRVMD35O1MO5J1EAFUS0","AK35CJJEYFVYK","36U4VBVNQOZD8NFWZXWF9CIHKRIURB","","null","<img src=""img/flower4.png"" style=""width:200px; border:14px solid green;"">","null","","","","","","","","",""
"","image-keyboard-response","62","43608","0.0-62.0","32AT8R96GMVRVMD35O1MO5J1EAFUS0","AK35CJJEYFVYK","36U4VBVNQOZD8NFWZXWF9CIHKRIURB","","345.2000000178814","img/flower4.png","74","345.59999999403954","1","1","3","2","1,0,0,1,1,0,1,0,1","1,0,0,1,1,0,1,0,1","1",""
"","html-keyboard-response","63","43909","0.0-63.0","32AT8R96GMVRVMD35O1MO5J1EAFUS0","AK35CJJEYFVYK","36U4VBVNQOZD8NFWZXWF9CIHKRIURB","","null","<img src=""img/flower4.png"" style=""width:200px; border:14px solid green;"">","null","","","","","","","","",""
"","image-keyboard-response","64","43997","0.0-64.0","32AT8R96GMVRVMD35O1MO5J1EAFUS0","AK35CJJEYFVYK","36U4VBVNQOZD8NFWZXWF9CIHKRIURB","","87.5","img/flower4.png","74","87.7000000178814","1","1","3","2","1,0,0,1,1,0,1,0,1","1,0,0,1,1,0,1,0,1","1",""
"","html-keyboard-response","65","44298","0.0-65.0","32AT8R96GMVRVMD35O1MO5J1EAFUS0","AK35CJJEYFVYK","36U4VBVNQOZD8NFWZXWF9CIHKRIURB","","null","<img src=""img/flower4.png"" style=""width:200px; border:14px solid green;"">","null","","","","","","","","",""
"","image-keyboard-response","66","44357","0.0-66.0","32AT8R96GMVRVMD35O1MO5J1EAFUS0","AK35CJJEYFVYK","36U4VBVNQOZD8NFWZXWF9CIHKRIURB","","59","img/flower4.png","74","59.30000001192093","1","1","3","2","1,0,0,1,1,0,1,0,1","1,0,0,1,1,0,1,0,1","1",""
"","html-keyboard-response","67","44658","0.0-67.0","32AT8R96GMVRVMD35O1MO5J1EAFUS0","AK35CJJEYFVYK","36U4VBVNQOZD8NFWZXWF9CIHKRIURB","","null","<img src=""img/flower4.png"" style=""width:200px; border:14px solid green;"">","null","","","","","","","","",""
"","image-keyboard-response","68","44688","0.0-68.0","32AT8R96GMVRVMD35O1MO5J1EAFUS0","AK35CJJEYFVYK","36U4VBVNQOZD8NFWZXWF9CIHKRIURB","","29.5","img/flower1.png","74","29.900000005960464","1","1","1","2","1,0,0,1,1,0,1,0,1","1,0,0,1,1,0,1,0,1","1",""
"","html-keyboard-response","69","44989","0.0-69.0","32AT8R96GMVRVMD35O1MO5J1EAFUS0","AK35CJJEYFVYK","36U4VBVNQOZD8NFWZXWF9CIHKRIURB","","null","<img src=""img/flower1.png"" style=""width:200px; border:14px solid green;"">","null","","","","","","","","",""
"","image-keyboard-response","70","45020","0.0-70.0","32AT8R96GMVRVMD35O1MO5J1EAFUS0","AK35CJJEYFVYK","36U4VBVNQOZD8NFWZXWF9CIHKRIURB","","30.400000005960464","img/flower1.png","74","30.80000001192093","1","1","1","2","1,0,0,1,1,0,1,0,1","1,0,0,1,1,0,1,0,1","1",""
"","html-keyboard-response","71","45321","0.0-71.0","32AT8R96GMVRVMD35O1MO5J1EAFUS0","AK35CJJEYFVYK","36U4VBVNQOZD8NFWZXWF9CIHKRIURB","","null","<img src=""img/flower1.png"" style=""width:200px; border:14px solid green;"">","null","","","","","","","","",""
"","image-keyboard-response","72","45351","0.0-72.0","32AT8R96GMVRVMD35O1MO5J1EAFUS0","AK35CJJEYFVYK","36U4VBVNQOZD8NFWZXWF9CIHKRIURB","","29.69999998807907","img/flower2.png","74","29.900000005960464","1","1","2","2","1,0,0,1,1,0,1,0,1","1,0,0,1,1,0,1,0,1","1",""
"","html-keyboard-response","73","45652","0.0-73.0","32AT8R96GMVRVMD35O1MO5J1EAFUS0","AK35CJJEYFVYK","36U4VBVNQOZD8NFWZXWF9CIHKRIURB","","null","<img src=""img/flower2.png"" style=""width:200px; border:14px solid green;"">","null","","","","","","","","",""
"","image-keyboard-response","74","45720","0.0-74.0","32AT8R96GMVRVMD35O1MO5J1EAFUS0","AK35CJJEYFVYK","36U4VBVNQOZD8NFWZXWF9CIHKRIURB","","67.2000000178814","img/flower4.png","74","67.59999999403954","1","1","3","2","1,0,0,1,1,0,1,0,1","1,0,0,1,1,0,1,0,1","1",""
"","html-keyboard-response","75","46022","0.0-75.0","32AT8R96GMVRVMD35O1MO5J1EAFUS0","AK35CJJEYFVYK","36U4VBVNQOZD8NFWZXWF9CIHKRIURB","","null","<img src=""img/flower4.png"" style=""width:200px; border:14px solid green;"">","null","","","","","","","","",""
"","image-keyboard-response","76","46029","0.0-76.0","32AT8R96GMVRVMD35O1MO5J1EAFUS0","AK35CJJEYFVYK","36U4VBVNQOZD8NFWZXWF9CIHKRIURB","","6.5","img/flower2.png","74","6.800000011920929","1","1","2","2","1,0,0,1,1,0,1,0,1","1,0,0,1,1,0,1,0,1","1",""
"","html-keyboard-response","77","46330","0.0-77.0","32AT8R96GMVRVMD35O1MO5J1EAFUS0","AK35CJJEYFVYK","36U4VBVNQOZD8NFWZXWF9CIHKRIURB","","null","<img src=""img/flower2.png"" style=""width:200px; border:14px solid green;"">","null","","","","","","","","",""
"","image-keyboard-response","78","46423","0.0-78.0","32AT8R96GMVRVMD35O1MO5J1EAFUS0","AK35CJJEYFVYK","36U4VBVNQOZD8NFWZXWF9CIHKRIURB","","92.30000001192093","img/flower4.png","74","92.69999998807907","1","1","3","2","1,0,0,1,1,0,1,0,1","1,0,0,1,1,0,1,0,1","1",""
"","html-keyboard-response","79","46724","0.0-79.0","32AT8R96GMVRVMD35O1MO5J1EAFUS0","AK35CJJEYFVYK","36U4VBVNQOZD8NFWZXWF9CIHKRIURB","","null","<img src=""img/flower4.png"" style=""width:200px; border:14px solid green;"">","null","","","","","","","","",""
"","image-keyboard-response","80","46743","0.0-80.0","32AT8R96GMVRVMD35O1MO5J1EAFUS0","AK35CJJEYFVYK","36U4VBVNQOZD8NFWZXWF9CIHKRIURB","","19","img/flower1.png","74","19.30000001192093","1","1","1","2","1,0,0,1,1,0,1,0,1","1,0,0,1,1,0,1,0,1","1",""
"","html-keyboard-response","81","47044","0.0-81.0","32AT8R96GMVRVMD35O1MO5J1EAFUS0","AK35CJJEYFVYK","36U4VBVNQOZD8NFWZXWF9CIHKRIURB","","null","<img src=""img/flower1.png"" style=""width:200px; border:14px solid green;"">","null","","","","","","","","",""
"","image-keyboard-response","82","47065","0.0-82.0","32AT8R96GMVRVMD35O1MO5J1EAFUS0","AK35CJJEYFVYK","36U4VBVNQOZD8NFWZXWF9CIHKRIURB","","20.700000017881393","img/flower1.png","74","21.19999998807907","1","1","1","2","1,0,0,1,1,0,1,0,1","1,0,0,1,1,0,1,0,1","1",""
"","html-keyboard-response","83","47366","0.0-83.0","32AT8R96GMVRVMD35O1MO5J1EAFUS0","AK35CJJEYFVYK","36U4VBVNQOZD8NFWZXWF9CIHKRIURB","","null","<img src=""img/flower1.png"" style=""width:200px; border:14px solid green;"">","null","","","","","","","","",""
"","image-keyboard-response","84","47376","0.0-84.0","32AT8R96GMVRVMD35O1MO5J1EAFUS0","AK35CJJEYFVYK","36U4VBVNQOZD8NFWZXWF9CIHKRIURB","","9.900000005960464","img/flower2.png","74","10.200000017881393","1","1","2","2","1,0,0,1,1,0,1,0,1","1,0,0,1,1,0,1,0,1","1",""
"","html-keyboard-response","85","47677","0.0-85.0","32AT8R96GMVRVMD35O1MO5J1EAFUS0","AK35CJJEYFVYK","36U4VBVNQOZD8NFWZXWF9CIHKRIURB","","null","<img src=""img/flower2.png"" style=""width:200px; border:14px solid green;"">","null","","","","","","","","",""
"","image-keyboard-response","86","47722","0.0-86.0","32AT8R96GMVRVMD35O1MO5J1EAFUS0","AK35CJJEYFVYK","36U4VBVNQOZD8NFWZXWF9CIHKRIURB","","44.30000001192093","img/flower4.png","74","44.69999998807907","1","1","3","2","1,0,0,1,1,0,1,0,1","1,0,0,1,1,0,1,0,1","1",""
"","html-keyboard-response","87","48023","0.0-87.0","32AT8R96GMVRVMD35O1MO5J1EAFUS0","AK35CJJEYFVYK","36U4VBVNQOZD8NFWZXWF9CIHKRIURB","","null","<img src=""img/flower4.png"" style=""width:200px; border:14px solid green;"">","null","","","","","","","","",""
"","image-keyboard-response","88","48316","0.0-88.0","32AT8R96GMVRVMD35O1MO5J1EAFUS0","AK35CJJEYFVYK","36U4VBVNQOZD8NFWZXWF9CIHKRIURB","","292.2000000178814","img/flower1.png","74","292.69999998807907","1","1","1","2","1,0,0,1,1,0,1,0,1","1,0,0,1,1,0,1,0,1","1",""
"","html-keyboard-response","89","48617","0.0-89.0","32AT8R96GMVRVMD35O1MO5J1EAFUS0","AK35CJJEYFVYK","36U4VBVNQOZD8NFWZXWF9CIHKRIURB","","null","<img src=""img/flower1.png"" style=""width:200px; border:14px solid green;"">","null","","","","","","","","",""
"","image-keyboard-response","90","48624","0.0-90.0","32AT8R96GMVRVMD35O1MO5J1EAFUS0","AK35CJJEYFVYK","36U4VBVNQOZD8NFWZXWF9CIHKRIURB","","7","img/flower4.png","74","7.300000011920929","1","1","3","2","1,0,0,1,1,0,1,0,1","1,0,0,1,1,0,1,0,1","1",""
"","html-keyboard-response","91","48925","0.0-91.0","32AT8R96GMVRVMD35O1MO5J1EAFUS0","AK35CJJEYFVYK","36U4VBVNQOZD8NFWZXWF9CIHKRIURB","","null","<img src=""img/flower4.png"" style=""width:200px; border:14px solid green;"">","null","","","","","","","","",""
"","image-keyboard-response","92","48954","0.0-92.0","32AT8R96GMVRVMD35O1MO5J1EAFUS0","AK35CJJEYFVYK","36U4VBVNQOZD8NFWZXWF9CIHKRIURB","","28.200000017881393","img/flower1.png","74","28.5","1","1","1","2","1,0,0,1,1,0,1,0,1","1,0,0,1,1,0,1,0,1","1",""
"","html-keyboard-response","93","49255","0.0-93.0","32AT8R96GMVRVMD35O1MO5J1EAFUS0","AK35CJJEYFVYK","36U4VBVNQOZD8NFWZXWF9CIHKRIURB","","null","<img src=""img/flower1.png"" style=""width:200px; border:14px solid green;"">","null","","","","","","","","",""
"","image-keyboard-response","94","49530","0.0-94.0","32AT8R96GMVRVMD35O1MO5J1EAFUS0","AK35CJJEYFVYK","36U4VBVNQOZD8NFWZXWF9CIHKRIURB","","274.5","img/flower4.png","74","274.7999999821186","1","1","3","2","1,0,0,1,1,0,1,0,1","1,0,0,1,1,0,1,0,1","1",""
"","html-keyboard-response","95","49831","0.0-95.0","32AT8R96GMVRVMD35O1MO5J1EAFUS0","AK35CJJEYFVYK","36U4VBVNQOZD8NFWZXWF9CIHKRIURB","","null","<img src=""img/flower4.png"" style=""width:200px; border:14px solid green;"">","null","","","","","","","","",""
"","image-keyboard-response","96","49834","0.0-96.0","32AT8R96GMVRVMD35O1MO5J1EAFUS0","AK35CJJEYFVYK","36U4VBVNQOZD8NFWZXWF9CIHKRIURB","","2.5","img/flower4.png","74","2.800000011920929","1","1","3","2","1,0,0,1,1,0,1,0,1","1,0,0,1,1,0,1,0,1","1",""
"","html-keyboard-response","97","50135","0.0-97.0","32AT8R96GMVRVMD35O1MO5J1EAFUS0","AK35CJJEYFVYK","36U4VBVNQOZD8NFWZXWF9CIHKRIURB","","null","<img src=""img/flower4.png"" style=""width:200px; border:14px solid green;"">","null","","","","","","","","",""
"","image-keyboard-response","98","50145","0.0-98.0","32AT8R96GMVRVMD35O1MO5J1EAFUS0","AK35CJJEYFVYK","36U4VBVNQOZD8NFWZXWF9CIHKRIURB","","9.600000023841858","img/flower4.png","74","9.800000011920929","1","1","3","2","1,0,0,1,1,0,1,0,1","1,0,0,1,1,0,1,0,1","1",""
"","html-keyboard-response","99","50447","0.0-99.0","32AT8R96GMVRVMD35O1MO5J1EAFUS0","AK35CJJEYFVYK","36U4VBVNQOZD8NFWZXWF9CIHKRIURB","","null","<img src=""img/flower4.png"" style=""width:200px; border:14px solid green;"">","null","","","","","","","","",""
"","image-keyboard-response","100","50553","0.0-100.0","32AT8R96GMVRVMD35O1MO5J1EAFUS0","AK35CJJEYFVYK","36U4VBVNQOZD8NFWZXWF9CIHKRIURB","","106","img/flower4.png","74","106.40000000596046","1","1","3","2","1,0,0,1,1,0,1,0,1","1,0,0,1,1,0,1,0,1","1",""
"","html-keyboard-response","101","50854","0.0-101.0","32AT8R96GMVRVMD35O1MO5J1EAFUS0","AK35CJJEYFVYK","36U4VBVNQOZD8NFWZXWF9CIHKRIURB","","null","<img src=""img/flower4.png"" style=""width:200px; border:14px solid green;"">","null","","","","","","","","",""
"","image-keyboard-response","102","51215","0.0-102.0","32AT8R96GMVRVMD35O1MO5J1EAFUS0","AK35CJJEYFVYK","36U4VBVNQOZD8NFWZXWF9CIHKRIURB","","360.59999999403954","img/flower4.png","74","361","1","1","3","2","1,0,0,1,1,0,1,0,1","1,0,0,1,1,0,1,0,1","1",""
"","html-keyboard-response","103","51517","0.0-103.0","32AT8R96GMVRVMD35O1MO5J1EAFUS0","AK35CJJEYFVYK","36U4VBVNQOZD8NFWZXWF9CIHKRIURB","","null","<img src=""img/flower4.png"" style=""width:200px; border:14px solid green;"">","null","","","","","","","","",""
"","image-keyboard-response","104","51578","0.0-104.0","32AT8R96GMVRVMD35O1MO5J1EAFUS0","AK35CJJEYFVYK","36U4VBVNQOZD8NFWZXWF9CIHKRIURB","","61","img/flower2.png","74","61.400000005960464","1","1","2","2","1,0,0,1,1,0,1,0,1","1,0,0,1,1,0,1,0,1","1",""
"","html-keyboard-response","105","51880","0.0-105.0","32AT8R96GMVRVMD35O1MO5J1EAFUS0","AK35CJJEYFVYK","36U4VBVNQOZD8NFWZXWF9CIHKRIURB","","null","<img src=""img/flower2.png"" style=""width:200px; border:14px solid green;"">","null","","","","","","","","",""
"","image-keyboard-response","106","51920","0.0-106.0","32AT8R96GMVRVMD35O1MO5J1EAFUS0","AK35CJJEYFVYK","36U4VBVNQOZD8NFWZXWF9CIHKRIURB","","39.5","img/flower1.png","74","39.900000005960464","1","1","1","2","1,0,0,1,1,0,1,0,1","1,0,0,1,1,0,1,0,1","1",""
"","html-keyboard-response","107","52222","0.0-107.0","32AT8R96GMVRVMD35O1MO5J1EAFUS0","AK35CJJEYFVYK","36U4VBVNQOZD8NFWZXWF9CIHKRIURB","","null","<img src=""img/flower1.png"" style=""width:200px; border:14px solid green;"">","null","","","","","","","","",""
"","image-keyboard-response","108","52247","0.0-108.0","32AT8R96GMVRVMD35O1MO5J1EAFUS0","AK35CJJEYFVYK","36U4VBVNQOZD8NFWZXWF9CIHKRIURB","","25.099999994039536","img/flower1.png","74","25.5","1","1","1","2","1,0,0,1,1,0,1,0,1","1,0,0,1,1,0,1,0,1","1",""
"","html-keyboard-response","109","52548","0.0-109.0","32AT8R96GMVRVMD35O1MO5J1EAFUS0","AK35CJJEYFVYK","36U4VBVNQOZD8NFWZXWF9CIHKRIURB","","null","<img src=""img/flower1.png"" style=""width:200px; border:14px solid green;"">","null","","","","","","","","",""
"","image-keyboard-response","110","52570","0.0-110.0","32AT8R96GMVRVMD35O1MO5J1EAFUS0","AK35CJJEYFVYK","36U4VBVNQOZD8NFWZXWF9CIHKRIURB","","21.700000017881393","img/flower1.png","74","22.099999994039536","1","1","1","2","1,0,0,1,1,0,1,0,1","1,0,0,1,1,0,1,0,1","1",""
"","html-keyboard-response","111","52871","0.0-111.0","32AT8R96GMVRVMD35O1MO5J1EAFUS0","AK35CJJEYFVYK","36U4VBVNQOZD8NFWZXWF9CIHKRIURB","","null","<img src=""img/flower1.png"" style=""width:200px; border:14px solid green;"">","null","","","","","","","","",""
"","image-keyboard-response","112","52887","0.0-112.0","32AT8R96GMVRVMD35O1MO5J1EAFUS0","AK35CJJEYFVYK","36U4VBVNQOZD8NFWZXWF9CIHKRIURB","","15.800000011920929","img/flower2.png","74","16.19999998807907","1","1","2","2","1,0,0,1,1,0,1,0,1","1,0,0,1,1,0,1,0,1","1",""
"","html-keyboard-response","113","53188","0.0-113.0","32AT8R96GMVRVMD35O1MO5J1EAFUS0","AK35CJJEYFVYK","36U4VBVNQOZD8NFWZXWF9CIHKRIURB","","null","<img src=""img/flower2.png"" style=""width:200px; border:14px solid green;"">","null","","","","","","","","",""
"","image-keyboard-response","114","53225","0.0-114.0","32AT8R96GMVRVMD35O1MO5J1EAFUS0","AK35CJJEYFVYK","36U4VBVNQOZD8NFWZXWF9CIHKRIURB","","36.70000001788139","img/flower2.png","74","37.099999994039536","1","1","2","2","1,0,0,1,1,0,1,0,1","1,0,0,1,1,0,1,0,1","1",""
"","html-keyboard-response","115","53526","0.0-115.0","32AT8R96GMVRVMD35O1MO5J1EAFUS0","AK35CJJEYFVYK","36U4VBVNQOZD8NFWZXWF9CIHKRIURB","","null","<img src=""img/flower2.png"" style=""width:200px; border:14px solid green;"">","null","","","","","","","","",""
"","image-keyboard-response","116","53535","0.0-116.0","32AT8R96GMVRVMD35O1MO5J1EAFUS0","AK35CJJEYFVYK","36U4VBVNQOZD8NFWZXWF9CIHKRIURB","","8.099999994039536","img/flower2.png","74","8.400000005960464","1","1","2","2","1,0,0,1,1,0,1,0,1","1,0,0,1,1,0,1,0,1","1",""
"","html-keyboard-response","117","53837","0.0-117.0","32AT8R96GMVRVMD35O1MO5J1EAFUS0","AK35CJJEYFVYK","36U4VBVNQOZD8NFWZXWF9CIHKRIURB","","null","<img src=""img/flower2.png"" style=""width:200px; border:14px solid green;"">","null","","","","","","","","",""
"","image-keyboard-response","118","53840","0.0-118.0","32AT8R96GMVRVMD35O1MO5J1EAFUS0","AK35CJJEYFVYK","36U4VBVNQOZD8NFWZXWF9CIHKRIURB","","2.300000011920929","img/flower1.png","74","2.5999999940395355","1","1","1","2","1,0,0,1,1,0,1,0,1","1,0,0,1,1,0,1,0,1","1",""
"","html-keyboard-response","119","54141","0.0-119.0","32AT8R96GMVRVMD35O1MO5J1EAFUS0","AK35CJJEYFVYK","36U4VBVNQOZD8NFWZXWF9CIHKRIURB","","null","<img src=""img/flower1.png"" style=""width:200px; border:14px solid green;"">","null","","","","","","","","",""
"","image-keyboard-response","120","54190","0.0-120.0","32AT8R96GMVRVMD35O1MO5J1EAFUS0","AK35CJJEYFVYK","36U4VBVNQOZD8NFWZXWF9CIHKRIURB","","48.599999994039536","img/flower2.png","74","48.900000005960464","1","1","2","2","1,0,0,1,1,0,1,0,1","1,0,0,1,1,0,1,0,1","1",""
"","html-keyboard-response","121","54491","0.0-121.0","32AT8R96GMVRVMD35O1MO5J1EAFUS0","AK35CJJEYFVYK","36U4VBVNQOZD8NFWZXWF9CIHKRIURB","","null","<img src=""img/flower2.png"" style=""width:200px; border:14px solid green;"">","null","","","","","","","","",""
"","image-keyboard-response","122","54784","0.0-122.0","32AT8R96GMVRVMD35O1MO5J1EAFUS0","AK35CJJEYFVYK","36U4VBVNQOZD8NFWZXWF9CIHKRIURB","","292.7000000178814","img/flower1.png","74","293.19999998807907","1","1","1","2","1,0,0,1,1,0,1,0,1","1,0,0,1,1,0,1,0,1","1",""
"","html-keyboard-response","123","55085","0.0-123.0","32AT8R96GMVRVMD35O1MO5J1EAFUS0","AK35CJJEYFVYK","36U4VBVNQOZD8NFWZXWF9CIHKRIURB","","null","<img src=""img/flower1.png"" style=""width:200px; border:14px solid green;"">","null","","","","","","","","",""
"","image-keyboard-response","124","55109","0.0-124.0","32AT8R96GMVRVMD35O1MO5J1EAFUS0","AK35CJJEYFVYK","36U4VBVNQOZD8NFWZXWF9CIHKRIURB","","23.900000005960464","img/flower1.png","74","24.30000001192093","1","1","1","2","1,0,0,1,1,0,1,0,1","1,0,0,1,1,0,1,0,1","1",""
"","html-keyboard-response","125","55409","0.0-125.0","32AT8R96GMVRVMD35O1MO5J1EAFUS0","AK35CJJEYFVYK","36U4VBVNQOZD8NFWZXWF9CIHKRIURB","","null","<img src=""img/flower1.png"" style=""width:200px; border:14px solid green;"">","null","","","","","","","","",""
"","image-keyboard-response","126","55414","0.0-126.0","32AT8R96GMVRVMD35O1MO5J1EAFUS0","AK35CJJEYFVYK","36U4VBVNQOZD8NFWZXWF9CIHKRIURB","","4.200000017881393","img/flower1.png","74","4.5","1","1","1","2","1,0,0,1,1,0,1,0,1","1,0,0,1,1,0,1,0,1","1",""
"","html-keyboard-response","127","55715","0.0-127.0","32AT8R96GMVRVMD35O1MO5J1EAFUS0","AK35CJJEYFVYK","36U4VBVNQOZD8NFWZXWF9CIHKRIURB","","null","<img src=""img/flower1.png"" style=""width:200px; border:14px solid green;"">","null","","","","","","","","",""
"","image-keyboard-response","128","55717","0.0-128.0","32AT8R96GMVRVMD35O1MO5J1EAFUS0","AK35CJJEYFVYK","36U4VBVNQOZD8NFWZXWF9CIHKRIURB","","1.300000011920929","img/flower4.png","74","2.0999999940395355","1","1","3","2","1,0,0,1,1,0,1,0,1","1,0,0,1,1,0,1,0,1","1",""
"","html-keyboard-response","129","56018","0.0-129.0","32AT8R96GMVRVMD35O1MO5J1EAFUS0","AK35CJJEYFVYK","36U4VBVNQOZD8NFWZXWF9CIHKRIURB","","null","<img src=""img/flower4.png"" style=""width:200px; border:14px solid green;"">","null","","","","","","","","",""
"","image-keyboard-response","130","56035","0.0-130.0","32AT8R96GMVRVMD35O1MO5J1EAFUS0","AK35CJJEYFVYK","36U4VBVNQOZD8NFWZXWF9CIHKRIURB","","16.30000001192093","img/flower4.png","74","16.599999994039536","1","1","3","2","1,0,0,1,1,0,1,0,1","1,0,0,1,1,0,1,0,1","1",""
"","html-keyboard-response","131","56342","0.0-131.0","32AT8R96GMVRVMD35O1MO5J1EAFUS0","AK35CJJEYFVYK","36U4VBVNQOZD8NFWZXWF9CIHKRIURB","","null","<img src=""img/flower4.png"" style=""width:200px; border:14px solid green;"">","null","","","","","","","","",""
"","image-keyboard-response","132","56657","0.0-132.0","32AT8R96GMVRVMD35O1MO5J1EAFUS0","AK35CJJEYFVYK","36U4VBVNQOZD8NFWZXWF9CIHKRIURB","","314.39999997615814","img/flower4.png","74","314.80000001192093","1","1","3","2","1,0,0,1,1,0,1,0,1","1,0,0,1,1,0,1,0,1","1",""
"","html-keyboard-response","133","56958","0.0-133.0","32AT8R96GMVRVMD35O1MO5J1EAFUS0","AK35CJJEYFVYK","36U4VBVNQOZD8NFWZXWF9CIHKRIURB","","null","<img src=""img/flower4.png"" style=""width:200px; border:14px solid green;"">","null","","","","","","","","",""
"","image-keyboard-response","134","57093","0.0-134.0","32AT8R96GMVRVMD35O1MO5J1EAFUS0","AK35CJJEYFVYK","36U4VBVNQOZD8NFWZXWF9CIHKRIURB","","135","img/flower1.png","74","135.30000001192093","1","1","1","2","1,0,0,1,1,0,1,0,1","1,0,0,1,1,0,1,0,1","1",""
"","html-keyboard-response","135","57394","0.0-135.0","32AT8R96GMVRVMD35O1MO5J1EAFUS0","AK35CJJEYFVYK","36U4VBVNQOZD8NFWZXWF9CIHKRIURB","","null","<img src=""img/flower1.png"" style=""width:200px; border:14px solid green;"">","null","","","","","","","","",""
"","image-keyboard-response","136","57480","0.0-136.0","32AT8R96GMVRVMD35O1MO5J1EAFUS0","AK35CJJEYFVYK","36U4VBVNQOZD8NFWZXWF9CIHKRIURB","","86","img/flower2.png","74","86.40000000596046","1","1","2","2","1,0,0,1,1,0,1,0,1","1,0,0,1,1,0,1,0,1","1",""
"","html-keyboard-response","137","57782","0.0-137.0","32AT8R96GMVRVMD35O1MO5J1EAFUS0","AK35CJJEYFVYK","36U4VBVNQOZD8NFWZXWF9CIHKRIURB","","null","<img src=""img/flower2.png"" style=""width:200px; border:14px solid green;"">","null","","","","","","","","",""
"","image-keyboard-response","138","57863","0.0-138.0","32AT8R96GMVRVMD35O1MO5J1EAFUS0","AK35CJJEYFVYK","36U4VBVNQOZD8NFWZXWF9CIHKRIURB","","81.19999998807907","img/flower1.png","74","81.40000000596046","1","1","1","2","1,0,0,1,1,0,1,0,1","1,0,0,1,1,0,1,0,1","1",""
"","html-keyboard-response","139","58164","0.0-139.0","32AT8R96GMVRVMD35O1MO5J1EAFUS0","AK35CJJEYFVYK","36U4VBVNQOZD8NFWZXWF9CIHKRIURB","","null","<img src=""img/flower1.png"" style=""width:200px; border:14px solid green;"">","null","","","","","","","","",""
"","image-keyboard-response","140","58239","0.0-140.0","32AT8R96GMVRVMD35O1MO5J1EAFUS0","AK35CJJEYFVYK","36U4VBVNQOZD8NFWZXWF9CIHKRIURB","","75","img/flower2.png","74","75.2999999821186","1","1","2","2","1,0,0,1,1,0,1,0,1","1,0,0,1,1,0,1,0,1","1",""
"","html-keyboard-response","141","58540","0.0-141.0","32AT8R96GMVRVMD35O1MO5J1EAFUS0","AK35CJJEYFVYK","36U4VBVNQOZD8NFWZXWF9CIHKRIURB","","null","<img src=""img/flower2.png"" style=""width:200px; border:14px solid green;"">","null","","","","","","","","",""
"","image-keyboard-response","142","58587","0.0-142.0","32AT8R96GMVRVMD35O1MO5J1EAFUS0","AK35CJJEYFVYK","36U4VBVNQOZD8NFWZXWF9CIHKRIURB","","46.80000001192093","img/flower2.png","74","47.099999994039536","1","1","2","2","1,0,0,1,1,0,1,0,1","1,0,0,1,1,0,1,0,1","1",""
"","html-keyboard-response","143","58888","0.0-143.0","32AT8R96GMVRVMD35O1MO5J1EAFUS0","AK35CJJEYFVYK","36U4VBVNQOZD8NFWZXWF9CIHKRIURB","","null","<img src=""img/flower2.png"" style=""width:200px; border:14px solid green;"">","null","","","","","","","","",""
"","image-keyboard-response","144","58930","0.0-144.0","32AT8R96GMVRVMD35O1MO5J1EAFUS0","AK35CJJEYFVYK","36U4VBVNQOZD8NFWZXWF9CIHKRIURB","","41.70000001788139","img/flower2.png","74","42","1","1","2","2","1,0,0,1,1,0,1,0,1","1,0,0,1,1,0,1,0,1","1",""
"","html-keyboard-response","145","59231","0.0-145.0","32AT8R96GMVRVMD35O1MO5J1EAFUS0","AK35CJJEYFVYK","36U4VBVNQOZD8NFWZXWF9CIHKRIURB","","null","<img src=""img/flower2.png"" style=""width:200px; border:14px solid green;"">","null","","","","","","","","",""
"","image-keyboard-response","146","59284","0.0-146.0","32AT8R96GMVRVMD35O1MO5J1EAFUS0","AK35CJJEYFVYK","36U4VBVNQOZD8NFWZXWF9CIHKRIURB","","52.5","img/flower2.png","74","52.900000005960464","1","1","2","2","1,0,0,1,1,0,1,0,1","1,0,0,1,1,0,1,0,1","1",""
"","html-keyboard-response","147","59585","0.0-147.0","32AT8R96GMVRVMD35O1MO5J1EAFUS0","AK35CJJEYFVYK","36U4VBVNQOZD8NFWZXWF9CIHKRIURB","","null","<img src=""img/flower2.png"" style=""width:200px; border:14px solid green;"">","null","","","","","","","","",""
"","image-keyboard-response","148","59655","0.0-148.0","32AT8R96GMVRVMD35O1MO5J1EAFUS0","AK35CJJEYFVYK","36U4VBVNQOZD8NFWZXWF9CIHKRIURB","","69.40000000596046","img/flower4.png","74","69.80000001192093","1","1","3","2","1,0,0,1,1,0,1,0,1","1,0,0,1,1,0,1,0,1","1",""
"","html-keyboard-response","149","59956","0.0-149.0","32AT8R96GMVRVMD35O1MO5J1EAFUS0","AK35CJJEYFVYK","36U4VBVNQOZD8NFWZXWF9CIHKRIURB","","null","<img src=""img/flower4.png"" style=""width:200px; border:14px solid green;"">","null","","","","","","","","",""
"","image-keyboard-response","150","60033","0.0-150.0","32AT8R96GMVRVMD35O1MO5J1EAFUS0","AK35CJJEYFVYK","36U4VBVNQOZD8NFWZXWF9CIHKRIURB","","76.5","img/flower4.png","74","76.7000000178814","1","1","3","2","1,0,0,1,1,0,1,0,1","1,0,0,1,1,0,1,0,1","1",""
"","html-keyboard-response","151","60334","0.0-151.0","32AT8R96GMVRVMD35O1MO5J1EAFUS0","AK35CJJEYFVYK","36U4VBVNQOZD8NFWZXWF9CIHKRIURB","","null","<img src=""img/flower4.png"" style=""width:200px; border:14px solid green;"">","null","","","","","","","","",""
"","image-keyboard-response","152","60428","0.0-152.0","32AT8R96GMVRVMD35O1MO5J1EAFUS0","AK35CJJEYFVYK","36U4VBVNQOZD8NFWZXWF9CIHKRIURB","","94.2000000178814","img/flower2.png","74","94.59999999403954","1","1","2","2","1,0,0,1,1,0,1,0,1","1,0,0,1,1,0,1,0,1","1",""
"","html-keyboard-response","153","60730","0.0-153.0","32AT8R96GMVRVMD35O1MO5J1EAFUS0","AK35CJJEYFVYK","36U4VBVNQOZD8NFWZXWF9CIHKRIURB","","null","<img src=""img/flower2.png"" style=""width:200px; border:14px solid green;"">","null","","","","","","","","",""
"","image-keyboard-response","154","61202","0.0-154.0","32AT8R96GMVRVMD35O1MO5J1EAFUS0","AK35CJJEYFVYK","36U4VBVNQOZD8NFWZXWF9CIHKRIURB","","472.30000001192093","img/flower2.png","74","472.69999998807907","1","1","2","2","1,0,0,1,1,0,1,0,1","1,0,0,1,1,0,1,0,1","1",""
"","html-keyboard-response","155","61503","0.0-155.0","32AT8R96GMVRVMD35O1MO5J1EAFUS0","AK35CJJEYFVYK","36U4VBVNQOZD8NFWZXWF9CIHKRIURB","","null","<img src=""img/flower2.png"" style=""width:200px; border:14px solid green;"">","null","","","","","","","","",""
"","image-keyboard-response","156","61639","0.0-156.0","32AT8R96GMVRVMD35O1MO5J1EAFUS0","AK35CJJEYFVYK","36U4VBVNQOZD8NFWZXWF9CIHKRIURB","","136.30000001192093","img/flower2.png","74","136.69999998807907","1","1","2","2","1,0,0,1,1,0,1,0,1","1,0,0,1,1,0,1,0,1","1",""
"","html-keyboard-response","157","61940","0.0-157.0","32AT8R96GMVRVMD35O1MO5J1EAFUS0","AK35CJJEYFVYK","36U4VBVNQOZD8NFWZXWF9CIHKRIURB","","null","<img src=""img/flower2.png"" style=""width:200px; border:14px solid green;"">","null","","","","","","","","",""
"","image-keyboard-response","158","62073","0.0-158.0","32AT8R96GMVRVMD35O1MO5J1EAFUS0","AK35CJJEYFVYK","36U4VBVNQOZD8NFWZXWF9CIHKRIURB","","132.90000000596046","img/flower2.png","74","133.30000001192093","1","1","2","2","1,0,0,1,1,0,1,0,1","1,0,0,1,1,0,1,0,1","1",""
"","html-keyboard-response","159","62374","0.0-159.0","32AT8R96GMVRVMD35O1MO5J1EAFUS0","AK35CJJEYFVYK","36U4VBVNQOZD8NFWZXWF9CIHKRIURB","","null","<img src=""img/flower2.png"" style=""width:200px; border:14px solid green;"">","null","","","","","","","","",""
"","image-keyboard-response","160","62489","0.0-160.0","32AT8R96GMVRVMD35O1MO5J1EAFUS0","AK35CJJEYFVYK","36U4VBVNQOZD8NFWZXWF9CIHKRIURB","","114.5","img/flower1.png","74","114.80000001192093","1","1","1","2","1,0,0,1,1,0,1,0,1","1,0,0,1,1,0,1,0,1","1",""
"","html-keyboard-response","161","62790","0.0-161.0","32AT8R96GMVRVMD35O1MO5J1EAFUS0","AK35CJJEYFVYK","36U4VBVNQOZD8NFWZXWF9CIHKRIURB","","null","<img src=""img/flower1.png"" style=""width:200px; border:14px solid green;"">","null","","","","","","","","",""
"","image-keyboard-response","162","62896","0.0-162.0","32AT8R96GMVRVMD35O1MO5J1EAFUS0","AK35CJJEYFVYK","36U4VBVNQOZD8NFWZXWF9CIHKRIURB","","105.7000000178814","img/flower2.png","74","105.90000000596046","1","1","2","2","1,0,0,1,1,0,1,0,1","1,0,0,1,1,0,1,0,1","1",""
"","html-keyboard-response","163","63197","0.0-163.0","32AT8R96GMVRVMD35O1MO5J1EAFUS0","AK35CJJEYFVYK","36U4VBVNQOZD8NFWZXWF9CIHKRIURB","","null","<img src=""img/flower2.png"" style=""width:200px; border:14px solid green;"">","null","","","","","","","","",""
"","image-keyboard-response","164","63311","0.0-164.0","32AT8R96GMVRVMD35O1MO5J1EAFUS0","AK35CJJEYFVYK","36U4VBVNQOZD8NFWZXWF9CIHKRIURB","","113.40000000596046","img/flower1.png","74","113.7000000178814","1","1","1","2","1,0,0,1,1,0,1,0,1","1,0,0,1,1,0,1,0,1","1",""
"","html-keyboard-response","165","63612","0.0-165.0","32AT8R96GMVRVMD35O1MO5J1EAFUS0","AK35CJJEYFVYK","36U4VBVNQOZD8NFWZXWF9CIHKRIURB","","null","<img src=""img/flower1.png"" style=""width:200px; border:14px solid green;"">","null","","","","","","","","",""
"","image-keyboard-response","166","63752","0.0-166.0","32AT8R96GMVRVMD35O1MO5J1EAFUS0","AK35CJJEYFVYK","36U4VBVNQOZD8NFWZXWF9CIHKRIURB","","139.2999999821186","img/flower2.png","74","139.69999998807907","1","1","2","2","1,0,0,1,1,0,1,0,1","1,0,0,1,1,0,1,0,1","1",""
"","html-keyboard-response","167","64053","0.0-167.0","32AT8R96GMVRVMD35O1MO5J1EAFUS0","AK35CJJEYFVYK","36U4VBVNQOZD8NFWZXWF9CIHKRIURB","","null","<img src=""img/flower2.png"" style=""width:200px; border:14px solid green;"">","null","","","","","","","","",""
"","image-keyboard-response","168","64197","0.0-168.0","32AT8R96GMVRVMD35O1MO5J1EAFUS0","AK35CJJEYFVYK","36U4VBVNQOZD8NFWZXWF9CIHKRIURB","","143.90000000596046","img/flower1.png","74","144.30000001192093","1","1","1","2","1,0,0,1,1,0,1,0,1","1,0,0,1,1,0,1,0,1","1",""
"","html-keyboard-response","169","64498","0.0-169.0","32AT8R96GMVRVMD35O1MO5J1EAFUS0","AK35CJJEYFVYK","36U4VBVNQOZD8NFWZXWF9CIHKRIURB","","null","<img src=""img/flower1.png"" style=""width:200px; border:14px solid green;"">","null","","","","","","","","",""
"","image-keyboard-response","170","64613","0.0-170.0","32AT8R96GMVRVMD35O1MO5J1EAFUS0","AK35CJJEYFVYK","36U4VBVNQOZD8NFWZXWF9CIHKRIURB","","114.80000001192093","img/flower1.png","74","115.09999999403954","1","1","1","2","1,0,0,1,1,0,1,0,1","1,0,0,1,1,0,1,0,1","1",""
"","html-keyboard-response","171","64918","0.0-171.0","32AT8R96GMVRVMD35O1MO5J1EAFUS0","AK35CJJEYFVYK","36U4VBVNQOZD8NFWZXWF9CIHKRIURB","","null","<img src=""img/flower1.png"" style=""width:200px; border:14px solid green;"">","null","","","","","","","","",""
"","image-keyboard-response","172","65076","0.0-172.0","32AT8R96GMVRVMD35O1MO5J1EAFUS0","AK35CJJEYFVYK","36U4VBVNQOZD8NFWZXWF9CIHKRIURB","","158","img/flower1.png","74","158.5","1","1","1","2","1,0,0,1,1,0,1,0,1","1,0,0,1,1,0,1,0,1","1",""
"","html-keyboard-response","173","65377","0.0-173.0","32AT8R96GMVRVMD35O1MO5J1EAFUS0","AK35CJJEYFVYK","36U4VBVNQOZD8NFWZXWF9CIHKRIURB","","null","<img src=""img/flower1.png"" style=""width:200px; border:14px solid green;"">","null","","","","","","","","",""
"","image-keyboard-response","174","65559","0.0-174.0","32AT8R96GMVRVMD35O1MO5J1EAFUS0","AK35CJJEYFVYK","36U4VBVNQOZD8NFWZXWF9CIHKRIURB","","181.80000001192093","img/flower2.png","74","182.09999999403954","1","1","2","2","1,0,0,1,1,0,1,0,1","1,0,0,1,1,0,1,0,1","1",""
"","html-keyboard-response","175","65860","0.0-175.0","32AT8R96GMVRVMD35O1MO5J1EAFUS0","AK35CJJEYFVYK","36U4VBVNQOZD8NFWZXWF9CIHKRIURB","","null","<img src=""img/flower2.png"" style=""width:200px; border:14px solid green;"">","null","","","","","","","","",""
"","image-keyboard-response","176","65949","0.0-176.0","32AT8R96GMVRVMD35O1MO5J1EAFUS0","AK35CJJEYFVYK","36U4VBVNQOZD8NFWZXWF9CIHKRIURB","","88.40000000596046","img/flower1.png","74","88.80000001192093","1","1","1","2","1,0,0,1,1,0,1,0,1","1,0,0,1,1,0,1,0,1","1",""
"","html-keyboard-response","177","66258","0.0-177.0","32AT8R96GMVRVMD35O1MO5J1EAFUS0","AK35CJJEYFVYK","36U4VBVNQOZD8NFWZXWF9CIHKRIURB","","null","<img src=""img/flower1.png"" style=""width:200px; border:14px solid green;"">","null","","","","","","","","",""
"","image-keyboard-response","178","66389","0.0-178.0","32AT8R96GMVRVMD35O1MO5J1EAFUS0","AK35CJJEYFVYK","36U4VBVNQOZD8NFWZXWF9CIHKRIURB","","130.40000000596046","img/flower1.png","74","130.80000001192093","1","1","1","2","1,0,0,1,1,0,1,0,1","1,0,0,1,1,0,1,0,1","1",""
"","html-keyboard-response","179","66690","0.0-179.0","32AT8R96GMVRVMD35O1MO5J1EAFUS0","AK35CJJEYFVYK","36U4VBVNQOZD8NFWZXWF9CIHKRIURB","","null","<img src=""img/flower1.png"" style=""width:200px; border:14px solid green;"">","null","","","","","","","","",""
"","image-keyboard-response","180","66775","0.0-180.0","32AT8R96GMVRVMD35O1MO5J1EAFUS0","AK35CJJEYFVYK","36U4VBVNQOZD8NFWZXWF9CIHKRIURB","","84.60000002384186","img/flower2.png","74","84.90000000596046","1","1","2","2","1,0,0,1,1,0,1,0,1","1,0,0,1,1,0,1,0,1","1",""
"","html-keyboard-response","181","67076","0.0-181.0","32AT8R96GMVRVMD35O1MO5J1EAFUS0","AK35CJJEYFVYK","36U4VBVNQOZD8NFWZXWF9CIHKRIURB","","null","<img src=""img/flower2.png"" style=""width:200px; border:14px solid green;"">","null","","","","","","","","",""
"","image-keyboard-response","182","67205","0.0-182.0","32AT8R96GMVRVMD35O1MO5J1EAFUS0","AK35CJJEYFVYK","36U4VBVNQOZD8NFWZXWF9CIHKRIURB","","128.80000001192093","img/flower3.png","74","129.09999999403954","1","1","1","1","1,0.333,0.333,0.333,1,0.333,0.333,0.333,1","1,0.333,0.333,0.333,1,0.333,0.333,0.333,1","1",""
"","html-keyboard-response","183","67506","0.0-183.0","32AT8R96GMVRVMD35O1MO5J1EAFUS0","AK35CJJEYFVYK","36U4VBVNQOZD8NFWZXWF9CIHKRIURB","","null","<img src=""img/flower3.png"" style=""width:200px; border:14px solid green;"">","null","","","","","","","","",""
"","image-keyboard-response","184","67623","0.0-184.0","32AT8R96GMVRVMD35O1MO5J1EAFUS0","AK35CJJEYFVYK","36U4VBVNQOZD8NFWZXWF9CIHKRIURB","","117.09999999403954","img/flower6.png","74","117.40000000596046","1","1","3","1","1,0.333,0.333,0.333,1,0.333,0.333,0.333,1","1,0.333,0.333,0.333,1,0.333,0.333,0.333,1","1",""
"","html-keyboard-response","185","67924","0.0-185.0","32AT8R96GMVRVMD35O1MO5J1EAFUS0","AK35CJJEYFVYK","36U4VBVNQOZD8NFWZXWF9CIHKRIURB","","null","<img src=""img/flower6.png"" style=""width:200px; border:14px solid green;"">","null","","","","","","","","",""
"","image-keyboard-response","186","68539","0.0-186.0","32AT8R96GMVRVMD35O1MO5J1EAFUS0","AK35CJJEYFVYK","36U4VBVNQOZD8NFWZXWF9CIHKRIURB","","614.6999999880791","img/flower6.png","74","614.9000000059605","1","0","3","1","1,0.333,0.333,0.333,1,0.333,0.333,0.333,1","1,0.333,0.333,0.333,1,0.333,0.333,0.333,1","1",""
"","html-keyboard-response","187","68841","0.0-187.0","32AT8R96GMVRVMD35O1MO5J1EAFUS0","AK35CJJEYFVYK","36U4VBVNQOZD8NFWZXWF9CIHKRIURB","","null","<img src=""img/flower6.png"" style=""width:200px;border:14px solid red;"">","null","","","","","","","","",""
"","image-keyboard-response","188","69437","0.0-188.0","32AT8R96GMVRVMD35O1MO5J1EAFUS0","AK35CJJEYFVYK","36U4VBVNQOZD8NFWZXWF9CIHKRIURB","","596.1000000238419","img/flower3.png","75","596.5","2","0","1","1","1,0.333,0.333,0.333,1,0.333,0.333,0.333,1","1,0.333,0.333,0.333,1,0.333,0.333,0.333,1","1",""
"","html-keyboard-response","189","69738","0.0-189.0","32AT8R96GMVRVMD35O1MO5J1EAFUS0","AK35CJJEYFVYK","36U4VBVNQOZD8NFWZXWF9CIHKRIURB","","null","<img src=""img/flower3.png"" style=""width:200px;border:14px solid red;"">","null","","","","","","","","",""
"","image-keyboard-response","190","69839","0.0-190.0","32AT8R96GMVRVMD35O1MO5J1EAFUS0","AK35CJJEYFVYK","36U4VBVNQOZD8NFWZXWF9CIHKRIURB","","100.69999998807907","img/flower3.png","74","101.09999999403954","1","1","1","1","1,0.333,0.333,0.333,1,0.333,0.333,0.333,1","1,0.333,0.333,0.333,1,0.333,0.333,0.333,1","1",""
"","html-keyboard-response","191","70141","0.0-191.0","32AT8R96GMVRVMD35O1MO5J1EAFUS0","AK35CJJEYFVYK","36U4VBVNQOZD8NFWZXWF9CIHKRIURB","","null","<img src=""img/flower3.png"" style=""width:200px; border:14px solid green;"">","null","","","","","","","","",""
"","image-keyboard-response","192","70797","0.0-192.0","32AT8R96GMVRVMD35O1MO5J1EAFUS0","AK35CJJEYFVYK","36U4VBVNQOZD8NFWZXWF9CIHKRIURB","","655.5","img/flower5.png","76","655.9000000059605","3","1","2","1","1,0.333,0.333,0.333,1,0.333,0.333,0.333,1","1,0.333,0.333,0.333,1,0.333,0.333,0.333,1","1",""
"","html-keyboard-response","193","71098","0.0-193.0","32AT8R96GMVRVMD35O1MO5J1EAFUS0","AK35CJJEYFVYK","36U4VBVNQOZD8NFWZXWF9CIHKRIURB","","null","<img src=""img/flower5.png"" style=""width:200px; border:14px solid green;"">","null","","","","","","","","",""
"","image-keyboard-response","194","71345","0.0-194.0","32AT8R96GMVRVMD35O1MO5J1EAFUS0","AK35CJJEYFVYK","36U4VBVNQOZD8NFWZXWF9CIHKRIURB","","246.5","img/flower3.png","76","246.80000001192093","3","1","1","1","1,0.333,0.333,0.333,1,0.333,0.333,0.333,1","1,0.333,0.333,0.333,1,0.333,0.333,0.333,1","1",""
"","html-keyboard-response","195","71646","0.0-195.0","32AT8R96GMVRVMD35O1MO5J1EAFUS0","AK35CJJEYFVYK","36U4VBVNQOZD8NFWZXWF9CIHKRIURB","","null","<img src=""img/flower3.png"" style=""width:200px; border:14px solid green;"">","null","","","","","","","","",""
"","image-keyboard-response","196","71913","0.0-196.0","32AT8R96GMVRVMD35O1MO5J1EAFUS0","AK35CJJEYFVYK","36U4VBVNQOZD8NFWZXWF9CIHKRIURB","","267.09999999403954","img/flower5.png","76","267.5","3","0","2","1","1,0.333,0.333,0.333,1,0.333,0.333,0.333,1","1,0.333,0.333,0.333,1,0.333,0.333,0.333,1","1",""
"","html-keyboard-response","197","72215","0.0-197.0","32AT8R96GMVRVMD35O1MO5J1EAFUS0","AK35CJJEYFVYK","36U4VBVNQOZD8NFWZXWF9CIHKRIURB","","null","<img src=""img/flower5.png"" style=""width:200px;border:14px solid red;"">","null","","","","","","","","",""
"","image-keyboard-response","198","72625","0.0-198.0","32AT8R96GMVRVMD35O1MO5J1EAFUS0","AK35CJJEYFVYK","36U4VBVNQOZD8NFWZXWF9CIHKRIURB","","410.10000002384186","img/flower6.png","75","410.59999999403954","2","1","3","1","1,0.333,0.333,0.333,1,0.333,0.333,0.333,1","1,0.333,0.333,0.333,1,0.333,0.333,0.333,1","1",""
"","html-keyboard-response","199","72926","0.0-199.0","32AT8R96GMVRVMD35O1MO5J1EAFUS0","AK35CJJEYFVYK","36U4VBVNQOZD8NFWZXWF9CIHKRIURB","","null","<img src=""img/flower6.png"" style=""width:200px; border:14px solid green;"">","null","","","","","","","","",""
"","image-keyboard-response","200","73149","0.0-200.0","32AT8R96GMVRVMD35O1MO5J1EAFUS0","AK35CJJEYFVYK","36U4VBVNQOZD8NFWZXWF9CIHKRIURB","","222.59999999403954","img/flower3.png","75","223","2","1","1","1","1,0.333,0.333,0.333,1,0.333,0.333,0.333,1","1,0.333,0.333,0.333,1,0.333,0.333,0.333,1","1",""
"","html-keyboard-response","201","73451","0.0-201.0","32AT8R96GMVRVMD35O1MO5J1EAFUS0","AK35CJJEYFVYK","36U4VBVNQOZD8NFWZXWF9CIHKRIURB","","null","<img src=""img/flower3.png"" style=""width:200px; border:14px solid green;"">","null","","","","","","","","",""
"","image-keyboard-response","202","73678","0.0-202.0","32AT8R96GMVRVMD35O1MO5J1EAFUS0","AK35CJJEYFVYK","36U4VBVNQOZD8NFWZXWF9CIHKRIURB","","226.5","img/flower5.png","75","226.90000000596046","2","1","2","1","1,0.333,0.333,0.333,1,0.333,0.333,0.333,1","1,0.333,0.333,0.333,1,0.333,0.333,0.333,1","1",""
"","html-keyboard-response","203","73979","0.0-203.0","32AT8R96GMVRVMD35O1MO5J1EAFUS0","AK35CJJEYFVYK","36U4VBVNQOZD8NFWZXWF9CIHKRIURB","","null","<img src=""img/flower5.png"" style=""width:200px; border:14px solid green;"">","null","","","","","","","","",""
"","image-keyboard-response","204","74155","0.0-204.0","32AT8R96GMVRVMD35O1MO5J1EAFUS0","AK35CJJEYFVYK","36U4VBVNQOZD8NFWZXWF9CIHKRIURB","","176.2000000178814","img/flower5.png","75","176.40000000596046","2","1","2","1","1,0.333,0.333,0.333,1,0.333,0.333,0.333,1","1,0.333,0.333,0.333,1,0.333,0.333,0.333,1","1",""
"","html-keyboard-response","205","74456","0.0-205.0","32AT8R96GMVRVMD35O1MO5J1EAFUS0","AK35CJJEYFVYK","36U4VBVNQOZD8NFWZXWF9CIHKRIURB","","null","<img src=""img/flower5.png"" style=""width:200px; border:14px solid green;"">","null","","","","","","","","",""
"","image-keyboard-response","206","74601","0.0-206.0","32AT8R96GMVRVMD35O1MO5J1EAFUS0","AK35CJJEYFVYK","36U4VBVNQOZD8NFWZXWF9CIHKRIURB","","145","img/flower6.png","75","145.09999999403954","2","0","3","1","1,0.333,0.333,0.333,1,0.333,0.333,0.333,1","1,0.333,0.333,0.333,1,0.333,0.333,0.333,1","1",""
"","html-keyboard-response","207","74902","0.0-207.0","32AT8R96GMVRVMD35O1MO5J1EAFUS0","AK35CJJEYFVYK","36U4VBVNQOZD8NFWZXWF9CIHKRIURB","","null","<img src=""img/flower6.png"" style=""width:200px;border:14px solid red;"">","null","","","","","","","","",""
"","image-keyboard-response","208","75323","0.0-208.0","32AT8R96GMVRVMD35O1MO5J1EAFUS0","AK35CJJEYFVYK","36U4VBVNQOZD8NFWZXWF9CIHKRIURB","","420.59999999403954","img/flower3.png","74","420.80000001192093","1","1","1","1","1,0.333,0.333,0.333,1,0.333,0.333,0.333,1","1,0.333,0.333,0.333,1,0.333,0.333,0.333,1","1",""
"","html-keyboard-response","209","75624","0.0-209.0","32AT8R96GMVRVMD35O1MO5J1EAFUS0","AK35CJJEYFVYK","36U4VBVNQOZD8NFWZXWF9CIHKRIURB","","null","<img src=""img/flower3.png"" style=""width:200px; border:14px solid green;"">","null","","","","","","","","",""
"","image-keyboard-response","210","75778","0.0-210.0","32AT8R96GMVRVMD35O1MO5J1EAFUS0","AK35CJJEYFVYK","36U4VBVNQOZD8NFWZXWF9CIHKRIURB","","154","img/flower3.png","75","154.5","2","1","1","1","1,0.333,0.333,0.333,1,0.333,0.333,0.333,1","1,0.333,0.333,0.333,1,0.333,0.333,0.333,1","1",""
"","html-keyboard-response","211","76079","0.0-211.0","32AT8R96GMVRVMD35O1MO5J1EAFUS0","AK35CJJEYFVYK","36U4VBVNQOZD8NFWZXWF9CIHKRIURB","","null","<img src=""img/flower3.png"" style=""width:200px; border:14px solid green;"">","null","","","","","","","","",""
"","image-keyboard-response","212","76515","0.0-212.0","32AT8R96GMVRVMD35O1MO5J1EAFUS0","AK35CJJEYFVYK","36U4VBVNQOZD8NFWZXWF9CIHKRIURB","","435.59999999403954","img/flower6.png","74","435.90000000596046","1","0","3","1","1,0.333,0.333,0.333,1,0.333,0.333,0.333,1","1,0.333,0.333,0.333,1,0.333,0.333,0.333,1","1",""
"","html-keyboard-response","213","76816","0.0-213.0","32AT8R96GMVRVMD35O1MO5J1EAFUS0","AK35CJJEYFVYK","36U4VBVNQOZD8NFWZXWF9CIHKRIURB","","null","<img src=""img/flower6.png"" style=""width:200px;border:14px solid red;"">","null","","","","","","","","",""
"","image-keyboard-response","214","76919","0.0-214.0","32AT8R96GMVRVMD35O1MO5J1EAFUS0","AK35CJJEYFVYK","36U4VBVNQOZD8NFWZXWF9CIHKRIURB","","102.90000000596046","img/flower6.png","75","103.30000001192093","2","0","3","1","1,0.333,0.333,0.333,1,0.333,0.333,0.333,1","1,0.333,0.333,0.333,1,0.333,0.333,0.333,1","1",""
"","html-keyboard-response","215","77220","0.0-215.0","32AT8R96GMVRVMD35O1MO5J1EAFUS0","AK35CJJEYFVYK","36U4VBVNQOZD8NFWZXWF9CIHKRIURB","","null","<img src=""img/flower6.png"" style=""width:200px;border:14px solid red;"">","null","","","","","","","","",""
"","image-keyboard-response","216","77497","0.0-216.0","32AT8R96GMVRVMD35O1MO5J1EAFUS0","AK35CJJEYFVYK","36U4VBVNQOZD8NFWZXWF9CIHKRIURB","","276.59999999403954","img/flower3.png","75","276.90000000596046","2","0","1","1","1,0.333,0.333,0.333,1,0.333,0.333,0.333,1","1,0.333,0.333,0.333,1,0.333,0.333,0.333,1","1",""
"","html-keyboard-response","217","77798","0.0-217.0","32AT8R96GMVRVMD35O1MO5J1EAFUS0","AK35CJJEYFVYK","36U4VBVNQOZD8NFWZXWF9CIHKRIURB","","null","<img src=""img/flower3.png"" style=""width:200px;border:14px solid red;"">","null","","","","","","","","",""
"","image-keyboard-response","218","78252","0.0-218.0","32AT8R96GMVRVMD35O1MO5J1EAFUS0","AK35CJJEYFVYK","36U4VBVNQOZD8NFWZXWF9CIHKRIURB","","453.5","img/flower5.png","75","454","2","1","2","1","1,0.333,0.333,0.333,1,0.333,0.333,0.333,1","1,0.333,0.333,0.333,1,0.333,0.333,0.333,1","1",""
"","html-keyboard-response","219","78554","0.0-219.0","32AT8R96GMVRVMD35O1MO5J1EAFUS0","AK35CJJEYFVYK","36U4VBVNQOZD8NFWZXWF9CIHKRIURB","","null","<img src=""img/flower5.png"" style=""width:200px; border:14px solid green;"">","null","","","","","","","","",""
"","image-keyboard-response","220","78741","0.0-220.0","32AT8R96GMVRVMD35O1MO5J1EAFUS0","AK35CJJEYFVYK","36U4VBVNQOZD8NFWZXWF9CIHKRIURB","","187.30000001192093","img/flower6.png","75","187.69999998807907","2","1","3","1","1,0.333,0.333,0.333,1,0.333,0.333,0.333,1","1,0.333,0.333,0.333,1,0.333,0.333,0.333,1","1",""
"","html-keyboard-response","221","79042","0.0-221.0","32AT8R96GMVRVMD35O1MO5J1EAFUS0","AK35CJJEYFVYK","36U4VBVNQOZD8NFWZXWF9CIHKRIURB","","null","<img src=""img/flower6.png"" style=""width:200px; border:14px solid green;"">","null","","","","","","","","",""
"","image-keyboard-response","222","79230","0.0-222.0","32AT8R96GMVRVMD35O1MO5J1EAFUS0","AK35CJJEYFVYK","36U4VBVNQOZD8NFWZXWF9CIHKRIURB","","186.7999999821186","img/flower6.png","75","187.19999998807907","2","0","3","1","1,0.333,0.333,0.333,1,0.333,0.333,0.333,1","1,0.333,0.333,0.333,1,0.333,0.333,0.333,1","1",""
"","html-keyboard-response","223","79530","0.0-223.0","32AT8R96GMVRVMD35O1MO5J1EAFUS0","AK35CJJEYFVYK","36U4VBVNQOZD8NFWZXWF9CIHKRIURB","","null","<img src=""img/flower6.png"" style=""width:200px;border:14px solid red;"">","null","","","","","","","","",""
"","image-keyboard-response","224","79793","0.0-224.0","32AT8R96GMVRVMD35O1MO5J1EAFUS0","AK35CJJEYFVYK","36U4VBVNQOZD8NFWZXWF9CIHKRIURB","","262.59999999403954","img/flower5.png","76","262.80000001192093","3","1","2","1","1,0.333,0.333,0.333,1,0.333,0.333,0.333,1","1,0.333,0.333,0.333,1,0.333,0.333,0.333,1","1",""
"","html-keyboard-response","225","80094","0.0-225.0","32AT8R96GMVRVMD35O1MO5J1EAFUS0","AK35CJJEYFVYK","36U4VBVNQOZD8NFWZXWF9CIHKRIURB","","null","<img src=""img/flower5.png"" style=""width:200px; border:14px solid green;"">","null","","","","","","","","",""
"","image-keyboard-response","226","80555","0.0-226.0","32AT8R96GMVRVMD35O1MO5J1EAFUS0","AK35CJJEYFVYK","36U4VBVNQOZD8NFWZXWF9CIHKRIURB","","461.30000001192093","img/flower3.png","75","461.59999999403954","2","0","1","1","1,0.333,0.333,0.333,1,0.333,0.333,0.333,1","1,0.333,0.333,0.333,1,0.333,0.333,0.333,1","1",""
"","html-keyboard-response","227","80856","0.0-227.0","32AT8R96GMVRVMD35O1MO5J1EAFUS0","AK35CJJEYFVYK","36U4VBVNQOZD8NFWZXWF9CIHKRIURB","","null","<img src=""img/flower3.png"" style=""width:200px;border:14px solid red;"">","null","","","","","","","","",""
"","image-keyboard-response","228","81154","0.0-228.0","32AT8R96GMVRVMD35O1MO5J1EAFUS0","AK35CJJEYFVYK","36U4VBVNQOZD8NFWZXWF9CIHKRIURB","","297.7000000178814","img/flower3.png","75","298","2","0","1","1","1,0.333,0.333,0.333,1,0.333,0.333,0.333,1","1,0.333,0.333,0.333,1,0.333,0.333,0.333,1","1",""
"","html-keyboard-response","229","81456","0.0-229.0","32AT8R96GMVRVMD35O1MO5J1EAFUS0","AK35CJJEYFVYK","36U4VBVNQOZD8NFWZXWF9CIHKRIURB","","null","<img src=""img/flower3.png"" style=""width:200px;border:14px solid red;"">","null","","","","","","","","",""
"","image-keyboard-response","230","81971","0.0-230.0","32AT8R96GMVRVMD35O1MO5J1EAFUS0","AK35CJJEYFVYK","36U4VBVNQOZD8NFWZXWF9CIHKRIURB","","515.2000000178814","img/flower6.png","76","515.5","3","1","3","1","1,0.333,0.333,0.333,1,0.333,0.333,0.333,1","1,0.333,0.333,0.333,1,0.333,0.333,0.333,1","1",""
"","html-keyboard-response","231","82272","0.0-231.0","32AT8R96GMVRVMD35O1MO5J1EAFUS0","AK35CJJEYFVYK","36U4VBVNQOZD8NFWZXWF9CIHKRIURB","","null","<img src=""img/flower6.png"" style=""width:200px; border:14px solid green;"">","null","","","","","","","","",""
"","image-keyboard-response","232","82700","0.0-232.0","32AT8R96GMVRVMD35O1MO5J1EAFUS0","AK35CJJEYFVYK","36U4VBVNQOZD8NFWZXWF9CIHKRIURB","","427.90000000596046","img/flower5.png","75","428.2000000178814","2","1","2","1","1,0.333,0.333,0.333,1,0.333,0.333,0.333,1","1,0.333,0.333,0.333,1,0.333,0.333,0.333,1","1",""
"","html-keyboard-response","233","83001","0.0-233.0","32AT8R96GMVRVMD35O1MO5J1EAFUS0","AK35CJJEYFVYK","36U4VBVNQOZD8NFWZXWF9CIHKRIURB","","null","<img src=""img/flower5.png"" style=""width:200px; border:14px solid green;"">","null","","","","","","","","",""
"","image-keyboard-response","234","83239","0.0-234.0","32AT8R96GMVRVMD35O1MO5J1EAFUS0","AK35CJJEYFVYK","36U4VBVNQOZD8NFWZXWF9CIHKRIURB","","237.90000000596046","img/flower6.png","75","238.30000001192093","2","0","3","1","1,0.333,0.333,0.333,1,0.333,0.333,0.333,1","1,0.333,0.333,0.333,1,0.333,0.333,0.333,1","1",""
"","html-keyboard-response","235","83540","0.0-235.0","32AT8R96GMVRVMD35O1MO5J1EAFUS0","AK35CJJEYFVYK","36U4VBVNQOZD8NFWZXWF9CIHKRIURB","","null","<img src=""img/flower6.png"" style=""width:200px;border:14px solid red;"">","null","","","","","","","","",""
"","image-keyboard-response","236","84308","0.0-236.0","32AT8R96GMVRVMD35O1MO5J1EAFUS0","AK35CJJEYFVYK","36U4VBVNQOZD8NFWZXWF9CIHKRIURB","","767.5","img/flower3.png","75","767.9000000059605","2","0","1","1","1,0.333,0.333,0.333,1,0.333,0.333,0.333,1","1,0.333,0.333,0.333,1,0.333,0.333,0.333,1","1",""
"","html-keyboard-response","237","84610","0.0-237.0","32AT8R96GMVRVMD35O1MO5J1EAFUS0","AK35CJJEYFVYK","36U4VBVNQOZD8NFWZXWF9CIHKRIURB","","null","<img src=""img/flower3.png"" style=""width:200px;border:14px solid red;"">","null","","","","","","","","",""
"","image-keyboard-response","238","84710","0.0-238.0","32AT8R96GMVRVMD35O1MO5J1EAFUS0","AK35CJJEYFVYK","36U4VBVNQOZD8NFWZXWF9CIHKRIURB","","100.40000000596046","img/flower3.png","74","100.69999998807907","1","1","1","1","1,0.333,0.333,0.333,1,0.333,0.333,0.333,1","1,0.333,0.333,0.333,1,0.333,0.333,0.333,1","1",""
"","html-keyboard-response","239","85012","0.0-239.0","32AT8R96GMVRVMD35O1MO5J1EAFUS0","AK35CJJEYFVYK","36U4VBVNQOZD8NFWZXWF9CIHKRIURB","","null","<img src=""img/flower3.png"" style=""width:200px; border:14px solid green;"">","null","","","","","","","","",""
"","image-keyboard-response","240","85302","0.0-240.0","32AT8R96GMVRVMD35O1MO5J1EAFUS0","AK35CJJEYFVYK","36U4VBVNQOZD8NFWZXWF9CIHKRIURB","","289.59999999403954","img/flower6.png","76","289.90000000596046","3","1","3","1","1,0.333,0.333,0.333,1,0.333,0.333,0.333,1","1,0.333,0.333,0.333,1,0.333,0.333,0.333,1","1",""
"","html-keyboard-response","241","85604","0.0-241.0","32AT8R96GMVRVMD35O1MO5J1EAFUS0","AK35CJJEYFVYK","36U4VBVNQOZD8NFWZXWF9CIHKRIURB","","null","<img src=""img/flower6.png"" style=""width:200px; border:14px solid green;"">","null","","","","","","","","",""
"","image-keyboard-response","242","85907","0.0-242.0","32AT8R96GMVRVMD35O1MO5J1EAFUS0","AK35CJJEYFVYK","36U4VBVNQOZD8NFWZXWF9CIHKRIURB","","303.30000001192093","img/flower6.png","76","303.7999999821186","3","1","3","1","1,0.333,0.333,0.333,1,0.333,0.333,0.333,1","1,0.333,0.333,0.333,1,0.333,0.333,0.333,1","1",""
"","html-keyboard-response","243","86209","0.0-243.0","32AT8R96GMVRVMD35O1MO5J1EAFUS0","AK35CJJEYFVYK","36U4VBVNQOZD8NFWZXWF9CIHKRIURB","","null","<img src=""img/flower6.png"" style=""width:200px; border:14px solid green;"">","null","","","","","","","","",""
"","image-keyboard-response","244","86840","0.0-244.0","32AT8R96GMVRVMD35O1MO5J1EAFUS0","AK35CJJEYFVYK","36U4VBVNQOZD8NFWZXWF9CIHKRIURB","","631","img/flower3.png","74","631.3000000119209","1","1","1","1","1,0.333,0.333,0.333,1,0.333,0.333,0.333,1","1,0.333,0.333,0.333,1,0.333,0.333,0.333,1","1",""
"","html-keyboard-response","245","87141","0.0-245.0","32AT8R96GMVRVMD35O1MO5J1EAFUS0","AK35CJJEYFVYK","36U4VBVNQOZD8NFWZXWF9CIHKRIURB","","null","<img src=""img/flower3.png"" style=""width:200px; border:14px solid green;"">","null","","","","","","","","",""
"","image-keyboard-response","246","87680","0.0-246.0","32AT8R96GMVRVMD35O1MO5J1EAFUS0","AK35CJJEYFVYK","36U4VBVNQOZD8NFWZXWF9CIHKRIURB","","538.9000000059605","img/flower6.png","76","539.3000000119209","3","1","3","1","1,0.333,0.333,0.333,1,0.333,0.333,0.333,1","1,0.333,0.333,0.333,1,0.333,0.333,0.333,1","1",""
"","html-keyboard-response","247","87982","0.0-247.0","32AT8R96GMVRVMD35O1MO5J1EAFUS0","AK35CJJEYFVYK","36U4VBVNQOZD8NFWZXWF9CIHKRIURB","","null","<img src=""img/flower6.png"" style=""width:200px; border:14px solid green;"">","null","","","","","","","","",""
"","image-keyboard-response","248","88509","0.0-248.0","32AT8R96GMVRVMD35O1MO5J1EAFUS0","AK35CJJEYFVYK","36U4VBVNQOZD8NFWZXWF9CIHKRIURB","","527.4000000059605","img/flower3.png","74","527.7999999821186","1","1","1","1","1,0.333,0.333,0.333,1,0.333,0.333,0.333,1","1,0.333,0.333,0.333,1,0.333,0.333,0.333,1","1",""
"","html-keyboard-response","249","88810","0.0-249.0","32AT8R96GMVRVMD35O1MO5J1EAFUS0","AK35CJJEYFVYK","36U4VBVNQOZD8NFWZXWF9CIHKRIURB","","null","<img src=""img/flower3.png"" style=""width:200px; border:14px solid green;"">","null","","","","","","","","",""
"","image-keyboard-response","250","89461","0.0-250.0","32AT8R96GMVRVMD35O1MO5J1EAFUS0","AK35CJJEYFVYK","36U4VBVNQOZD8NFWZXWF9CIHKRIURB","","650.7000000178814","img/flower5.png","75","651.0999999940395","2","1","2","1","1,0.333,0.333,0.333,1,0.333,0.333,0.333,1","1,0.333,0.333,0.333,1,0.333,0.333,0.333,1","1",""
"","html-keyboard-response","251","89762","0.0-251.0","32AT8R96GMVRVMD35O1MO5J1EAFUS0","AK35CJJEYFVYK","36U4VBVNQOZD8NFWZXWF9CIHKRIURB","","null","<img src=""img/flower5.png"" style=""width:200px; border:14px solid green;"">","null","","","","","","","","",""
"","image-keyboard-response","252","90325","0.0-252.0","32AT8R96GMVRVMD35O1MO5J1EAFUS0","AK35CJJEYFVYK","36U4VBVNQOZD8NFWZXWF9CIHKRIURB","","562.5","img/flower3.png","74","562.8000000119209","1","1","1","1","1,0.333,0.333,0.333,1,0.333,0.333,0.333,1","1,0.333,0.333,0.333,1,0.333,0.333,0.333,1","1",""
"","html-keyboard-response","253","90627","0.0-253.0","32AT8R96GMVRVMD35O1MO5J1EAFUS0","AK35CJJEYFVYK","36U4VBVNQOZD8NFWZXWF9CIHKRIURB","","null","<img src=""img/flower3.png"" style=""width:200px; border:14px solid green;"">","null","","","","","","","","",""
"","image-keyboard-response","254","91098","0.0-254.0","32AT8R96GMVRVMD35O1MO5J1EAFUS0","AK35CJJEYFVYK","36U4VBVNQOZD8NFWZXWF9CIHKRIURB","","471.30000001192093","img/flower6.png","75","471.59999999403954","2","0","3","1","1,0.333,0.333,0.333,1,0.333,0.333,0.333,1","1,0.333,0.333,0.333,1,0.333,0.333,0.333,1","1",""
"","html-keyboard-response","255","91400","0.0-255.0","32AT8R96GMVRVMD35O1MO5J1EAFUS0","AK35CJJEYFVYK","36U4VBVNQOZD8NFWZXWF9CIHKRIURB","","null","<img src=""img/flower6.png"" style=""width:200px;border:14px solid red;"">","null","","","","","","","","",""
"","image-keyboard-response","256","91514","0.0-256.0","32AT8R96GMVRVMD35O1MO5J1EAFUS0","AK35CJJEYFVYK","36U4VBVNQOZD8NFWZXWF9CIHKRIURB","","114.30000001192093","img/flower5.png","76","114.69999998807907","3","1","2","1","1,0.333,0.333,0.333,1,0.333,0.333,0.333,1","1,0.333,0.333,0.333,1,0.333,0.333,0.333,1","1",""
"","html-keyboard-response","257","91815","0.0-257.0","32AT8R96GMVRVMD35O1MO5J1EAFUS0","AK35CJJEYFVYK","36U4VBVNQOZD8NFWZXWF9CIHKRIURB","","null","<img src=""img/flower5.png"" style=""width:200px; border:14px solid green;"">","null","","","","","","","","",""
"","image-keyboard-response","258","92200","0.0-258.0","32AT8R96GMVRVMD35O1MO5J1EAFUS0","AK35CJJEYFVYK","36U4VBVNQOZD8NFWZXWF9CIHKRIURB","","384.60000002384186","img/flower3.png","74","385.19999998807907","1","1","1","1","1,0.333,0.333,0.333,1,0.333,0.333,0.333,1","1,0.333,0.333,0.333,1,0.333,0.333,0.333,1","1",""
"","html-keyboard-response","259","92501","0.0-259.0","32AT8R96GMVRVMD35O1MO5J1EAFUS0","AK35CJJEYFVYK","36U4VBVNQOZD8NFWZXWF9CIHKRIURB","","null","<img src=""img/flower3.png"" style=""width:200px; border:14px solid green;"">","null","","","","","","","","",""
"","image-keyboard-response","260","92992","0.0-260.0","32AT8R96GMVRVMD35O1MO5J1EAFUS0","AK35CJJEYFVYK","36U4VBVNQOZD8NFWZXWF9CIHKRIURB","","490.7000000178814","img/flower5.png","76","491","3","0","2","1","1,0.333,0.333,0.333,1,0.333,0.333,0.333,1","1,0.333,0.333,0.333,1,0.333,0.333,0.333,1","1",""
"","html-keyboard-response","261","93294","0.0-261.0","32AT8R96GMVRVMD35O1MO5J1EAFUS0","AK35CJJEYFVYK","36U4VBVNQOZD8NFWZXWF9CIHKRIURB","","null","<img src=""img/flower5.png"" style=""width:200px;border:14px solid red;"">","null","","","","","","","","",""
"","image-keyboard-response","262","93760","0.0-262.0","32AT8R96GMVRVMD35O1MO5J1EAFUS0","AK35CJJEYFVYK","36U4VBVNQOZD8NFWZXWF9CIHKRIURB","","465.40000000596046","img/flower6.png","75","465.7999999821186","2","0","3","1","1,0.333,0.333,0.333,1,0.333,0.333,0.333,1","1,0.333,0.333,0.333,1,0.333,0.333,0.333,1","1",""
"","html-keyboard-response","263","94061","0.0-263.0","32AT8R96GMVRVMD35O1MO5J1EAFUS0","AK35CJJEYFVYK","36U4VBVNQOZD8NFWZXWF9CIHKRIURB","","null","<img src=""img/flower6.png"" style=""width:200px;border:14px solid red;"">","null","","","","","","","","",""
"","image-keyboard-response","264","94122","0.0-264.0","32AT8R96GMVRVMD35O1MO5J1EAFUS0","AK35CJJEYFVYK","36U4VBVNQOZD8NFWZXWF9CIHKRIURB","","61.30000001192093","img/flower6.png","76","61.5","3","1","3","1","1,0.333,0.333,0.333,1,0.333,0.333,0.333,1","1,0.333,0.333,0.333,1,0.333,0.333,0.333,1","1",""
"","html-keyboard-response","265","94438","0.0-265.0","32AT8R96GMVRVMD35O1MO5J1EAFUS0","AK35CJJEYFVYK","36U4VBVNQOZD8NFWZXWF9CIHKRIURB","","null","<img src=""img/flower6.png"" style=""width:200px; border:14px solid green;"">","null","","","","","","","","",""
"","image-keyboard-response","266","94635","0.0-266.0","32AT8R96GMVRVMD35O1MO5J1EAFUS0","AK35CJJEYFVYK","36U4VBVNQOZD8NFWZXWF9CIHKRIURB","","197","img/flower6.png","76","197.40000000596046","3","1","3","1","1,0.333,0.333,0.333,1,0.333,0.333,0.333,1","1,0.333,0.333,0.333,1,0.333,0.333,0.333,1","1",""
"","html-keyboard-response","267","94936","0.0-267.0","32AT8R96GMVRVMD35O1MO5J1EAFUS0","AK35CJJEYFVYK","36U4VBVNQOZD8NFWZXWF9CIHKRIURB","","null","<img src=""img/flower6.png"" style=""width:200px; border:14px solid green;"">","null","","","","","","","","",""
"","image-keyboard-response","268","95660","0.0-268.0","32AT8R96GMVRVMD35O1MO5J1EAFUS0","AK35CJJEYFVYK","36U4VBVNQOZD8NFWZXWF9CIHKRIURB","","723.5999999940395","img/flower5.png","75","724","2","1","2","1","1,0.333,0.333,0.333,1,0.333,0.333,0.333,1","1,0.333,0.333,0.333,1,0.333,0.333,0.333,1","1",""
"","html-keyboard-response","269","95961","0.0-269.0","32AT8R96GMVRVMD35O1MO5J1EAFUS0","AK35CJJEYFVYK","36U4VBVNQOZD8NFWZXWF9CIHKRIURB","","null","<img src=""img/flower5.png"" style=""width:200px; border:14px solid green;"">","null","","","","","","","","",""
"","image-keyboard-response","270","96524","0.0-270.0","32AT8R96GMVRVMD35O1MO5J1EAFUS0","AK35CJJEYFVYK","36U4VBVNQOZD8NFWZXWF9CIHKRIURB","","563","img/flower6.png","76","563.2999999821186","3","1","3","1","1,0.333,0.333,0.333,1,0.333,0.333,0.333,1","1,0.333,0.333,0.333,1,0.333,0.333,0.333,1","1",""
"","html-keyboard-response","271","96826","0.0-271.0","32AT8R96GMVRVMD35O1MO5J1EAFUS0","AK35CJJEYFVYK","36U4VBVNQOZD8NFWZXWF9CIHKRIURB","","null","<img src=""img/flower6.png"" style=""width:200px; border:14px solid green;"">","null","","","","","","","","",""
"","image-keyboard-response","272","97386","0.0-272.0","32AT8R96GMVRVMD35O1MO5J1EAFUS0","AK35CJJEYFVYK","36U4VBVNQOZD8NFWZXWF9CIHKRIURB","","560.4000000059605","img/flower3.png","74","560.8000000119209","1","1","1","1","1,0.333,0.333,0.333,1,0.333,0.333,0.333,1","1,0.333,0.333,0.333,1,0.333,0.333,0.333,1","1",""
"","html-keyboard-response","273","97687","0.0-273.0","32AT8R96GMVRVMD35O1MO5J1EAFUS0","AK35CJJEYFVYK","36U4VBVNQOZD8NFWZXWF9CIHKRIURB","","null","<img src=""img/flower3.png"" style=""width:200px; border:14px solid green;"">","null","","","","","","","","",""
"","image-keyboard-response","274","98340","0.0-274.0","32AT8R96GMVRVMD35O1MO5J1EAFUS0","AK35CJJEYFVYK","36U4VBVNQOZD8NFWZXWF9CIHKRIURB","","652.5","img/flower5.png","76","652.9000000059605","3","0","2","1","1,0.333,0.333,0.333,1,0.333,0.333,0.333,1","1,0.333,0.333,0.333,1,0.333,0.333,0.333,1","1",""
"","html-keyboard-response","275","98641","0.0-275.0","32AT8R96GMVRVMD35O1MO5J1EAFUS0","AK35CJJEYFVYK","36U4VBVNQOZD8NFWZXWF9CIHKRIURB","","null","<img src=""img/flower5.png"" style=""width:200px;border:14px solid red;"">","null","","","","","","","","",""
"","image-keyboard-response","276","98807","0.0-276.0","32AT8R96GMVRVMD35O1MO5J1EAFUS0","AK35CJJEYFVYK","36U4VBVNQOZD8NFWZXWF9CIHKRIURB","","165.5","img/flower6.png","75","165.80000001192093","2","1","3","1","1,0.333,0.333,0.333,1,0.333,0.333,0.333,1","1,0.333,0.333,0.333,1,0.333,0.333,0.333,1","1",""
"","html-keyboard-response","277","99109","0.0-277.0","32AT8R96GMVRVMD35O1MO5J1EAFUS0","AK35CJJEYFVYK","36U4VBVNQOZD8NFWZXWF9CIHKRIURB","","null","<img src=""img/flower6.png"" style=""width:200px; border:14px solid green;"">","null","","","","","","","","",""
"","image-keyboard-response","278","99574","0.0-278.0","32AT8R96GMVRVMD35O1MO5J1EAFUS0","AK35CJJEYFVYK","36U4VBVNQOZD8NFWZXWF9CIHKRIURB","","465.09999999403954","img/flower5.png","76","465.59999999403954","3","0","2","1","1,0.333,0.333,0.333,1,0.333,0.333,0.333,1","1,0.333,0.333,0.333,1,0.333,0.333,0.333,1","1",""
"","html-keyboard-response","279","99875","0.0-279.0","32AT8R96GMVRVMD35O1MO5J1EAFUS0","AK35CJJEYFVYK","36U4VBVNQOZD8NFWZXWF9CIHKRIURB","","null","<img src=""img/flower5.png"" style=""width:200px;border:14px solid red;"">","null","","","","","","","","",""
"","image-keyboard-response","280","100031","0.0-280.0","32AT8R96GMVRVMD35O1MO5J1EAFUS0","AK35CJJEYFVYK","36U4VBVNQOZD8NFWZXWF9CIHKRIURB","","155.5","img/flower3.png","75","155.80000001192093","2","1","1","1","1,0.333,0.333,0.333,1,0.333,0.333,0.333,1","1,0.333,0.333,0.333,1,0.333,0.333,0.333,1","1",""
"","html-keyboard-response","281","100332","0.0-281.0","32AT8R96GMVRVMD35O1MO5J1EAFUS0","AK35CJJEYFVYK","36U4VBVNQOZD8NFWZXWF9CIHKRIURB","","null","<img src=""img/flower3.png"" style=""width:200px; border:14px solid green;"">","null","","","","","","","","",""
"","image-keyboard-response","282","100649","0.0-282.0","32AT8R96GMVRVMD35O1MO5J1EAFUS0","AK35CJJEYFVYK","36U4VBVNQOZD8NFWZXWF9CIHKRIURB","","316.5","img/flower3.png","75","316.80000001192093","2","0","1","1","1,0.333,0.333,0.333,1,0.333,0.333,0.333,1","1,0.333,0.333,0.333,1,0.333,0.333,0.333,1","1",""
"","html-keyboard-response","283","100962","0.0-283.0","32AT8R96GMVRVMD35O1MO5J1EAFUS0","AK35CJJEYFVYK","36U4VBVNQOZD8NFWZXWF9CIHKRIURB","","null","<img src=""img/flower3.png"" style=""width:200px;border:14px solid red;"">","null","","","","","","","","",""
"","image-keyboard-response","284","101039","0.0-284.0","32AT8R96GMVRVMD35O1MO5J1EAFUS0","AK35CJJEYFVYK","36U4VBVNQOZD8NFWZXWF9CIHKRIURB","","76.5","img/flower5.png","74","76.90000000596046","1","0","2","1","1,0.333,0.333,0.333,1,0.333,0.333,0.333,1","1,0.333,0.333,0.333,1,0.333,0.333,0.333,1","1",""
"","html-keyboard-response","285","101341","0.0-285.0","32AT8R96GMVRVMD35O1MO5J1EAFUS0","AK35CJJEYFVYK","36U4VBVNQOZD8NFWZXWF9CIHKRIURB","","null","<img src=""img/flower5.png"" style=""width:200px;border:14px solid red;"">","null","","","","","","","","",""
"","image-keyboard-response","286","101527","0.0-286.0","32AT8R96GMVRVMD35O1MO5J1EAFUS0","AK35CJJEYFVYK","36U4VBVNQOZD8NFWZXWF9CIHKRIURB","","185.80000001192093","img/flower5.png","76","186.19999998807907","3","1","2","1","1,0.333,0.333,0.333,1,0.333,0.333,0.333,1","1,0.333,0.333,0.333,1,0.333,0.333,0.333,1","1",""
"","html-keyboard-response","287","101828","0.0-287.0","32AT8R96GMVRVMD35O1MO5J1EAFUS0","AK35CJJEYFVYK","36U4VBVNQOZD8NFWZXWF9CIHKRIURB","","null","<img src=""img/flower5.png"" style=""width:200px; border:14px solid green;"">","null","","","","","","","","",""
"","image-keyboard-response","288","101929","0.0-288.0","32AT8R96GMVRVMD35O1MO5J1EAFUS0","AK35CJJEYFVYK","36U4VBVNQOZD8NFWZXWF9CIHKRIURB","","100.5","img/flower3.png","76","100.80000001192093","3","1","1","1","1,0.333,0.333,0.333,1,0.333,0.333,0.333,1","1,0.333,0.333,0.333,1,0.333,0.333,0.333,1","1",""
"","html-keyboard-response","289","102230","0.0-289.0","32AT8R96GMVRVMD35O1MO5J1EAFUS0","AK35CJJEYFVYK","36U4VBVNQOZD8NFWZXWF9CIHKRIURB","","null","<img src=""img/flower3.png"" style=""width:200px; border:14px solid green;"">","null","","","","","","","","",""
"","image-keyboard-response","290","102383","0.0-290.0","32AT8R96GMVRVMD35O1MO5J1EAFUS0","AK35CJJEYFVYK","36U4VBVNQOZD8NFWZXWF9CIHKRIURB","","152.5","img/flower6.png","76","152.90000000596046","3","1","3","1","1,0.333,0.333,0.333,1,0.333,0.333,0.333,1","1,0.333,0.333,0.333,1,0.333,0.333,0.333,1","1",""
"","html-keyboard-response","291","102685","0.0-291.0","32AT8R96GMVRVMD35O1MO5J1EAFUS0","AK35CJJEYFVYK","36U4VBVNQOZD8NFWZXWF9CIHKRIURB","","null","<img src=""img/flower6.png"" style=""width:200px; border:14px solid green;"">","null","","","","","","","","",""
"","image-keyboard-response","292","102904","0.0-292.0","32AT8R96GMVRVMD35O1MO5J1EAFUS0","AK35CJJEYFVYK","36U4VBVNQOZD8NFWZXWF9CIHKRIURB","","219","img/flower5.png","76","219.2000000178814","3","0","2","1","1,0.333,0.333,0.333,1,0.333,0.333,0.333,1","1,0.333,0.333,0.333,1,0.333,0.333,0.333,1","1",""
"","html-keyboard-response","293","103206","0.0-293.0","32AT8R96GMVRVMD35O1MO5J1EAFUS0","AK35CJJEYFVYK","36U4VBVNQOZD8NFWZXWF9CIHKRIURB","","null","<img src=""img/flower5.png"" style=""width:200px;border:14px solid red;"">","null","","","","","","","","",""
"","image-keyboard-response","294","103340","0.0-294.0","32AT8R96GMVRVMD35O1MO5J1EAFUS0","AK35CJJEYFVYK","36U4VBVNQOZD8NFWZXWF9CIHKRIURB","","134.2000000178814","img/flower5.png","75","134.5","2","1","2","1","1,0.333,0.333,0.333,1,0.333,0.333,0.333,1","1,0.333,0.333,0.333,1,0.333,0.333,0.333,1","1",""
"","html-keyboard-response","295","103641","0.0-295.0","32AT8R96GMVRVMD35O1MO5J1EAFUS0","AK35CJJEYFVYK","36U4VBVNQOZD8NFWZXWF9CIHKRIURB","","null","<img src=""img/flower5.png"" style=""width:200px; border:14px solid green;"">","null","","","","","","","","",""
"","image-keyboard-response","296","103832","0.0-296.0","32AT8R96GMVRVMD35O1MO5J1EAFUS0","AK35CJJEYFVYK","36U4VBVNQOZD8NFWZXWF9CIHKRIURB","","190.40000000596046","img/flower5.png","75","190.80000001192093","2","1","2","1","1,0.333,0.333,0.333,1,0.333,0.333,0.333,1","1,0.333,0.333,0.333,1,0.333,0.333,0.333,1","1",""
"","html-keyboard-response","297","104134","0.0-297.0","32AT8R96GMVRVMD35O1MO5J1EAFUS0","AK35CJJEYFVYK","36U4VBVNQOZD8NFWZXWF9CIHKRIURB","","null","<img src=""img/flower5.png"" style=""width:200px; border:14px solid green;"">","null","","","","","","","","",""
"","image-keyboard-response","298","104305","0.0-298.0","32AT8R96GMVRVMD35O1MO5J1EAFUS0","AK35CJJEYFVYK","36U4VBVNQOZD8NFWZXWF9CIHKRIURB","","171.30000001192093","img/flower6.png","75","171.69999998807907","2","1","3","1","1,0.333,0.333,0.333,1,0.333,0.333,0.333,1","1,0.333,0.333,0.333,1,0.333,0.333,0.333,1","1",""
"","html-keyboard-response","299","104606","0.0-299.0","32AT8R96GMVRVMD35O1MO5J1EAFUS0","AK35CJJEYFVYK","36U4VBVNQOZD8NFWZXWF9CIHKRIURB","","null","<img src=""img/flower6.png"" style=""width:200px; border:14px solid green;"">","null","","","","","","","","",""
"","image-keyboard-response","300","104883","0.0-300.0","32AT8R96GMVRVMD35O1MO5J1EAFUS0","AK35CJJEYFVYK","36U4VBVNQOZD8NFWZXWF9CIHKRIURB","","276.80000001192093","img/flower5.png","75","277.09999999403954","2","1","2","1","1,0.333,0.333,0.333,1,0.333,0.333,0.333,1","1,0.333,0.333,0.333,1,0.333,0.333,0.333,1","1",""
"","html-keyboard-response","301","105184","0.0-301.0","32AT8R96GMVRVMD35O1MO5J1EAFUS0","AK35CJJEYFVYK","36U4VBVNQOZD8NFWZXWF9CIHKRIURB","","null","<img src=""img/flower5.png"" style=""width:200px; border:14px solid green;"">","null","","","","","","","","",""
"","image-keyboard-response","302","105346","0.0-302.0","32AT8R96GMVRVMD35O1MO5J1EAFUS0","AK35CJJEYFVYK","36U4VBVNQOZD8NFWZXWF9CIHKRIURB","","161.5","img/flower3.png","75","162","2","0","1","1","1,0.333,0.333,0.333,1,0.333,0.333,0.333,1","1,0.333,0.333,0.333,1,0.333,0.333,0.333,1","1",""
"","html-keyboard-response","303","105649","0.0-303.0","32AT8R96GMVRVMD35O1MO5J1EAFUS0","AK35CJJEYFVYK","36U4VBVNQOZD8NFWZXWF9CIHKRIURB","","null","<img src=""img/flower3.png"" style=""width:200px;border:14px solid red;"">","null","","","","","","","","",""
"","image-keyboard-response","304","105843","0.0-304.0","32AT8R96GMVRVMD35O1MO5J1EAFUS0","AK35CJJEYFVYK","36U4VBVNQOZD8NFWZXWF9CIHKRIURB","","194","img/flower5.png","74","194.40000000596046","1","0","2","1","1,0.333,0.333,0.333,1,0.333,0.333,0.333,1","1,0.333,0.333,0.333,1,0.333,0.333,0.333,1","1",""
"","html-keyboard-response","305","106144","0.0-305.0","32AT8R96GMVRVMD35O1MO5J1EAFUS0","AK35CJJEYFVYK","36U4VBVNQOZD8NFWZXWF9CIHKRIURB","","null","<img src=""img/flower5.png"" style=""width:200px;border:14px solid red;"">","null","","","","","","","","",""
"","image-keyboard-response","306","106305","0.0-306.0","32AT8R96GMVRVMD35O1MO5J1EAFUS0","AK35CJJEYFVYK","36U4VBVNQOZD8NFWZXWF9CIHKRIURB","","160.40000000596046","img/flower5.png","76","160.80000001192093","3","1","2","1","1,0.333,0.333,0.333,1,0.333,0.333,0.333,1","1,0.333,0.333,0.333,1,0.333,0.333,0.333,1","1",""
"","html-keyboard-response","307","106609","0.0-307.0","32AT8R96GMVRVMD35O1MO5J1EAFUS0","AK35CJJEYFVYK","36U4VBVNQOZD8NFWZXWF9CIHKRIURB","","null","<img src=""img/flower5.png"" style=""width:200px; border:14px solid green;"">","null","","","","","","","","",""
"","image-keyboard-response","308","106811","0.0-308.0","32AT8R96GMVRVMD35O1MO5J1EAFUS0","AK35CJJEYFVYK","36U4VBVNQOZD8NFWZXWF9CIHKRIURB","","201.5","img/flower5.png","76","201.90000000596046","3","0","2","1","1,0.333,0.333,0.333,1,0.333,0.333,0.333,1","1,0.333,0.333,0.333,1,0.333,0.333,0.333,1","1",""
"","html-keyboard-response","309","107112","0.0-309.0","32AT8R96GMVRVMD35O1MO5J1EAFUS0","AK35CJJEYFVYK","36U4VBVNQOZD8NFWZXWF9CIHKRIURB","","null","<img src=""img/flower5.png"" style=""width:200px;border:14px solid red;"">","null","","","","","","","","",""
"","image-keyboard-response","310","107285","0.0-310.0","32AT8R96GMVRVMD35O1MO5J1EAFUS0","AK35CJJEYFVYK","36U4VBVNQOZD8NFWZXWF9CIHKRIURB","","172.5","img/flower6.png","75","173","2","1","3","1","1,0.333,0.333,0.333,1,0.333,0.333,0.333,1","1,0.333,0.333,0.333,1,0.333,0.333,0.333,1","1",""
"","html-keyboard-response","311","107586","0.0-311.0","32AT8R96GMVRVMD35O1MO5J1EAFUS0","AK35CJJEYFVYK","36U4VBVNQOZD8NFWZXWF9CIHKRIURB","","null","<img src=""img/flower6.png"" style=""width:200px; border:14px solid green;"">","null","","","","","","","","",""
"","image-keyboard-response","312","107804","0.0-312.0","32AT8R96GMVRVMD35O1MO5J1EAFUS0","AK35CJJEYFVYK","36U4VBVNQOZD8NFWZXWF9CIHKRIURB","","217.39999997615814","img/flower6.png","76","217.7000000178814","3","1","3","1","1,0.333,0.333,0.333,1,0.333,0.333,0.333,1","1,0.333,0.333,0.333,1,0.333,0.333,0.333,1","1",""
"","html-keyboard-response","313","108104","0.0-313.0","32AT8R96GMVRVMD35O1MO5J1EAFUS0","AK35CJJEYFVYK","36U4VBVNQOZD8NFWZXWF9CIHKRIURB","","null","<img src=""img/flower6.png"" style=""width:200px; border:14px solid green;"">","null","","","","","","","","",""
"","image-keyboard-response","314","108109","0.0-314.0","32AT8R96GMVRVMD35O1MO5J1EAFUS0","AK35CJJEYFVYK","36U4VBVNQOZD8NFWZXWF9CIHKRIURB","","4.5999999940395355","img/flower5.png","75","4.9000000059604645","2","1","2","1","1,0.333,0.333,0.333,1,0.333,0.333,0.333,1","1,0.333,0.333,0.333,1,0.333,0.333,0.333,1","1",""
"","html-keyboard-response","315","108411","0.0-315.0","32AT8R96GMVRVMD35O1MO5J1EAFUS0","AK35CJJEYFVYK","36U4VBVNQOZD8NFWZXWF9CIHKRIURB","","null","<img src=""img/flower5.png"" style=""width:200px; border:14px solid green;"">","null","","","","","","","","",""
"","image-keyboard-response","316","108603","0.0-316.0","32AT8R96GMVRVMD35O1MO5J1EAFUS0","AK35CJJEYFVYK","36U4VBVNQOZD8NFWZXWF9CIHKRIURB","","192.40000000596046","img/flower6.png","75","192.80000001192093","2","1","3","1","1,0.333,0.333,0.333,1,0.333,0.333,0.333,1","1,0.333,0.333,0.333,1,0.333,0.333,0.333,1","1",""
"","html-keyboard-response","317","108905","0.0-317.0","32AT8R96GMVRVMD35O1MO5J1EAFUS0","AK35CJJEYFVYK","36U4VBVNQOZD8NFWZXWF9CIHKRIURB","","null","<img src=""img/flower6.png"" style=""width:200px; border:14px solid green;"">","null","","","","","","","","",""
"","image-keyboard-response","318","108947","0.0-318.0","32AT8R96GMVRVMD35O1MO5J1EAFUS0","AK35CJJEYFVYK","36U4VBVNQOZD8NFWZXWF9CIHKRIURB","","42.10000002384186","img/flower6.png","76","42.5","3","1","3","1","1,0.333,0.333,0.333,1,0.333,0.333,0.333,1","1,0.333,0.333,0.333,1,0.333,0.333,0.333,1","1",""
"","html-keyboard-response","319","109248","0.0-319.0","32AT8R96GMVRVMD35O1MO5J1EAFUS0","AK35CJJEYFVYK","36U4VBVNQOZD8NFWZXWF9CIHKRIURB","","null","<img src=""img/flower6.png"" style=""width:200px; border:14px solid green;"">","null","","","","","","","","",""
"","image-keyboard-response","320","109341","0.0-320.0","32AT8R96GMVRVMD35O1MO5J1EAFUS0","AK35CJJEYFVYK","36U4VBVNQOZD8NFWZXWF9CIHKRIURB","","92.90000000596046","img/flower6.png","75","93.2000000178814","2","1","3","1","1,0.333,0.333,0.333,1,0.333,0.333,0.333,1","1,0.333,0.333,0.333,1,0.333,0.333,0.333,1","1",""
"","html-keyboard-response","321","109643","0.0-321.0","32AT8R96GMVRVMD35O1MO5J1EAFUS0","AK35CJJEYFVYK","36U4VBVNQOZD8NFWZXWF9CIHKRIURB","","null","<img src=""img/flower6.png"" style=""width:200px; border:14px solid green;"">","null","","","","","","","","",""
"","image-keyboard-response","322","109738","0.0-322.0","32AT8R96GMVRVMD35O1MO5J1EAFUS0","AK35CJJEYFVYK","36U4VBVNQOZD8NFWZXWF9CIHKRIURB","","95.40000000596046","img/flower5.png","76","95.80000001192093","3","1","2","1","1,0.333,0.333,0.333,1,0.333,0.333,0.333,1","1,0.333,0.333,0.333,1,0.333,0.333,0.333,1","1",""
"","html-keyboard-response","323","110040","0.0-323.0","32AT8R96GMVRVMD35O1MO5J1EAFUS0","AK35CJJEYFVYK","36U4VBVNQOZD8NFWZXWF9CIHKRIURB","","null","<img src=""img/flower5.png"" style=""width:200px; border:14px solid green;"">","null","","","","","","","","",""
"","image-keyboard-response","324","110301","0.0-324.0","32AT8R96GMVRVMD35O1MO5J1EAFUS0","AK35CJJEYFVYK","36U4VBVNQOZD8NFWZXWF9CIHKRIURB","","261.2000000178814","img/flower3.png","76","261.59999999403954","3","0","1","1","1,0.333,0.333,0.333,1,0.333,0.333,0.333,1","1,0.333,0.333,0.333,1,0.333,0.333,0.333,1","1",""
"","html-keyboard-response","325","110602","0.0-325.0","32AT8R96GMVRVMD35O1MO5J1EAFUS0","AK35CJJEYFVYK","36U4VBVNQOZD8NFWZXWF9CIHKRIURB","","null","<img src=""img/flower3.png"" style=""width:200px;border:14px solid red;"">","null","","","","","","","","",""
"","image-keyboard-response","326","110733","0.0-326.0","32AT8R96GMVRVMD35O1MO5J1EAFUS0","AK35CJJEYFVYK","36U4VBVNQOZD8NFWZXWF9CIHKRIURB","","130","img/flower6.png","74","130.39999997615814","1","1","3","1","1,0.333,0.333,0.333,1,0.333,0.333,0.333,1","1,0.333,0.333,0.333,1,0.333,0.333,0.333,1","1",""
"","html-keyboard-response","327","111034","0.0-327.0","32AT8R96GMVRVMD35O1MO5J1EAFUS0","AK35CJJEYFVYK","36U4VBVNQOZD8NFWZXWF9CIHKRIURB","","null","<img src=""img/flower6.png"" style=""width:200px; border:14px solid green;"">","null","","","","","","","","",""
"","image-keyboard-response","328","111325","0.0-328.0","32AT8R96GMVRVMD35O1MO5J1EAFUS0","AK35CJJEYFVYK","36U4VBVNQOZD8NFWZXWF9CIHKRIURB","","291.30000001192093","img/flower5.png","76","291.5","3","1","2","1","1,0.333,0.333,0.333,1,0.333,0.333,0.333,1","1,0.333,0.333,0.333,1,0.333,0.333,0.333,1","1",""
"","html-keyboard-response","329","111637","0.0-329.0","32AT8R96GMVRVMD35O1MO5J1EAFUS0","AK35CJJEYFVYK","36U4VBVNQOZD8NFWZXWF9CIHKRIURB","","null","<img src=""img/flower5.png"" style=""width:200px; border:14px solid green;"">","null","","","","","","","","",""
"","image-keyboard-response","330","111734","0.0-330.0","32AT8R96GMVRVMD35O1MO5J1EAFUS0","AK35CJJEYFVYK","36U4VBVNQOZD8NFWZXWF9CIHKRIURB","","96.40000000596046","img/flower5.png","75","96.80000001192093","2","1","2","1","1,0.333,0.333,0.333,1,0.333,0.333,0.333,1","1,0.333,0.333,0.333,1,0.333,0.333,0.333,1","1",""
"","html-keyboard-response","331","112036","0.0-331.0","32AT8R96GMVRVMD35O1MO5J1EAFUS0","AK35CJJEYFVYK","36U4VBVNQOZD8NFWZXWF9CIHKRIURB","","null","<img src=""img/flower5.png"" style=""width:200px; border:14px solid green;"">","null","","","","","","","","",""
"","image-keyboard-response","332","112070","0.0-332.0","32AT8R96GMVRVMD35O1MO5J1EAFUS0","AK35CJJEYFVYK","36U4VBVNQOZD8NFWZXWF9CIHKRIURB","","34.30000001192093","img/flower5.png","76","34.599999994039536","3","0","2","1","1,0.333,0.333,0.333,1,0.333,0.333,0.333,1","1,0.333,0.333,0.333,1,0.333,0.333,0.333,1","1",""
"","html-keyboard-response","333","112371","0.0-333.0","32AT8R96GMVRVMD35O1MO5J1EAFUS0","AK35CJJEYFVYK","36U4VBVNQOZD8NFWZXWF9CIHKRIURB","","null","<img src=""img/flower5.png"" style=""width:200px;border:14px solid red;"">","null","","","","","","","","",""
"","image-keyboard-response","334","112843","0.0-334.0","32AT8R96GMVRVMD35O1MO5J1EAFUS0","AK35CJJEYFVYK","36U4VBVNQOZD8NFWZXWF9CIHKRIURB","","471.90000000596046","img/flower3.png","75","472.2000000178814","2","0","1","1","1,0.333,0.333,0.333,1,0.333,0.333,0.333,1","1,0.333,0.333,0.333,1,0.333,0.333,0.333,1","1",""
"","html-keyboard-response","335","113144","0.0-335.0","32AT8R96GMVRVMD35O1MO5J1EAFUS0","AK35CJJEYFVYK","36U4VBVNQOZD8NFWZXWF9CIHKRIURB","","null","<img src=""img/flower3.png"" style=""width:200px;border:14px solid red;"">","null","","","","","","","","",""
"","image-keyboard-response","336","113414","0.0-336.0","32AT8R96GMVRVMD35O1MO5J1EAFUS0","AK35CJJEYFVYK","36U4VBVNQOZD8NFWZXWF9CIHKRIURB","","269.80000001192093","img/flower3.png","74","270.09999999403954","1","1","1","1","1,0.333,0.333,0.333,1,0.333,0.333,0.333,1","1,0.333,0.333,0.333,1,0.333,0.333,0.333,1","1",""
"","html-keyboard-response","337","113715","0.0-337.0","32AT8R96GMVRVMD35O1MO5J1EAFUS0","AK35CJJEYFVYK","36U4VBVNQOZD8NFWZXWF9CIHKRIURB","","null","<img src=""img/flower3.png"" style=""width:200px; border:14px solid green;"">","null","","","","","","","","",""
"","image-keyboard-response","338","114027","0.0-338.0","32AT8R96GMVRVMD35O1MO5J1EAFUS0","AK35CJJEYFVYK","36U4VBVNQOZD8NFWZXWF9CIHKRIURB","","311.5","img/flower3.png","74","311.90000000596046","1","1","1","1","1,0.333,0.333,0.333,1,0.333,0.333,0.333,1","1,0.333,0.333,0.333,1,0.333,0.333,0.333,1","1",""
"","html-keyboard-response","339","114329","0.0-339.0","32AT8R96GMVRVMD35O1MO5J1EAFUS0","AK35CJJEYFVYK","36U4VBVNQOZD8NFWZXWF9CIHKRIURB","","null","<img src=""img/flower3.png"" style=""width:200px; border:14px solid green;"">","null","","","","","","","","",""
"","image-keyboard-response","340","114898","0.0-340.0","32AT8R96GMVRVMD35O1MO5J1EAFUS0","AK35CJJEYFVYK","36U4VBVNQOZD8NFWZXWF9CIHKRIURB","","569.4000000059605","img/flower6.png","76","569.7999999821186","3","1","3","1","1,0.333,0.333,0.333,1,0.333,0.333,0.333,1","1,0.333,0.333,0.333,1,0.333,0.333,0.333,1","1",""
"","html-keyboard-response","341","115199","0.0-341.0","32AT8R96GMVRVMD35O1MO5J1EAFUS0","AK35CJJEYFVYK","36U4VBVNQOZD8NFWZXWF9CIHKRIURB","","null","<img src=""img/flower6.png"" style=""width:200px; border:14px solid green;"">","null","","","","","","","","",""
"","image-keyboard-response","342","115691","0.0-342.0","32AT8R96GMVRVMD35O1MO5J1EAFUS0","AK35CJJEYFVYK","36U4VBVNQOZD8NFWZXWF9CIHKRIURB","","491.59999999403954","img/flower5.png","75","491.90000000596046","2","1","2","1","1,0.333,0.333,0.333,1,0.333,0.333,0.333,1","1,0.333,0.333,0.333,1,0.333,0.333,0.333,1","1",""
"","html-keyboard-response","343","115992","0.0-343.0","32AT8R96GMVRVMD35O1MO5J1EAFUS0","AK35CJJEYFVYK","36U4VBVNQOZD8NFWZXWF9CIHKRIURB","","null","<img src=""img/flower5.png"" style=""width:200px; border:14px solid green;"">","null","","","","","","","","",""
"","image-keyboard-response","344","116553","0.0-344.0","32AT8R96GMVRVMD35O1MO5J1EAFUS0","AK35CJJEYFVYK","36U4VBVNQOZD8NFWZXWF9CIHKRIURB","","561.2000000178814","img/flower6.png","76","561.5","3","1","3","1","1,0.333,0.333,0.333,1,0.333,0.333,0.333,1","1,0.333,0.333,0.333,1,0.333,0.333,0.333,1","1",""
"","html-keyboard-response","345","116856","0.0-345.0","32AT8R96GMVRVMD35O1MO5J1EAFUS0","AK35CJJEYFVYK","36U4VBVNQOZD8NFWZXWF9CIHKRIURB","","null","<img src=""img/flower6.png"" style=""width:200px; border:14px solid green;"">","null","","","","","","","","",""
"","image-keyboard-response","346","117167","0.0-346.0","32AT8R96GMVRVMD35O1MO5J1EAFUS0","AK35CJJEYFVYK","36U4VBVNQOZD8NFWZXWF9CIHKRIURB","","310.69999998807907","img/flower6.png","76","311.09999999403954","3","1","3","1","1,0.333,0.333,0.333,1,0.333,0.333,0.333,1","1,0.333,0.333,0.333,1,0.333,0.333,0.333,1","1",""
"","html-keyboard-response","347","117467","0.0-347.0","32AT8R96GMVRVMD35O1MO5J1EAFUS0","AK35CJJEYFVYK","36U4VBVNQOZD8NFWZXWF9CIHKRIURB","","null","<img src=""img/flower6.png"" style=""width:200px; border:14px solid green;"">","null","","","","","","","","",""
"","image-keyboard-response","348","118067","0.0-348.0","32AT8R96GMVRVMD35O1MO5J1EAFUS0","AK35CJJEYFVYK","36U4VBVNQOZD8NFWZXWF9CIHKRIURB","","599.0999999940395","img/flower3.png","74","599.5","1","1","1","1","1,0.333,0.333,0.333,1,0.333,0.333,0.333,1","1,0.333,0.333,0.333,1,0.333,0.333,0.333,1","1",""
"","html-keyboard-response","349","118368","0.0-349.0","32AT8R96GMVRVMD35O1MO5J1EAFUS0","AK35CJJEYFVYK","36U4VBVNQOZD8NFWZXWF9CIHKRIURB","","null","<img src=""img/flower3.png"" style=""width:200px; border:14px solid green;"">","null","","","","","","","","",""
"","image-keyboard-response","350","118668","0.0-350.0","32AT8R96GMVRVMD35O1MO5J1EAFUS0","AK35CJJEYFVYK","36U4VBVNQOZD8NFWZXWF9CIHKRIURB","","299.5","img/flower3.png","74","299.90000000596046","1","1","1","1","1,0.333,0.333,0.333,1,0.333,0.333,0.333,1","1,0.333,0.333,0.333,1,0.333,0.333,0.333,1","1",""
"","html-keyboard-response","351","118969","0.0-351.0","32AT8R96GMVRVMD35O1MO5J1EAFUS0","AK35CJJEYFVYK","36U4VBVNQOZD8NFWZXWF9CIHKRIURB","","null","<img src=""img/flower3.png"" style=""width:200px; border:14px solid green;"">","null","","","","","","","","",""
"","image-keyboard-response","352","119230","0.0-352.0","32AT8R96GMVRVMD35O1MO5J1EAFUS0","AK35CJJEYFVYK","36U4VBVNQOZD8NFWZXWF9CIHKRIURB","","260.10000002384186","img/flower3.png","74","260.5","1","1","1","1","1,0.333,0.333,0.333,1,0.333,0.333,0.333,1","1,0.333,0.333,0.333,1,0.333,0.333,0.333,1","1",""
"","html-keyboard-response","353","119531","0.0-353.0","32AT8R96GMVRVMD35O1MO5J1EAFUS0","AK35CJJEYFVYK","36U4VBVNQOZD8NFWZXWF9CIHKRIURB","","null","<img src=""img/flower3.png"" style=""width:200px; border:14px solid green;"">","null","","","","","","","","",""
"","image-keyboard-response","354","119843","0.0-354.0","32AT8R96GMVRVMD35O1MO5J1EAFUS0","AK35CJJEYFVYK","36U4VBVNQOZD8NFWZXWF9CIHKRIURB","","311.59999999403954","img/flower3.png","74","312","1","1","1","1","1,0.333,0.333,0.333,1,0.333,0.333,0.333,1","1,0.333,0.333,0.333,1,0.333,0.333,0.333,1","1",""
"","html-keyboard-response","355","120144","0.0-355.0","32AT8R96GMVRVMD35O1MO5J1EAFUS0","AK35CJJEYFVYK","36U4VBVNQOZD8NFWZXWF9CIHKRIURB","","null","<img src=""img/flower3.png"" style=""width:200px; border:14px solid green;"">","null","","","","","","","","",""
"","image-keyboard-response","356","120756","0.0-356.0","32AT8R96GMVRVMD35O1MO5J1EAFUS0","AK35CJJEYFVYK","36U4VBVNQOZD8NFWZXWF9CIHKRIURB","","611.7999999821186","img/flower5.png","75","612.2000000178814","2","1","2","1","1,0.333,0.333,0.333,1,0.333,0.333,0.333,1","1,0.333,0.333,0.333,1,0.333,0.333,0.333,1","1",""
"","html-keyboard-response","357","121057","0.0-357.0","32AT8R96GMVRVMD35O1MO5J1EAFUS0","AK35CJJEYFVYK","36U4VBVNQOZD8NFWZXWF9CIHKRIURB","","null","<img src=""img/flower5.png"" style=""width:200px; border:14px solid green;"">","null","","","","","","","","",""
"","image-keyboard-response","358","121658","0.0-358.0","32AT8R96GMVRVMD35O1MO5J1EAFUS0","AK35CJJEYFVYK","36U4VBVNQOZD8NFWZXWF9CIHKRIURB","","600.4000000059605","img/flower3.png","74","600.9000000059605","1","1","1","1","1,0.333,0.333,0.333,1,0.333,0.333,0.333,1","1,0.333,0.333,0.333,1,0.333,0.333,0.333,1","1",""
"","html-keyboard-response","359","121968","0.0-359.0","32AT8R96GMVRVMD35O1MO5J1EAFUS0","AK35CJJEYFVYK","36U4VBVNQOZD8NFWZXWF9CIHKRIURB","","null","<img src=""img/flower3.png"" style=""width:200px; border:14px solid green;"">","null","","","","","","","","",""
"","image-keyboard-response","360","122677","0.0-360.0","32AT8R96GMVRVMD35O1MO5J1EAFUS0","AK35CJJEYFVYK","36U4VBVNQOZD8NFWZXWF9CIHKRIURB","","708.0999999940395","img/flower5.png","74","708.5","1","0","2","1","1,0.333,0.333,0.333,1,0.333,0.333,0.333,1","1,0.333,0.333,0.333,1,0.333,0.333,0.333,1","1",""
"","html-keyboard-response","361","122977","0.0-361.0","32AT8R96GMVRVMD35O1MO5J1EAFUS0","AK35CJJEYFVYK","36U4VBVNQOZD8NFWZXWF9CIHKRIURB","","null","<img src=""img/flower5.png"" style=""width:200px;border:14px solid red;"">","null","","","","","","","","",""
"","html-keyboard-response","362","124956","0.0-362.0","32AT8R96GMVRVMD35O1MO5J1EAFUS0","AK35CJJEYFVYK","36U4VBVNQOZD8NFWZXWF9CIHKRIURB","","","","","","","","","","","","",""
"","instructions","363","126935","0.0-363.0","32AT8R96GMVRVMD35O1MO5J1EAFUS0","AK35CJJEYFVYK","36U4VBVNQOZD8NFWZXWF9CIHKRIURB","[{""page_index"":0,""viewing_time"":1978.6000000238419}]","1978.6000000238419","","","","","","","","","","",""
"","survey-text","364","128940","0.0-364.0","32AT8R96GMVRVMD35O1MO5J1EAFUS0","AK35CJJEYFVYK","36U4VBVNQOZD8NFWZXWF9CIHKRIURB","","2003.699999988079","","","","","","","","","","","{""Q0"":""AK35CJJEYFVYK""}"
