"success","trial_type","trial_index","time_elapsed","internal_node_id","assignmentID","mturkID","hitID","view_history","rt","stimulus","key_press","reactionTime","a","r","s","cond","reward_cond","reward_cond_actual","reward_matrix_idx","responses"
"true","fullscreen","0","19609","0.0-0.0","3OF2M9AATHAAT2U562RSEB76YAAKZE","AKJLAFX2M86TP","3YO4AH2FPD6XG0OGOBTVFFK58DY0QT","","","","","","","","","","","","",""
"","instructions","1","32201","0.0-1.0","3OF2M9AATHAAT2U562RSEB76YAAKZE","AKJLAFX2M86TP","3YO4AH2FPD6XG0OGOBTVFFK58DY0QT","[{""page_index"":0,""viewing_time"":1883},{""page_index"":1,""viewing_time"":1294},{""page_index"":2,""viewing_time"":1132},{""page_index"":3,""viewing_time"":1530},{""page_index"":4,""viewing_time"":2184},{""page_index"":5,""viewing_time"":1635},{""page_index"":6,""viewing_time"":1383},{""page_index"":7,""viewing_time"":1545}]","12589","","","","","","","","","","",""
"","image-keyboard-response","2","34210","0.0-2.0","3OF2M9AATHAAT2U562RSEB76YAAKZE","AKJLAFX2M86TP","3YO4AH2FPD6XG0OGOBTVFFK58DY0QT","","","img/flower4.png","","2007","-1","0","3","1","1,0.333,0.333,0.333,1,0.333,0.333,0.333,1","1,0.333,0.333,0.333,1,0.333,0.333,0.333,1","1",""
"","html-keyboard-response","3","34515","0.0-3.0","3OF2M9AATHAAT2U562RSEB76YAAKZE","AKJLAFX2M86TP","3YO4AH2FPD6XG0OGOBTVFFK58DY0QT","","null","<img src=""img/flower4.png"" style=""width:200px;border:14px solid red;"">","null","","","","","","","","",""
"","image-keyboard-response","4","36520","0.0-4.0","3OF2M9AATHAAT2U562RSEB76YAAKZE","AKJLAFX2M86TP","3YO4AH2FPD6XG0OGOBTVFFK58DY0QT","","","img/flower1.png","","2004","-1","0","1","1","1,0.333,0.333,0.333,1,0.333,0.333,0.333,1","1,0.333,0.333,0.333,1,0.333,0.333,0.333,1","1",""
"","html-keyboard-response","5","41538","0.0-5.0","3OF2M9AATHAAT2U562RSEB76YAAKZE","AKJLAFX2M86TP","3YO4AH2FPD6XG0OGOBTVFFK58DY0QT","","null","<img src=""img/flower1.png"" style=""width:200px;border:14px solid red;"">","null","","","","","","","","",""
"","image-keyboard-response","6","47475","0.0-6.0","3OF2M9AATHAAT2U562RSEB76YAAKZE","AKJLAFX2M86TP","3YO4AH2FPD6XG0OGOBTVFFK58DY0QT","","","img/flower1.png","","5936","-1","0","1","1","1,0.333,0.333,0.333,1,0.333,0.333,0.333,1","1,0.333,0.333,0.333,1,0.333,0.333,0.333,1","1",""
"","html-keyboard-response","7","49857","0.0-7.0","3OF2M9AATHAAT2U562RSEB76YAAKZE","AKJLAFX2M86TP","3YO4AH2FPD6XG0OGOBTVFFK58DY0QT","","null","<img src=""img/flower1.png"" style=""width:200px;border:14px solid red;"">","null","","","","","","","","",""
"","image-keyboard-response","8","54600","0.0-8.0","3OF2M9AATHAAT2U562RSEB76YAAKZE","AKJLAFX2M86TP","3YO4AH2FPD6XG0OGOBTVFFK58DY0QT","","","img/flower4.png","","4741","-1","0","3","1","1,0.333,0.333,0.333,1,0.333,0.333,0.333,1","1,0.333,0.333,0.333,1,0.333,0.333,0.333,1","1",""
"","html-keyboard-response","9","55519","0.0-9.0","3OF2M9AATHAAT2U562RSEB76YAAKZE","AKJLAFX2M86TP","3YO4AH2FPD6XG0OGOBTVFFK58DY0QT","","null","<img src=""img/flower4.png"" style=""width:200px;border:14px solid red;"">","null","","","","","","","","",""
"","image-keyboard-response","10","58520","0.0-10.0","3OF2M9AATHAAT2U562RSEB76YAAKZE","AKJLAFX2M86TP","3YO4AH2FPD6XG0OGOBTVFFK58DY0QT","","","img/flower1.png","","3000","-1","0","1","1","1,0.333,0.333,0.333,1,0.333,0.333,0.333,1","1,0.333,0.333,0.333,1,0.333,0.333,0.333,1","1",""
"","html-keyboard-response","11","59520","0.0-11.0","3OF2M9AATHAAT2U562RSEB76YAAKZE","AKJLAFX2M86TP","3YO4AH2FPD6XG0OGOBTVFFK58DY0QT","","null","<img src=""img/flower1.png"" style=""width:200px;border:14px solid red;"">","null","","","","","","","","",""
"","image-keyboard-response","12","62519","0.0-12.0","3OF2M9AATHAAT2U562RSEB76YAAKZE","AKJLAFX2M86TP","3YO4AH2FPD6XG0OGOBTVFFK58DY0QT","","","img/flower4.png","","2998","-1","0","3","1","1,0.333,0.333,0.333,1,0.333,0.333,0.333,1","1,0.333,0.333,0.333,1,0.333,0.333,0.333,1","1",""
"","html-keyboard-response","13","63519","0.0-13.0","3OF2M9AATHAAT2U562RSEB76YAAKZE","AKJLAFX2M86TP","3YO4AH2FPD6XG0OGOBTVFFK58DY0QT","","null","<img src=""img/flower4.png"" style=""width:200px;border:14px solid red;"">","null","","","","","","","","",""
"","image-keyboard-response","14","66519","0.0-14.0","3OF2M9AATHAAT2U562RSEB76YAAKZE","AKJLAFX2M86TP","3YO4AH2FPD6XG0OGOBTVFFK58DY0QT","","","img/flower4.png","","2999","-1","0","3","1","1,0.333,0.333,0.333,1,0.333,0.333,0.333,1","1,0.333,0.333,0.333,1,0.333,0.333,0.333,1","1",""
"","html-keyboard-response","15","67519","0.0-15.0","3OF2M9AATHAAT2U562RSEB76YAAKZE","AKJLAFX2M86TP","3YO4AH2FPD6XG0OGOBTVFFK58DY0QT","","null","<img src=""img/flower4.png"" style=""width:200px;border:14px solid red;"">","null","","","","","","","","",""
"","image-keyboard-response","16","70519","0.0-16.0","3OF2M9AATHAAT2U562RSEB76YAAKZE","AKJLAFX2M86TP","3YO4AH2FPD6XG0OGOBTVFFK58DY0QT","","","img/flower1.png","","3000","-1","0","1","1","1,0.333,0.333,0.333,1,0.333,0.333,0.333,1","1,0.333,0.333,0.333,1,0.333,0.333,0.333,1","1",""
"","html-keyboard-response","17","71520","0.0-17.0","3OF2M9AATHAAT2U562RSEB76YAAKZE","AKJLAFX2M86TP","3YO4AH2FPD6XG0OGOBTVFFK58DY0QT","","null","<img src=""img/flower1.png"" style=""width:200px;border:14px solid red;"">","null","","","","","","","","",""
"","image-keyboard-response","18","74520","0.0-18.0","3OF2M9AATHAAT2U562RSEB76YAAKZE","AKJLAFX2M86TP","3YO4AH2FPD6XG0OGOBTVFFK58DY0QT","","","img/flower6.png","","3000","-1","0","2","1","1,0.333,0.333,0.333,1,0.333,0.333,0.333,1","1,0.333,0.333,0.333,1,0.333,0.333,0.333,1","1",""
"","html-keyboard-response","19","75738","0.0-19.0","3OF2M9AATHAAT2U562RSEB76YAAKZE","AKJLAFX2M86TP","3YO4AH2FPD6XG0OGOBTVFFK58DY0QT","","null","<img src=""img/flower6.png"" style=""width:200px;border:14px solid red;"">","null","","","","","","","","",""
"","image-keyboard-response","20","89040","0.0-20.0","3OF2M9AATHAAT2U562RSEB76YAAKZE","AKJLAFX2M86TP","3YO4AH2FPD6XG0OGOBTVFFK58DY0QT","","","img/flower1.png","","13301","-1","0","1","1","1,0.333,0.333,0.333,1,0.333,0.333,0.333,1","1,0.333,0.333,0.333,1,0.333,0.333,0.333,1","1",""
"","html-keyboard-response","21","89520","0.0-21.0","3OF2M9AATHAAT2U562RSEB76YAAKZE","AKJLAFX2M86TP","3YO4AH2FPD6XG0OGOBTVFFK58DY0QT","","null","<img src=""img/flower1.png"" style=""width:200px;border:14px solid red;"">","null","","","","","","","","",""
"","image-keyboard-response","22","92519","0.0-22.0","3OF2M9AATHAAT2U562RSEB76YAAKZE","AKJLAFX2M86TP","3YO4AH2FPD6XG0OGOBTVFFK58DY0QT","","","img/flower6.png","","2999","-1","0","2","1","1,0.333,0.333,0.333,1,0.333,0.333,0.333,1","1,0.333,0.333,0.333,1,0.333,0.333,0.333,1","1",""
"","html-keyboard-response","23","93520","0.0-23.0","3OF2M9AATHAAT2U562RSEB76YAAKZE","AKJLAFX2M86TP","3YO4AH2FPD6XG0OGOBTVFFK58DY0QT","","null","<img src=""img/flower6.png"" style=""width:200px;border:14px solid red;"">","null","","","","","","","","",""
"","image-keyboard-response","24","96519","0.0-24.0","3OF2M9AATHAAT2U562RSEB76YAAKZE","AKJLAFX2M86TP","3YO4AH2FPD6XG0OGOBTVFFK58DY0QT","","","img/flower4.png","","2999","-1","0","3","1","1,0.333,0.333,0.333,1,0.333,0.333,0.333,1","1,0.333,0.333,0.333,1,0.333,0.333,0.333,1","1",""
"","html-keyboard-response","25","97520","0.0-25.0","3OF2M9AATHAAT2U562RSEB76YAAKZE","AKJLAFX2M86TP","3YO4AH2FPD6XG0OGOBTVFFK58DY0QT","","null","<img src=""img/flower4.png"" style=""width:200px;border:14px solid red;"">","null","","","","","","","","",""
"","image-keyboard-response","26","100520","0.0-26.0","3OF2M9AATHAAT2U562RSEB76YAAKZE","AKJLAFX2M86TP","3YO4AH2FPD6XG0OGOBTVFFK58DY0QT","","","img/flower4.png","","2999","-1","0","3","1","1,0.333,0.333,0.333,1,0.333,0.333,0.333,1","1,0.333,0.333,0.333,1,0.333,0.333,0.333,1","1",""
"","html-keyboard-response","27","101520","0.0-27.0","3OF2M9AATHAAT2U562RSEB76YAAKZE","AKJLAFX2M86TP","3YO4AH2FPD6XG0OGOBTVFFK58DY0QT","","null","<img src=""img/flower4.png"" style=""width:200px;border:14px solid red;"">","null","","","","","","","","",""
"","image-keyboard-response","28","104521","0.0-28.0","3OF2M9AATHAAT2U562RSEB76YAAKZE","AKJLAFX2M86TP","3YO4AH2FPD6XG0OGOBTVFFK58DY0QT","","","img/flower6.png","","3001","-1","0","2","1","1,0.333,0.333,0.333,1,0.333,0.333,0.333,1","1,0.333,0.333,0.333,1,0.333,0.333,0.333,1","1",""
"","html-keyboard-response","29","105520","0.0-29.0","3OF2M9AATHAAT2U562RSEB76YAAKZE","AKJLAFX2M86TP","3YO4AH2FPD6XG0OGOBTVFFK58DY0QT","","null","<img src=""img/flower6.png"" style=""width:200px;border:14px solid red;"">","null","","","","","","","","",""
"","image-keyboard-response","30","242523","0.0-30.0","3OF2M9AATHAAT2U562RSEB76YAAKZE","AKJLAFX2M86TP","3YO4AH2FPD6XG0OGOBTVFFK58DY0QT","","","img/flower1.png","","137001","-1","0","1","1","1,0.333,0.333,0.333,1,0.333,0.333,0.333,1","1,0.333,0.333,0.333,1,0.333,0.333,0.333,1","1",""
"","html-keyboard-response","31","287352","0.0-31.0","3OF2M9AATHAAT2U562RSEB76YAAKZE","AKJLAFX2M86TP","3YO4AH2FPD6XG0OGOBTVFFK58DY0QT","","null","<img src=""img/flower1.png"" style=""width:200px;border:14px solid red;"">","null","","","","","","","","",""
"","image-keyboard-response","32","297835","0.0-32.0","3OF2M9AATHAAT2U562RSEB76YAAKZE","AKJLAFX2M86TP","3YO4AH2FPD6XG0OGOBTVFFK58DY0QT","","","img/flower4.png","","10482","-1","0","3","1","1,0.333,0.333,0.333,1,0.333,0.333,0.333,1","1,0.333,0.333,0.333,1,0.333,0.333,0.333,1","1",""
"","html-keyboard-response","33","298138","0.0-33.0","3OF2M9AATHAAT2U562RSEB76YAAKZE","AKJLAFX2M86TP","3YO4AH2FPD6XG0OGOBTVFFK58DY0QT","","null","<img src=""img/flower4.png"" style=""width:200px;border:14px solid red;"">","null","","","","","","","","",""
"","image-keyboard-response","34","300144","0.0-34.0","3OF2M9AATHAAT2U562RSEB76YAAKZE","AKJLAFX2M86TP","3YO4AH2FPD6XG0OGOBTVFFK58DY0QT","","","img/flower4.png","","2006","-1","0","3","1","1,0.333,0.333,0.333,1,0.333,0.333,0.333,1","1,0.333,0.333,0.333,1,0.333,0.333,0.333,1","1",""
"","html-keyboard-response","35","300446","0.0-35.0","3OF2M9AATHAAT2U562RSEB76YAAKZE","AKJLAFX2M86TP","3YO4AH2FPD6XG0OGOBTVFFK58DY0QT","","null","<img src=""img/flower4.png"" style=""width:200px;border:14px solid red;"">","null","","","","","","","","",""
"","image-keyboard-response","36","302448","0.0-36.0","3OF2M9AATHAAT2U562RSEB76YAAKZE","AKJLAFX2M86TP","3YO4AH2FPD6XG0OGOBTVFFK58DY0QT","","","img/flower6.png","","2001","-1","0","2","1","1,0.333,0.333,0.333,1,0.333,0.333,0.333,1","1,0.333,0.333,0.333,1,0.333,0.333,0.333,1","1",""
"","html-keyboard-response","37","302752","0.0-37.0","3OF2M9AATHAAT2U562RSEB76YAAKZE","AKJLAFX2M86TP","3YO4AH2FPD6XG0OGOBTVFFK58DY0QT","","null","<img src=""img/flower6.png"" style=""width:200px;border:14px solid red;"">","null","","","","","","","","",""
"","image-keyboard-response","38","304758","0.0-38.0","3OF2M9AATHAAT2U562RSEB76YAAKZE","AKJLAFX2M86TP","3YO4AH2FPD6XG0OGOBTVFFK58DY0QT","","","img/flower6.png","","2005","-1","0","2","1","1,0.333,0.333,0.333,1,0.333,0.333,0.333,1","1,0.333,0.333,0.333,1,0.333,0.333,0.333,1","1",""
"","html-keyboard-response","39","305059","0.0-39.0","3OF2M9AATHAAT2U562RSEB76YAAKZE","AKJLAFX2M86TP","3YO4AH2FPD6XG0OGOBTVFFK58DY0QT","","null","<img src=""img/flower6.png"" style=""width:200px;border:14px solid red;"">","null","","","","","","","","",""
"","image-keyboard-response","40","307061","0.0-40.0","3OF2M9AATHAAT2U562RSEB76YAAKZE","AKJLAFX2M86TP","3YO4AH2FPD6XG0OGOBTVFFK58DY0QT","","","img/flower4.png","","2002","-1","0","3","1","1,0.333,0.333,0.333,1,0.333,0.333,0.333,1","1,0.333,0.333,0.333,1,0.333,0.333,0.333,1","1",""
"","html-keyboard-response","41","307364","0.0-41.0","3OF2M9AATHAAT2U562RSEB76YAAKZE","AKJLAFX2M86TP","3YO4AH2FPD6XG0OGOBTVFFK58DY0QT","","null","<img src=""img/flower4.png"" style=""width:200px;border:14px solid red;"">","null","","","","","","","","",""
"","image-keyboard-response","42","309366","0.0-42.0","3OF2M9AATHAAT2U562RSEB76YAAKZE","AKJLAFX2M86TP","3YO4AH2FPD6XG0OGOBTVFFK58DY0QT","","","img/flower4.png","","2001","-1","0","3","1","1,0.333,0.333,0.333,1,0.333,0.333,0.333,1","1,0.333,0.333,0.333,1,0.333,0.333,0.333,1","1",""
"","html-keyboard-response","43","309668","0.0-43.0","3OF2M9AATHAAT2U562RSEB76YAAKZE","AKJLAFX2M86TP","3YO4AH2FPD6XG0OGOBTVFFK58DY0QT","","null","<img src=""img/flower4.png"" style=""width:200px;border:14px solid red;"">","null","","","","","","","","",""
"","image-keyboard-response","44","311670","0.0-44.0","3OF2M9AATHAAT2U562RSEB76YAAKZE","AKJLAFX2M86TP","3YO4AH2FPD6XG0OGOBTVFFK58DY0QT","","","img/flower1.png","","2001","-1","0","1","1","1,0.333,0.333,0.333,1,0.333,0.333,0.333,1","1,0.333,0.333,0.333,1,0.333,0.333,0.333,1","1",""
"","html-keyboard-response","45","311971","0.0-45.0","3OF2M9AATHAAT2U562RSEB76YAAKZE","AKJLAFX2M86TP","3YO4AH2FPD6XG0OGOBTVFFK58DY0QT","","null","<img src=""img/flower1.png"" style=""width:200px;border:14px solid red;"">","null","","","","","","","","",""
"","image-keyboard-response","46","313973","0.0-46.0","3OF2M9AATHAAT2U562RSEB76YAAKZE","AKJLAFX2M86TP","3YO4AH2FPD6XG0OGOBTVFFK58DY0QT","","","img/flower6.png","","2002","-1","0","2","1","1,0.333,0.333,0.333,1,0.333,0.333,0.333,1","1,0.333,0.333,0.333,1,0.333,0.333,0.333,1","1",""
"","html-keyboard-response","47","314275","0.0-47.0","3OF2M9AATHAAT2U562RSEB76YAAKZE","AKJLAFX2M86TP","3YO4AH2FPD6XG0OGOBTVFFK58DY0QT","","null","<img src=""img/flower6.png"" style=""width:200px;border:14px solid red;"">","null","","","","","","","","",""
"","image-keyboard-response","48","316281","0.0-48.0","3OF2M9AATHAAT2U562RSEB76YAAKZE","AKJLAFX2M86TP","3YO4AH2FPD6XG0OGOBTVFFK58DY0QT","","","img/flower6.png","","2005","-1","0","2","1","1,0.333,0.333,0.333,1,0.333,0.333,0.333,1","1,0.333,0.333,0.333,1,0.333,0.333,0.333,1","1",""
"","html-keyboard-response","49","316582","0.0-49.0","3OF2M9AATHAAT2U562RSEB76YAAKZE","AKJLAFX2M86TP","3YO4AH2FPD6XG0OGOBTVFFK58DY0QT","","null","<img src=""img/flower6.png"" style=""width:200px;border:14px solid red;"">","null","","","","","","","","",""
"","image-keyboard-response","50","318587","0.0-50.0","3OF2M9AATHAAT2U562RSEB76YAAKZE","AKJLAFX2M86TP","3YO4AH2FPD6XG0OGOBTVFFK58DY0QT","","","img/flower4.png","","2003","-1","0","3","1","1,0.333,0.333,0.333,1,0.333,0.333,0.333,1","1,0.333,0.333,0.333,1,0.333,0.333,0.333,1","1",""
"","html-keyboard-response","51","318889","0.0-51.0","3OF2M9AATHAAT2U562RSEB76YAAKZE","AKJLAFX2M86TP","3YO4AH2FPD6XG0OGOBTVFFK58DY0QT","","null","<img src=""img/flower4.png"" style=""width:200px;border:14px solid red;"">","null","","","","","","","","",""
"","image-keyboard-response","52","328664","0.0-52.0","3OF2M9AATHAAT2U562RSEB76YAAKZE","AKJLAFX2M86TP","3YO4AH2FPD6XG0OGOBTVFFK58DY0QT","","","img/flower4.png","","10069","-1","0","3","1","1,0.333,0.333,0.333,1,0.333,0.333,0.333,1","1,0.333,0.333,0.333,1,0.333,0.333,0.333,1","1",""
"","html-keyboard-response","53","339601","0.0-53.0","3OF2M9AATHAAT2U562RSEB76YAAKZE","AKJLAFX2M86TP","3YO4AH2FPD6XG0OGOBTVFFK58DY0QT","","null","<img src=""img/flower4.png"" style=""width:200px;border:14px solid red;"">","null","","","","","","","","",""
"","image-keyboard-response","54","342520","0.0-54.0","3OF2M9AATHAAT2U562RSEB76YAAKZE","AKJLAFX2M86TP","3YO4AH2FPD6XG0OGOBTVFFK58DY0QT","","","img/flower6.png","","2917","-1","0","2","1","1,0.333,0.333,0.333,1,0.333,0.333,0.333,1","1,0.333,0.333,0.333,1,0.333,0.333,0.333,1","1",""
"","html-keyboard-response","55","343520","0.0-55.0","3OF2M9AATHAAT2U562RSEB76YAAKZE","AKJLAFX2M86TP","3YO4AH2FPD6XG0OGOBTVFFK58DY0QT","","null","<img src=""img/flower6.png"" style=""width:200px;border:14px solid red;"">","null","","","","","","","","",""
"","image-keyboard-response","56","346521","0.0-56.0","3OF2M9AATHAAT2U562RSEB76YAAKZE","AKJLAFX2M86TP","3YO4AH2FPD6XG0OGOBTVFFK58DY0QT","","","img/flower4.png","","3000","-1","0","3","1","1,0.333,0.333,0.333,1,0.333,0.333,0.333,1","1,0.333,0.333,0.333,1,0.333,0.333,0.333,1","1",""
"","html-keyboard-response","57","347520","0.0-57.0","3OF2M9AATHAAT2U562RSEB76YAAKZE","AKJLAFX2M86TP","3YO4AH2FPD6XG0OGOBTVFFK58DY0QT","","null","<img src=""img/flower4.png"" style=""width:200px;border:14px solid red;"">","null","","","","","","","","",""
"","image-keyboard-response","58","350521","0.0-58.0","3OF2M9AATHAAT2U562RSEB76YAAKZE","AKJLAFX2M86TP","3YO4AH2FPD6XG0OGOBTVFFK58DY0QT","","","img/flower6.png","","3001","-1","0","2","1","1,0.333,0.333,0.333,1,0.333,0.333,0.333,1","1,0.333,0.333,0.333,1,0.333,0.333,0.333,1","1",""
"","html-keyboard-response","59","351521","0.0-59.0","3OF2M9AATHAAT2U562RSEB76YAAKZE","AKJLAFX2M86TP","3YO4AH2FPD6XG0OGOBTVFFK58DY0QT","","null","<img src=""img/flower6.png"" style=""width:200px;border:14px solid red;"">","null","","","","","","","","",""
"","image-keyboard-response","60","354520","0.0-60.0","3OF2M9AATHAAT2U562RSEB76YAAKZE","AKJLAFX2M86TP","3YO4AH2FPD6XG0OGOBTVFFK58DY0QT","","","img/flower1.png","","2999","-1","0","1","1","1,0.333,0.333,0.333,1,0.333,0.333,0.333,1","1,0.333,0.333,0.333,1,0.333,0.333,0.333,1","1",""
"","html-keyboard-response","61","355520","0.0-61.0","3OF2M9AATHAAT2U562RSEB76YAAKZE","AKJLAFX2M86TP","3YO4AH2FPD6XG0OGOBTVFFK58DY0QT","","null","<img src=""img/flower1.png"" style=""width:200px;border:14px solid red;"">","null","","","","","","","","",""
"","image-keyboard-response","62","372555","0.0-62.0","3OF2M9AATHAAT2U562RSEB76YAAKZE","AKJLAFX2M86TP","3YO4AH2FPD6XG0OGOBTVFFK58DY0QT","","","img/flower1.png","","17032","-1","0","1","1","1,0.333,0.333,0.333,1,0.333,0.333,0.333,1","1,0.333,0.333,0.333,1,0.333,0.333,0.333,1","1",""
"","html-keyboard-response","63","373889","0.0-63.0","3OF2M9AATHAAT2U562RSEB76YAAKZE","AKJLAFX2M86TP","3YO4AH2FPD6XG0OGOBTVFFK58DY0QT","","null","<img src=""img/flower1.png"" style=""width:200px;border:14px solid red;"">","null","","","","","","","","",""
"","image-keyboard-response","64","382319","0.0-64.0","3OF2M9AATHAAT2U562RSEB76YAAKZE","AKJLAFX2M86TP","3YO4AH2FPD6XG0OGOBTVFFK58DY0QT","","","img/flower1.png","","8429","-1","0","1","1","1,0.333,0.333,0.333,1,0.333,0.333,0.333,1","1,0.333,0.333,0.333,1,0.333,0.333,0.333,1","1",""
"","html-keyboard-response","65","443612","0.0-65.0","3OF2M9AATHAAT2U562RSEB76YAAKZE","AKJLAFX2M86TP","3YO4AH2FPD6XG0OGOBTVFFK58DY0QT","","null","<img src=""img/flower1.png"" style=""width:200px;border:14px solid red;"">","null","","","","","","","","",""
"","image-keyboard-response","66","464288","0.0-66.0","3OF2M9AATHAAT2U562RSEB76YAAKZE","AKJLAFX2M86TP","3YO4AH2FPD6XG0OGOBTVFFK58DY0QT","","","img/flower6.png","","20675","-1","0","2","1","1,0.333,0.333,0.333,1,0.333,0.333,0.333,1","1,0.333,0.333,0.333,1,0.333,0.333,0.333,1","1",""
"","html-keyboard-response","67","490054","0.0-67.0","3OF2M9AATHAAT2U562RSEB76YAAKZE","AKJLAFX2M86TP","3YO4AH2FPD6XG0OGOBTVFFK58DY0QT","","null","<img src=""img/flower6.png"" style=""width:200px;border:14px solid red;"">","null","","","","","","","","",""
"","image-keyboard-response","68","492065","0.0-68.0","3OF2M9AATHAAT2U562RSEB76YAAKZE","AKJLAFX2M86TP","3YO4AH2FPD6XG0OGOBTVFFK58DY0QT","","","img/flower1.png","","2001","-1","0","1","1","1,0.333,0.333,0.333,1,0.333,0.333,0.333,1","1,0.333,0.333,0.333,1,0.333,0.333,0.333,1","1",""
"","html-keyboard-response","69","492366","0.0-69.0","3OF2M9AATHAAT2U562RSEB76YAAKZE","AKJLAFX2M86TP","3YO4AH2FPD6XG0OGOBTVFFK58DY0QT","","null","<img src=""img/flower1.png"" style=""width:200px;border:14px solid red;"">","null","","","","","","","","",""
"","image-keyboard-response","70","494369","0.0-70.0","3OF2M9AATHAAT2U562RSEB76YAAKZE","AKJLAFX2M86TP","3YO4AH2FPD6XG0OGOBTVFFK58DY0QT","","","img/flower6.png","","2002","-1","0","2","1","1,0.333,0.333,0.333,1,0.333,0.333,0.333,1","1,0.333,0.333,0.333,1,0.333,0.333,0.333,1","1",""
"","html-keyboard-response","71","494672","0.0-71.0","3OF2M9AATHAAT2U562RSEB76YAAKZE","AKJLAFX2M86TP","3YO4AH2FPD6XG0OGOBTVFFK58DY0QT","","null","<img src=""img/flower6.png"" style=""width:200px;border:14px solid red;"">","null","","","","","","","","",""
"","image-keyboard-response","72","496676","0.0-72.0","3OF2M9AATHAAT2U562RSEB76YAAKZE","AKJLAFX2M86TP","3YO4AH2FPD6XG0OGOBTVFFK58DY0QT","","","img/flower4.png","","2004","-1","0","3","1","1,0.333,0.333,0.333,1,0.333,0.333,0.333,1","1,0.333,0.333,0.333,1,0.333,0.333,0.333,1","1",""
"","html-keyboard-response","73","496983","0.0-73.0","3OF2M9AATHAAT2U562RSEB76YAAKZE","AKJLAFX2M86TP","3YO4AH2FPD6XG0OGOBTVFFK58DY0QT","","null","<img src=""img/flower4.png"" style=""width:200px;border:14px solid red;"">","null","","","","","","","","",""
"","image-keyboard-response","74","499113","0.0-74.0","3OF2M9AATHAAT2U562RSEB76YAAKZE","AKJLAFX2M86TP","3YO4AH2FPD6XG0OGOBTVFFK58DY0QT","","","img/flower4.png","","2130","-1","0","3","1","1,0.333,0.333,0.333,1,0.333,0.333,0.333,1","1,0.333,0.333,0.333,1,0.333,0.333,0.333,1","1",""
"","html-keyboard-response","75","499416","0.0-75.0","3OF2M9AATHAAT2U562RSEB76YAAKZE","AKJLAFX2M86TP","3YO4AH2FPD6XG0OGOBTVFFK58DY0QT","","null","<img src=""img/flower4.png"" style=""width:200px;border:14px solid red;"">","null","","","","","","","","",""
"","image-keyboard-response","76","501417","0.0-76.0","3OF2M9AATHAAT2U562RSEB76YAAKZE","AKJLAFX2M86TP","3YO4AH2FPD6XG0OGOBTVFFK58DY0QT","","","img/flower4.png","","2000","-1","0","3","1","1,0.333,0.333,0.333,1,0.333,0.333,0.333,1","1,0.333,0.333,0.333,1,0.333,0.333,0.333,1","1",""
"","html-keyboard-response","77","501720","0.0-77.0","3OF2M9AATHAAT2U562RSEB76YAAKZE","AKJLAFX2M86TP","3YO4AH2FPD6XG0OGOBTVFFK58DY0QT","","null","<img src=""img/flower4.png"" style=""width:200px;border:14px solid red;"">","null","","","","","","","","",""
"","image-keyboard-response","78","503722","0.0-78.0","3OF2M9AATHAAT2U562RSEB76YAAKZE","AKJLAFX2M86TP","3YO4AH2FPD6XG0OGOBTVFFK58DY0QT","","","img/flower6.png","","2003","-1","0","2","1","1,0.333,0.333,0.333,1,0.333,0.333,0.333,1","1,0.333,0.333,0.333,1,0.333,0.333,0.333,1","1",""
"","html-keyboard-response","79","504024","0.0-79.0","3OF2M9AATHAAT2U562RSEB76YAAKZE","AKJLAFX2M86TP","3YO4AH2FPD6XG0OGOBTVFFK58DY0QT","","null","<img src=""img/flower6.png"" style=""width:200px;border:14px solid red;"">","null","","","","","","","","",""
"","image-keyboard-response","80","506027","0.0-80.0","3OF2M9AATHAAT2U562RSEB76YAAKZE","AKJLAFX2M86TP","3YO4AH2FPD6XG0OGOBTVFFK58DY0QT","","","img/flower4.png","","2003","-1","0","3","1","1,0.333,0.333,0.333,1,0.333,0.333,0.333,1","1,0.333,0.333,0.333,1,0.333,0.333,0.333,1","1",""
"","html-keyboard-response","81","506331","0.0-81.0","3OF2M9AATHAAT2U562RSEB76YAAKZE","AKJLAFX2M86TP","3YO4AH2FPD6XG0OGOBTVFFK58DY0QT","","null","<img src=""img/flower4.png"" style=""width:200px;border:14px solid red;"">","null","","","","","","","","",""
"","image-keyboard-response","82","508336","0.0-82.0","3OF2M9AATHAAT2U562RSEB76YAAKZE","AKJLAFX2M86TP","3YO4AH2FPD6XG0OGOBTVFFK58DY0QT","","","img/flower6.png","","2004","-1","0","2","1","1,0.333,0.333,0.333,1,0.333,0.333,0.333,1","1,0.333,0.333,0.333,1,0.333,0.333,0.333,1","1",""
"","html-keyboard-response","83","508640","0.0-83.0","3OF2M9AATHAAT2U562RSEB76YAAKZE","AKJLAFX2M86TP","3YO4AH2FPD6XG0OGOBTVFFK58DY0QT","","null","<img src=""img/flower6.png"" style=""width:200px;border:14px solid red;"">","null","","","","","","","","",""
"","image-keyboard-response","84","510643","0.0-84.0","3OF2M9AATHAAT2U562RSEB76YAAKZE","AKJLAFX2M86TP","3YO4AH2FPD6XG0OGOBTVFFK58DY0QT","","","img/flower4.png","","2003","-1","0","3","1","1,0.333,0.333,0.333,1,0.333,0.333,0.333,1","1,0.333,0.333,0.333,1,0.333,0.333,0.333,1","1",""
"","html-keyboard-response","85","510946","0.0-85.0","3OF2M9AATHAAT2U562RSEB76YAAKZE","AKJLAFX2M86TP","3YO4AH2FPD6XG0OGOBTVFFK58DY0QT","","null","<img src=""img/flower4.png"" style=""width:200px;border:14px solid red;"">","null","","","","","","","","",""
"","image-keyboard-response","86","512954","0.0-86.0","3OF2M9AATHAAT2U562RSEB76YAAKZE","AKJLAFX2M86TP","3YO4AH2FPD6XG0OGOBTVFFK58DY0QT","","","img/flower1.png","","2007","-1","0","1","1","1,0.333,0.333,0.333,1,0.333,0.333,0.333,1","1,0.333,0.333,0.333,1,0.333,0.333,0.333,1","1",""
"","html-keyboard-response","87","513257","0.0-87.0","3OF2M9AATHAAT2U562RSEB76YAAKZE","AKJLAFX2M86TP","3YO4AH2FPD6XG0OGOBTVFFK58DY0QT","","null","<img src=""img/flower1.png"" style=""width:200px;border:14px solid red;"">","null","","","","","","","","",""
"","image-keyboard-response","88","515262","0.0-88.0","3OF2M9AATHAAT2U562RSEB76YAAKZE","AKJLAFX2M86TP","3YO4AH2FPD6XG0OGOBTVFFK58DY0QT","","","img/flower6.png","","2004","-1","0","2","1","1,0.333,0.333,0.333,1,0.333,0.333,0.333,1","1,0.333,0.333,0.333,1,0.333,0.333,0.333,1","1",""
"","html-keyboard-response","89","515564","0.0-89.0","3OF2M9AATHAAT2U562RSEB76YAAKZE","AKJLAFX2M86TP","3YO4AH2FPD6XG0OGOBTVFFK58DY0QT","","null","<img src=""img/flower6.png"" style=""width:200px;border:14px solid red;"">","null","","","","","","","","",""
"","image-keyboard-response","90","517567","0.0-90.0","3OF2M9AATHAAT2U562RSEB76YAAKZE","AKJLAFX2M86TP","3YO4AH2FPD6XG0OGOBTVFFK58DY0QT","","","img/flower4.png","","2003","-1","0","3","1","1,0.333,0.333,0.333,1,0.333,0.333,0.333,1","1,0.333,0.333,0.333,1,0.333,0.333,0.333,1","1",""
"","html-keyboard-response","91","517870","0.0-91.0","3OF2M9AATHAAT2U562RSEB76YAAKZE","AKJLAFX2M86TP","3YO4AH2FPD6XG0OGOBTVFFK58DY0QT","","null","<img src=""img/flower4.png"" style=""width:200px;border:14px solid red;"">","null","","","","","","","","",""
"","image-keyboard-response","92","519873","0.0-92.0","3OF2M9AATHAAT2U562RSEB76YAAKZE","AKJLAFX2M86TP","3YO4AH2FPD6XG0OGOBTVFFK58DY0QT","","","img/flower1.png","","2003","-1","0","1","1","1,0.333,0.333,0.333,1,0.333,0.333,0.333,1","1,0.333,0.333,0.333,1,0.333,0.333,0.333,1","1",""
"","html-keyboard-response","93","520177","0.0-93.0","3OF2M9AATHAAT2U562RSEB76YAAKZE","AKJLAFX2M86TP","3YO4AH2FPD6XG0OGOBTVFFK58DY0QT","","null","<img src=""img/flower1.png"" style=""width:200px;border:14px solid red;"">","null","","","","","","","","",""
"","image-keyboard-response","94","522178","0.0-94.0","3OF2M9AATHAAT2U562RSEB76YAAKZE","AKJLAFX2M86TP","3YO4AH2FPD6XG0OGOBTVFFK58DY0QT","","","img/flower1.png","","2002","-1","0","1","1","1,0.333,0.333,0.333,1,0.333,0.333,0.333,1","1,0.333,0.333,0.333,1,0.333,0.333,0.333,1","1",""
"","html-keyboard-response","95","522480","0.0-95.0","3OF2M9AATHAAT2U562RSEB76YAAKZE","AKJLAFX2M86TP","3YO4AH2FPD6XG0OGOBTVFFK58DY0QT","","null","<img src=""img/flower1.png"" style=""width:200px;border:14px solid red;"">","null","","","","","","","","",""
"","image-keyboard-response","96","524483","0.0-96.0","3OF2M9AATHAAT2U562RSEB76YAAKZE","AKJLAFX2M86TP","3YO4AH2FPD6XG0OGOBTVFFK58DY0QT","","","img/flower6.png","","2002","-1","0","2","1","1,0.333,0.333,0.333,1,0.333,0.333,0.333,1","1,0.333,0.333,0.333,1,0.333,0.333,0.333,1","1",""
"","html-keyboard-response","97","524789","0.0-97.0","3OF2M9AATHAAT2U562RSEB76YAAKZE","AKJLAFX2M86TP","3YO4AH2FPD6XG0OGOBTVFFK58DY0QT","","null","<img src=""img/flower6.png"" style=""width:200px;border:14px solid red;"">","null","","","","","","","","",""
"","image-keyboard-response","98","526798","0.0-98.0","3OF2M9AATHAAT2U562RSEB76YAAKZE","AKJLAFX2M86TP","3YO4AH2FPD6XG0OGOBTVFFK58DY0QT","","","img/flower6.png","","2008","-1","0","2","1","1,0.333,0.333,0.333,1,0.333,0.333,0.333,1","1,0.333,0.333,0.333,1,0.333,0.333,0.333,1","1",""
"","html-keyboard-response","99","527100","0.0-99.0","3OF2M9AATHAAT2U562RSEB76YAAKZE","AKJLAFX2M86TP","3YO4AH2FPD6XG0OGOBTVFFK58DY0QT","","null","<img src=""img/flower6.png"" style=""width:200px;border:14px solid red;"">","null","","","","","","","","",""
"","image-keyboard-response","100","529101","0.0-100.0","3OF2M9AATHAAT2U562RSEB76YAAKZE","AKJLAFX2M86TP","3YO4AH2FPD6XG0OGOBTVFFK58DY0QT","","","img/flower1.png","","2000","-1","0","1","1","1,0.333,0.333,0.333,1,0.333,0.333,0.333,1","1,0.333,0.333,0.333,1,0.333,0.333,0.333,1","1",""
"","html-keyboard-response","101","529403","0.0-101.0","3OF2M9AATHAAT2U562RSEB76YAAKZE","AKJLAFX2M86TP","3YO4AH2FPD6XG0OGOBTVFFK58DY0QT","","null","<img src=""img/flower1.png"" style=""width:200px;border:14px solid red;"">","null","","","","","","","","",""
"","image-keyboard-response","102","531406","0.0-102.0","3OF2M9AATHAAT2U562RSEB76YAAKZE","AKJLAFX2M86TP","3YO4AH2FPD6XG0OGOBTVFFK58DY0QT","","","img/flower4.png","","2002","-1","0","3","1","1,0.333,0.333,0.333,1,0.333,0.333,0.333,1","1,0.333,0.333,0.333,1,0.333,0.333,0.333,1","1",""
"","html-keyboard-response","103","531709","0.0-103.0","3OF2M9AATHAAT2U562RSEB76YAAKZE","AKJLAFX2M86TP","3YO4AH2FPD6XG0OGOBTVFFK58DY0QT","","null","<img src=""img/flower4.png"" style=""width:200px;border:14px solid red;"">","null","","","","","","","","",""
"","image-keyboard-response","104","533712","0.0-104.0","3OF2M9AATHAAT2U562RSEB76YAAKZE","AKJLAFX2M86TP","3YO4AH2FPD6XG0OGOBTVFFK58DY0QT","","","img/flower4.png","","2002","-1","0","3","1","1,0.333,0.333,0.333,1,0.333,0.333,0.333,1","1,0.333,0.333,0.333,1,0.333,0.333,0.333,1","1",""
"","html-keyboard-response","105","534017","0.0-105.0","3OF2M9AATHAAT2U562RSEB76YAAKZE","AKJLAFX2M86TP","3YO4AH2FPD6XG0OGOBTVFFK58DY0QT","","null","<img src=""img/flower4.png"" style=""width:200px;border:14px solid red;"">","null","","","","","","","","",""
"","image-keyboard-response","106","536020","0.0-106.0","3OF2M9AATHAAT2U562RSEB76YAAKZE","AKJLAFX2M86TP","3YO4AH2FPD6XG0OGOBTVFFK58DY0QT","","","img/flower1.png","","2002","-1","0","1","1","1,0.333,0.333,0.333,1,0.333,0.333,0.333,1","1,0.333,0.333,0.333,1,0.333,0.333,0.333,1","1",""
"","html-keyboard-response","107","536323","0.0-107.0","3OF2M9AATHAAT2U562RSEB76YAAKZE","AKJLAFX2M86TP","3YO4AH2FPD6XG0OGOBTVFFK58DY0QT","","null","<img src=""img/flower1.png"" style=""width:200px;border:14px solid red;"">","null","","","","","","","","",""
"","image-keyboard-response","108","538326","0.0-108.0","3OF2M9AATHAAT2U562RSEB76YAAKZE","AKJLAFX2M86TP","3YO4AH2FPD6XG0OGOBTVFFK58DY0QT","","","img/flower6.png","","2003","-1","0","2","1","1,0.333,0.333,0.333,1,0.333,0.333,0.333,1","1,0.333,0.333,0.333,1,0.333,0.333,0.333,1","1",""
"","html-keyboard-response","109","538630","0.0-109.0","3OF2M9AATHAAT2U562RSEB76YAAKZE","AKJLAFX2M86TP","3YO4AH2FPD6XG0OGOBTVFFK58DY0QT","","null","<img src=""img/flower6.png"" style=""width:200px;border:14px solid red;"">","null","","","","","","","","",""
"","image-keyboard-response","110","540631","0.0-110.0","3OF2M9AATHAAT2U562RSEB76YAAKZE","AKJLAFX2M86TP","3YO4AH2FPD6XG0OGOBTVFFK58DY0QT","","","img/flower4.png","","2002","-1","0","3","1","1,0.333,0.333,0.333,1,0.333,0.333,0.333,1","1,0.333,0.333,0.333,1,0.333,0.333,0.333,1","1",""
"","html-keyboard-response","111","540936","0.0-111.0","3OF2M9AATHAAT2U562RSEB76YAAKZE","AKJLAFX2M86TP","3YO4AH2FPD6XG0OGOBTVFFK58DY0QT","","null","<img src=""img/flower4.png"" style=""width:200px;border:14px solid red;"">","null","","","","","","","","",""
"","image-keyboard-response","112","542938","0.0-112.0","3OF2M9AATHAAT2U562RSEB76YAAKZE","AKJLAFX2M86TP","3YO4AH2FPD6XG0OGOBTVFFK58DY0QT","","","img/flower4.png","","2002","-1","0","3","1","1,0.333,0.333,0.333,1,0.333,0.333,0.333,1","1,0.333,0.333,0.333,1,0.333,0.333,0.333,1","1",""
"","html-keyboard-response","113","543241","0.0-113.0","3OF2M9AATHAAT2U562RSEB76YAAKZE","AKJLAFX2M86TP","3YO4AH2FPD6XG0OGOBTVFFK58DY0QT","","null","<img src=""img/flower4.png"" style=""width:200px;border:14px solid red;"">","null","","","","","","","","",""
"","image-keyboard-response","114","545245","0.0-114.0","3OF2M9AATHAAT2U562RSEB76YAAKZE","AKJLAFX2M86TP","3YO4AH2FPD6XG0OGOBTVFFK58DY0QT","","","img/flower6.png","","2002","-1","0","2","1","1,0.333,0.333,0.333,1,0.333,0.333,0.333,1","1,0.333,0.333,0.333,1,0.333,0.333,0.333,1","1",""
"","html-keyboard-response","115","545548","0.0-115.0","3OF2M9AATHAAT2U562RSEB76YAAKZE","AKJLAFX2M86TP","3YO4AH2FPD6XG0OGOBTVFFK58DY0QT","","null","<img src=""img/flower6.png"" style=""width:200px;border:14px solid red;"">","null","","","","","","","","",""
"","image-keyboard-response","116","547553","0.0-116.0","3OF2M9AATHAAT2U562RSEB76YAAKZE","AKJLAFX2M86TP","3YO4AH2FPD6XG0OGOBTVFFK58DY0QT","","","img/flower1.png","","2004","-1","0","1","1","1,0.333,0.333,0.333,1,0.333,0.333,0.333,1","1,0.333,0.333,0.333,1,0.333,0.333,0.333,1","1",""
"","html-keyboard-response","117","547854","0.0-117.0","3OF2M9AATHAAT2U562RSEB76YAAKZE","AKJLAFX2M86TP","3YO4AH2FPD6XG0OGOBTVFFK58DY0QT","","null","<img src=""img/flower1.png"" style=""width:200px;border:14px solid red;"">","null","","","","","","","","",""
"","image-keyboard-response","118","549856","0.0-118.0","3OF2M9AATHAAT2U562RSEB76YAAKZE","AKJLAFX2M86TP","3YO4AH2FPD6XG0OGOBTVFFK58DY0QT","","","img/flower1.png","","2002","-1","0","1","1","1,0.333,0.333,0.333,1,0.333,0.333,0.333,1","1,0.333,0.333,0.333,1,0.333,0.333,0.333,1","1",""
"","html-keyboard-response","119","550159","0.0-119.0","3OF2M9AATHAAT2U562RSEB76YAAKZE","AKJLAFX2M86TP","3YO4AH2FPD6XG0OGOBTVFFK58DY0QT","","null","<img src=""img/flower1.png"" style=""width:200px;border:14px solid red;"">","null","","","","","","","","",""
"","image-keyboard-response","120","552163","0.0-120.0","3OF2M9AATHAAT2U562RSEB76YAAKZE","AKJLAFX2M86TP","3YO4AH2FPD6XG0OGOBTVFFK58DY0QT","","","img/flower6.png","","2003","-1","0","2","1","1,0.333,0.333,0.333,1,0.333,0.333,0.333,1","1,0.333,0.333,0.333,1,0.333,0.333,0.333,1","1",""
"","html-keyboard-response","121","552464","0.0-121.0","3OF2M9AATHAAT2U562RSEB76YAAKZE","AKJLAFX2M86TP","3YO4AH2FPD6XG0OGOBTVFFK58DY0QT","","null","<img src=""img/flower6.png"" style=""width:200px;border:14px solid red;"">","null","","","","","","","","",""
"","image-keyboard-response","122","554467","0.0-122.0","3OF2M9AATHAAT2U562RSEB76YAAKZE","AKJLAFX2M86TP","3YO4AH2FPD6XG0OGOBTVFFK58DY0QT","","","img/flower4.png","","2002","-1","0","3","1","1,0.333,0.333,0.333,1,0.333,0.333,0.333,1","1,0.333,0.333,0.333,1,0.333,0.333,0.333,1","1",""
"","html-keyboard-response","123","554768","0.0-123.0","3OF2M9AATHAAT2U562RSEB76YAAKZE","AKJLAFX2M86TP","3YO4AH2FPD6XG0OGOBTVFFK58DY0QT","","null","<img src=""img/flower4.png"" style=""width:200px;border:14px solid red;"">","null","","","","","","","","",""
"","image-keyboard-response","124","556774","0.0-124.0","3OF2M9AATHAAT2U562RSEB76YAAKZE","AKJLAFX2M86TP","3YO4AH2FPD6XG0OGOBTVFFK58DY0QT","","","img/flower4.png","","2005","-1","0","3","1","1,0.333,0.333,0.333,1,0.333,0.333,0.333,1","1,0.333,0.333,0.333,1,0.333,0.333,0.333,1","1",""
"","html-keyboard-response","125","557076","0.0-125.0","3OF2M9AATHAAT2U562RSEB76YAAKZE","AKJLAFX2M86TP","3YO4AH2FPD6XG0OGOBTVFFK58DY0QT","","null","<img src=""img/flower4.png"" style=""width:200px;border:14px solid red;"">","null","","","","","","","","",""
"","image-keyboard-response","126","559081","0.0-126.0","3OF2M9AATHAAT2U562RSEB76YAAKZE","AKJLAFX2M86TP","3YO4AH2FPD6XG0OGOBTVFFK58DY0QT","","","img/flower4.png","","2004","-1","0","3","1","1,0.333,0.333,0.333,1,0.333,0.333,0.333,1","1,0.333,0.333,0.333,1,0.333,0.333,0.333,1","1",""
"","html-keyboard-response","127","559384","0.0-127.0","3OF2M9AATHAAT2U562RSEB76YAAKZE","AKJLAFX2M86TP","3YO4AH2FPD6XG0OGOBTVFFK58DY0QT","","null","<img src=""img/flower4.png"" style=""width:200px;border:14px solid red;"">","null","","","","","","","","",""
"","image-keyboard-response","128","561388","0.0-128.0","3OF2M9AATHAAT2U562RSEB76YAAKZE","AKJLAFX2M86TP","3YO4AH2FPD6XG0OGOBTVFFK58DY0QT","","","img/flower1.png","","2003","-1","0","1","1","1,0.333,0.333,0.333,1,0.333,0.333,0.333,1","1,0.333,0.333,0.333,1,0.333,0.333,0.333,1","1",""
"","html-keyboard-response","129","561693","0.0-129.0","3OF2M9AATHAAT2U562RSEB76YAAKZE","AKJLAFX2M86TP","3YO4AH2FPD6XG0OGOBTVFFK58DY0QT","","null","<img src=""img/flower1.png"" style=""width:200px;border:14px solid red;"">","null","","","","","","","","",""
"","image-keyboard-response","130","563696","0.0-130.0","3OF2M9AATHAAT2U562RSEB76YAAKZE","AKJLAFX2M86TP","3YO4AH2FPD6XG0OGOBTVFFK58DY0QT","","","img/flower6.png","","2002","-1","0","2","1","1,0.333,0.333,0.333,1,0.333,0.333,0.333,1","1,0.333,0.333,0.333,1,0.333,0.333,0.333,1","1",""
"","html-keyboard-response","131","563998","0.0-131.0","3OF2M9AATHAAT2U562RSEB76YAAKZE","AKJLAFX2M86TP","3YO4AH2FPD6XG0OGOBTVFFK58DY0QT","","null","<img src=""img/flower6.png"" style=""width:200px;border:14px solid red;"">","null","","","","","","","","",""
"","image-keyboard-response","132","566002","0.0-132.0","3OF2M9AATHAAT2U562RSEB76YAAKZE","AKJLAFX2M86TP","3YO4AH2FPD6XG0OGOBTVFFK58DY0QT","","","img/flower1.png","","2003","-1","0","1","1","1,0.333,0.333,0.333,1,0.333,0.333,0.333,1","1,0.333,0.333,0.333,1,0.333,0.333,0.333,1","1",""
"","html-keyboard-response","133","566305","0.0-133.0","3OF2M9AATHAAT2U562RSEB76YAAKZE","AKJLAFX2M86TP","3YO4AH2FPD6XG0OGOBTVFFK58DY0QT","","null","<img src=""img/flower1.png"" style=""width:200px;border:14px solid red;"">","null","","","","","","","","",""
"","image-keyboard-response","134","568309","0.0-134.0","3OF2M9AATHAAT2U562RSEB76YAAKZE","AKJLAFX2M86TP","3YO4AH2FPD6XG0OGOBTVFFK58DY0QT","","","img/flower1.png","","2004","-1","0","1","1","1,0.333,0.333,0.333,1,0.333,0.333,0.333,1","1,0.333,0.333,0.333,1,0.333,0.333,0.333,1","1",""
"","html-keyboard-response","135","568610","0.0-135.0","3OF2M9AATHAAT2U562RSEB76YAAKZE","AKJLAFX2M86TP","3YO4AH2FPD6XG0OGOBTVFFK58DY0QT","","null","<img src=""img/flower1.png"" style=""width:200px;border:14px solid red;"">","null","","","","","","","","",""
"","image-keyboard-response","136","570613","0.0-136.0","3OF2M9AATHAAT2U562RSEB76YAAKZE","AKJLAFX2M86TP","3YO4AH2FPD6XG0OGOBTVFFK58DY0QT","","","img/flower1.png","","2002","-1","0","1","1","1,0.333,0.333,0.333,1,0.333,0.333,0.333,1","1,0.333,0.333,0.333,1,0.333,0.333,0.333,1","1",""
"","html-keyboard-response","137","570915","0.0-137.0","3OF2M9AATHAAT2U562RSEB76YAAKZE","AKJLAFX2M86TP","3YO4AH2FPD6XG0OGOBTVFFK58DY0QT","","null","<img src=""img/flower1.png"" style=""width:200px;border:14px solid red;"">","null","","","","","","","","",""
"","image-keyboard-response","138","572923","0.0-138.0","3OF2M9AATHAAT2U562RSEB76YAAKZE","AKJLAFX2M86TP","3YO4AH2FPD6XG0OGOBTVFFK58DY0QT","","","img/flower6.png","","2007","-1","0","2","1","1,0.333,0.333,0.333,1,0.333,0.333,0.333,1","1,0.333,0.333,0.333,1,0.333,0.333,0.333,1","1",""
"","html-keyboard-response","139","573224","0.0-139.0","3OF2M9AATHAAT2U562RSEB76YAAKZE","AKJLAFX2M86TP","3YO4AH2FPD6XG0OGOBTVFFK58DY0QT","","null","<img src=""img/flower6.png"" style=""width:200px;border:14px solid red;"">","null","","","","","","","","",""
"","image-keyboard-response","140","575227","0.0-140.0","3OF2M9AATHAAT2U562RSEB76YAAKZE","AKJLAFX2M86TP","3YO4AH2FPD6XG0OGOBTVFFK58DY0QT","","","img/flower1.png","","2002","-1","0","1","1","1,0.333,0.333,0.333,1,0.333,0.333,0.333,1","1,0.333,0.333,0.333,1,0.333,0.333,0.333,1","1",""
"","html-keyboard-response","141","575529","0.0-141.0","3OF2M9AATHAAT2U562RSEB76YAAKZE","AKJLAFX2M86TP","3YO4AH2FPD6XG0OGOBTVFFK58DY0QT","","null","<img src=""img/flower1.png"" style=""width:200px;border:14px solid red;"">","null","","","","","","","","",""
"","image-keyboard-response","142","577531","0.0-142.0","3OF2M9AATHAAT2U562RSEB76YAAKZE","AKJLAFX2M86TP","3YO4AH2FPD6XG0OGOBTVFFK58DY0QT","","","img/flower1.png","","2001","-1","0","1","1","1,0.333,0.333,0.333,1,0.333,0.333,0.333,1","1,0.333,0.333,0.333,1,0.333,0.333,0.333,1","1",""
"","html-keyboard-response","143","577833","0.0-143.0","3OF2M9AATHAAT2U562RSEB76YAAKZE","AKJLAFX2M86TP","3YO4AH2FPD6XG0OGOBTVFFK58DY0QT","","null","<img src=""img/flower1.png"" style=""width:200px;border:14px solid red;"">","null","","","","","","","","",""
"","image-keyboard-response","144","579836","0.0-144.0","3OF2M9AATHAAT2U562RSEB76YAAKZE","AKJLAFX2M86TP","3YO4AH2FPD6XG0OGOBTVFFK58DY0QT","","","img/flower4.png","","2004","-1","0","3","1","1,0.333,0.333,0.333,1,0.333,0.333,0.333,1","1,0.333,0.333,0.333,1,0.333,0.333,0.333,1","1",""
"","html-keyboard-response","145","580139","0.0-145.0","3OF2M9AATHAAT2U562RSEB76YAAKZE","AKJLAFX2M86TP","3YO4AH2FPD6XG0OGOBTVFFK58DY0QT","","null","<img src=""img/flower4.png"" style=""width:200px;border:14px solid red;"">","null","","","","","","","","",""
"","image-keyboard-response","146","582142","0.0-146.0","3OF2M9AATHAAT2U562RSEB76YAAKZE","AKJLAFX2M86TP","3YO4AH2FPD6XG0OGOBTVFFK58DY0QT","","","img/flower4.png","","2002","-1","0","3","1","1,0.333,0.333,0.333,1,0.333,0.333,0.333,1","1,0.333,0.333,0.333,1,0.333,0.333,0.333,1","1",""
"","html-keyboard-response","147","582445","0.0-147.0","3OF2M9AATHAAT2U562RSEB76YAAKZE","AKJLAFX2M86TP","3YO4AH2FPD6XG0OGOBTVFFK58DY0QT","","null","<img src=""img/flower4.png"" style=""width:200px;border:14px solid red;"">","null","","","","","","","","",""
"","image-keyboard-response","148","584447","0.0-148.0","3OF2M9AATHAAT2U562RSEB76YAAKZE","AKJLAFX2M86TP","3YO4AH2FPD6XG0OGOBTVFFK58DY0QT","","","img/flower6.png","","2001","-1","0","2","1","1,0.333,0.333,0.333,1,0.333,0.333,0.333,1","1,0.333,0.333,0.333,1,0.333,0.333,0.333,1","1",""
"","html-keyboard-response","149","584749","0.0-149.0","3OF2M9AATHAAT2U562RSEB76YAAKZE","AKJLAFX2M86TP","3YO4AH2FPD6XG0OGOBTVFFK58DY0QT","","null","<img src=""img/flower6.png"" style=""width:200px;border:14px solid red;"">","null","","","","","","","","",""
"","image-keyboard-response","150","586752","0.0-150.0","3OF2M9AATHAAT2U562RSEB76YAAKZE","AKJLAFX2M86TP","3YO4AH2FPD6XG0OGOBTVFFK58DY0QT","","","img/flower6.png","","2002","-1","0","2","1","1,0.333,0.333,0.333,1,0.333,0.333,0.333,1","1,0.333,0.333,0.333,1,0.333,0.333,0.333,1","1",""
"","html-keyboard-response","151","587054","0.0-151.0","3OF2M9AATHAAT2U562RSEB76YAAKZE","AKJLAFX2M86TP","3YO4AH2FPD6XG0OGOBTVFFK58DY0QT","","null","<img src=""img/flower6.png"" style=""width:200px;border:14px solid red;"">","null","","","","","","","","",""
"","image-keyboard-response","152","589055","0.0-152.0","3OF2M9AATHAAT2U562RSEB76YAAKZE","AKJLAFX2M86TP","3YO4AH2FPD6XG0OGOBTVFFK58DY0QT","","","img/flower6.png","","2001","-1","0","2","1","1,0.333,0.333,0.333,1,0.333,0.333,0.333,1","1,0.333,0.333,0.333,1,0.333,0.333,0.333,1","1",""
"","html-keyboard-response","153","589358","0.0-153.0","3OF2M9AATHAAT2U562RSEB76YAAKZE","AKJLAFX2M86TP","3YO4AH2FPD6XG0OGOBTVFFK58DY0QT","","null","<img src=""img/flower6.png"" style=""width:200px;border:14px solid red;"">","null","","","","","","","","",""
"","image-keyboard-response","154","591360","0.0-154.0","3OF2M9AATHAAT2U562RSEB76YAAKZE","AKJLAFX2M86TP","3YO4AH2FPD6XG0OGOBTVFFK58DY0QT","","","img/flower4.png","","2001","-1","0","3","1","1,0.333,0.333,0.333,1,0.333,0.333,0.333,1","1,0.333,0.333,0.333,1,0.333,0.333,0.333,1","1",""
"","html-keyboard-response","155","591665","0.0-155.0","3OF2M9AATHAAT2U562RSEB76YAAKZE","AKJLAFX2M86TP","3YO4AH2FPD6XG0OGOBTVFFK58DY0QT","","null","<img src=""img/flower4.png"" style=""width:200px;border:14px solid red;"">","null","","","","","","","","",""
"","image-keyboard-response","156","593667","0.0-156.0","3OF2M9AATHAAT2U562RSEB76YAAKZE","AKJLAFX2M86TP","3YO4AH2FPD6XG0OGOBTVFFK58DY0QT","","","img/flower6.png","","2002","-1","0","2","1","1,0.333,0.333,0.333,1,0.333,0.333,0.333,1","1,0.333,0.333,0.333,1,0.333,0.333,0.333,1","1",""
"","html-keyboard-response","157","593996","0.0-157.0","3OF2M9AATHAAT2U562RSEB76YAAKZE","AKJLAFX2M86TP","3YO4AH2FPD6XG0OGOBTVFFK58DY0QT","","null","<img src=""img/flower6.png"" style=""width:200px;border:14px solid red;"">","null","","","","","","","","",""
"","image-keyboard-response","158","595998","0.0-158.0","3OF2M9AATHAAT2U562RSEB76YAAKZE","AKJLAFX2M86TP","3YO4AH2FPD6XG0OGOBTVFFK58DY0QT","","","img/flower6.png","","2002","-1","0","2","1","1,0.333,0.333,0.333,1,0.333,0.333,0.333,1","1,0.333,0.333,0.333,1,0.333,0.333,0.333,1","1",""
"","html-keyboard-response","159","596300","0.0-159.0","3OF2M9AATHAAT2U562RSEB76YAAKZE","AKJLAFX2M86TP","3YO4AH2FPD6XG0OGOBTVFFK58DY0QT","","null","<img src=""img/flower6.png"" style=""width:200px;border:14px solid red;"">","null","","","","","","","","",""
"","image-keyboard-response","160","598303","0.0-160.0","3OF2M9AATHAAT2U562RSEB76YAAKZE","AKJLAFX2M86TP","3YO4AH2FPD6XG0OGOBTVFFK58DY0QT","","","img/flower1.png","","2003","-1","0","1","1","1,0.333,0.333,0.333,1,0.333,0.333,0.333,1","1,0.333,0.333,0.333,1,0.333,0.333,0.333,1","1",""
"","html-keyboard-response","161","598608","0.0-161.0","3OF2M9AATHAAT2U562RSEB76YAAKZE","AKJLAFX2M86TP","3YO4AH2FPD6XG0OGOBTVFFK58DY0QT","","null","<img src=""img/flower1.png"" style=""width:200px;border:14px solid red;"">","null","","","","","","","","",""
"","image-keyboard-response","162","600611","0.0-162.0","3OF2M9AATHAAT2U562RSEB76YAAKZE","AKJLAFX2M86TP","3YO4AH2FPD6XG0OGOBTVFFK58DY0QT","","","img/flower1.png","","2003","-1","0","1","1","1,0.333,0.333,0.333,1,0.333,0.333,0.333,1","1,0.333,0.333,0.333,1,0.333,0.333,0.333,1","1",""
"","html-keyboard-response","163","600914","0.0-163.0","3OF2M9AATHAAT2U562RSEB76YAAKZE","AKJLAFX2M86TP","3YO4AH2FPD6XG0OGOBTVFFK58DY0QT","","null","<img src=""img/flower1.png"" style=""width:200px;border:14px solid red;"">","null","","","","","","","","",""
"","image-keyboard-response","164","602919","0.0-164.0","3OF2M9AATHAAT2U562RSEB76YAAKZE","AKJLAFX2M86TP","3YO4AH2FPD6XG0OGOBTVFFK58DY0QT","","","img/flower1.png","","2004","-1","0","1","1","1,0.333,0.333,0.333,1,0.333,0.333,0.333,1","1,0.333,0.333,0.333,1,0.333,0.333,0.333,1","1",""
"","html-keyboard-response","165","603220","0.0-165.0","3OF2M9AATHAAT2U562RSEB76YAAKZE","AKJLAFX2M86TP","3YO4AH2FPD6XG0OGOBTVFFK58DY0QT","","null","<img src=""img/flower1.png"" style=""width:200px;border:14px solid red;"">","null","","","","","","","","",""
"","image-keyboard-response","166","605222","0.0-166.0","3OF2M9AATHAAT2U562RSEB76YAAKZE","AKJLAFX2M86TP","3YO4AH2FPD6XG0OGOBTVFFK58DY0QT","","","img/flower6.png","","2001","-1","0","2","1","1,0.333,0.333,0.333,1,0.333,0.333,0.333,1","1,0.333,0.333,0.333,1,0.333,0.333,0.333,1","1",""
"","html-keyboard-response","167","605531","0.0-167.0","3OF2M9AATHAAT2U562RSEB76YAAKZE","AKJLAFX2M86TP","3YO4AH2FPD6XG0OGOBTVFFK58DY0QT","","null","<img src=""img/flower6.png"" style=""width:200px;border:14px solid red;"">","null","","","","","","","","",""
"","image-keyboard-response","168","607536","0.0-168.0","3OF2M9AATHAAT2U562RSEB76YAAKZE","AKJLAFX2M86TP","3YO4AH2FPD6XG0OGOBTVFFK58DY0QT","","","img/flower6.png","","2005","-1","0","2","1","1,0.333,0.333,0.333,1,0.333,0.333,0.333,1","1,0.333,0.333,0.333,1,0.333,0.333,0.333,1","1",""
"","html-keyboard-response","169","607839","0.0-169.0","3OF2M9AATHAAT2U562RSEB76YAAKZE","AKJLAFX2M86TP","3YO4AH2FPD6XG0OGOBTVFFK58DY0QT","","null","<img src=""img/flower6.png"" style=""width:200px;border:14px solid red;"">","null","","","","","","","","",""
"","image-keyboard-response","170","609843","0.0-170.0","3OF2M9AATHAAT2U562RSEB76YAAKZE","AKJLAFX2M86TP","3YO4AH2FPD6XG0OGOBTVFFK58DY0QT","","","img/flower1.png","","2004","-1","0","1","1","1,0.333,0.333,0.333,1,0.333,0.333,0.333,1","1,0.333,0.333,0.333,1,0.333,0.333,0.333,1","1",""
"","html-keyboard-response","171","610145","0.0-171.0","3OF2M9AATHAAT2U562RSEB76YAAKZE","AKJLAFX2M86TP","3YO4AH2FPD6XG0OGOBTVFFK58DY0QT","","null","<img src=""img/flower1.png"" style=""width:200px;border:14px solid red;"">","null","","","","","","","","",""
"","image-keyboard-response","172","612148","0.0-172.0","3OF2M9AATHAAT2U562RSEB76YAAKZE","AKJLAFX2M86TP","3YO4AH2FPD6XG0OGOBTVFFK58DY0QT","","","img/flower6.png","","2002","-1","0","2","1","1,0.333,0.333,0.333,1,0.333,0.333,0.333,1","1,0.333,0.333,0.333,1,0.333,0.333,0.333,1","1",""
"","html-keyboard-response","173","612451","0.0-173.0","3OF2M9AATHAAT2U562RSEB76YAAKZE","AKJLAFX2M86TP","3YO4AH2FPD6XG0OGOBTVFFK58DY0QT","","null","<img src=""img/flower6.png"" style=""width:200px;border:14px solid red;"">","null","","","","","","","","",""
"","image-keyboard-response","174","614456","0.0-174.0","3OF2M9AATHAAT2U562RSEB76YAAKZE","AKJLAFX2M86TP","3YO4AH2FPD6XG0OGOBTVFFK58DY0QT","","","img/flower6.png","","2004","-1","0","2","1","1,0.333,0.333,0.333,1,0.333,0.333,0.333,1","1,0.333,0.333,0.333,1,0.333,0.333,0.333,1","1",""
"","html-keyboard-response","175","614759","0.0-175.0","3OF2M9AATHAAT2U562RSEB76YAAKZE","AKJLAFX2M86TP","3YO4AH2FPD6XG0OGOBTVFFK58DY0QT","","null","<img src=""img/flower6.png"" style=""width:200px;border:14px solid red;"">","null","","","","","","","","",""
"","image-keyboard-response","176","616763","0.0-176.0","3OF2M9AATHAAT2U562RSEB76YAAKZE","AKJLAFX2M86TP","3YO4AH2FPD6XG0OGOBTVFFK58DY0QT","","","img/flower1.png","","2003","-1","0","1","1","1,0.333,0.333,0.333,1,0.333,0.333,0.333,1","1,0.333,0.333,0.333,1,0.333,0.333,0.333,1","1",""
"","html-keyboard-response","177","617075","0.0-177.0","3OF2M9AATHAAT2U562RSEB76YAAKZE","AKJLAFX2M86TP","3YO4AH2FPD6XG0OGOBTVFFK58DY0QT","","null","<img src=""img/flower1.png"" style=""width:200px;border:14px solid red;"">","null","","","","","","","","",""
"","image-keyboard-response","178","619080","0.0-178.0","3OF2M9AATHAAT2U562RSEB76YAAKZE","AKJLAFX2M86TP","3YO4AH2FPD6XG0OGOBTVFFK58DY0QT","","","img/flower4.png","","2004","-1","0","3","1","1,0.333,0.333,0.333,1,0.333,0.333,0.333,1","1,0.333,0.333,0.333,1,0.333,0.333,0.333,1","1",""
"","html-keyboard-response","179","619386","0.0-179.0","3OF2M9AATHAAT2U562RSEB76YAAKZE","AKJLAFX2M86TP","3YO4AH2FPD6XG0OGOBTVFFK58DY0QT","","null","<img src=""img/flower4.png"" style=""width:200px;border:14px solid red;"">","null","","","","","","","","",""
"","image-keyboard-response","180","621389","0.0-180.0","3OF2M9AATHAAT2U562RSEB76YAAKZE","AKJLAFX2M86TP","3YO4AH2FPD6XG0OGOBTVFFK58DY0QT","","","img/flower1.png","","2002","-1","0","1","1","1,0.333,0.333,0.333,1,0.333,0.333,0.333,1","1,0.333,0.333,0.333,1,0.333,0.333,0.333,1","1",""
"","html-keyboard-response","181","621692","0.0-181.0","3OF2M9AATHAAT2U562RSEB76YAAKZE","AKJLAFX2M86TP","3YO4AH2FPD6XG0OGOBTVFFK58DY0QT","","null","<img src=""img/flower1.png"" style=""width:200px;border:14px solid red;"">","null","","","","","","","","",""
"","html-keyboard-response","182","671766","0.0-182.0","3OF2M9AATHAAT2U562RSEB76YAAKZE","AKJLAFX2M86TP","3YO4AH2FPD6XG0OGOBTVFFK58DY0QT","","","","","","","","","","","","",""
"","image-keyboard-response","183","673774","0.0-183.0","3OF2M9AATHAAT2U562RSEB76YAAKZE","AKJLAFX2M86TP","3YO4AH2FPD6XG0OGOBTVFFK58DY0QT","","","img/flower2.png","","2008","-1","0","1","2","1,0,0,1,1,0,1,0,1","1,0,0,1,1,0,1,0,1","1",""
"","html-keyboard-response","184","674086","0.0-184.0","3OF2M9AATHAAT2U562RSEB76YAAKZE","AKJLAFX2M86TP","3YO4AH2FPD6XG0OGOBTVFFK58DY0QT","","null","<img src=""img/flower2.png"" style=""width:200px;border:14px solid red;"">","null","","","","","","","","",""
"","image-keyboard-response","185","676089","0.0-185.0","3OF2M9AATHAAT2U562RSEB76YAAKZE","AKJLAFX2M86TP","3YO4AH2FPD6XG0OGOBTVFFK58DY0QT","","","img/flower5.png","","2003","-1","0","2","2","1,0,0,1,1,0,1,0,1","1,0,0,1,1,0,1,0,1","1",""
"","html-keyboard-response","186","676400","0.0-186.0","3OF2M9AATHAAT2U562RSEB76YAAKZE","AKJLAFX2M86TP","3YO4AH2FPD6XG0OGOBTVFFK58DY0QT","","null","<img src=""img/flower5.png"" style=""width:200px;border:14px solid red;"">","null","","","","","","","","",""
"","image-keyboard-response","187","678410","0.0-187.0","3OF2M9AATHAAT2U562RSEB76YAAKZE","AKJLAFX2M86TP","3YO4AH2FPD6XG0OGOBTVFFK58DY0QT","","","img/flower5.png","","2010","-1","0","2","2","1,0,0,1,1,0,1,0,1","1,0,0,1,1,0,1,0,1","1",""
"","html-keyboard-response","188","678712","0.0-188.0","3OF2M9AATHAAT2U562RSEB76YAAKZE","AKJLAFX2M86TP","3YO4AH2FPD6XG0OGOBTVFFK58DY0QT","","null","<img src=""img/flower5.png"" style=""width:200px;border:14px solid red;"">","null","","","","","","","","",""
"","image-keyboard-response","189","680715","0.0-189.0","3OF2M9AATHAAT2U562RSEB76YAAKZE","AKJLAFX2M86TP","3YO4AH2FPD6XG0OGOBTVFFK58DY0QT","","","img/flower5.png","","2002","-1","0","2","2","1,0,0,1,1,0,1,0,1","1,0,0,1,1,0,1,0,1","1",""
"","html-keyboard-response","190","681018","0.0-190.0","3OF2M9AATHAAT2U562RSEB76YAAKZE","AKJLAFX2M86TP","3YO4AH2FPD6XG0OGOBTVFFK58DY0QT","","null","<img src=""img/flower5.png"" style=""width:200px;border:14px solid red;"">","null","","","","","","","","",""
"","image-keyboard-response","191","683021","0.0-191.0","3OF2M9AATHAAT2U562RSEB76YAAKZE","AKJLAFX2M86TP","3YO4AH2FPD6XG0OGOBTVFFK58DY0QT","","","img/flower2.png","","2002","-1","0","1","2","1,0,0,1,1,0,1,0,1","1,0,0,1,1,0,1,0,1","1",""
"","html-keyboard-response","192","683325","0.0-192.0","3OF2M9AATHAAT2U562RSEB76YAAKZE","AKJLAFX2M86TP","3YO4AH2FPD6XG0OGOBTVFFK58DY0QT","","null","<img src=""img/flower2.png"" style=""width:200px;border:14px solid red;"">","null","","","","","","","","",""
"","image-keyboard-response","193","685332","0.0-193.0","3OF2M9AATHAAT2U562RSEB76YAAKZE","AKJLAFX2M86TP","3YO4AH2FPD6XG0OGOBTVFFK58DY0QT","","","img/flower5.png","","2006","-1","0","2","2","1,0,0,1,1,0,1,0,1","1,0,0,1,1,0,1,0,1","1",""
"","html-keyboard-response","194","685635","0.0-194.0","3OF2M9AATHAAT2U562RSEB76YAAKZE","AKJLAFX2M86TP","3YO4AH2FPD6XG0OGOBTVFFK58DY0QT","","null","<img src=""img/flower5.png"" style=""width:200px;border:14px solid red;"">","null","","","","","","","","",""
"","image-keyboard-response","195","687639","0.0-195.0","3OF2M9AATHAAT2U562RSEB76YAAKZE","AKJLAFX2M86TP","3YO4AH2FPD6XG0OGOBTVFFK58DY0QT","","","img/flower2.png","","2003","-1","0","1","2","1,0,0,1,1,0,1,0,1","1,0,0,1,1,0,1,0,1","1",""
"","html-keyboard-response","196","687941","0.0-196.0","3OF2M9AATHAAT2U562RSEB76YAAKZE","AKJLAFX2M86TP","3YO4AH2FPD6XG0OGOBTVFFK58DY0QT","","null","<img src=""img/flower2.png"" style=""width:200px;border:14px solid red;"">","null","","","","","","","","",""
"","image-keyboard-response","197","689943","0.0-197.0","3OF2M9AATHAAT2U562RSEB76YAAKZE","AKJLAFX2M86TP","3YO4AH2FPD6XG0OGOBTVFFK58DY0QT","","","img/flower2.png","","2002","-1","0","1","2","1,0,0,1,1,0,1,0,1","1,0,0,1,1,0,1,0,1","1",""
"","html-keyboard-response","198","690245","0.0-198.0","3OF2M9AATHAAT2U562RSEB76YAAKZE","AKJLAFX2M86TP","3YO4AH2FPD6XG0OGOBTVFFK58DY0QT","","null","<img src=""img/flower2.png"" style=""width:200px;border:14px solid red;"">","null","","","","","","","","",""
"","image-keyboard-response","199","692247","0.0-199.0","3OF2M9AATHAAT2U562RSEB76YAAKZE","AKJLAFX2M86TP","3YO4AH2FPD6XG0OGOBTVFFK58DY0QT","","","img/flower3.png","","2001","-1","0","3","2","1,0,0,1,1,0,1,0,1","1,0,0,1,1,0,1,0,1","1",""
"","html-keyboard-response","200","692550","0.0-200.0","3OF2M9AATHAAT2U562RSEB76YAAKZE","AKJLAFX2M86TP","3YO4AH2FPD6XG0OGOBTVFFK58DY0QT","","null","<img src=""img/flower3.png"" style=""width:200px;border:14px solid red;"">","null","","","","","","","","",""
"","image-keyboard-response","201","694551","0.0-201.0","3OF2M9AATHAAT2U562RSEB76YAAKZE","AKJLAFX2M86TP","3YO4AH2FPD6XG0OGOBTVFFK58DY0QT","","","img/flower5.png","","2000","-1","0","2","2","1,0,0,1,1,0,1,0,1","1,0,0,1,1,0,1,0,1","1",""
"","html-keyboard-response","202","694854","0.0-202.0","3OF2M9AATHAAT2U562RSEB76YAAKZE","AKJLAFX2M86TP","3YO4AH2FPD6XG0OGOBTVFFK58DY0QT","","null","<img src=""img/flower5.png"" style=""width:200px;border:14px solid red;"">","null","","","","","","","","",""
"","image-keyboard-response","203","696858","0.0-203.0","3OF2M9AATHAAT2U562RSEB76YAAKZE","AKJLAFX2M86TP","3YO4AH2FPD6XG0OGOBTVFFK58DY0QT","","","img/flower3.png","","2004","-1","0","3","2","1,0,0,1,1,0,1,0,1","1,0,0,1,1,0,1,0,1","1",""
"","html-keyboard-response","204","697162","0.0-204.0","3OF2M9AATHAAT2U562RSEB76YAAKZE","AKJLAFX2M86TP","3YO4AH2FPD6XG0OGOBTVFFK58DY0QT","","null","<img src=""img/flower3.png"" style=""width:200px;border:14px solid red;"">","null","","","","","","","","",""
"","image-keyboard-response","205","699163","0.0-205.0","3OF2M9AATHAAT2U562RSEB76YAAKZE","AKJLAFX2M86TP","3YO4AH2FPD6XG0OGOBTVFFK58DY0QT","","","img/flower5.png","","2000","-1","0","2","2","1,0,0,1,1,0,1,0,1","1,0,0,1,1,0,1,0,1","1",""
"","html-keyboard-response","206","699465","0.0-206.0","3OF2M9AATHAAT2U562RSEB76YAAKZE","AKJLAFX2M86TP","3YO4AH2FPD6XG0OGOBTVFFK58DY0QT","","null","<img src=""img/flower5.png"" style=""width:200px;border:14px solid red;"">","null","","","","","","","","",""
"","image-keyboard-response","207","701469","0.0-207.0","3OF2M9AATHAAT2U562RSEB76YAAKZE","AKJLAFX2M86TP","3YO4AH2FPD6XG0OGOBTVFFK58DY0QT","","","img/flower2.png","","2003","-1","0","1","2","1,0,0,1,1,0,1,0,1","1,0,0,1,1,0,1,0,1","1",""
"","html-keyboard-response","208","701771","0.0-208.0","3OF2M9AATHAAT2U562RSEB76YAAKZE","AKJLAFX2M86TP","3YO4AH2FPD6XG0OGOBTVFFK58DY0QT","","null","<img src=""img/flower2.png"" style=""width:200px;border:14px solid red;"">","null","","","","","","","","",""
"","image-keyboard-response","209","703778","0.0-209.0","3OF2M9AATHAAT2U562RSEB76YAAKZE","AKJLAFX2M86TP","3YO4AH2FPD6XG0OGOBTVFFK58DY0QT","","","img/flower5.png","","2006","-1","0","2","2","1,0,0,1,1,0,1,0,1","1,0,0,1,1,0,1,0,1","1",""
"","html-keyboard-response","210","704080","0.0-210.0","3OF2M9AATHAAT2U562RSEB76YAAKZE","AKJLAFX2M86TP","3YO4AH2FPD6XG0OGOBTVFFK58DY0QT","","null","<img src=""img/flower5.png"" style=""width:200px;border:14px solid red;"">","null","","","","","","","","",""
"","image-keyboard-response","211","706081","0.0-211.0","3OF2M9AATHAAT2U562RSEB76YAAKZE","AKJLAFX2M86TP","3YO4AH2FPD6XG0OGOBTVFFK58DY0QT","","","img/flower3.png","","2000","-1","0","3","2","1,0,0,1,1,0,1,0,1","1,0,0,1,1,0,1,0,1","1",""
"","html-keyboard-response","212","706384","0.0-212.0","3OF2M9AATHAAT2U562RSEB76YAAKZE","AKJLAFX2M86TP","3YO4AH2FPD6XG0OGOBTVFFK58DY0QT","","null","<img src=""img/flower3.png"" style=""width:200px;border:14px solid red;"">","null","","","","","","","","",""
"","image-keyboard-response","213","708386","0.0-213.0","3OF2M9AATHAAT2U562RSEB76YAAKZE","AKJLAFX2M86TP","3YO4AH2FPD6XG0OGOBTVFFK58DY0QT","","","img/flower3.png","","2002","-1","0","3","2","1,0,0,1,1,0,1,0,1","1,0,0,1,1,0,1,0,1","1",""
"","html-keyboard-response","214","708688","0.0-214.0","3OF2M9AATHAAT2U562RSEB76YAAKZE","AKJLAFX2M86TP","3YO4AH2FPD6XG0OGOBTVFFK58DY0QT","","null","<img src=""img/flower3.png"" style=""width:200px;border:14px solid red;"">","null","","","","","","","","",""
"","image-keyboard-response","215","710689","0.0-215.0","3OF2M9AATHAAT2U562RSEB76YAAKZE","AKJLAFX2M86TP","3YO4AH2FPD6XG0OGOBTVFFK58DY0QT","","","img/flower5.png","","2002","-1","0","2","2","1,0,0,1,1,0,1,0,1","1,0,0,1,1,0,1,0,1","1",""
"","html-keyboard-response","216","710992","0.0-216.0","3OF2M9AATHAAT2U562RSEB76YAAKZE","AKJLAFX2M86TP","3YO4AH2FPD6XG0OGOBTVFFK58DY0QT","","null","<img src=""img/flower5.png"" style=""width:200px;border:14px solid red;"">","null","","","","","","","","",""
"","image-keyboard-response","217","712994","0.0-217.0","3OF2M9AATHAAT2U562RSEB76YAAKZE","AKJLAFX2M86TP","3YO4AH2FPD6XG0OGOBTVFFK58DY0QT","","","img/flower2.png","","2002","-1","0","1","2","1,0,0,1,1,0,1,0,1","1,0,0,1,1,0,1,0,1","1",""
"","html-keyboard-response","218","713297","0.0-218.0","3OF2M9AATHAAT2U562RSEB76YAAKZE","AKJLAFX2M86TP","3YO4AH2FPD6XG0OGOBTVFFK58DY0QT","","null","<img src=""img/flower2.png"" style=""width:200px;border:14px solid red;"">","null","","","","","","","","",""
"","image-keyboard-response","219","715300","0.0-219.0","3OF2M9AATHAAT2U562RSEB76YAAKZE","AKJLAFX2M86TP","3YO4AH2FPD6XG0OGOBTVFFK58DY0QT","","","img/flower5.png","","2002","-1","0","2","2","1,0,0,1,1,0,1,0,1","1,0,0,1,1,0,1,0,1","1",""
"","html-keyboard-response","220","715602","0.0-220.0","3OF2M9AATHAAT2U562RSEB76YAAKZE","AKJLAFX2M86TP","3YO4AH2FPD6XG0OGOBTVFFK58DY0QT","","null","<img src=""img/flower5.png"" style=""width:200px;border:14px solid red;"">","null","","","","","","","","",""
"","image-keyboard-response","221","717603","0.0-221.0","3OF2M9AATHAAT2U562RSEB76YAAKZE","AKJLAFX2M86TP","3YO4AH2FPD6XG0OGOBTVFFK58DY0QT","","","img/flower5.png","","2001","-1","0","2","2","1,0,0,1,1,0,1,0,1","1,0,0,1,1,0,1,0,1","1",""
"","html-keyboard-response","222","717907","0.0-222.0","3OF2M9AATHAAT2U562RSEB76YAAKZE","AKJLAFX2M86TP","3YO4AH2FPD6XG0OGOBTVFFK58DY0QT","","null","<img src=""img/flower5.png"" style=""width:200px;border:14px solid red;"">","null","","","","","","","","",""
"","image-keyboard-response","223","719911","0.0-223.0","3OF2M9AATHAAT2U562RSEB76YAAKZE","AKJLAFX2M86TP","3YO4AH2FPD6XG0OGOBTVFFK58DY0QT","","","img/flower5.png","","2003","-1","0","2","2","1,0,0,1,1,0,1,0,1","1,0,0,1,1,0,1,0,1","1",""
"","html-keyboard-response","224","720214","0.0-224.0","3OF2M9AATHAAT2U562RSEB76YAAKZE","AKJLAFX2M86TP","3YO4AH2FPD6XG0OGOBTVFFK58DY0QT","","null","<img src=""img/flower5.png"" style=""width:200px;border:14px solid red;"">","null","","","","","","","","",""
"","image-keyboard-response","225","722218","0.0-225.0","3OF2M9AATHAAT2U562RSEB76YAAKZE","AKJLAFX2M86TP","3YO4AH2FPD6XG0OGOBTVFFK58DY0QT","","","img/flower5.png","","2003","-1","0","2","2","1,0,0,1,1,0,1,0,1","1,0,0,1,1,0,1,0,1","1",""
"","html-keyboard-response","226","722522","0.0-226.0","3OF2M9AATHAAT2U562RSEB76YAAKZE","AKJLAFX2M86TP","3YO4AH2FPD6XG0OGOBTVFFK58DY0QT","","null","<img src=""img/flower5.png"" style=""width:200px;border:14px solid red;"">","null","","","","","","","","",""
"","image-keyboard-response","227","724527","0.0-227.0","3OF2M9AATHAAT2U562RSEB76YAAKZE","AKJLAFX2M86TP","3YO4AH2FPD6XG0OGOBTVFFK58DY0QT","","","img/flower2.png","","2002","-1","0","1","2","1,0,0,1,1,0,1,0,1","1,0,0,1,1,0,1,0,1","1",""
"","html-keyboard-response","228","724829","0.0-228.0","3OF2M9AATHAAT2U562RSEB76YAAKZE","AKJLAFX2M86TP","3YO4AH2FPD6XG0OGOBTVFFK58DY0QT","","null","<img src=""img/flower2.png"" style=""width:200px;border:14px solid red;"">","null","","","","","","","","",""
"","image-keyboard-response","229","726833","0.0-229.0","3OF2M9AATHAAT2U562RSEB76YAAKZE","AKJLAFX2M86TP","3YO4AH2FPD6XG0OGOBTVFFK58DY0QT","","","img/flower2.png","","2003","-1","0","1","2","1,0,0,1,1,0,1,0,1","1,0,0,1,1,0,1,0,1","1",""
"","html-keyboard-response","230","727137","0.0-230.0","3OF2M9AATHAAT2U562RSEB76YAAKZE","AKJLAFX2M86TP","3YO4AH2FPD6XG0OGOBTVFFK58DY0QT","","null","<img src=""img/flower2.png"" style=""width:200px;border:14px solid red;"">","null","","","","","","","","",""
"","image-keyboard-response","231","729140","0.0-231.0","3OF2M9AATHAAT2U562RSEB76YAAKZE","AKJLAFX2M86TP","3YO4AH2FPD6XG0OGOBTVFFK58DY0QT","","","img/flower5.png","","2002","-1","0","2","2","1,0,0,1,1,0,1,0,1","1,0,0,1,1,0,1,0,1","1",""
"","html-keyboard-response","232","729445","0.0-232.0","3OF2M9AATHAAT2U562RSEB76YAAKZE","AKJLAFX2M86TP","3YO4AH2FPD6XG0OGOBTVFFK58DY0QT","","null","<img src=""img/flower5.png"" style=""width:200px;border:14px solid red;"">","null","","","","","","","","",""
"","image-keyboard-response","233","731447","0.0-233.0","3OF2M9AATHAAT2U562RSEB76YAAKZE","AKJLAFX2M86TP","3YO4AH2FPD6XG0OGOBTVFFK58DY0QT","","","img/flower2.png","","2002","-1","0","1","2","1,0,0,1,1,0,1,0,1","1,0,0,1,1,0,1,0,1","1",""
"","html-keyboard-response","234","731750","0.0-234.0","3OF2M9AATHAAT2U562RSEB76YAAKZE","AKJLAFX2M86TP","3YO4AH2FPD6XG0OGOBTVFFK58DY0QT","","null","<img src=""img/flower2.png"" style=""width:200px;border:14px solid red;"">","null","","","","","","","","",""
"","image-keyboard-response","235","733751","0.0-235.0","3OF2M9AATHAAT2U562RSEB76YAAKZE","AKJLAFX2M86TP","3YO4AH2FPD6XG0OGOBTVFFK58DY0QT","","","img/flower2.png","","2001","-1","0","1","2","1,0,0,1,1,0,1,0,1","1,0,0,1,1,0,1,0,1","1",""
"","html-keyboard-response","236","734055","0.0-236.0","3OF2M9AATHAAT2U562RSEB76YAAKZE","AKJLAFX2M86TP","3YO4AH2FPD6XG0OGOBTVFFK58DY0QT","","null","<img src=""img/flower2.png"" style=""width:200px;border:14px solid red;"">","null","","","","","","","","",""
"","image-keyboard-response","237","736073","0.0-237.0","3OF2M9AATHAAT2U562RSEB76YAAKZE","AKJLAFX2M86TP","3YO4AH2FPD6XG0OGOBTVFFK58DY0QT","","","img/flower2.png","","2017","-1","0","1","2","1,0,0,1,1,0,1,0,1","1,0,0,1,1,0,1,0,1","1",""
"","html-keyboard-response","238","736377","0.0-238.0","3OF2M9AATHAAT2U562RSEB76YAAKZE","AKJLAFX2M86TP","3YO4AH2FPD6XG0OGOBTVFFK58DY0QT","","null","<img src=""img/flower2.png"" style=""width:200px;border:14px solid red;"">","null","","","","","","","","",""
"","image-keyboard-response","239","738380","0.0-239.0","3OF2M9AATHAAT2U562RSEB76YAAKZE","AKJLAFX2M86TP","3YO4AH2FPD6XG0OGOBTVFFK58DY0QT","","","img/flower3.png","","2002","-1","0","3","2","1,0,0,1,1,0,1,0,1","1,0,0,1,1,0,1,0,1","1",""
"","html-keyboard-response","240","738683","0.0-240.0","3OF2M9AATHAAT2U562RSEB76YAAKZE","AKJLAFX2M86TP","3YO4AH2FPD6XG0OGOBTVFFK58DY0QT","","null","<img src=""img/flower3.png"" style=""width:200px;border:14px solid red;"">","null","","","","","","","","",""
"","image-keyboard-response","241","740686","0.0-241.0","3OF2M9AATHAAT2U562RSEB76YAAKZE","AKJLAFX2M86TP","3YO4AH2FPD6XG0OGOBTVFFK58DY0QT","","","img/flower2.png","","2003","-1","0","1","2","1,0,0,1,1,0,1,0,1","1,0,0,1,1,0,1,0,1","1",""
"","html-keyboard-response","242","740989","0.0-242.0","3OF2M9AATHAAT2U562RSEB76YAAKZE","AKJLAFX2M86TP","3YO4AH2FPD6XG0OGOBTVFFK58DY0QT","","null","<img src=""img/flower2.png"" style=""width:200px;border:14px solid red;"">","null","","","","","","","","",""
"","image-keyboard-response","243","742991","0.0-243.0","3OF2M9AATHAAT2U562RSEB76YAAKZE","AKJLAFX2M86TP","3YO4AH2FPD6XG0OGOBTVFFK58DY0QT","","","img/flower3.png","","2002","-1","0","3","2","1,0,0,1,1,0,1,0,1","1,0,0,1,1,0,1,0,1","1",""
"","html-keyboard-response","244","743299","0.0-244.0","3OF2M9AATHAAT2U562RSEB76YAAKZE","AKJLAFX2M86TP","3YO4AH2FPD6XG0OGOBTVFFK58DY0QT","","null","<img src=""img/flower3.png"" style=""width:200px;border:14px solid red;"">","null","","","","","","","","",""
"","image-keyboard-response","245","745303","0.0-245.0","3OF2M9AATHAAT2U562RSEB76YAAKZE","AKJLAFX2M86TP","3YO4AH2FPD6XG0OGOBTVFFK58DY0QT","","","img/flower5.png","","2003","-1","0","2","2","1,0,0,1,1,0,1,0,1","1,0,0,1,1,0,1,0,1","1",""
"","html-keyboard-response","246","745607","0.0-246.0","3OF2M9AATHAAT2U562RSEB76YAAKZE","AKJLAFX2M86TP","3YO4AH2FPD6XG0OGOBTVFFK58DY0QT","","null","<img src=""img/flower5.png"" style=""width:200px;border:14px solid red;"">","null","","","","","","","","",""
"","image-keyboard-response","247","747611","0.0-247.0","3OF2M9AATHAAT2U562RSEB76YAAKZE","AKJLAFX2M86TP","3YO4AH2FPD6XG0OGOBTVFFK58DY0QT","","","img/flower3.png","","2003","-1","0","3","2","1,0,0,1,1,0,1,0,1","1,0,0,1,1,0,1,0,1","1",""
"","html-keyboard-response","248","747912","0.0-248.0","3OF2M9AATHAAT2U562RSEB76YAAKZE","AKJLAFX2M86TP","3YO4AH2FPD6XG0OGOBTVFFK58DY0QT","","null","<img src=""img/flower3.png"" style=""width:200px;border:14px solid red;"">","null","","","","","","","","",""
"","image-keyboard-response","249","749921","0.0-249.0","3OF2M9AATHAAT2U562RSEB76YAAKZE","AKJLAFX2M86TP","3YO4AH2FPD6XG0OGOBTVFFK58DY0QT","","","img/flower2.png","","2008","-1","0","1","2","1,0,0,1,1,0,1,0,1","1,0,0,1,1,0,1,0,1","1",""
"","html-keyboard-response","250","750222","0.0-250.0","3OF2M9AATHAAT2U562RSEB76YAAKZE","AKJLAFX2M86TP","3YO4AH2FPD6XG0OGOBTVFFK58DY0QT","","null","<img src=""img/flower2.png"" style=""width:200px;border:14px solid red;"">","null","","","","","","","","",""
"","image-keyboard-response","251","752226","0.0-251.0","3OF2M9AATHAAT2U562RSEB76YAAKZE","AKJLAFX2M86TP","3YO4AH2FPD6XG0OGOBTVFFK58DY0QT","","","img/flower2.png","","2003","-1","0","1","2","1,0,0,1,1,0,1,0,1","1,0,0,1,1,0,1,0,1","1",""
"","html-keyboard-response","252","752528","0.0-252.0","3OF2M9AATHAAT2U562RSEB76YAAKZE","AKJLAFX2M86TP","3YO4AH2FPD6XG0OGOBTVFFK58DY0QT","","null","<img src=""img/flower2.png"" style=""width:200px;border:14px solid red;"">","null","","","","","","","","",""
"","image-keyboard-response","253","754531","0.0-253.0","3OF2M9AATHAAT2U562RSEB76YAAKZE","AKJLAFX2M86TP","3YO4AH2FPD6XG0OGOBTVFFK58DY0QT","","","img/flower3.png","","2003","-1","0","3","2","1,0,0,1,1,0,1,0,1","1,0,0,1,1,0,1,0,1","1",""
"","html-keyboard-response","254","754833","0.0-254.0","3OF2M9AATHAAT2U562RSEB76YAAKZE","AKJLAFX2M86TP","3YO4AH2FPD6XG0OGOBTVFFK58DY0QT","","null","<img src=""img/flower3.png"" style=""width:200px;border:14px solid red;"">","null","","","","","","","","",""
"","image-keyboard-response","255","756836","0.0-255.0","3OF2M9AATHAAT2U562RSEB76YAAKZE","AKJLAFX2M86TP","3YO4AH2FPD6XG0OGOBTVFFK58DY0QT","","","img/flower3.png","","2002","-1","0","3","2","1,0,0,1,1,0,1,0,1","1,0,0,1,1,0,1,0,1","1",""
"","html-keyboard-response","256","757141","0.0-256.0","3OF2M9AATHAAT2U562RSEB76YAAKZE","AKJLAFX2M86TP","3YO4AH2FPD6XG0OGOBTVFFK58DY0QT","","null","<img src=""img/flower3.png"" style=""width:200px;border:14px solid red;"">","null","","","","","","","","",""
"","image-keyboard-response","257","759143","0.0-257.0","3OF2M9AATHAAT2U562RSEB76YAAKZE","AKJLAFX2M86TP","3YO4AH2FPD6XG0OGOBTVFFK58DY0QT","","","img/flower2.png","","2002","-1","0","1","2","1,0,0,1,1,0,1,0,1","1,0,0,1,1,0,1,0,1","1",""
"","html-keyboard-response","258","759446","0.0-258.0","3OF2M9AATHAAT2U562RSEB76YAAKZE","AKJLAFX2M86TP","3YO4AH2FPD6XG0OGOBTVFFK58DY0QT","","null","<img src=""img/flower2.png"" style=""width:200px;border:14px solid red;"">","null","","","","","","","","",""
"","image-keyboard-response","259","761449","0.0-259.0","3OF2M9AATHAAT2U562RSEB76YAAKZE","AKJLAFX2M86TP","3YO4AH2FPD6XG0OGOBTVFFK58DY0QT","","","img/flower2.png","","2002","-1","0","1","2","1,0,0,1,1,0,1,0,1","1,0,0,1,1,0,1,0,1","1",""
"","html-keyboard-response","260","761753","0.0-260.0","3OF2M9AATHAAT2U562RSEB76YAAKZE","AKJLAFX2M86TP","3YO4AH2FPD6XG0OGOBTVFFK58DY0QT","","null","<img src=""img/flower2.png"" style=""width:200px;border:14px solid red;"">","null","","","","","","","","",""
"","image-keyboard-response","261","763755","0.0-261.0","3OF2M9AATHAAT2U562RSEB76YAAKZE","AKJLAFX2M86TP","3YO4AH2FPD6XG0OGOBTVFFK58DY0QT","","","img/flower5.png","","2001","-1","0","2","2","1,0,0,1,1,0,1,0,1","1,0,0,1,1,0,1,0,1","1",""
"","html-keyboard-response","262","764057","0.0-262.0","3OF2M9AATHAAT2U562RSEB76YAAKZE","AKJLAFX2M86TP","3YO4AH2FPD6XG0OGOBTVFFK58DY0QT","","null","<img src=""img/flower5.png"" style=""width:200px;border:14px solid red;"">","null","","","","","","","","",""
"","image-keyboard-response","263","766058","0.0-263.0","3OF2M9AATHAAT2U562RSEB76YAAKZE","AKJLAFX2M86TP","3YO4AH2FPD6XG0OGOBTVFFK58DY0QT","","","img/flower5.png","","2000","-1","0","2","2","1,0,0,1,1,0,1,0,1","1,0,0,1,1,0,1,0,1","1",""
"","html-keyboard-response","264","766361","0.0-264.0","3OF2M9AATHAAT2U562RSEB76YAAKZE","AKJLAFX2M86TP","3YO4AH2FPD6XG0OGOBTVFFK58DY0QT","","null","<img src=""img/flower5.png"" style=""width:200px;border:14px solid red;"">","null","","","","","","","","",""
"","image-keyboard-response","265","768364","0.0-265.0","3OF2M9AATHAAT2U562RSEB76YAAKZE","AKJLAFX2M86TP","3YO4AH2FPD6XG0OGOBTVFFK58DY0QT","","","img/flower3.png","","2003","-1","0","3","2","1,0,0,1,1,0,1,0,1","1,0,0,1,1,0,1,0,1","1",""
"","html-keyboard-response","266","768667","0.0-266.0","3OF2M9AATHAAT2U562RSEB76YAAKZE","AKJLAFX2M86TP","3YO4AH2FPD6XG0OGOBTVFFK58DY0QT","","null","<img src=""img/flower3.png"" style=""width:200px;border:14px solid red;"">","null","","","","","","","","",""
"","image-keyboard-response","267","770671","0.0-267.0","3OF2M9AATHAAT2U562RSEB76YAAKZE","AKJLAFX2M86TP","3YO4AH2FPD6XG0OGOBTVFFK58DY0QT","","","img/flower3.png","","2003","-1","0","3","2","1,0,0,1,1,0,1,0,1","1,0,0,1,1,0,1,0,1","1",""
"","html-keyboard-response","268","770973","0.0-268.0","3OF2M9AATHAAT2U562RSEB76YAAKZE","AKJLAFX2M86TP","3YO4AH2FPD6XG0OGOBTVFFK58DY0QT","","null","<img src=""img/flower3.png"" style=""width:200px;border:14px solid red;"">","null","","","","","","","","",""
"","image-keyboard-response","269","772974","0.0-269.0","3OF2M9AATHAAT2U562RSEB76YAAKZE","AKJLAFX2M86TP","3YO4AH2FPD6XG0OGOBTVFFK58DY0QT","","","img/flower3.png","","2000","-1","0","3","2","1,0,0,1,1,0,1,0,1","1,0,0,1,1,0,1,0,1","1",""
"","html-keyboard-response","270","773277","0.0-270.0","3OF2M9AATHAAT2U562RSEB76YAAKZE","AKJLAFX2M86TP","3YO4AH2FPD6XG0OGOBTVFFK58DY0QT","","null","<img src=""img/flower3.png"" style=""width:200px;border:14px solid red;"">","null","","","","","","","","",""
"","image-keyboard-response","271","775282","0.0-271.0","3OF2M9AATHAAT2U562RSEB76YAAKZE","AKJLAFX2M86TP","3YO4AH2FPD6XG0OGOBTVFFK58DY0QT","","","img/flower5.png","","2004","-1","0","2","2","1,0,0,1,1,0,1,0,1","1,0,0,1,1,0,1,0,1","1",""
"","html-keyboard-response","272","775588","0.0-272.0","3OF2M9AATHAAT2U562RSEB76YAAKZE","AKJLAFX2M86TP","3YO4AH2FPD6XG0OGOBTVFFK58DY0QT","","null","<img src=""img/flower5.png"" style=""width:200px;border:14px solid red;"">","null","","","","","","","","",""
"","image-keyboard-response","273","777590","0.0-273.0","3OF2M9AATHAAT2U562RSEB76YAAKZE","AKJLAFX2M86TP","3YO4AH2FPD6XG0OGOBTVFFK58DY0QT","","","img/flower2.png","","2001","-1","0","1","2","1,0,0,1,1,0,1,0,1","1,0,0,1,1,0,1,0,1","1",""
"","html-keyboard-response","274","777893","0.0-274.0","3OF2M9AATHAAT2U562RSEB76YAAKZE","AKJLAFX2M86TP","3YO4AH2FPD6XG0OGOBTVFFK58DY0QT","","null","<img src=""img/flower2.png"" style=""width:200px;border:14px solid red;"">","null","","","","","","","","",""
"","image-keyboard-response","275","779898","0.0-275.0","3OF2M9AATHAAT2U562RSEB76YAAKZE","AKJLAFX2M86TP","3YO4AH2FPD6XG0OGOBTVFFK58DY0QT","","","img/flower2.png","","2004","-1","0","1","2","1,0,0,1,1,0,1,0,1","1,0,0,1,1,0,1,0,1","1",""
"","html-keyboard-response","276","780201","0.0-276.0","3OF2M9AATHAAT2U562RSEB76YAAKZE","AKJLAFX2M86TP","3YO4AH2FPD6XG0OGOBTVFFK58DY0QT","","null","<img src=""img/flower2.png"" style=""width:200px;border:14px solid red;"">","null","","","","","","","","",""
"","image-keyboard-response","277","782203","0.0-277.0","3OF2M9AATHAAT2U562RSEB76YAAKZE","AKJLAFX2M86TP","3YO4AH2FPD6XG0OGOBTVFFK58DY0QT","","","img/flower5.png","","2002","-1","0","2","2","1,0,0,1,1,0,1,0,1","1,0,0,1,1,0,1,0,1","1",""
"","html-keyboard-response","278","782507","0.0-278.0","3OF2M9AATHAAT2U562RSEB76YAAKZE","AKJLAFX2M86TP","3YO4AH2FPD6XG0OGOBTVFFK58DY0QT","","null","<img src=""img/flower5.png"" style=""width:200px;border:14px solid red;"">","null","","","","","","","","",""
"","image-keyboard-response","279","784510","0.0-279.0","3OF2M9AATHAAT2U562RSEB76YAAKZE","AKJLAFX2M86TP","3YO4AH2FPD6XG0OGOBTVFFK58DY0QT","","","img/flower3.png","","2003","-1","0","3","2","1,0,0,1,1,0,1,0,1","1,0,0,1,1,0,1,0,1","1",""
"","html-keyboard-response","280","784813","0.0-280.0","3OF2M9AATHAAT2U562RSEB76YAAKZE","AKJLAFX2M86TP","3YO4AH2FPD6XG0OGOBTVFFK58DY0QT","","null","<img src=""img/flower3.png"" style=""width:200px;border:14px solid red;"">","null","","","","","","","","",""
"","image-keyboard-response","281","786816","0.0-281.0","3OF2M9AATHAAT2U562RSEB76YAAKZE","AKJLAFX2M86TP","3YO4AH2FPD6XG0OGOBTVFFK58DY0QT","","","img/flower5.png","","2004","-1","0","2","2","1,0,0,1,1,0,1,0,1","1,0,0,1,1,0,1,0,1","1",""
"","html-keyboard-response","282","787121","0.0-282.0","3OF2M9AATHAAT2U562RSEB76YAAKZE","AKJLAFX2M86TP","3YO4AH2FPD6XG0OGOBTVFFK58DY0QT","","null","<img src=""img/flower5.png"" style=""width:200px;border:14px solid red;"">","null","","","","","","","","",""
"","image-keyboard-response","283","789125","0.0-283.0","3OF2M9AATHAAT2U562RSEB76YAAKZE","AKJLAFX2M86TP","3YO4AH2FPD6XG0OGOBTVFFK58DY0QT","","","img/flower3.png","","2003","-1","0","3","2","1,0,0,1,1,0,1,0,1","1,0,0,1,1,0,1,0,1","1",""
"","html-keyboard-response","284","789427","0.0-284.0","3OF2M9AATHAAT2U562RSEB76YAAKZE","AKJLAFX2M86TP","3YO4AH2FPD6XG0OGOBTVFFK58DY0QT","","null","<img src=""img/flower3.png"" style=""width:200px;border:14px solid red;"">","null","","","","","","","","",""
"","image-keyboard-response","285","791431","0.0-285.0","3OF2M9AATHAAT2U562RSEB76YAAKZE","AKJLAFX2M86TP","3YO4AH2FPD6XG0OGOBTVFFK58DY0QT","","","img/flower3.png","","2003","-1","0","3","2","1,0,0,1,1,0,1,0,1","1,0,0,1,1,0,1,0,1","1",""
"","html-keyboard-response","286","791733","0.0-286.0","3OF2M9AATHAAT2U562RSEB76YAAKZE","AKJLAFX2M86TP","3YO4AH2FPD6XG0OGOBTVFFK58DY0QT","","null","<img src=""img/flower3.png"" style=""width:200px;border:14px solid red;"">","null","","","","","","","","",""
"","image-keyboard-response","287","793736","0.0-287.0","3OF2M9AATHAAT2U562RSEB76YAAKZE","AKJLAFX2M86TP","3YO4AH2FPD6XG0OGOBTVFFK58DY0QT","","","img/flower5.png","","2003","-1","0","2","2","1,0,0,1,1,0,1,0,1","1,0,0,1,1,0,1,0,1","1",""
"","html-keyboard-response","288","794038","0.0-288.0","3OF2M9AATHAAT2U562RSEB76YAAKZE","AKJLAFX2M86TP","3YO4AH2FPD6XG0OGOBTVFFK58DY0QT","","null","<img src=""img/flower5.png"" style=""width:200px;border:14px solid red;"">","null","","","","","","","","",""
"","image-keyboard-response","289","796039","0.0-289.0","3OF2M9AATHAAT2U562RSEB76YAAKZE","AKJLAFX2M86TP","3YO4AH2FPD6XG0OGOBTVFFK58DY0QT","","","img/flower3.png","","2000","-1","0","3","2","1,0,0,1,1,0,1,0,1","1,0,0,1,1,0,1,0,1","1",""
"","html-keyboard-response","290","796341","0.0-290.0","3OF2M9AATHAAT2U562RSEB76YAAKZE","AKJLAFX2M86TP","3YO4AH2FPD6XG0OGOBTVFFK58DY0QT","","null","<img src=""img/flower3.png"" style=""width:200px;border:14px solid red;"">","null","","","","","","","","",""
"","image-keyboard-response","291","798343","0.0-291.0","3OF2M9AATHAAT2U562RSEB76YAAKZE","AKJLAFX2M86TP","3YO4AH2FPD6XG0OGOBTVFFK58DY0QT","","","img/flower3.png","","2002","-1","0","3","2","1,0,0,1,1,0,1,0,1","1,0,0,1,1,0,1,0,1","1",""
"","html-keyboard-response","292","798645","0.0-292.0","3OF2M9AATHAAT2U562RSEB76YAAKZE","AKJLAFX2M86TP","3YO4AH2FPD6XG0OGOBTVFFK58DY0QT","","null","<img src=""img/flower3.png"" style=""width:200px;border:14px solid red;"">","null","","","","","","","","",""
"","image-keyboard-response","293","800647","0.0-293.0","3OF2M9AATHAAT2U562RSEB76YAAKZE","AKJLAFX2M86TP","3YO4AH2FPD6XG0OGOBTVFFK58DY0QT","","","img/flower3.png","","2001","-1","0","3","2","1,0,0,1,1,0,1,0,1","1,0,0,1,1,0,1,0,1","1",""
"","html-keyboard-response","294","800949","0.0-294.0","3OF2M9AATHAAT2U562RSEB76YAAKZE","AKJLAFX2M86TP","3YO4AH2FPD6XG0OGOBTVFFK58DY0QT","","null","<img src=""img/flower3.png"" style=""width:200px;border:14px solid red;"">","null","","","","","","","","",""
"","image-keyboard-response","295","802950","0.0-295.0","3OF2M9AATHAAT2U562RSEB76YAAKZE","AKJLAFX2M86TP","3YO4AH2FPD6XG0OGOBTVFFK58DY0QT","","","img/flower5.png","","2000","-1","0","2","2","1,0,0,1,1,0,1,0,1","1,0,0,1,1,0,1,0,1","1",""
"","html-keyboard-response","296","803257","0.0-296.0","3OF2M9AATHAAT2U562RSEB76YAAKZE","AKJLAFX2M86TP","3YO4AH2FPD6XG0OGOBTVFFK58DY0QT","","null","<img src=""img/flower5.png"" style=""width:200px;border:14px solid red;"">","null","","","","","","","","",""
"","image-keyboard-response","297","805258","0.0-297.0","3OF2M9AATHAAT2U562RSEB76YAAKZE","AKJLAFX2M86TP","3YO4AH2FPD6XG0OGOBTVFFK58DY0QT","","","img/flower5.png","","2001","-1","0","2","2","1,0,0,1,1,0,1,0,1","1,0,0,1,1,0,1,0,1","1",""
"","html-keyboard-response","298","805560","0.0-298.0","3OF2M9AATHAAT2U562RSEB76YAAKZE","AKJLAFX2M86TP","3YO4AH2FPD6XG0OGOBTVFFK58DY0QT","","null","<img src=""img/flower5.png"" style=""width:200px;border:14px solid red;"">","null","","","","","","","","",""
"","image-keyboard-response","299","807564","0.0-299.0","3OF2M9AATHAAT2U562RSEB76YAAKZE","AKJLAFX2M86TP","3YO4AH2FPD6XG0OGOBTVFFK58DY0QT","","","img/flower2.png","","2003","-1","0","1","2","1,0,0,1,1,0,1,0,1","1,0,0,1,1,0,1,0,1","1",""
"","html-keyboard-response","300","807868","0.0-300.0","3OF2M9AATHAAT2U562RSEB76YAAKZE","AKJLAFX2M86TP","3YO4AH2FPD6XG0OGOBTVFFK58DY0QT","","null","<img src=""img/flower2.png"" style=""width:200px;border:14px solid red;"">","null","","","","","","","","",""
"","image-keyboard-response","301","809874","0.0-301.0","3OF2M9AATHAAT2U562RSEB76YAAKZE","AKJLAFX2M86TP","3YO4AH2FPD6XG0OGOBTVFFK58DY0QT","","","img/flower5.png","","2005","-1","0","2","2","1,0,0,1,1,0,1,0,1","1,0,0,1,1,0,1,0,1","1",""
"","html-keyboard-response","302","810188","0.0-302.0","3OF2M9AATHAAT2U562RSEB76YAAKZE","AKJLAFX2M86TP","3YO4AH2FPD6XG0OGOBTVFFK58DY0QT","","null","<img src=""img/flower5.png"" style=""width:200px;border:14px solid red;"">","null","","","","","","","","",""
"","image-keyboard-response","303","812191","0.0-303.0","3OF2M9AATHAAT2U562RSEB76YAAKZE","AKJLAFX2M86TP","3YO4AH2FPD6XG0OGOBTVFFK58DY0QT","","","img/flower2.png","","2002","-1","0","1","2","1,0,0,1,1,0,1,0,1","1,0,0,1,1,0,1,0,1","1",""
"","html-keyboard-response","304","812493","0.0-304.0","3OF2M9AATHAAT2U562RSEB76YAAKZE","AKJLAFX2M86TP","3YO4AH2FPD6XG0OGOBTVFFK58DY0QT","","null","<img src=""img/flower2.png"" style=""width:200px;border:14px solid red;"">","null","","","","","","","","",""
"","image-keyboard-response","305","814495","0.0-305.0","3OF2M9AATHAAT2U562RSEB76YAAKZE","AKJLAFX2M86TP","3YO4AH2FPD6XG0OGOBTVFFK58DY0QT","","","img/flower5.png","","2001","-1","0","2","2","1,0,0,1,1,0,1,0,1","1,0,0,1,1,0,1,0,1","1",""
"","html-keyboard-response","306","814797","0.0-306.0","3OF2M9AATHAAT2U562RSEB76YAAKZE","AKJLAFX2M86TP","3YO4AH2FPD6XG0OGOBTVFFK58DY0QT","","null","<img src=""img/flower5.png"" style=""width:200px;border:14px solid red;"">","null","","","","","","","","",""
"","image-keyboard-response","307","816802","0.0-307.0","3OF2M9AATHAAT2U562RSEB76YAAKZE","AKJLAFX2M86TP","3YO4AH2FPD6XG0OGOBTVFFK58DY0QT","","","img/flower3.png","","2005","-1","0","3","2","1,0,0,1,1,0,1,0,1","1,0,0,1,1,0,1,0,1","1",""
"","html-keyboard-response","308","817109","0.0-308.0","3OF2M9AATHAAT2U562RSEB76YAAKZE","AKJLAFX2M86TP","3YO4AH2FPD6XG0OGOBTVFFK58DY0QT","","null","<img src=""img/flower3.png"" style=""width:200px;border:14px solid red;"">","null","","","","","","","","",""
"","image-keyboard-response","309","819113","0.0-309.0","3OF2M9AATHAAT2U562RSEB76YAAKZE","AKJLAFX2M86TP","3YO4AH2FPD6XG0OGOBTVFFK58DY0QT","","","img/flower3.png","","2001","-1","0","3","2","1,0,0,1,1,0,1,0,1","1,0,0,1,1,0,1,0,1","1",""
"","html-keyboard-response","310","819415","0.0-310.0","3OF2M9AATHAAT2U562RSEB76YAAKZE","AKJLAFX2M86TP","3YO4AH2FPD6XG0OGOBTVFFK58DY0QT","","null","<img src=""img/flower3.png"" style=""width:200px;border:14px solid red;"">","null","","","","","","","","",""
"","image-keyboard-response","311","821417","0.0-311.0","3OF2M9AATHAAT2U562RSEB76YAAKZE","AKJLAFX2M86TP","3YO4AH2FPD6XG0OGOBTVFFK58DY0QT","","","img/flower3.png","","2001","-1","0","3","2","1,0,0,1,1,0,1,0,1","1,0,0,1,1,0,1,0,1","1",""
"","html-keyboard-response","312","821719","0.0-312.0","3OF2M9AATHAAT2U562RSEB76YAAKZE","AKJLAFX2M86TP","3YO4AH2FPD6XG0OGOBTVFFK58DY0QT","","null","<img src=""img/flower3.png"" style=""width:200px;border:14px solid red;"">","null","","","","","","","","",""
"","image-keyboard-response","313","823720","0.0-313.0","3OF2M9AATHAAT2U562RSEB76YAAKZE","AKJLAFX2M86TP","3YO4AH2FPD6XG0OGOBTVFFK58DY0QT","","","img/flower2.png","","2001","-1","0","1","2","1,0,0,1,1,0,1,0,1","1,0,0,1,1,0,1,0,1","1",""
"","html-keyboard-response","314","824022","0.0-314.0","3OF2M9AATHAAT2U562RSEB76YAAKZE","AKJLAFX2M86TP","3YO4AH2FPD6XG0OGOBTVFFK58DY0QT","","null","<img src=""img/flower2.png"" style=""width:200px;border:14px solid red;"">","null","","","","","","","","",""
"","image-keyboard-response","315","826024","0.0-315.0","3OF2M9AATHAAT2U562RSEB76YAAKZE","AKJLAFX2M86TP","3YO4AH2FPD6XG0OGOBTVFFK58DY0QT","","","img/flower5.png","","2001","-1","0","2","2","1,0,0,1,1,0,1,0,1","1,0,0,1,1,0,1,0,1","1",""
"","html-keyboard-response","316","826326","0.0-316.0","3OF2M9AATHAAT2U562RSEB76YAAKZE","AKJLAFX2M86TP","3YO4AH2FPD6XG0OGOBTVFFK58DY0QT","","null","<img src=""img/flower5.png"" style=""width:200px;border:14px solid red;"">","null","","","","","","","","",""
"","image-keyboard-response","317","828328","0.0-317.0","3OF2M9AATHAAT2U562RSEB76YAAKZE","AKJLAFX2M86TP","3YO4AH2FPD6XG0OGOBTVFFK58DY0QT","","","img/flower2.png","","2002","-1","0","1","2","1,0,0,1,1,0,1,0,1","1,0,0,1,1,0,1,0,1","1",""
"","html-keyboard-response","318","828632","0.0-318.0","3OF2M9AATHAAT2U562RSEB76YAAKZE","AKJLAFX2M86TP","3YO4AH2FPD6XG0OGOBTVFFK58DY0QT","","null","<img src=""img/flower2.png"" style=""width:200px;border:14px solid red;"">","null","","","","","","","","",""
"","image-keyboard-response","319","830637","0.0-319.0","3OF2M9AATHAAT2U562RSEB76YAAKZE","AKJLAFX2M86TP","3YO4AH2FPD6XG0OGOBTVFFK58DY0QT","","","img/flower2.png","","2004","-1","0","1","2","1,0,0,1,1,0,1,0,1","1,0,0,1,1,0,1,0,1","1",""
"","html-keyboard-response","320","830940","0.0-320.0","3OF2M9AATHAAT2U562RSEB76YAAKZE","AKJLAFX2M86TP","3YO4AH2FPD6XG0OGOBTVFFK58DY0QT","","null","<img src=""img/flower2.png"" style=""width:200px;border:14px solid red;"">","null","","","","","","","","",""
"","image-keyboard-response","321","833000","0.0-321.0","3OF2M9AATHAAT2U562RSEB76YAAKZE","AKJLAFX2M86TP","3YO4AH2FPD6XG0OGOBTVFFK58DY0QT","","","img/flower3.png","","2060","-1","0","3","2","1,0,0,1,1,0,1,0,1","1,0,0,1,1,0,1,0,1","1",""
"","html-keyboard-response","322","833303","0.0-322.0","3OF2M9AATHAAT2U562RSEB76YAAKZE","AKJLAFX2M86TP","3YO4AH2FPD6XG0OGOBTVFFK58DY0QT","","null","<img src=""img/flower3.png"" style=""width:200px;border:14px solid red;"">","null","","","","","","","","",""
"","image-keyboard-response","323","835308","0.0-323.0","3OF2M9AATHAAT2U562RSEB76YAAKZE","AKJLAFX2M86TP","3YO4AH2FPD6XG0OGOBTVFFK58DY0QT","","","img/flower3.png","","2004","-1","0","3","2","1,0,0,1,1,0,1,0,1","1,0,0,1,1,0,1,0,1","1",""
"","html-keyboard-response","324","835610","0.0-324.0","3OF2M9AATHAAT2U562RSEB76YAAKZE","AKJLAFX2M86TP","3YO4AH2FPD6XG0OGOBTVFFK58DY0QT","","null","<img src=""img/flower3.png"" style=""width:200px;border:14px solid red;"">","null","","","","","","","","",""
"","image-keyboard-response","325","837612","0.0-325.0","3OF2M9AATHAAT2U562RSEB76YAAKZE","AKJLAFX2M86TP","3YO4AH2FPD6XG0OGOBTVFFK58DY0QT","","","img/flower5.png","","2001","-1","0","2","2","1,0,0,1,1,0,1,0,1","1,0,0,1,1,0,1,0,1","1",""
"","html-keyboard-response","326","837914","0.0-326.0","3OF2M9AATHAAT2U562RSEB76YAAKZE","AKJLAFX2M86TP","3YO4AH2FPD6XG0OGOBTVFFK58DY0QT","","null","<img src=""img/flower5.png"" style=""width:200px;border:14px solid red;"">","null","","","","","","","","",""
"","image-keyboard-response","327","839916","0.0-327.0","3OF2M9AATHAAT2U562RSEB76YAAKZE","AKJLAFX2M86TP","3YO4AH2FPD6XG0OGOBTVFFK58DY0QT","","","img/flower5.png","","2001","-1","0","2","2","1,0,0,1,1,0,1,0,1","1,0,0,1,1,0,1,0,1","1",""
"","html-keyboard-response","328","840217","0.0-328.0","3OF2M9AATHAAT2U562RSEB76YAAKZE","AKJLAFX2M86TP","3YO4AH2FPD6XG0OGOBTVFFK58DY0QT","","null","<img src=""img/flower5.png"" style=""width:200px;border:14px solid red;"">","null","","","","","","","","",""
"","image-keyboard-response","329","842218","0.0-329.0","3OF2M9AATHAAT2U562RSEB76YAAKZE","AKJLAFX2M86TP","3YO4AH2FPD6XG0OGOBTVFFK58DY0QT","","","img/flower2.png","","2001","-1","0","1","2","1,0,0,1,1,0,1,0,1","1,0,0,1,1,0,1,0,1","1",""
"","html-keyboard-response","330","842521","0.0-330.0","3OF2M9AATHAAT2U562RSEB76YAAKZE","AKJLAFX2M86TP","3YO4AH2FPD6XG0OGOBTVFFK58DY0QT","","null","<img src=""img/flower2.png"" style=""width:200px;border:14px solid red;"">","null","","","","","","","","",""
"","image-keyboard-response","331","844524","0.0-331.0","3OF2M9AATHAAT2U562RSEB76YAAKZE","AKJLAFX2M86TP","3YO4AH2FPD6XG0OGOBTVFFK58DY0QT","","","img/flower5.png","","2002","-1","0","2","2","1,0,0,1,1,0,1,0,1","1,0,0,1,1,0,1,0,1","1",""
"","html-keyboard-response","332","844827","0.0-332.0","3OF2M9AATHAAT2U562RSEB76YAAKZE","AKJLAFX2M86TP","3YO4AH2FPD6XG0OGOBTVFFK58DY0QT","","null","<img src=""img/flower5.png"" style=""width:200px;border:14px solid red;"">","null","","","","","","","","",""
"","image-keyboard-response","333","846830","0.0-333.0","3OF2M9AATHAAT2U562RSEB76YAAKZE","AKJLAFX2M86TP","3YO4AH2FPD6XG0OGOBTVFFK58DY0QT","","","img/flower3.png","","2002","-1","0","3","2","1,0,0,1,1,0,1,0,1","1,0,0,1,1,0,1,0,1","1",""
"","html-keyboard-response","334","847133","0.0-334.0","3OF2M9AATHAAT2U562RSEB76YAAKZE","AKJLAFX2M86TP","3YO4AH2FPD6XG0OGOBTVFFK58DY0QT","","null","<img src=""img/flower3.png"" style=""width:200px;border:14px solid red;"">","null","","","","","","","","",""
"","image-keyboard-response","335","849137","0.0-335.0","3OF2M9AATHAAT2U562RSEB76YAAKZE","AKJLAFX2M86TP","3YO4AH2FPD6XG0OGOBTVFFK58DY0QT","","","img/flower2.png","","2003","-1","0","1","2","1,0,0,1,1,0,1,0,1","1,0,0,1,1,0,1,0,1","1",""
"","html-keyboard-response","336","849440","0.0-336.0","3OF2M9AATHAAT2U562RSEB76YAAKZE","AKJLAFX2M86TP","3YO4AH2FPD6XG0OGOBTVFFK58DY0QT","","null","<img src=""img/flower2.png"" style=""width:200px;border:14px solid red;"">","null","","","","","","","","",""
"","image-keyboard-response","337","851444","0.0-337.0","3OF2M9AATHAAT2U562RSEB76YAAKZE","AKJLAFX2M86TP","3YO4AH2FPD6XG0OGOBTVFFK58DY0QT","","","img/flower2.png","","2003","-1","0","1","2","1,0,0,1,1,0,1,0,1","1,0,0,1,1,0,1,0,1","1",""
"","html-keyboard-response","338","851746","0.0-338.0","3OF2M9AATHAAT2U562RSEB76YAAKZE","AKJLAFX2M86TP","3YO4AH2FPD6XG0OGOBTVFFK58DY0QT","","null","<img src=""img/flower2.png"" style=""width:200px;border:14px solid red;"">","null","","","","","","","","",""
"","image-keyboard-response","339","853748","0.0-339.0","3OF2M9AATHAAT2U562RSEB76YAAKZE","AKJLAFX2M86TP","3YO4AH2FPD6XG0OGOBTVFFK58DY0QT","","","img/flower3.png","","2001","-1","0","3","2","1,0,0,1,1,0,1,0,1","1,0,0,1,1,0,1,0,1","1",""
"","html-keyboard-response","340","854052","0.0-340.0","3OF2M9AATHAAT2U562RSEB76YAAKZE","AKJLAFX2M86TP","3YO4AH2FPD6XG0OGOBTVFFK58DY0QT","","null","<img src=""img/flower3.png"" style=""width:200px;border:14px solid red;"">","null","","","","","","","","",""
"","image-keyboard-response","341","856055","0.0-341.0","3OF2M9AATHAAT2U562RSEB76YAAKZE","AKJLAFX2M86TP","3YO4AH2FPD6XG0OGOBTVFFK58DY0QT","","","img/flower2.png","","2002","-1","0","1","2","1,0,0,1,1,0,1,0,1","1,0,0,1,1,0,1,0,1","1",""
"","html-keyboard-response","342","856358","0.0-342.0","3OF2M9AATHAAT2U562RSEB76YAAKZE","AKJLAFX2M86TP","3YO4AH2FPD6XG0OGOBTVFFK58DY0QT","","null","<img src=""img/flower2.png"" style=""width:200px;border:14px solid red;"">","null","","","","","","","","",""
"","image-keyboard-response","343","858361","0.0-343.0","3OF2M9AATHAAT2U562RSEB76YAAKZE","AKJLAFX2M86TP","3YO4AH2FPD6XG0OGOBTVFFK58DY0QT","","","img/flower3.png","","2004","-1","0","3","2","1,0,0,1,1,0,1,0,1","1,0,0,1,1,0,1,0,1","1",""
"","html-keyboard-response","344","858664","0.0-344.0","3OF2M9AATHAAT2U562RSEB76YAAKZE","AKJLAFX2M86TP","3YO4AH2FPD6XG0OGOBTVFFK58DY0QT","","null","<img src=""img/flower3.png"" style=""width:200px;border:14px solid red;"">","null","","","","","","","","",""
"","image-keyboard-response","345","860668","0.0-345.0","3OF2M9AATHAAT2U562RSEB76YAAKZE","AKJLAFX2M86TP","3YO4AH2FPD6XG0OGOBTVFFK58DY0QT","","","img/flower3.png","","2003","-1","0","3","2","1,0,0,1,1,0,1,0,1","1,0,0,1,1,0,1,0,1","1",""
"","html-keyboard-response","346","861002","0.0-346.0","3OF2M9AATHAAT2U562RSEB76YAAKZE","AKJLAFX2M86TP","3YO4AH2FPD6XG0OGOBTVFFK58DY0QT","","null","<img src=""img/flower3.png"" style=""width:200px;border:14px solid red;"">","null","","","","","","","","",""
"","image-keyboard-response","347","863008","0.0-347.0","3OF2M9AATHAAT2U562RSEB76YAAKZE","AKJLAFX2M86TP","3YO4AH2FPD6XG0OGOBTVFFK58DY0QT","","","img/flower3.png","","2003","-1","0","3","2","1,0,0,1,1,0,1,0,1","1,0,0,1,1,0,1,0,1","1",""
"","html-keyboard-response","348","863311","0.0-348.0","3OF2M9AATHAAT2U562RSEB76YAAKZE","AKJLAFX2M86TP","3YO4AH2FPD6XG0OGOBTVFFK58DY0QT","","null","<img src=""img/flower3.png"" style=""width:200px;border:14px solid red;"">","null","","","","","","","","",""
"","image-keyboard-response","349","865315","0.0-349.0","3OF2M9AATHAAT2U562RSEB76YAAKZE","AKJLAFX2M86TP","3YO4AH2FPD6XG0OGOBTVFFK58DY0QT","","","img/flower5.png","","2004","-1","0","2","2","1,0,0,1,1,0,1,0,1","1,0,0,1,1,0,1,0,1","1",""
"","html-keyboard-response","350","865618","0.0-350.0","3OF2M9AATHAAT2U562RSEB76YAAKZE","AKJLAFX2M86TP","3YO4AH2FPD6XG0OGOBTVFFK58DY0QT","","null","<img src=""img/flower5.png"" style=""width:200px;border:14px solid red;"">","null","","","","","","","","",""
"","image-keyboard-response","351","867621","0.0-351.0","3OF2M9AATHAAT2U562RSEB76YAAKZE","AKJLAFX2M86TP","3YO4AH2FPD6XG0OGOBTVFFK58DY0QT","","","img/flower3.png","","2003","-1","0","3","2","1,0,0,1,1,0,1,0,1","1,0,0,1,1,0,1,0,1","1",""
"","html-keyboard-response","352","867923","0.0-352.0","3OF2M9AATHAAT2U562RSEB76YAAKZE","AKJLAFX2M86TP","3YO4AH2FPD6XG0OGOBTVFFK58DY0QT","","null","<img src=""img/flower3.png"" style=""width:200px;border:14px solid red;"">","null","","","","","","","","",""
"","image-keyboard-response","353","869927","0.0-353.0","3OF2M9AATHAAT2U562RSEB76YAAKZE","AKJLAFX2M86TP","3YO4AH2FPD6XG0OGOBTVFFK58DY0QT","","","img/flower3.png","","2003","-1","0","3","2","1,0,0,1,1,0,1,0,1","1,0,0,1,1,0,1,0,1","1",""
"","html-keyboard-response","354","870229","0.0-354.0","3OF2M9AATHAAT2U562RSEB76YAAKZE","AKJLAFX2M86TP","3YO4AH2FPD6XG0OGOBTVFFK58DY0QT","","null","<img src=""img/flower3.png"" style=""width:200px;border:14px solid red;"">","null","","","","","","","","",""
"","image-keyboard-response","355","872231","0.0-355.0","3OF2M9AATHAAT2U562RSEB76YAAKZE","AKJLAFX2M86TP","3YO4AH2FPD6XG0OGOBTVFFK58DY0QT","","","img/flower2.png","","2001","-1","0","1","2","1,0,0,1,1,0,1,0,1","1,0,0,1,1,0,1,0,1","1",""
"","html-keyboard-response","356","872533","0.0-356.0","3OF2M9AATHAAT2U562RSEB76YAAKZE","AKJLAFX2M86TP","3YO4AH2FPD6XG0OGOBTVFFK58DY0QT","","null","<img src=""img/flower2.png"" style=""width:200px;border:14px solid red;"">","null","","","","","","","","",""
"","image-keyboard-response","357","874534","0.0-357.0","3OF2M9AATHAAT2U562RSEB76YAAKZE","AKJLAFX2M86TP","3YO4AH2FPD6XG0OGOBTVFFK58DY0QT","","","img/flower5.png","","2001","-1","0","2","2","1,0,0,1,1,0,1,0,1","1,0,0,1,1,0,1,0,1","1",""
"","html-keyboard-response","358","874837","0.0-358.0","3OF2M9AATHAAT2U562RSEB76YAAKZE","AKJLAFX2M86TP","3YO4AH2FPD6XG0OGOBTVFFK58DY0QT","","null","<img src=""img/flower5.png"" style=""width:200px;border:14px solid red;"">","null","","","","","","","","",""
"","image-keyboard-response","359","876882","0.0-359.0","3OF2M9AATHAAT2U562RSEB76YAAKZE","AKJLAFX2M86TP","3YO4AH2FPD6XG0OGOBTVFFK58DY0QT","","","img/flower2.png","","2044","-1","0","1","2","1,0,0,1,1,0,1,0,1","1,0,0,1,1,0,1,0,1","1",""
"","html-keyboard-response","360","877186","0.0-360.0","3OF2M9AATHAAT2U562RSEB76YAAKZE","AKJLAFX2M86TP","3YO4AH2FPD6XG0OGOBTVFFK58DY0QT","","null","<img src=""img/flower2.png"" style=""width:200px;border:14px solid red;"">","null","","","","","","","","",""
"","image-keyboard-response","361","879188","0.0-361.0","3OF2M9AATHAAT2U562RSEB76YAAKZE","AKJLAFX2M86TP","3YO4AH2FPD6XG0OGOBTVFFK58DY0QT","","","img/flower2.png","","2001","-1","0","1","2","1,0,0,1,1,0,1,0,1","1,0,0,1,1,0,1,0,1","1",""
"","html-keyboard-response","362","879500","0.0-362.0","3OF2M9AATHAAT2U562RSEB76YAAKZE","AKJLAFX2M86TP","3YO4AH2FPD6XG0OGOBTVFFK58DY0QT","","null","<img src=""img/flower2.png"" style=""width:200px;border:14px solid red;"">","null","","","","","","","","",""
"","instructions","363","882472","0.0-363.0","3OF2M9AATHAAT2U562RSEB76YAAKZE","AKJLAFX2M86TP","3YO4AH2FPD6XG0OGOBTVFFK58DY0QT","[{""page_index"":0,""viewing_time"":2969}]","2970","","","","","","","","","","",""
"","survey-text","364","888392","0.0-364.0","3OF2M9AATHAAT2U562RSEB76YAAKZE","AKJLAFX2M86TP","3YO4AH2FPD6XG0OGOBTVFFK58DY0QT","","5910","","","","","","","","","","","{""Q0"":""AKJLAFX2M86TP""}"
