"success","trial_type","trial_index","time_elapsed","internal_node_id","assignmentID","mturkID","hitID","view_history","rt","stimulus","key_press","reactionTime","a","r","s","cond","reward_cond","reward_cond_actual","reward_matrix_idx","responses"
"true","fullscreen","0","3104","0.0-0.0","3F1567XTNXRHYEANF9HQX9HMJ6F9Q4","AKSLU0C30G3JT","3HUR21WDDUBEMSLDIXZW1FAIHWSYXN","","","","","","","","","","","","",""
"","instructions","1","23940","0.0-1.0","3F1567XTNXRHYEANF9HQX9HMJ6F9Q4","AKSLU0C30G3JT","3HUR21WDDUBEMSLDIXZW1FAIHWSYXN","[{""page_index"":0,""viewing_time"":6060},{""page_index"":1,""viewing_time"":1565},{""page_index"":2,""viewing_time"":1997},{""page_index"":3,""viewing_time"":1263},{""page_index"":4,""viewing_time"":2718},{""page_index"":5,""viewing_time"":2201},{""page_index"":6,""viewing_time"":3876},{""page_index"":7,""viewing_time"":1149}]","20831","","","","","","","","","","",""
"","image-keyboard-response","2","25945","0.0-2.0","3F1567XTNXRHYEANF9HQX9HMJ6F9Q4","AKSLU0C30G3JT","3HUR21WDDUBEMSLDIXZW1FAIHWSYXN","","","img/flower2.png","","2006","-1","0","2","1","1,0.333,0.333,0.333,1,0.333,0.333,0.333,1","1,0.333,0.333,0.333,1,0.333,0.333,0.333,1","1",""
"","html-keyboard-response","3","26257","0.0-3.0","3F1567XTNXRHYEANF9HQX9HMJ6F9Q4","AKSLU0C30G3JT","3HUR21WDDUBEMSLDIXZW1FAIHWSYXN","","null","<img src=""img/flower2.png"" style=""width:200px;border:14px solid red;"">","null","","","","","","","","",""
"","image-keyboard-response","4","28263","0.0-4.0","3F1567XTNXRHYEANF9HQX9HMJ6F9Q4","AKSLU0C30G3JT","3HUR21WDDUBEMSLDIXZW1FAIHWSYXN","","","img/flower3.png","","2003.9999999999964","-1","0","3","1","1,0.333,0.333,0.333,1,0.333,0.333,0.333,1","1,0.333,0.333,0.333,1,0.333,0.333,0.333,1","1",""
"","html-keyboard-response","5","28569","0.0-5.0","3F1567XTNXRHYEANF9HQX9HMJ6F9Q4","AKSLU0C30G3JT","3HUR21WDDUBEMSLDIXZW1FAIHWSYXN","","null","<img src=""img/flower3.png"" style=""width:200px;border:14px solid red;"">","null","","","","","","","","",""
"","image-keyboard-response","6","30575","0.0-6.0","3F1567XTNXRHYEANF9HQX9HMJ6F9Q4","AKSLU0C30G3JT","3HUR21WDDUBEMSLDIXZW1FAIHWSYXN","","","img/flower5.png","","2006.0000000000036","-1","0","1","1","1,0.333,0.333,0.333,1,0.333,0.333,0.333,1","1,0.333,0.333,0.333,1,0.333,0.333,0.333,1","1",""
"","html-keyboard-response","7","30881","0.0-7.0","3F1567XTNXRHYEANF9HQX9HMJ6F9Q4","AKSLU0C30G3JT","3HUR21WDDUBEMSLDIXZW1FAIHWSYXN","","null","<img src=""img/flower5.png"" style=""width:200px;border:14px solid red;"">","null","","","","","","","","",""
"","image-keyboard-response","8","32887","0.0-8.0","3F1567XTNXRHYEANF9HQX9HMJ6F9Q4","AKSLU0C30G3JT","3HUR21WDDUBEMSLDIXZW1FAIHWSYXN","","","img/flower5.png","","2004","-1","0","1","1","1,0.333,0.333,0.333,1,0.333,0.333,0.333,1","1,0.333,0.333,0.333,1,0.333,0.333,0.333,1","1",""
"","html-keyboard-response","9","33193","0.0-9.0","3F1567XTNXRHYEANF9HQX9HMJ6F9Q4","AKSLU0C30G3JT","3HUR21WDDUBEMSLDIXZW1FAIHWSYXN","","null","<img src=""img/flower5.png"" style=""width:200px;border:14px solid red;"">","null","","","","","","","","",""
"","image-keyboard-response","10","35198","0.0-10.0","3F1567XTNXRHYEANF9HQX9HMJ6F9Q4","AKSLU0C30G3JT","3HUR21WDDUBEMSLDIXZW1FAIHWSYXN","","","img/flower2.png","","2004","-1","0","2","1","1,0.333,0.333,0.333,1,0.333,0.333,0.333,1","1,0.333,0.333,0.333,1,0.333,0.333,0.333,1","1",""
"","html-keyboard-response","11","35504","0.0-11.0","3F1567XTNXRHYEANF9HQX9HMJ6F9Q4","AKSLU0C30G3JT","3HUR21WDDUBEMSLDIXZW1FAIHWSYXN","","null","<img src=""img/flower2.png"" style=""width:200px;border:14px solid red;"">","null","","","","","","","","",""
"","image-keyboard-response","12","37509","0.0-12.0","3F1567XTNXRHYEANF9HQX9HMJ6F9Q4","AKSLU0C30G3JT","3HUR21WDDUBEMSLDIXZW1FAIHWSYXN","","","img/flower2.png","","2005.0000000000073","-1","0","2","1","1,0.333,0.333,0.333,1,0.333,0.333,0.333,1","1,0.333,0.333,0.333,1,0.333,0.333,0.333,1","1",""
"","html-keyboard-response","13","37815","0.0-13.0","3F1567XTNXRHYEANF9HQX9HMJ6F9Q4","AKSLU0C30G3JT","3HUR21WDDUBEMSLDIXZW1FAIHWSYXN","","null","<img src=""img/flower2.png"" style=""width:200px;border:14px solid red;"">","null","","","","","","","","",""
"","image-keyboard-response","14","39821","0.0-14.0","3F1567XTNXRHYEANF9HQX9HMJ6F9Q4","AKSLU0C30G3JT","3HUR21WDDUBEMSLDIXZW1FAIHWSYXN","","","img/flower3.png","","2006","-1","0","3","1","1,0.333,0.333,0.333,1,0.333,0.333,0.333,1","1,0.333,0.333,0.333,1,0.333,0.333,0.333,1","1",""
"","html-keyboard-response","15","40127","0.0-15.0","3F1567XTNXRHYEANF9HQX9HMJ6F9Q4","AKSLU0C30G3JT","3HUR21WDDUBEMSLDIXZW1FAIHWSYXN","","null","<img src=""img/flower3.png"" style=""width:200px;border:14px solid red;"">","null","","","","","","","","",""
"","image-keyboard-response","16","42133","0.0-16.0","3F1567XTNXRHYEANF9HQX9HMJ6F9Q4","AKSLU0C30G3JT","3HUR21WDDUBEMSLDIXZW1FAIHWSYXN","","","img/flower2.png","","2004.0000000000073","-1","0","2","1","1,0.333,0.333,0.333,1,0.333,0.333,0.333,1","1,0.333,0.333,0.333,1,0.333,0.333,0.333,1","1",""
"","html-keyboard-response","17","42438","0.0-17.0","3F1567XTNXRHYEANF9HQX9HMJ6F9Q4","AKSLU0C30G3JT","3HUR21WDDUBEMSLDIXZW1FAIHWSYXN","","null","<img src=""img/flower2.png"" style=""width:200px;border:14px solid red;"">","null","","","","","","","","",""
"","image-keyboard-response","18","44442","0.0-18.0","3F1567XTNXRHYEANF9HQX9HMJ6F9Q4","AKSLU0C30G3JT","3HUR21WDDUBEMSLDIXZW1FAIHWSYXN","","","img/flower2.png","","2003","-1","0","2","1","1,0.333,0.333,0.333,1,0.333,0.333,0.333,1","1,0.333,0.333,0.333,1,0.333,0.333,0.333,1","1",""
"","html-keyboard-response","19","44748","0.0-19.0","3F1567XTNXRHYEANF9HQX9HMJ6F9Q4","AKSLU0C30G3JT","3HUR21WDDUBEMSLDIXZW1FAIHWSYXN","","null","<img src=""img/flower2.png"" style=""width:200px;border:14px solid red;"">","null","","","","","","","","",""
"","image-keyboard-response","20","46754","0.0-20.0","3F1567XTNXRHYEANF9HQX9HMJ6F9Q4","AKSLU0C30G3JT","3HUR21WDDUBEMSLDIXZW1FAIHWSYXN","","","img/flower2.png","","2005.0000000000073","-1","0","2","1","1,0.333,0.333,0.333,1,0.333,0.333,0.333,1","1,0.333,0.333,0.333,1,0.333,0.333,0.333,1","1",""
"","html-keyboard-response","21","47060","0.0-21.0","3F1567XTNXRHYEANF9HQX9HMJ6F9Q4","AKSLU0C30G3JT","3HUR21WDDUBEMSLDIXZW1FAIHWSYXN","","null","<img src=""img/flower2.png"" style=""width:200px;border:14px solid red;"">","null","","","","","","","","",""
"","image-keyboard-response","22","49066","0.0-22.0","3F1567XTNXRHYEANF9HQX9HMJ6F9Q4","AKSLU0C30G3JT","3HUR21WDDUBEMSLDIXZW1FAIHWSYXN","","","img/flower5.png","","2005","-1","0","1","1","1,0.333,0.333,0.333,1,0.333,0.333,0.333,1","1,0.333,0.333,0.333,1,0.333,0.333,0.333,1","1",""
"","html-keyboard-response","23","49373","0.0-23.0","3F1567XTNXRHYEANF9HQX9HMJ6F9Q4","AKSLU0C30G3JT","3HUR21WDDUBEMSLDIXZW1FAIHWSYXN","","null","<img src=""img/flower5.png"" style=""width:200px;border:14px solid red;"">","null","","","","","","","","",""
"","image-keyboard-response","24","51379","0.0-24.0","3F1567XTNXRHYEANF9HQX9HMJ6F9Q4","AKSLU0C30G3JT","3HUR21WDDUBEMSLDIXZW1FAIHWSYXN","","","img/flower2.png","","2005.0000000000073","-1","0","2","1","1,0.333,0.333,0.333,1,0.333,0.333,0.333,1","1,0.333,0.333,0.333,1,0.333,0.333,0.333,1","1",""
"","html-keyboard-response","25","51685","0.0-25.0","3F1567XTNXRHYEANF9HQX9HMJ6F9Q4","AKSLU0C30G3JT","3HUR21WDDUBEMSLDIXZW1FAIHWSYXN","","null","<img src=""img/flower2.png"" style=""width:200px;border:14px solid red;"">","null","","","","","","","","",""
"","image-keyboard-response","26","53692","0.0-26.0","3F1567XTNXRHYEANF9HQX9HMJ6F9Q4","AKSLU0C30G3JT","3HUR21WDDUBEMSLDIXZW1FAIHWSYXN","","","img/flower2.png","","2003.9999999999927","-1","0","2","1","1,0.333,0.333,0.333,1,0.333,0.333,0.333,1","1,0.333,0.333,0.333,1,0.333,0.333,0.333,1","1",""
"","html-keyboard-response","27","54009","0.0-27.0","3F1567XTNXRHYEANF9HQX9HMJ6F9Q4","AKSLU0C30G3JT","3HUR21WDDUBEMSLDIXZW1FAIHWSYXN","","null","<img src=""img/flower2.png"" style=""width:200px;border:14px solid red;"">","null","","","","","","","","",""
"","image-keyboard-response","28","56017","0.0-28.0","3F1567XTNXRHYEANF9HQX9HMJ6F9Q4","AKSLU0C30G3JT","3HUR21WDDUBEMSLDIXZW1FAIHWSYXN","","","img/flower2.png","","2005","-1","0","2","1","1,0.333,0.333,0.333,1,0.333,0.333,0.333,1","1,0.333,0.333,0.333,1,0.333,0.333,0.333,1","1",""
"","html-keyboard-response","29","56325","0.0-29.0","3F1567XTNXRHYEANF9HQX9HMJ6F9Q4","AKSLU0C30G3JT","3HUR21WDDUBEMSLDIXZW1FAIHWSYXN","","null","<img src=""img/flower2.png"" style=""width:200px;border:14px solid red;"">","null","","","","","","","","",""
"","image-keyboard-response","30","58332","0.0-30.0","3F1567XTNXRHYEANF9HQX9HMJ6F9Q4","AKSLU0C30G3JT","3HUR21WDDUBEMSLDIXZW1FAIHWSYXN","","","img/flower3.png","","2003.9999999999927","-1","0","3","1","1,0.333,0.333,0.333,1,0.333,0.333,0.333,1","1,0.333,0.333,0.333,1,0.333,0.333,0.333,1","1",""
"","html-keyboard-response","31","58637","0.0-31.0","3F1567XTNXRHYEANF9HQX9HMJ6F9Q4","AKSLU0C30G3JT","3HUR21WDDUBEMSLDIXZW1FAIHWSYXN","","null","<img src=""img/flower3.png"" style=""width:200px;border:14px solid red;"">","null","","","","","","","","",""
"","image-keyboard-response","32","60643","0.0-32.0","3F1567XTNXRHYEANF9HQX9HMJ6F9Q4","AKSLU0C30G3JT","3HUR21WDDUBEMSLDIXZW1FAIHWSYXN","","","img/flower2.png","","2004.9999999999927","-1","0","2","1","1,0.333,0.333,0.333,1,0.333,0.333,0.333,1","1,0.333,0.333,0.333,1,0.333,0.333,0.333,1","1",""
"","html-keyboard-response","33","60950","0.0-33.0","3F1567XTNXRHYEANF9HQX9HMJ6F9Q4","AKSLU0C30G3JT","3HUR21WDDUBEMSLDIXZW1FAIHWSYXN","","null","<img src=""img/flower2.png"" style=""width:200px;border:14px solid red;"">","null","","","","","","","","",""
"","image-keyboard-response","34","62956","0.0-34.0","3F1567XTNXRHYEANF9HQX9HMJ6F9Q4","AKSLU0C30G3JT","3HUR21WDDUBEMSLDIXZW1FAIHWSYXN","","","img/flower5.png","","2005","-1","0","1","1","1,0.333,0.333,0.333,1,0.333,0.333,0.333,1","1,0.333,0.333,0.333,1,0.333,0.333,0.333,1","1",""
"","html-keyboard-response","35","63263","0.0-35.0","3F1567XTNXRHYEANF9HQX9HMJ6F9Q4","AKSLU0C30G3JT","3HUR21WDDUBEMSLDIXZW1FAIHWSYXN","","null","<img src=""img/flower5.png"" style=""width:200px;border:14px solid red;"">","null","","","","","","","","",""
"","image-keyboard-response","36","65269","0.0-36.0","3F1567XTNXRHYEANF9HQX9HMJ6F9Q4","AKSLU0C30G3JT","3HUR21WDDUBEMSLDIXZW1FAIHWSYXN","","","img/flower5.png","","2005","-1","0","1","1","1,0.333,0.333,0.333,1,0.333,0.333,0.333,1","1,0.333,0.333,0.333,1,0.333,0.333,0.333,1","1",""
"","html-keyboard-response","37","65575","0.0-37.0","3F1567XTNXRHYEANF9HQX9HMJ6F9Q4","AKSLU0C30G3JT","3HUR21WDDUBEMSLDIXZW1FAIHWSYXN","","null","<img src=""img/flower5.png"" style=""width:200px;border:14px solid red;"">","null","","","","","","","","",""
"","image-keyboard-response","38","67581","0.0-38.0","3F1567XTNXRHYEANF9HQX9HMJ6F9Q4","AKSLU0C30G3JT","3HUR21WDDUBEMSLDIXZW1FAIHWSYXN","","","img/flower3.png","","2005","-1","0","3","1","1,0.333,0.333,0.333,1,0.333,0.333,0.333,1","1,0.333,0.333,0.333,1,0.333,0.333,0.333,1","1",""
"","html-keyboard-response","39","67887","0.0-39.0","3F1567XTNXRHYEANF9HQX9HMJ6F9Q4","AKSLU0C30G3JT","3HUR21WDDUBEMSLDIXZW1FAIHWSYXN","","null","<img src=""img/flower3.png"" style=""width:200px;border:14px solid red;"">","null","","","","","","","","",""
"","image-keyboard-response","40","69892","0.0-40.0","3F1567XTNXRHYEANF9HQX9HMJ6F9Q4","AKSLU0C30G3JT","3HUR21WDDUBEMSLDIXZW1FAIHWSYXN","","","img/flower5.png","","2005","-1","0","1","1","1,0.333,0.333,0.333,1,0.333,0.333,0.333,1","1,0.333,0.333,0.333,1,0.333,0.333,0.333,1","1",""
"","html-keyboard-response","41","70197","0.0-41.0","3F1567XTNXRHYEANF9HQX9HMJ6F9Q4","AKSLU0C30G3JT","3HUR21WDDUBEMSLDIXZW1FAIHWSYXN","","null","<img src=""img/flower5.png"" style=""width:200px;border:14px solid red;"">","null","","","","","","","","",""
"","image-keyboard-response","42","72203","0.0-42.0","3F1567XTNXRHYEANF9HQX9HMJ6F9Q4","AKSLU0C30G3JT","3HUR21WDDUBEMSLDIXZW1FAIHWSYXN","","","img/flower2.png","","2005","-1","0","2","1","1,0.333,0.333,0.333,1,0.333,0.333,0.333,1","1,0.333,0.333,0.333,1,0.333,0.333,0.333,1","1",""
"","html-keyboard-response","43","72509","0.0-43.0","3F1567XTNXRHYEANF9HQX9HMJ6F9Q4","AKSLU0C30G3JT","3HUR21WDDUBEMSLDIXZW1FAIHWSYXN","","null","<img src=""img/flower2.png"" style=""width:200px;border:14px solid red;"">","null","","","","","","","","",""
"","image-keyboard-response","44","74513","0.0-44.0","3F1567XTNXRHYEANF9HQX9HMJ6F9Q4","AKSLU0C30G3JT","3HUR21WDDUBEMSLDIXZW1FAIHWSYXN","","","img/flower3.png","","2003","-1","0","3","1","1,0.333,0.333,0.333,1,0.333,0.333,0.333,1","1,0.333,0.333,0.333,1,0.333,0.333,0.333,1","1",""
"","html-keyboard-response","45","74818","0.0-45.0","3F1567XTNXRHYEANF9HQX9HMJ6F9Q4","AKSLU0C30G3JT","3HUR21WDDUBEMSLDIXZW1FAIHWSYXN","","null","<img src=""img/flower3.png"" style=""width:200px;border:14px solid red;"">","null","","","","","","","","",""
"","image-keyboard-response","46","76824","0.0-46.0","3F1567XTNXRHYEANF9HQX9HMJ6F9Q4","AKSLU0C30G3JT","3HUR21WDDUBEMSLDIXZW1FAIHWSYXN","","","img/flower3.png","","2004","-1","0","3","1","1,0.333,0.333,0.333,1,0.333,0.333,0.333,1","1,0.333,0.333,0.333,1,0.333,0.333,0.333,1","1",""
"","html-keyboard-response","47","77129","0.0-47.0","3F1567XTNXRHYEANF9HQX9HMJ6F9Q4","AKSLU0C30G3JT","3HUR21WDDUBEMSLDIXZW1FAIHWSYXN","","null","<img src=""img/flower3.png"" style=""width:200px;border:14px solid red;"">","null","","","","","","","","",""
"","image-keyboard-response","48","79135","0.0-48.0","3F1567XTNXRHYEANF9HQX9HMJ6F9Q4","AKSLU0C30G3JT","3HUR21WDDUBEMSLDIXZW1FAIHWSYXN","","","img/flower5.png","","2005","-1","0","1","1","1,0.333,0.333,0.333,1,0.333,0.333,0.333,1","1,0.333,0.333,0.333,1,0.333,0.333,0.333,1","1",""
"","html-keyboard-response","49","79440","0.0-49.0","3F1567XTNXRHYEANF9HQX9HMJ6F9Q4","AKSLU0C30G3JT","3HUR21WDDUBEMSLDIXZW1FAIHWSYXN","","null","<img src=""img/flower5.png"" style=""width:200px;border:14px solid red;"">","null","","","","","","","","",""
"","image-keyboard-response","50","81446","0.0-50.0","3F1567XTNXRHYEANF9HQX9HMJ6F9Q4","AKSLU0C30G3JT","3HUR21WDDUBEMSLDIXZW1FAIHWSYXN","","","img/flower2.png","","2005","-1","0","2","1","1,0.333,0.333,0.333,1,0.333,0.333,0.333,1","1,0.333,0.333,0.333,1,0.333,0.333,0.333,1","1",""
"","html-keyboard-response","51","81751","0.0-51.0","3F1567XTNXRHYEANF9HQX9HMJ6F9Q4","AKSLU0C30G3JT","3HUR21WDDUBEMSLDIXZW1FAIHWSYXN","","null","<img src=""img/flower2.png"" style=""width:200px;border:14px solid red;"">","null","","","","","","","","",""
"","image-keyboard-response","52","83757","0.0-52.0","3F1567XTNXRHYEANF9HQX9HMJ6F9Q4","AKSLU0C30G3JT","3HUR21WDDUBEMSLDIXZW1FAIHWSYXN","","","img/flower3.png","","2004.9999999999854","-1","0","3","1","1,0.333,0.333,0.333,1,0.333,0.333,0.333,1","1,0.333,0.333,0.333,1,0.333,0.333,0.333,1","1",""
"","html-keyboard-response","53","84063","0.0-53.0","3F1567XTNXRHYEANF9HQX9HMJ6F9Q4","AKSLU0C30G3JT","3HUR21WDDUBEMSLDIXZW1FAIHWSYXN","","null","<img src=""img/flower3.png"" style=""width:200px;border:14px solid red;"">","null","","","","","","","","",""
"","image-keyboard-response","54","86069","0.0-54.0","3F1567XTNXRHYEANF9HQX9HMJ6F9Q4","AKSLU0C30G3JT","3HUR21WDDUBEMSLDIXZW1FAIHWSYXN","","","img/flower5.png","","2005","-1","0","1","1","1,0.333,0.333,0.333,1,0.333,0.333,0.333,1","1,0.333,0.333,0.333,1,0.333,0.333,0.333,1","1",""
"","html-keyboard-response","55","86374","0.0-55.0","3F1567XTNXRHYEANF9HQX9HMJ6F9Q4","AKSLU0C30G3JT","3HUR21WDDUBEMSLDIXZW1FAIHWSYXN","","null","<img src=""img/flower5.png"" style=""width:200px;border:14px solid red;"">","null","","","","","","","","",""
"","image-keyboard-response","56","88380","0.0-56.0","3F1567XTNXRHYEANF9HQX9HMJ6F9Q4","AKSLU0C30G3JT","3HUR21WDDUBEMSLDIXZW1FAIHWSYXN","","","img/flower2.png","","2004","-1","0","2","1","1,0.333,0.333,0.333,1,0.333,0.333,0.333,1","1,0.333,0.333,0.333,1,0.333,0.333,0.333,1","1",""
"","html-keyboard-response","57","88685","0.0-57.0","3F1567XTNXRHYEANF9HQX9HMJ6F9Q4","AKSLU0C30G3JT","3HUR21WDDUBEMSLDIXZW1FAIHWSYXN","","null","<img src=""img/flower2.png"" style=""width:200px;border:14px solid red;"">","null","","","","","","","","",""
"","image-keyboard-response","58","90690","0.0-58.0","3F1567XTNXRHYEANF9HQX9HMJ6F9Q4","AKSLU0C30G3JT","3HUR21WDDUBEMSLDIXZW1FAIHWSYXN","","","img/flower5.png","","2004","-1","0","1","1","1,0.333,0.333,0.333,1,0.333,0.333,0.333,1","1,0.333,0.333,0.333,1,0.333,0.333,0.333,1","1",""
"","html-keyboard-response","59","90995","0.0-59.0","3F1567XTNXRHYEANF9HQX9HMJ6F9Q4","AKSLU0C30G3JT","3HUR21WDDUBEMSLDIXZW1FAIHWSYXN","","null","<img src=""img/flower5.png"" style=""width:200px;border:14px solid red;"">","null","","","","","","","","",""
"","image-keyboard-response","60","92998","0.0-60.0","3F1567XTNXRHYEANF9HQX9HMJ6F9Q4","AKSLU0C30G3JT","3HUR21WDDUBEMSLDIXZW1FAIHWSYXN","","","img/flower5.png","","2003","-1","0","1","1","1,0.333,0.333,0.333,1,0.333,0.333,0.333,1","1,0.333,0.333,0.333,1,0.333,0.333,0.333,1","1",""
"","html-keyboard-response","61","93302","0.0-61.0","3F1567XTNXRHYEANF9HQX9HMJ6F9Q4","AKSLU0C30G3JT","3HUR21WDDUBEMSLDIXZW1FAIHWSYXN","","null","<img src=""img/flower5.png"" style=""width:200px;border:14px solid red;"">","null","","","","","","","","",""
"","image-keyboard-response","62","95308","0.0-62.0","3F1567XTNXRHYEANF9HQX9HMJ6F9Q4","AKSLU0C30G3JT","3HUR21WDDUBEMSLDIXZW1FAIHWSYXN","","","img/flower2.png","","2005","-1","0","2","1","1,0.333,0.333,0.333,1,0.333,0.333,0.333,1","1,0.333,0.333,0.333,1,0.333,0.333,0.333,1","1",""
"","html-keyboard-response","63","95613","0.0-63.0","3F1567XTNXRHYEANF9HQX9HMJ6F9Q4","AKSLU0C30G3JT","3HUR21WDDUBEMSLDIXZW1FAIHWSYXN","","null","<img src=""img/flower2.png"" style=""width:200px;border:14px solid red;"">","null","","","","","","","","",""
"","image-keyboard-response","64","97618","0.0-64.0","3F1567XTNXRHYEANF9HQX9HMJ6F9Q4","AKSLU0C30G3JT","3HUR21WDDUBEMSLDIXZW1FAIHWSYXN","","","img/flower5.png","","2004.0000000000146","-1","0","1","1","1,0.333,0.333,0.333,1,0.333,0.333,0.333,1","1,0.333,0.333,0.333,1,0.333,0.333,0.333,1","1",""
"","html-keyboard-response","65","97924","0.0-65.0","3F1567XTNXRHYEANF9HQX9HMJ6F9Q4","AKSLU0C30G3JT","3HUR21WDDUBEMSLDIXZW1FAIHWSYXN","","null","<img src=""img/flower5.png"" style=""width:200px;border:14px solid red;"">","null","","","","","","","","",""
"","image-keyboard-response","66","99929","0.0-66.0","3F1567XTNXRHYEANF9HQX9HMJ6F9Q4","AKSLU0C30G3JT","3HUR21WDDUBEMSLDIXZW1FAIHWSYXN","","","img/flower2.png","","2004","-1","0","2","1","1,0.333,0.333,0.333,1,0.333,0.333,0.333,1","1,0.333,0.333,0.333,1,0.333,0.333,0.333,1","1",""
"","html-keyboard-response","67","100235","0.0-67.0","3F1567XTNXRHYEANF9HQX9HMJ6F9Q4","AKSLU0C30G3JT","3HUR21WDDUBEMSLDIXZW1FAIHWSYXN","","null","<img src=""img/flower2.png"" style=""width:200px;border:14px solid red;"">","null","","","","","","","","",""
"","image-keyboard-response","68","102241","0.0-68.0","3F1567XTNXRHYEANF9HQX9HMJ6F9Q4","AKSLU0C30G3JT","3HUR21WDDUBEMSLDIXZW1FAIHWSYXN","","","img/flower5.png","","2005","-1","0","1","1","1,0.333,0.333,0.333,1,0.333,0.333,0.333,1","1,0.333,0.333,0.333,1,0.333,0.333,0.333,1","1",""
"","html-keyboard-response","69","102546","0.0-69.0","3F1567XTNXRHYEANF9HQX9HMJ6F9Q4","AKSLU0C30G3JT","3HUR21WDDUBEMSLDIXZW1FAIHWSYXN","","null","<img src=""img/flower5.png"" style=""width:200px;border:14px solid red;"">","null","","","","","","","","",""
"","image-keyboard-response","70","104551","0.0-70.0","3F1567XTNXRHYEANF9HQX9HMJ6F9Q4","AKSLU0C30G3JT","3HUR21WDDUBEMSLDIXZW1FAIHWSYXN","","","img/flower5.png","","2003","-1","0","1","1","1,0.333,0.333,0.333,1,0.333,0.333,0.333,1","1,0.333,0.333,0.333,1,0.333,0.333,0.333,1","1",""
"","html-keyboard-response","71","104856","0.0-71.0","3F1567XTNXRHYEANF9HQX9HMJ6F9Q4","AKSLU0C30G3JT","3HUR21WDDUBEMSLDIXZW1FAIHWSYXN","","null","<img src=""img/flower5.png"" style=""width:200px;border:14px solid red;"">","null","","","","","","","","",""
"","image-keyboard-response","72","106862","0.0-72.0","3F1567XTNXRHYEANF9HQX9HMJ6F9Q4","AKSLU0C30G3JT","3HUR21WDDUBEMSLDIXZW1FAIHWSYXN","","","img/flower3.png","","2005.0000000000146","-1","0","3","1","1,0.333,0.333,0.333,1,0.333,0.333,0.333,1","1,0.333,0.333,0.333,1,0.333,0.333,0.333,1","1",""
"","html-keyboard-response","73","107167","0.0-73.0","3F1567XTNXRHYEANF9HQX9HMJ6F9Q4","AKSLU0C30G3JT","3HUR21WDDUBEMSLDIXZW1FAIHWSYXN","","null","<img src=""img/flower3.png"" style=""width:200px;border:14px solid red;"">","null","","","","","","","","",""
"","image-keyboard-response","74","109173","0.0-74.0","3F1567XTNXRHYEANF9HQX9HMJ6F9Q4","AKSLU0C30G3JT","3HUR21WDDUBEMSLDIXZW1FAIHWSYXN","","","img/flower3.png","","2004","-1","0","3","1","1,0.333,0.333,0.333,1,0.333,0.333,0.333,1","1,0.333,0.333,0.333,1,0.333,0.333,0.333,1","1",""
"","html-keyboard-response","75","109479","0.0-75.0","3F1567XTNXRHYEANF9HQX9HMJ6F9Q4","AKSLU0C30G3JT","3HUR21WDDUBEMSLDIXZW1FAIHWSYXN","","null","<img src=""img/flower3.png"" style=""width:200px;border:14px solid red;"">","null","","","","","","","","",""
"","image-keyboard-response","76","111484","0.0-76.0","3F1567XTNXRHYEANF9HQX9HMJ6F9Q4","AKSLU0C30G3JT","3HUR21WDDUBEMSLDIXZW1FAIHWSYXN","","","img/flower3.png","","2004.0000000000146","-1","0","3","1","1,0.333,0.333,0.333,1,0.333,0.333,0.333,1","1,0.333,0.333,0.333,1,0.333,0.333,0.333,1","1",""
"","html-keyboard-response","77","111790","0.0-77.0","3F1567XTNXRHYEANF9HQX9HMJ6F9Q4","AKSLU0C30G3JT","3HUR21WDDUBEMSLDIXZW1FAIHWSYXN","","null","<img src=""img/flower3.png"" style=""width:200px;border:14px solid red;"">","null","","","","","","","","",""
"","image-keyboard-response","78","113795","0.0-78.0","3F1567XTNXRHYEANF9HQX9HMJ6F9Q4","AKSLU0C30G3JT","3HUR21WDDUBEMSLDIXZW1FAIHWSYXN","","","img/flower2.png","","2004","-1","0","2","1","1,0.333,0.333,0.333,1,0.333,0.333,0.333,1","1,0.333,0.333,0.333,1,0.333,0.333,0.333,1","1",""
"","html-keyboard-response","79","114100","0.0-79.0","3F1567XTNXRHYEANF9HQX9HMJ6F9Q4","AKSLU0C30G3JT","3HUR21WDDUBEMSLDIXZW1FAIHWSYXN","","null","<img src=""img/flower2.png"" style=""width:200px;border:14px solid red;"">","null","","","","","","","","",""
"","image-keyboard-response","80","116105","0.0-80.0","3F1567XTNXRHYEANF9HQX9HMJ6F9Q4","AKSLU0C30G3JT","3HUR21WDDUBEMSLDIXZW1FAIHWSYXN","","","img/flower2.png","","2004","-1","0","2","1","1,0.333,0.333,0.333,1,0.333,0.333,0.333,1","1,0.333,0.333,0.333,1,0.333,0.333,0.333,1","1",""
"","html-keyboard-response","81","116411","0.0-81.0","3F1567XTNXRHYEANF9HQX9HMJ6F9Q4","AKSLU0C30G3JT","3HUR21WDDUBEMSLDIXZW1FAIHWSYXN","","null","<img src=""img/flower2.png"" style=""width:200px;border:14px solid red;"">","null","","","","","","","","",""
"","image-keyboard-response","82","118416","0.0-82.0","3F1567XTNXRHYEANF9HQX9HMJ6F9Q4","AKSLU0C30G3JT","3HUR21WDDUBEMSLDIXZW1FAIHWSYXN","","","img/flower3.png","","2004","-1","0","3","1","1,0.333,0.333,0.333,1,0.333,0.333,0.333,1","1,0.333,0.333,0.333,1,0.333,0.333,0.333,1","1",""
"","html-keyboard-response","83","118721","0.0-83.0","3F1567XTNXRHYEANF9HQX9HMJ6F9Q4","AKSLU0C30G3JT","3HUR21WDDUBEMSLDIXZW1FAIHWSYXN","","null","<img src=""img/flower3.png"" style=""width:200px;border:14px solid red;"">","null","","","","","","","","",""
"","image-keyboard-response","84","120727","0.0-84.0","3F1567XTNXRHYEANF9HQX9HMJ6F9Q4","AKSLU0C30G3JT","3HUR21WDDUBEMSLDIXZW1FAIHWSYXN","","","img/flower5.png","","2004.9999999999854","-1","0","1","1","1,0.333,0.333,0.333,1,0.333,0.333,0.333,1","1,0.333,0.333,0.333,1,0.333,0.333,0.333,1","1",""
"","html-keyboard-response","85","121031","0.0-85.0","3F1567XTNXRHYEANF9HQX9HMJ6F9Q4","AKSLU0C30G3JT","3HUR21WDDUBEMSLDIXZW1FAIHWSYXN","","null","<img src=""img/flower5.png"" style=""width:200px;border:14px solid red;"">","null","","","","","","","","",""
"","image-keyboard-response","86","123037","0.0-86.0","3F1567XTNXRHYEANF9HQX9HMJ6F9Q4","AKSLU0C30G3JT","3HUR21WDDUBEMSLDIXZW1FAIHWSYXN","","","img/flower5.png","","2005","-1","0","1","1","1,0.333,0.333,0.333,1,0.333,0.333,0.333,1","1,0.333,0.333,0.333,1,0.333,0.333,0.333,1","1",""
"","html-keyboard-response","87","123342","0.0-87.0","3F1567XTNXRHYEANF9HQX9HMJ6F9Q4","AKSLU0C30G3JT","3HUR21WDDUBEMSLDIXZW1FAIHWSYXN","","null","<img src=""img/flower5.png"" style=""width:200px;border:14px solid red;"">","null","","","","","","","","",""
"","image-keyboard-response","88","125348","0.0-88.0","3F1567XTNXRHYEANF9HQX9HMJ6F9Q4","AKSLU0C30G3JT","3HUR21WDDUBEMSLDIXZW1FAIHWSYXN","","","img/flower3.png","","2005","-1","0","3","1","1,0.333,0.333,0.333,1,0.333,0.333,0.333,1","1,0.333,0.333,0.333,1,0.333,0.333,0.333,1","1",""
"","html-keyboard-response","89","125655","0.0-89.0","3F1567XTNXRHYEANF9HQX9HMJ6F9Q4","AKSLU0C30G3JT","3HUR21WDDUBEMSLDIXZW1FAIHWSYXN","","null","<img src=""img/flower3.png"" style=""width:200px;border:14px solid red;"">","null","","","","","","","","",""
"","image-keyboard-response","90","127660","0.0-90.0","3F1567XTNXRHYEANF9HQX9HMJ6F9Q4","AKSLU0C30G3JT","3HUR21WDDUBEMSLDIXZW1FAIHWSYXN","","","img/flower3.png","","2005.0000000000146","-1","0","3","1","1,0.333,0.333,0.333,1,0.333,0.333,0.333,1","1,0.333,0.333,0.333,1,0.333,0.333,0.333,1","1",""
"","html-keyboard-response","91","127965","0.0-91.0","3F1567XTNXRHYEANF9HQX9HMJ6F9Q4","AKSLU0C30G3JT","3HUR21WDDUBEMSLDIXZW1FAIHWSYXN","","null","<img src=""img/flower3.png"" style=""width:200px;border:14px solid red;"">","null","","","","","","","","",""
"","image-keyboard-response","92","129969","0.0-92.0","3F1567XTNXRHYEANF9HQX9HMJ6F9Q4","AKSLU0C30G3JT","3HUR21WDDUBEMSLDIXZW1FAIHWSYXN","","","img/flower5.png","","2003.0000000000146","-1","0","1","1","1,0.333,0.333,0.333,1,0.333,0.333,0.333,1","1,0.333,0.333,0.333,1,0.333,0.333,0.333,1","1",""
"","html-keyboard-response","93","130274","0.0-93.0","3F1567XTNXRHYEANF9HQX9HMJ6F9Q4","AKSLU0C30G3JT","3HUR21WDDUBEMSLDIXZW1FAIHWSYXN","","null","<img src=""img/flower5.png"" style=""width:200px;border:14px solid red;"">","null","","","","","","","","",""
"","image-keyboard-response","94","132279","0.0-94.0","3F1567XTNXRHYEANF9HQX9HMJ6F9Q4","AKSLU0C30G3JT","3HUR21WDDUBEMSLDIXZW1FAIHWSYXN","","","img/flower2.png","","2004.0000000000146","-1","0","2","1","1,0.333,0.333,0.333,1,0.333,0.333,0.333,1","1,0.333,0.333,0.333,1,0.333,0.333,0.333,1","1",""
"","html-keyboard-response","95","132583","0.0-95.0","3F1567XTNXRHYEANF9HQX9HMJ6F9Q4","AKSLU0C30G3JT","3HUR21WDDUBEMSLDIXZW1FAIHWSYXN","","null","<img src=""img/flower2.png"" style=""width:200px;border:14px solid red;"">","null","","","","","","","","",""
"","image-keyboard-response","96","134587","0.0-96.0","3F1567XTNXRHYEANF9HQX9HMJ6F9Q4","AKSLU0C30G3JT","3HUR21WDDUBEMSLDIXZW1FAIHWSYXN","","","img/flower5.png","","2004","-1","0","1","1","1,0.333,0.333,0.333,1,0.333,0.333,0.333,1","1,0.333,0.333,0.333,1,0.333,0.333,0.333,1","1",""
"","html-keyboard-response","97","134892","0.0-97.0","3F1567XTNXRHYEANF9HQX9HMJ6F9Q4","AKSLU0C30G3JT","3HUR21WDDUBEMSLDIXZW1FAIHWSYXN","","null","<img src=""img/flower5.png"" style=""width:200px;border:14px solid red;"">","null","","","","","","","","",""
"","image-keyboard-response","98","136897","0.0-98.0","3F1567XTNXRHYEANF9HQX9HMJ6F9Q4","AKSLU0C30G3JT","3HUR21WDDUBEMSLDIXZW1FAIHWSYXN","","","img/flower5.png","","2004","-1","0","1","1","1,0.333,0.333,0.333,1,0.333,0.333,0.333,1","1,0.333,0.333,0.333,1,0.333,0.333,0.333,1","1",""
"","html-keyboard-response","99","137203","0.0-99.0","3F1567XTNXRHYEANF9HQX9HMJ6F9Q4","AKSLU0C30G3JT","3HUR21WDDUBEMSLDIXZW1FAIHWSYXN","","null","<img src=""img/flower5.png"" style=""width:200px;border:14px solid red;"">","null","","","","","","","","",""
"","image-keyboard-response","100","139208","0.0-100.0","3F1567XTNXRHYEANF9HQX9HMJ6F9Q4","AKSLU0C30G3JT","3HUR21WDDUBEMSLDIXZW1FAIHWSYXN","","","img/flower5.png","","2004","-1","0","1","1","1,0.333,0.333,0.333,1,0.333,0.333,0.333,1","1,0.333,0.333,0.333,1,0.333,0.333,0.333,1","1",""
"","html-keyboard-response","101","139513","0.0-101.0","3F1567XTNXRHYEANF9HQX9HMJ6F9Q4","AKSLU0C30G3JT","3HUR21WDDUBEMSLDIXZW1FAIHWSYXN","","null","<img src=""img/flower5.png"" style=""width:200px;border:14px solid red;"">","null","","","","","","","","",""
"","image-keyboard-response","102","141519","0.0-102.0","3F1567XTNXRHYEANF9HQX9HMJ6F9Q4","AKSLU0C30G3JT","3HUR21WDDUBEMSLDIXZW1FAIHWSYXN","","","img/flower3.png","","2005","-1","0","3","1","1,0.333,0.333,0.333,1,0.333,0.333,0.333,1","1,0.333,0.333,0.333,1,0.333,0.333,0.333,1","1",""
"","html-keyboard-response","103","141829","0.0-103.0","3F1567XTNXRHYEANF9HQX9HMJ6F9Q4","AKSLU0C30G3JT","3HUR21WDDUBEMSLDIXZW1FAIHWSYXN","","null","<img src=""img/flower3.png"" style=""width:200px;border:14px solid red;"">","null","","","","","","","","",""
"","image-keyboard-response","104","143840","0.0-104.0","3F1567XTNXRHYEANF9HQX9HMJ6F9Q4","AKSLU0C30G3JT","3HUR21WDDUBEMSLDIXZW1FAIHWSYXN","","","img/flower3.png","","2008.000000000029","-1","0","3","1","1,0.333,0.333,0.333,1,0.333,0.333,0.333,1","1,0.333,0.333,0.333,1,0.333,0.333,0.333,1","1",""
"","html-keyboard-response","105","144153","0.0-105.0","3F1567XTNXRHYEANF9HQX9HMJ6F9Q4","AKSLU0C30G3JT","3HUR21WDDUBEMSLDIXZW1FAIHWSYXN","","null","<img src=""img/flower3.png"" style=""width:200px;border:14px solid red;"">","null","","","","","","","","",""
"","image-keyboard-response","106","146160","0.0-106.0","3F1567XTNXRHYEANF9HQX9HMJ6F9Q4","AKSLU0C30G3JT","3HUR21WDDUBEMSLDIXZW1FAIHWSYXN","","","img/flower2.png","","2004","-1","0","2","1","1,0.333,0.333,0.333,1,0.333,0.333,0.333,1","1,0.333,0.333,0.333,1,0.333,0.333,0.333,1","1",""
"","html-keyboard-response","107","146467","0.0-107.0","3F1567XTNXRHYEANF9HQX9HMJ6F9Q4","AKSLU0C30G3JT","3HUR21WDDUBEMSLDIXZW1FAIHWSYXN","","null","<img src=""img/flower2.png"" style=""width:200px;border:14px solid red;"">","null","","","","","","","","",""
"","image-keyboard-response","108","148472","0.0-108.0","3F1567XTNXRHYEANF9HQX9HMJ6F9Q4","AKSLU0C30G3JT","3HUR21WDDUBEMSLDIXZW1FAIHWSYXN","","","img/flower3.png","","2004","-1","0","3","1","1,0.333,0.333,0.333,1,0.333,0.333,0.333,1","1,0.333,0.333,0.333,1,0.333,0.333,0.333,1","1",""
"","html-keyboard-response","109","148778","0.0-109.0","3F1567XTNXRHYEANF9HQX9HMJ6F9Q4","AKSLU0C30G3JT","3HUR21WDDUBEMSLDIXZW1FAIHWSYXN","","null","<img src=""img/flower3.png"" style=""width:200px;border:14px solid red;"">","null","","","","","","","","",""
"","image-keyboard-response","110","150784","0.0-110.0","3F1567XTNXRHYEANF9HQX9HMJ6F9Q4","AKSLU0C30G3JT","3HUR21WDDUBEMSLDIXZW1FAIHWSYXN","","","img/flower3.png","","2005","-1","0","3","1","1,0.333,0.333,0.333,1,0.333,0.333,0.333,1","1,0.333,0.333,0.333,1,0.333,0.333,0.333,1","1",""
"","html-keyboard-response","111","151093","0.0-111.0","3F1567XTNXRHYEANF9HQX9HMJ6F9Q4","AKSLU0C30G3JT","3HUR21WDDUBEMSLDIXZW1FAIHWSYXN","","null","<img src=""img/flower3.png"" style=""width:200px;border:14px solid red;"">","null","","","","","","","","",""
"","image-keyboard-response","112","153098","0.0-112.0","3F1567XTNXRHYEANF9HQX9HMJ6F9Q4","AKSLU0C30G3JT","3HUR21WDDUBEMSLDIXZW1FAIHWSYXN","","","img/flower5.png","","2004","-1","0","1","1","1,0.333,0.333,0.333,1,0.333,0.333,0.333,1","1,0.333,0.333,0.333,1,0.333,0.333,0.333,1","1",""
"","html-keyboard-response","113","153402","0.0-113.0","3F1567XTNXRHYEANF9HQX9HMJ6F9Q4","AKSLU0C30G3JT","3HUR21WDDUBEMSLDIXZW1FAIHWSYXN","","null","<img src=""img/flower5.png"" style=""width:200px;border:14px solid red;"">","null","","","","","","","","",""
"","image-keyboard-response","114","155408","0.0-114.0","3F1567XTNXRHYEANF9HQX9HMJ6F9Q4","AKSLU0C30G3JT","3HUR21WDDUBEMSLDIXZW1FAIHWSYXN","","","img/flower5.png","","2005","-1","0","1","1","1,0.333,0.333,0.333,1,0.333,0.333,0.333,1","1,0.333,0.333,0.333,1,0.333,0.333,0.333,1","1",""
"","html-keyboard-response","115","155712","0.0-115.0","3F1567XTNXRHYEANF9HQX9HMJ6F9Q4","AKSLU0C30G3JT","3HUR21WDDUBEMSLDIXZW1FAIHWSYXN","","null","<img src=""img/flower5.png"" style=""width:200px;border:14px solid red;"">","null","","","","","","","","",""
"","image-keyboard-response","116","157717","0.0-116.0","3F1567XTNXRHYEANF9HQX9HMJ6F9Q4","AKSLU0C30G3JT","3HUR21WDDUBEMSLDIXZW1FAIHWSYXN","","","img/flower5.png","","2004","-1","0","1","1","1,0.333,0.333,0.333,1,0.333,0.333,0.333,1","1,0.333,0.333,0.333,1,0.333,0.333,0.333,1","1",""
"","html-keyboard-response","117","158022","0.0-117.0","3F1567XTNXRHYEANF9HQX9HMJ6F9Q4","AKSLU0C30G3JT","3HUR21WDDUBEMSLDIXZW1FAIHWSYXN","","null","<img src=""img/flower5.png"" style=""width:200px;border:14px solid red;"">","null","","","","","","","","",""
"","image-keyboard-response","118","160028","0.0-118.0","3F1567XTNXRHYEANF9HQX9HMJ6F9Q4","AKSLU0C30G3JT","3HUR21WDDUBEMSLDIXZW1FAIHWSYXN","","","img/flower5.png","","2004","-1","0","1","1","1,0.333,0.333,0.333,1,0.333,0.333,0.333,1","1,0.333,0.333,0.333,1,0.333,0.333,0.333,1","1",""
"","html-keyboard-response","119","160332","0.0-119.0","3F1567XTNXRHYEANF9HQX9HMJ6F9Q4","AKSLU0C30G3JT","3HUR21WDDUBEMSLDIXZW1FAIHWSYXN","","null","<img src=""img/flower5.png"" style=""width:200px;border:14px solid red;"">","null","","","","","","","","",""
"","image-keyboard-response","120","162337","0.0-120.0","3F1567XTNXRHYEANF9HQX9HMJ6F9Q4","AKSLU0C30G3JT","3HUR21WDDUBEMSLDIXZW1FAIHWSYXN","","","img/flower2.png","","2004","-1","0","2","1","1,0.333,0.333,0.333,1,0.333,0.333,0.333,1","1,0.333,0.333,0.333,1,0.333,0.333,0.333,1","1",""
"","html-keyboard-response","121","162642","0.0-121.0","3F1567XTNXRHYEANF9HQX9HMJ6F9Q4","AKSLU0C30G3JT","3HUR21WDDUBEMSLDIXZW1FAIHWSYXN","","null","<img src=""img/flower2.png"" style=""width:200px;border:14px solid red;"">","null","","","","","","","","",""
"","image-keyboard-response","122","164649","0.0-122.0","3F1567XTNXRHYEANF9HQX9HMJ6F9Q4","AKSLU0C30G3JT","3HUR21WDDUBEMSLDIXZW1FAIHWSYXN","","","img/flower2.png","","2006","-1","0","2","1","1,0.333,0.333,0.333,1,0.333,0.333,0.333,1","1,0.333,0.333,0.333,1,0.333,0.333,0.333,1","1",""
"","html-keyboard-response","123","164960","0.0-123.0","3F1567XTNXRHYEANF9HQX9HMJ6F9Q4","AKSLU0C30G3JT","3HUR21WDDUBEMSLDIXZW1FAIHWSYXN","","null","<img src=""img/flower2.png"" style=""width:200px;border:14px solid red;"">","null","","","","","","","","",""
"","image-keyboard-response","124","166965","0.0-124.0","3F1567XTNXRHYEANF9HQX9HMJ6F9Q4","AKSLU0C30G3JT","3HUR21WDDUBEMSLDIXZW1FAIHWSYXN","","","img/flower5.png","","2004.000000000029","-1","0","1","1","1,0.333,0.333,0.333,1,0.333,0.333,0.333,1","1,0.333,0.333,0.333,1,0.333,0.333,0.333,1","1",""
"","html-keyboard-response","125","167270","0.0-125.0","3F1567XTNXRHYEANF9HQX9HMJ6F9Q4","AKSLU0C30G3JT","3HUR21WDDUBEMSLDIXZW1FAIHWSYXN","","null","<img src=""img/flower5.png"" style=""width:200px;border:14px solid red;"">","null","","","","","","","","",""
"","image-keyboard-response","126","169276","0.0-126.0","3F1567XTNXRHYEANF9HQX9HMJ6F9Q4","AKSLU0C30G3JT","3HUR21WDDUBEMSLDIXZW1FAIHWSYXN","","","img/flower3.png","","2004","-1","0","3","1","1,0.333,0.333,0.333,1,0.333,0.333,0.333,1","1,0.333,0.333,0.333,1,0.333,0.333,0.333,1","1",""
"","html-keyboard-response","127","169582","0.0-127.0","3F1567XTNXRHYEANF9HQX9HMJ6F9Q4","AKSLU0C30G3JT","3HUR21WDDUBEMSLDIXZW1FAIHWSYXN","","null","<img src=""img/flower3.png"" style=""width:200px;border:14px solid red;"">","null","","","","","","","","",""
"","image-keyboard-response","128","171587","0.0-128.0","3F1567XTNXRHYEANF9HQX9HMJ6F9Q4","AKSLU0C30G3JT","3HUR21WDDUBEMSLDIXZW1FAIHWSYXN","","","img/flower3.png","","2004","-1","0","3","1","1,0.333,0.333,0.333,1,0.333,0.333,0.333,1","1,0.333,0.333,0.333,1,0.333,0.333,0.333,1","1",""
"","html-keyboard-response","129","171892","0.0-129.0","3F1567XTNXRHYEANF9HQX9HMJ6F9Q4","AKSLU0C30G3JT","3HUR21WDDUBEMSLDIXZW1FAIHWSYXN","","null","<img src=""img/flower3.png"" style=""width:200px;border:14px solid red;"">","null","","","","","","","","",""
"","image-keyboard-response","130","173898","0.0-130.0","3F1567XTNXRHYEANF9HQX9HMJ6F9Q4","AKSLU0C30G3JT","3HUR21WDDUBEMSLDIXZW1FAIHWSYXN","","","img/flower3.png","","2006","-1","0","3","1","1,0.333,0.333,0.333,1,0.333,0.333,0.333,1","1,0.333,0.333,0.333,1,0.333,0.333,0.333,1","1",""
"","html-keyboard-response","131","174207","0.0-131.0","3F1567XTNXRHYEANF9HQX9HMJ6F9Q4","AKSLU0C30G3JT","3HUR21WDDUBEMSLDIXZW1FAIHWSYXN","","null","<img src=""img/flower3.png"" style=""width:200px;border:14px solid red;"">","null","","","","","","","","",""
"","image-keyboard-response","132","176215","0.0-132.0","3F1567XTNXRHYEANF9HQX9HMJ6F9Q4","AKSLU0C30G3JT","3HUR21WDDUBEMSLDIXZW1FAIHWSYXN","","","img/flower3.png","","2006","-1","0","3","1","1,0.333,0.333,0.333,1,0.333,0.333,0.333,1","1,0.333,0.333,0.333,1,0.333,0.333,0.333,1","1",""
"","html-keyboard-response","133","176523","0.0-133.0","3F1567XTNXRHYEANF9HQX9HMJ6F9Q4","AKSLU0C30G3JT","3HUR21WDDUBEMSLDIXZW1FAIHWSYXN","","null","<img src=""img/flower3.png"" style=""width:200px;border:14px solid red;"">","null","","","","","","","","",""
"","image-keyboard-response","134","178530","0.0-134.0","3F1567XTNXRHYEANF9HQX9HMJ6F9Q4","AKSLU0C30G3JT","3HUR21WDDUBEMSLDIXZW1FAIHWSYXN","","","img/flower5.png","","2006","-1","0","1","1","1,0.333,0.333,0.333,1,0.333,0.333,0.333,1","1,0.333,0.333,0.333,1,0.333,0.333,0.333,1","1",""
"","html-keyboard-response","135","178837","0.0-135.0","3F1567XTNXRHYEANF9HQX9HMJ6F9Q4","AKSLU0C30G3JT","3HUR21WDDUBEMSLDIXZW1FAIHWSYXN","","null","<img src=""img/flower5.png"" style=""width:200px;border:14px solid red;"">","null","","","","","","","","",""
"","image-keyboard-response","136","180842","0.0-136.0","3F1567XTNXRHYEANF9HQX9HMJ6F9Q4","AKSLU0C30G3JT","3HUR21WDDUBEMSLDIXZW1FAIHWSYXN","","","img/flower3.png","","2005","-1","0","3","1","1,0.333,0.333,0.333,1,0.333,0.333,0.333,1","1,0.333,0.333,0.333,1,0.333,0.333,0.333,1","1",""
"","html-keyboard-response","137","181149","0.0-137.0","3F1567XTNXRHYEANF9HQX9HMJ6F9Q4","AKSLU0C30G3JT","3HUR21WDDUBEMSLDIXZW1FAIHWSYXN","","null","<img src=""img/flower3.png"" style=""width:200px;border:14px solid red;"">","null","","","","","","","","",""
"","image-keyboard-response","138","183154","0.0-138.0","3F1567XTNXRHYEANF9HQX9HMJ6F9Q4","AKSLU0C30G3JT","3HUR21WDDUBEMSLDIXZW1FAIHWSYXN","","","img/flower5.png","","2004","-1","0","1","1","1,0.333,0.333,0.333,1,0.333,0.333,0.333,1","1,0.333,0.333,0.333,1,0.333,0.333,0.333,1","1",""
"","html-keyboard-response","139","183460","0.0-139.0","3F1567XTNXRHYEANF9HQX9HMJ6F9Q4","AKSLU0C30G3JT","3HUR21WDDUBEMSLDIXZW1FAIHWSYXN","","null","<img src=""img/flower5.png"" style=""width:200px;border:14px solid red;"">","null","","","","","","","","",""
"","image-keyboard-response","140","185466","0.0-140.0","3F1567XTNXRHYEANF9HQX9HMJ6F9Q4","AKSLU0C30G3JT","3HUR21WDDUBEMSLDIXZW1FAIHWSYXN","","","img/flower3.png","","2005","-1","0","3","1","1,0.333,0.333,0.333,1,0.333,0.333,0.333,1","1,0.333,0.333,0.333,1,0.333,0.333,0.333,1","1",""
"","html-keyboard-response","141","185773","0.0-141.0","3F1567XTNXRHYEANF9HQX9HMJ6F9Q4","AKSLU0C30G3JT","3HUR21WDDUBEMSLDIXZW1FAIHWSYXN","","null","<img src=""img/flower3.png"" style=""width:200px;border:14px solid red;"">","null","","","","","","","","",""
"","image-keyboard-response","142","187780","0.0-142.0","3F1567XTNXRHYEANF9HQX9HMJ6F9Q4","AKSLU0C30G3JT","3HUR21WDDUBEMSLDIXZW1FAIHWSYXN","","","img/flower3.png","","2004","-1","0","3","1","1,0.333,0.333,0.333,1,0.333,0.333,0.333,1","1,0.333,0.333,0.333,1,0.333,0.333,0.333,1","1",""
"","html-keyboard-response","143","188086","0.0-143.0","3F1567XTNXRHYEANF9HQX9HMJ6F9Q4","AKSLU0C30G3JT","3HUR21WDDUBEMSLDIXZW1FAIHWSYXN","","null","<img src=""img/flower3.png"" style=""width:200px;border:14px solid red;"">","null","","","","","","","","",""
"","image-keyboard-response","144","190091","0.0-144.0","3F1567XTNXRHYEANF9HQX9HMJ6F9Q4","AKSLU0C30G3JT","3HUR21WDDUBEMSLDIXZW1FAIHWSYXN","","","img/flower5.png","","2005","-1","0","1","1","1,0.333,0.333,0.333,1,0.333,0.333,0.333,1","1,0.333,0.333,0.333,1,0.333,0.333,0.333,1","1",""
"","html-keyboard-response","145","190397","0.0-145.0","3F1567XTNXRHYEANF9HQX9HMJ6F9Q4","AKSLU0C30G3JT","3HUR21WDDUBEMSLDIXZW1FAIHWSYXN","","null","<img src=""img/flower5.png"" style=""width:200px;border:14px solid red;"">","null","","","","","","","","",""
"","image-keyboard-response","146","192401","0.0-146.0","3F1567XTNXRHYEANF9HQX9HMJ6F9Q4","AKSLU0C30G3JT","3HUR21WDDUBEMSLDIXZW1FAIHWSYXN","","","img/flower2.png","","2003","-1","0","2","1","1,0.333,0.333,0.333,1,0.333,0.333,0.333,1","1,0.333,0.333,0.333,1,0.333,0.333,0.333,1","1",""
"","html-keyboard-response","147","192706","0.0-147.0","3F1567XTNXRHYEANF9HQX9HMJ6F9Q4","AKSLU0C30G3JT","3HUR21WDDUBEMSLDIXZW1FAIHWSYXN","","null","<img src=""img/flower2.png"" style=""width:200px;border:14px solid red;"">","null","","","","","","","","",""
"","image-keyboard-response","148","194712","0.0-148.0","3F1567XTNXRHYEANF9HQX9HMJ6F9Q4","AKSLU0C30G3JT","3HUR21WDDUBEMSLDIXZW1FAIHWSYXN","","","img/flower2.png","","2005","-1","0","2","1","1,0.333,0.333,0.333,1,0.333,0.333,0.333,1","1,0.333,0.333,0.333,1,0.333,0.333,0.333,1","1",""
"","html-keyboard-response","149","195017","0.0-149.0","3F1567XTNXRHYEANF9HQX9HMJ6F9Q4","AKSLU0C30G3JT","3HUR21WDDUBEMSLDIXZW1FAIHWSYXN","","null","<img src=""img/flower2.png"" style=""width:200px;border:14px solid red;"">","null","","","","","","","","",""
"","image-keyboard-response","150","197024","0.0-150.0","3F1567XTNXRHYEANF9HQX9HMJ6F9Q4","AKSLU0C30G3JT","3HUR21WDDUBEMSLDIXZW1FAIHWSYXN","","","img/flower3.png","","2006","-1","0","3","1","1,0.333,0.333,0.333,1,0.333,0.333,0.333,1","1,0.333,0.333,0.333,1,0.333,0.333,0.333,1","1",""
"","html-keyboard-response","151","197331","0.0-151.0","3F1567XTNXRHYEANF9HQX9HMJ6F9Q4","AKSLU0C30G3JT","3HUR21WDDUBEMSLDIXZW1FAIHWSYXN","","null","<img src=""img/flower3.png"" style=""width:200px;border:14px solid red;"">","null","","","","","","","","",""
"","image-keyboard-response","152","199336","0.0-152.0","3F1567XTNXRHYEANF9HQX9HMJ6F9Q4","AKSLU0C30G3JT","3HUR21WDDUBEMSLDIXZW1FAIHWSYXN","","","img/flower2.png","","2005","-1","0","2","1","1,0.333,0.333,0.333,1,0.333,0.333,0.333,1","1,0.333,0.333,0.333,1,0.333,0.333,0.333,1","1",""
"","html-keyboard-response","153","199641","0.0-153.0","3F1567XTNXRHYEANF9HQX9HMJ6F9Q4","AKSLU0C30G3JT","3HUR21WDDUBEMSLDIXZW1FAIHWSYXN","","null","<img src=""img/flower2.png"" style=""width:200px;border:14px solid red;"">","null","","","","","","","","",""
"","image-keyboard-response","154","201648","0.0-154.0","3F1567XTNXRHYEANF9HQX9HMJ6F9Q4","AKSLU0C30G3JT","3HUR21WDDUBEMSLDIXZW1FAIHWSYXN","","","img/flower2.png","","2004","-1","0","2","1","1,0.333,0.333,0.333,1,0.333,0.333,0.333,1","1,0.333,0.333,0.333,1,0.333,0.333,0.333,1","1",""
"","html-keyboard-response","155","201952","0.0-155.0","3F1567XTNXRHYEANF9HQX9HMJ6F9Q4","AKSLU0C30G3JT","3HUR21WDDUBEMSLDIXZW1FAIHWSYXN","","null","<img src=""img/flower2.png"" style=""width:200px;border:14px solid red;"">","null","","","","","","","","",""
"","image-keyboard-response","156","203957","0.0-156.0","3F1567XTNXRHYEANF9HQX9HMJ6F9Q4","AKSLU0C30G3JT","3HUR21WDDUBEMSLDIXZW1FAIHWSYXN","","","img/flower2.png","","2004.999999999971","-1","0","2","1","1,0.333,0.333,0.333,1,0.333,0.333,0.333,1","1,0.333,0.333,0.333,1,0.333,0.333,0.333,1","1",""
"","html-keyboard-response","157","204262","0.0-157.0","3F1567XTNXRHYEANF9HQX9HMJ6F9Q4","AKSLU0C30G3JT","3HUR21WDDUBEMSLDIXZW1FAIHWSYXN","","null","<img src=""img/flower2.png"" style=""width:200px;border:14px solid red;"">","null","","","","","","","","",""
"","image-keyboard-response","158","206268","0.0-158.0","3F1567XTNXRHYEANF9HQX9HMJ6F9Q4","AKSLU0C30G3JT","3HUR21WDDUBEMSLDIXZW1FAIHWSYXN","","","img/flower5.png","","2004","-1","0","1","1","1,0.333,0.333,0.333,1,0.333,0.333,0.333,1","1,0.333,0.333,0.333,1,0.333,0.333,0.333,1","1",""
"","html-keyboard-response","159","206573","0.0-159.0","3F1567XTNXRHYEANF9HQX9HMJ6F9Q4","AKSLU0C30G3JT","3HUR21WDDUBEMSLDIXZW1FAIHWSYXN","","null","<img src=""img/flower5.png"" style=""width:200px;border:14px solid red;"">","null","","","","","","","","",""
"","image-keyboard-response","160","208578","0.0-160.0","3F1567XTNXRHYEANF9HQX9HMJ6F9Q4","AKSLU0C30G3JT","3HUR21WDDUBEMSLDIXZW1FAIHWSYXN","","","img/flower2.png","","2005","-1","0","2","1","1,0.333,0.333,0.333,1,0.333,0.333,0.333,1","1,0.333,0.333,0.333,1,0.333,0.333,0.333,1","1",""
"","html-keyboard-response","161","208891","0.0-161.0","3F1567XTNXRHYEANF9HQX9HMJ6F9Q4","AKSLU0C30G3JT","3HUR21WDDUBEMSLDIXZW1FAIHWSYXN","","null","<img src=""img/flower2.png"" style=""width:200px;border:14px solid red;"">","null","","","","","","","","",""
"","image-keyboard-response","162","210898","0.0-162.0","3F1567XTNXRHYEANF9HQX9HMJ6F9Q4","AKSLU0C30G3JT","3HUR21WDDUBEMSLDIXZW1FAIHWSYXN","","","img/flower5.png","","2006","-1","0","1","1","1,0.333,0.333,0.333,1,0.333,0.333,0.333,1","1,0.333,0.333,0.333,1,0.333,0.333,0.333,1","1",""
"","html-keyboard-response","163","211205","0.0-163.0","3F1567XTNXRHYEANF9HQX9HMJ6F9Q4","AKSLU0C30G3JT","3HUR21WDDUBEMSLDIXZW1FAIHWSYXN","","null","<img src=""img/flower5.png"" style=""width:200px;border:14px solid red;"">","null","","","","","","","","",""
"","image-keyboard-response","164","213210","0.0-164.0","3F1567XTNXRHYEANF9HQX9HMJ6F9Q4","AKSLU0C30G3JT","3HUR21WDDUBEMSLDIXZW1FAIHWSYXN","","","img/flower2.png","","2004","-1","0","2","1","1,0.333,0.333,0.333,1,0.333,0.333,0.333,1","1,0.333,0.333,0.333,1,0.333,0.333,0.333,1","1",""
"","html-keyboard-response","165","213513","0.0-165.0","3F1567XTNXRHYEANF9HQX9HMJ6F9Q4","AKSLU0C30G3JT","3HUR21WDDUBEMSLDIXZW1FAIHWSYXN","","null","<img src=""img/flower2.png"" style=""width:200px;border:14px solid red;"">","null","","","","","","","","",""
"","image-keyboard-response","166","215517","0.0-166.0","3F1567XTNXRHYEANF9HQX9HMJ6F9Q4","AKSLU0C30G3JT","3HUR21WDDUBEMSLDIXZW1FAIHWSYXN","","","img/flower3.png","","2006","-1","0","3","1","1,0.333,0.333,0.333,1,0.333,0.333,0.333,1","1,0.333,0.333,0.333,1,0.333,0.333,0.333,1","1",""
"","html-keyboard-response","167","215830","0.0-167.0","3F1567XTNXRHYEANF9HQX9HMJ6F9Q4","AKSLU0C30G3JT","3HUR21WDDUBEMSLDIXZW1FAIHWSYXN","","null","<img src=""img/flower3.png"" style=""width:200px;border:14px solid red;"">","null","","","","","","","","",""
"","image-keyboard-response","168","217836","0.0-168.0","3F1567XTNXRHYEANF9HQX9HMJ6F9Q4","AKSLU0C30G3JT","3HUR21WDDUBEMSLDIXZW1FAIHWSYXN","","","img/flower3.png","","2004","-1","0","3","1","1,0.333,0.333,0.333,1,0.333,0.333,0.333,1","1,0.333,0.333,0.333,1,0.333,0.333,0.333,1","1",""
"","html-keyboard-response","169","218142","0.0-169.0","3F1567XTNXRHYEANF9HQX9HMJ6F9Q4","AKSLU0C30G3JT","3HUR21WDDUBEMSLDIXZW1FAIHWSYXN","","null","<img src=""img/flower3.png"" style=""width:200px;border:14px solid red;"">","null","","","","","","","","",""
"","image-keyboard-response","170","220148","0.0-170.0","3F1567XTNXRHYEANF9HQX9HMJ6F9Q4","AKSLU0C30G3JT","3HUR21WDDUBEMSLDIXZW1FAIHWSYXN","","","img/flower2.png","","2005","-1","0","2","1","1,0.333,0.333,0.333,1,0.333,0.333,0.333,1","1,0.333,0.333,0.333,1,0.333,0.333,0.333,1","1",""
"","html-keyboard-response","171","220454","0.0-171.0","3F1567XTNXRHYEANF9HQX9HMJ6F9Q4","AKSLU0C30G3JT","3HUR21WDDUBEMSLDIXZW1FAIHWSYXN","","null","<img src=""img/flower2.png"" style=""width:200px;border:14px solid red;"">","null","","","","","","","","",""
"","image-keyboard-response","172","222460","0.0-172.0","3F1567XTNXRHYEANF9HQX9HMJ6F9Q4","AKSLU0C30G3JT","3HUR21WDDUBEMSLDIXZW1FAIHWSYXN","","","img/flower2.png","","2005","-1","0","2","1","1,0.333,0.333,0.333,1,0.333,0.333,0.333,1","1,0.333,0.333,0.333,1,0.333,0.333,0.333,1","1",""
"","html-keyboard-response","173","222765","0.0-173.0","3F1567XTNXRHYEANF9HQX9HMJ6F9Q4","AKSLU0C30G3JT","3HUR21WDDUBEMSLDIXZW1FAIHWSYXN","","null","<img src=""img/flower2.png"" style=""width:200px;border:14px solid red;"">","null","","","","","","","","",""
"","image-keyboard-response","174","224771","0.0-174.0","3F1567XTNXRHYEANF9HQX9HMJ6F9Q4","AKSLU0C30G3JT","3HUR21WDDUBEMSLDIXZW1FAIHWSYXN","","","img/flower3.png","","2005","-1","0","3","1","1,0.333,0.333,0.333,1,0.333,0.333,0.333,1","1,0.333,0.333,0.333,1,0.333,0.333,0.333,1","1",""
"","html-keyboard-response","175","225077","0.0-175.0","3F1567XTNXRHYEANF9HQX9HMJ6F9Q4","AKSLU0C30G3JT","3HUR21WDDUBEMSLDIXZW1FAIHWSYXN","","null","<img src=""img/flower3.png"" style=""width:200px;border:14px solid red;"">","null","","","","","","","","",""
"","image-keyboard-response","176","227082","0.0-176.0","3F1567XTNXRHYEANF9HQX9HMJ6F9Q4","AKSLU0C30G3JT","3HUR21WDDUBEMSLDIXZW1FAIHWSYXN","","","img/flower3.png","","2004.999999999971","-1","0","3","1","1,0.333,0.333,0.333,1,0.333,0.333,0.333,1","1,0.333,0.333,0.333,1,0.333,0.333,0.333,1","1",""
"","html-keyboard-response","177","227388","0.0-177.0","3F1567XTNXRHYEANF9HQX9HMJ6F9Q4","AKSLU0C30G3JT","3HUR21WDDUBEMSLDIXZW1FAIHWSYXN","","null","<img src=""img/flower3.png"" style=""width:200px;border:14px solid red;"">","null","","","","","","","","",""
"","image-keyboard-response","178","229394","0.0-178.0","3F1567XTNXRHYEANF9HQX9HMJ6F9Q4","AKSLU0C30G3JT","3HUR21WDDUBEMSLDIXZW1FAIHWSYXN","","","img/flower3.png","","2004.000000000029","-1","0","3","1","1,0.333,0.333,0.333,1,0.333,0.333,0.333,1","1,0.333,0.333,0.333,1,0.333,0.333,0.333,1","1",""
"","html-keyboard-response","179","229700","0.0-179.0","3F1567XTNXRHYEANF9HQX9HMJ6F9Q4","AKSLU0C30G3JT","3HUR21WDDUBEMSLDIXZW1FAIHWSYXN","","null","<img src=""img/flower3.png"" style=""width:200px;border:14px solid red;"">","null","","","","","","","","",""
"","image-keyboard-response","180","231706","0.0-180.0","3F1567XTNXRHYEANF9HQX9HMJ6F9Q4","AKSLU0C30G3JT","3HUR21WDDUBEMSLDIXZW1FAIHWSYXN","","","img/flower5.png","","2006","-1","0","1","1","1,0.333,0.333,0.333,1,0.333,0.333,0.333,1","1,0.333,0.333,0.333,1,0.333,0.333,0.333,1","1",""
"","html-keyboard-response","181","232012","0.0-181.0","3F1567XTNXRHYEANF9HQX9HMJ6F9Q4","AKSLU0C30G3JT","3HUR21WDDUBEMSLDIXZW1FAIHWSYXN","","null","<img src=""img/flower5.png"" style=""width:200px;border:14px solid red;"">","null","","","","","","","","",""
"","html-keyboard-response","182","256303","0.0-182.0","3F1567XTNXRHYEANF9HQX9HMJ6F9Q4","AKSLU0C30G3JT","3HUR21WDDUBEMSLDIXZW1FAIHWSYXN","","","","","","","","","","","","",""
"","image-keyboard-response","183","258307","0.0-183.0","3F1567XTNXRHYEANF9HQX9HMJ6F9Q4","AKSLU0C30G3JT","3HUR21WDDUBEMSLDIXZW1FAIHWSYXN","","","img/flower6.png","","2003.9999999999418","-1","0","3","2","1,0,0,1,1,0,1,0,1","0,0,1,1,0,1,0,1,1","2",""
"","html-keyboard-response","184","258612","0.0-184.0","3F1567XTNXRHYEANF9HQX9HMJ6F9Q4","AKSLU0C30G3JT","3HUR21WDDUBEMSLDIXZW1FAIHWSYXN","","null","<img src=""img/flower6.png"" style=""width:200px;border:14px solid red;"">","null","","","","","","","","",""
"","image-keyboard-response","185","260614","0.0-185.0","3F1567XTNXRHYEANF9HQX9HMJ6F9Q4","AKSLU0C30G3JT","3HUR21WDDUBEMSLDIXZW1FAIHWSYXN","","","img/flower4.png","","2002.000000000029","-1","0","1","2","1,0,0,1,1,0,1,0,1","0,0,1,1,0,1,0,1,1","2",""
"","html-keyboard-response","186","260917","0.0-186.0","3F1567XTNXRHYEANF9HQX9HMJ6F9Q4","AKSLU0C30G3JT","3HUR21WDDUBEMSLDIXZW1FAIHWSYXN","","null","<img src=""img/flower4.png"" style=""width:200px;border:14px solid red;"">","null","","","","","","","","",""
"","image-keyboard-response","187","262920","0.0-187.0","3F1567XTNXRHYEANF9HQX9HMJ6F9Q4","AKSLU0C30G3JT","3HUR21WDDUBEMSLDIXZW1FAIHWSYXN","","","img/flower4.png","","2001.999999999971","-1","0","1","2","1,0,0,1,1,0,1,0,1","0,0,1,1,0,1,0,1,1","2",""
"","html-keyboard-response","188","263223","0.0-188.0","3F1567XTNXRHYEANF9HQX9HMJ6F9Q4","AKSLU0C30G3JT","3HUR21WDDUBEMSLDIXZW1FAIHWSYXN","","null","<img src=""img/flower4.png"" style=""width:200px;border:14px solid red;"">","null","","","","","","","","",""
"","image-keyboard-response","189","265226","0.0-189.0","3F1567XTNXRHYEANF9HQX9HMJ6F9Q4","AKSLU0C30G3JT","3HUR21WDDUBEMSLDIXZW1FAIHWSYXN","","","img/flower6.png","","2002.9999999999418","-1","0","3","2","1,0,0,1,1,0,1,0,1","0,0,1,1,0,1,0,1,1","2",""
"","html-keyboard-response","190","265530","0.0-190.0","3F1567XTNXRHYEANF9HQX9HMJ6F9Q4","AKSLU0C30G3JT","3HUR21WDDUBEMSLDIXZW1FAIHWSYXN","","null","<img src=""img/flower6.png"" style=""width:200px;border:14px solid red;"">","null","","","","","","","","",""
"","image-keyboard-response","191","267538","0.0-191.0","3F1567XTNXRHYEANF9HQX9HMJ6F9Q4","AKSLU0C30G3JT","3HUR21WDDUBEMSLDIXZW1FAIHWSYXN","","","img/flower4.png","","2008","-1","0","1","2","1,0,0,1,1,0,1,0,1","0,0,1,1,0,1,0,1,1","2",""
"","html-keyboard-response","192","267847","0.0-192.0","3F1567XTNXRHYEANF9HQX9HMJ6F9Q4","AKSLU0C30G3JT","3HUR21WDDUBEMSLDIXZW1FAIHWSYXN","","null","<img src=""img/flower4.png"" style=""width:200px;border:14px solid red;"">","null","","","","","","","","",""
"","image-keyboard-response","193","269855","0.0-193.0","3F1567XTNXRHYEANF9HQX9HMJ6F9Q4","AKSLU0C30G3JT","3HUR21WDDUBEMSLDIXZW1FAIHWSYXN","","","img/flower6.png","","2005","-1","0","3","2","1,0,0,1,1,0,1,0,1","0,0,1,1,0,1,0,1,1","2",""
"","html-keyboard-response","194","270162","0.0-194.0","3F1567XTNXRHYEANF9HQX9HMJ6F9Q4","AKSLU0C30G3JT","3HUR21WDDUBEMSLDIXZW1FAIHWSYXN","","null","<img src=""img/flower6.png"" style=""width:200px;border:14px solid red;"">","null","","","","","","","","",""
"","image-keyboard-response","195","272168","0.0-195.0","3F1567XTNXRHYEANF9HQX9HMJ6F9Q4","AKSLU0C30G3JT","3HUR21WDDUBEMSLDIXZW1FAIHWSYXN","","","img/flower1.png","","2005","-1","0","2","2","1,0,0,1,1,0,1,0,1","0,0,1,1,0,1,0,1,1","2",""
"","html-keyboard-response","196","272474","0.0-196.0","3F1567XTNXRHYEANF9HQX9HMJ6F9Q4","AKSLU0C30G3JT","3HUR21WDDUBEMSLDIXZW1FAIHWSYXN","","null","<img src=""img/flower1.png"" style=""width:200px;border:14px solid red;"">","null","","","","","","","","",""
"","image-keyboard-response","197","274479","0.0-197.0","3F1567XTNXRHYEANF9HQX9HMJ6F9Q4","AKSLU0C30G3JT","3HUR21WDDUBEMSLDIXZW1FAIHWSYXN","","","img/flower6.png","","2004","-1","0","3","2","1,0,0,1,1,0,1,0,1","0,0,1,1,0,1,0,1,1","2",""
"","html-keyboard-response","198","274786","0.0-198.0","3F1567XTNXRHYEANF9HQX9HMJ6F9Q4","AKSLU0C30G3JT","3HUR21WDDUBEMSLDIXZW1FAIHWSYXN","","null","<img src=""img/flower6.png"" style=""width:200px;border:14px solid red;"">","null","","","","","","","","",""
"","image-keyboard-response","199","276790","0.0-199.0","3F1567XTNXRHYEANF9HQX9HMJ6F9Q4","AKSLU0C30G3JT","3HUR21WDDUBEMSLDIXZW1FAIHWSYXN","","","img/flower4.png","","2005","-1","0","1","2","1,0,0,1,1,0,1,0,1","0,0,1,1,0,1,0,1,1","2",""
"","html-keyboard-response","200","277097","0.0-200.0","3F1567XTNXRHYEANF9HQX9HMJ6F9Q4","AKSLU0C30G3JT","3HUR21WDDUBEMSLDIXZW1FAIHWSYXN","","null","<img src=""img/flower4.png"" style=""width:200px;border:14px solid red;"">","null","","","","","","","","",""
"","image-keyboard-response","201","279103","0.0-201.0","3F1567XTNXRHYEANF9HQX9HMJ6F9Q4","AKSLU0C30G3JT","3HUR21WDDUBEMSLDIXZW1FAIHWSYXN","","","img/flower1.png","","2004","-1","0","2","2","1,0,0,1,1,0,1,0,1","0,0,1,1,0,1,0,1,1","2",""
"","html-keyboard-response","202","279408","0.0-202.0","3F1567XTNXRHYEANF9HQX9HMJ6F9Q4","AKSLU0C30G3JT","3HUR21WDDUBEMSLDIXZW1FAIHWSYXN","","null","<img src=""img/flower1.png"" style=""width:200px;border:14px solid red;"">","null","","","","","","","","",""
"","image-keyboard-response","203","281413","0.0-203.0","3F1567XTNXRHYEANF9HQX9HMJ6F9Q4","AKSLU0C30G3JT","3HUR21WDDUBEMSLDIXZW1FAIHWSYXN","","","img/flower1.png","","2004","-1","0","2","2","1,0,0,1,1,0,1,0,1","0,0,1,1,0,1,0,1,1","2",""
"","html-keyboard-response","204","281718","0.0-204.0","3F1567XTNXRHYEANF9HQX9HMJ6F9Q4","AKSLU0C30G3JT","3HUR21WDDUBEMSLDIXZW1FAIHWSYXN","","null","<img src=""img/flower1.png"" style=""width:200px;border:14px solid red;"">","null","","","","","","","","",""
"","image-keyboard-response","205","283724","0.0-205.0","3F1567XTNXRHYEANF9HQX9HMJ6F9Q4","AKSLU0C30G3JT","3HUR21WDDUBEMSLDIXZW1FAIHWSYXN","","","img/flower6.png","","2005","-1","0","3","2","1,0,0,1,1,0,1,0,1","0,0,1,1,0,1,0,1,1","2",""
"","html-keyboard-response","206","284028","0.0-206.0","3F1567XTNXRHYEANF9HQX9HMJ6F9Q4","AKSLU0C30G3JT","3HUR21WDDUBEMSLDIXZW1FAIHWSYXN","","null","<img src=""img/flower6.png"" style=""width:200px;border:14px solid red;"">","null","","","","","","","","",""
"","image-keyboard-response","207","286034","0.0-207.0","3F1567XTNXRHYEANF9HQX9HMJ6F9Q4","AKSLU0C30G3JT","3HUR21WDDUBEMSLDIXZW1FAIHWSYXN","","","img/flower4.png","","2005","-1","0","1","2","1,0,0,1,1,0,1,0,1","0,0,1,1,0,1,0,1,1","2",""
"","html-keyboard-response","208","286344","0.0-208.0","3F1567XTNXRHYEANF9HQX9HMJ6F9Q4","AKSLU0C30G3JT","3HUR21WDDUBEMSLDIXZW1FAIHWSYXN","","null","<img src=""img/flower4.png"" style=""width:200px;border:14px solid red;"">","null","","","","","","","","",""
"","image-keyboard-response","209","288357","0.0-209.0","3F1567XTNXRHYEANF9HQX9HMJ6F9Q4","AKSLU0C30G3JT","3HUR21WDDUBEMSLDIXZW1FAIHWSYXN","","","img/flower6.png","","2011","-1","0","3","2","1,0,0,1,1,0,1,0,1","0,0,1,1,0,1,0,1,1","2",""
"","html-keyboard-response","210","288665","0.0-210.0","3F1567XTNXRHYEANF9HQX9HMJ6F9Q4","AKSLU0C30G3JT","3HUR21WDDUBEMSLDIXZW1FAIHWSYXN","","null","<img src=""img/flower6.png"" style=""width:200px;border:14px solid red;"">","null","","","","","","","","",""
"","image-keyboard-response","211","290671","0.0-211.0","3F1567XTNXRHYEANF9HQX9HMJ6F9Q4","AKSLU0C30G3JT","3HUR21WDDUBEMSLDIXZW1FAIHWSYXN","","","img/flower4.png","","2004","-1","0","1","2","1,0,0,1,1,0,1,0,1","0,0,1,1,0,1,0,1,1","2",""
"","html-keyboard-response","212","290974","0.0-212.0","3F1567XTNXRHYEANF9HQX9HMJ6F9Q4","AKSLU0C30G3JT","3HUR21WDDUBEMSLDIXZW1FAIHWSYXN","","null","<img src=""img/flower4.png"" style=""width:200px;border:14px solid red;"">","null","","","","","","","","",""
"","image-keyboard-response","213","292978","0.0-213.0","3F1567XTNXRHYEANF9HQX9HMJ6F9Q4","AKSLU0C30G3JT","3HUR21WDDUBEMSLDIXZW1FAIHWSYXN","","","img/flower6.png","","2004","-1","0","3","2","1,0,0,1,1,0,1,0,1","0,0,1,1,0,1,0,1,1","2",""
"","html-keyboard-response","214","293284","0.0-214.0","3F1567XTNXRHYEANF9HQX9HMJ6F9Q4","AKSLU0C30G3JT","3HUR21WDDUBEMSLDIXZW1FAIHWSYXN","","null","<img src=""img/flower6.png"" style=""width:200px;border:14px solid red;"">","null","","","","","","","","",""
"","image-keyboard-response","215","295291","0.0-215.0","3F1567XTNXRHYEANF9HQX9HMJ6F9Q4","AKSLU0C30G3JT","3HUR21WDDUBEMSLDIXZW1FAIHWSYXN","","","img/flower6.png","","2005","-1","0","3","2","1,0,0,1,1,0,1,0,1","0,0,1,1,0,1,0,1,1","2",""
"","html-keyboard-response","216","295597","0.0-216.0","3F1567XTNXRHYEANF9HQX9HMJ6F9Q4","AKSLU0C30G3JT","3HUR21WDDUBEMSLDIXZW1FAIHWSYXN","","null","<img src=""img/flower6.png"" style=""width:200px;border:14px solid red;"">","null","","","","","","","","",""
"","image-keyboard-response","217","297603","0.0-217.0","3F1567XTNXRHYEANF9HQX9HMJ6F9Q4","AKSLU0C30G3JT","3HUR21WDDUBEMSLDIXZW1FAIHWSYXN","","","img/flower1.png","","2004.9999999999418","-1","0","2","2","1,0,0,1,1,0,1,0,1","0,0,1,1,0,1,0,1,1","2",""
"","html-keyboard-response","218","297909","0.0-218.0","3F1567XTNXRHYEANF9HQX9HMJ6F9Q4","AKSLU0C30G3JT","3HUR21WDDUBEMSLDIXZW1FAIHWSYXN","","null","<img src=""img/flower1.png"" style=""width:200px;border:14px solid red;"">","null","","","","","","","","",""
"","image-keyboard-response","219","299914","0.0-219.0","3F1567XTNXRHYEANF9HQX9HMJ6F9Q4","AKSLU0C30G3JT","3HUR21WDDUBEMSLDIXZW1FAIHWSYXN","","","img/flower1.png","","2004","-1","0","2","2","1,0,0,1,1,0,1,0,1","0,0,1,1,0,1,0,1,1","2",""
"","html-keyboard-response","220","300220","0.0-220.0","3F1567XTNXRHYEANF9HQX9HMJ6F9Q4","AKSLU0C30G3JT","3HUR21WDDUBEMSLDIXZW1FAIHWSYXN","","null","<img src=""img/flower1.png"" style=""width:200px;border:14px solid red;"">","null","","","","","","","","",""
"","image-keyboard-response","221","302225","0.0-221.0","3F1567XTNXRHYEANF9HQX9HMJ6F9Q4","AKSLU0C30G3JT","3HUR21WDDUBEMSLDIXZW1FAIHWSYXN","","","img/flower1.png","","2004","-1","0","2","2","1,0,0,1,1,0,1,0,1","0,0,1,1,0,1,0,1,1","2",""
"","html-keyboard-response","222","302530","0.0-222.0","3F1567XTNXRHYEANF9HQX9HMJ6F9Q4","AKSLU0C30G3JT","3HUR21WDDUBEMSLDIXZW1FAIHWSYXN","","null","<img src=""img/flower1.png"" style=""width:200px;border:14px solid red;"">","null","","","","","","","","",""
"","image-keyboard-response","223","304536","0.0-223.0","3F1567XTNXRHYEANF9HQX9HMJ6F9Q4","AKSLU0C30G3JT","3HUR21WDDUBEMSLDIXZW1FAIHWSYXN","","","img/flower4.png","","2005","-1","0","1","2","1,0,0,1,1,0,1,0,1","0,0,1,1,0,1,0,1,1","2",""
"","html-keyboard-response","224","304841","0.0-224.0","3F1567XTNXRHYEANF9HQX9HMJ6F9Q4","AKSLU0C30G3JT","3HUR21WDDUBEMSLDIXZW1FAIHWSYXN","","null","<img src=""img/flower4.png"" style=""width:200px;border:14px solid red;"">","null","","","","","","","","",""
"","image-keyboard-response","225","306858","0.0-225.0","3F1567XTNXRHYEANF9HQX9HMJ6F9Q4","AKSLU0C30G3JT","3HUR21WDDUBEMSLDIXZW1FAIHWSYXN","","","img/flower4.png","","2016","-1","0","1","2","1,0,0,1,1,0,1,0,1","0,0,1,1,0,1,0,1,1","2",""
"","html-keyboard-response","226","307167","0.0-226.0","3F1567XTNXRHYEANF9HQX9HMJ6F9Q4","AKSLU0C30G3JT","3HUR21WDDUBEMSLDIXZW1FAIHWSYXN","","null","<img src=""img/flower4.png"" style=""width:200px;border:14px solid red;"">","null","","","","","","","","",""
"","image-keyboard-response","227","309174","0.0-227.0","3F1567XTNXRHYEANF9HQX9HMJ6F9Q4","AKSLU0C30G3JT","3HUR21WDDUBEMSLDIXZW1FAIHWSYXN","","","img/flower4.png","","2006.0000000000582","-1","0","1","2","1,0,0,1,1,0,1,0,1","0,0,1,1,0,1,0,1,1","2",""
"","html-keyboard-response","228","309482","0.0-228.0","3F1567XTNXRHYEANF9HQX9HMJ6F9Q4","AKSLU0C30G3JT","3HUR21WDDUBEMSLDIXZW1FAIHWSYXN","","null","<img src=""img/flower4.png"" style=""width:200px;border:14px solid red;"">","null","","","","","","","","",""
"","image-keyboard-response","229","311488","0.0-229.0","3F1567XTNXRHYEANF9HQX9HMJ6F9Q4","AKSLU0C30G3JT","3HUR21WDDUBEMSLDIXZW1FAIHWSYXN","","","img/flower6.png","","2005","-1","0","3","2","1,0,0,1,1,0,1,0,1","0,0,1,1,0,1,0,1,1","2",""
"","html-keyboard-response","230","311794","0.0-230.0","3F1567XTNXRHYEANF9HQX9HMJ6F9Q4","AKSLU0C30G3JT","3HUR21WDDUBEMSLDIXZW1FAIHWSYXN","","null","<img src=""img/flower6.png"" style=""width:200px;border:14px solid red;"">","null","","","","","","","","",""
"","image-keyboard-response","231","313800","0.0-231.0","3F1567XTNXRHYEANF9HQX9HMJ6F9Q4","AKSLU0C30G3JT","3HUR21WDDUBEMSLDIXZW1FAIHWSYXN","","","img/flower1.png","","2005","-1","0","2","2","1,0,0,1,1,0,1,0,1","0,0,1,1,0,1,0,1,1","2",""
"","html-keyboard-response","232","314106","0.0-232.0","3F1567XTNXRHYEANF9HQX9HMJ6F9Q4","AKSLU0C30G3JT","3HUR21WDDUBEMSLDIXZW1FAIHWSYXN","","null","<img src=""img/flower1.png"" style=""width:200px;border:14px solid red;"">","null","","","","","","","","",""
"","image-keyboard-response","233","316111","0.0-233.0","3F1567XTNXRHYEANF9HQX9HMJ6F9Q4","AKSLU0C30G3JT","3HUR21WDDUBEMSLDIXZW1FAIHWSYXN","","","img/flower6.png","","2004","-1","0","3","2","1,0,0,1,1,0,1,0,1","0,0,1,1,0,1,0,1,1","2",""
"","html-keyboard-response","234","316417","0.0-234.0","3F1567XTNXRHYEANF9HQX9HMJ6F9Q4","AKSLU0C30G3JT","3HUR21WDDUBEMSLDIXZW1FAIHWSYXN","","null","<img src=""img/flower6.png"" style=""width:200px;border:14px solid red;"">","null","","","","","","","","",""
"","image-keyboard-response","235","318421","0.0-235.0","3F1567XTNXRHYEANF9HQX9HMJ6F9Q4","AKSLU0C30G3JT","3HUR21WDDUBEMSLDIXZW1FAIHWSYXN","","","img/flower4.png","","2004","-1","0","1","2","1,0,0,1,1,0,1,0,1","0,0,1,1,0,1,0,1,1","2",""
"","html-keyboard-response","236","318730","0.0-236.0","3F1567XTNXRHYEANF9HQX9HMJ6F9Q4","AKSLU0C30G3JT","3HUR21WDDUBEMSLDIXZW1FAIHWSYXN","","null","<img src=""img/flower4.png"" style=""width:200px;border:14px solid red;"">","null","","","","","","","","",""
"","image-keyboard-response","237","320735","0.0-237.0","3F1567XTNXRHYEANF9HQX9HMJ6F9Q4","AKSLU0C30G3JT","3HUR21WDDUBEMSLDIXZW1FAIHWSYXN","","","img/flower6.png","","2005","-1","0","3","2","1,0,0,1,1,0,1,0,1","0,0,1,1,0,1,0,1,1","2",""
"","html-keyboard-response","238","321043","0.0-238.0","3F1567XTNXRHYEANF9HQX9HMJ6F9Q4","AKSLU0C30G3JT","3HUR21WDDUBEMSLDIXZW1FAIHWSYXN","","null","<img src=""img/flower6.png"" style=""width:200px;border:14px solid red;"">","null","","","","","","","","",""
"","image-keyboard-response","239","323049","0.0-239.0","3F1567XTNXRHYEANF9HQX9HMJ6F9Q4","AKSLU0C30G3JT","3HUR21WDDUBEMSLDIXZW1FAIHWSYXN","","","img/flower6.png","","2003.9999999999418","-1","0","3","2","1,0,0,1,1,0,1,0,1","0,0,1,1,0,1,0,1,1","2",""
"","html-keyboard-response","240","323353","0.0-240.0","3F1567XTNXRHYEANF9HQX9HMJ6F9Q4","AKSLU0C30G3JT","3HUR21WDDUBEMSLDIXZW1FAIHWSYXN","","null","<img src=""img/flower6.png"" style=""width:200px;border:14px solid red;"">","null","","","","","","","","",""
"","image-keyboard-response","241","325356","0.0-241.0","3F1567XTNXRHYEANF9HQX9HMJ6F9Q4","AKSLU0C30G3JT","3HUR21WDDUBEMSLDIXZW1FAIHWSYXN","","","img/flower1.png","","2004","-1","0","2","2","1,0,0,1,1,0,1,0,1","0,0,1,1,0,1,0,1,1","2",""
"","html-keyboard-response","242","325661","0.0-242.0","3F1567XTNXRHYEANF9HQX9HMJ6F9Q4","AKSLU0C30G3JT","3HUR21WDDUBEMSLDIXZW1FAIHWSYXN","","null","<img src=""img/flower1.png"" style=""width:200px;border:14px solid red;"">","null","","","","","","","","",""
"","image-keyboard-response","243","327666","0.0-243.0","3F1567XTNXRHYEANF9HQX9HMJ6F9Q4","AKSLU0C30G3JT","3HUR21WDDUBEMSLDIXZW1FAIHWSYXN","","","img/flower6.png","","2004","-1","0","3","2","1,0,0,1,1,0,1,0,1","0,0,1,1,0,1,0,1,1","2",""
"","html-keyboard-response","244","327969","0.0-244.0","3F1567XTNXRHYEANF9HQX9HMJ6F9Q4","AKSLU0C30G3JT","3HUR21WDDUBEMSLDIXZW1FAIHWSYXN","","null","<img src=""img/flower6.png"" style=""width:200px;border:14px solid red;"">","null","","","","","","","","",""
"","image-keyboard-response","245","329972","0.0-245.0","3F1567XTNXRHYEANF9HQX9HMJ6F9Q4","AKSLU0C30G3JT","3HUR21WDDUBEMSLDIXZW1FAIHWSYXN","","","img/flower1.png","","2003.0000000000582","-1","0","2","2","1,0,0,1,1,0,1,0,1","0,0,1,1,0,1,0,1,1","2",""
"","html-keyboard-response","246","330275","0.0-246.0","3F1567XTNXRHYEANF9HQX9HMJ6F9Q4","AKSLU0C30G3JT","3HUR21WDDUBEMSLDIXZW1FAIHWSYXN","","null","<img src=""img/flower1.png"" style=""width:200px;border:14px solid red;"">","null","","","","","","","","",""
"","image-keyboard-response","247","332278","0.0-247.0","3F1567XTNXRHYEANF9HQX9HMJ6F9Q4","AKSLU0C30G3JT","3HUR21WDDUBEMSLDIXZW1FAIHWSYXN","","","img/flower1.png","","2002","-1","0","2","2","1,0,0,1,1,0,1,0,1","0,0,1,1,0,1,0,1,1","2",""
"","html-keyboard-response","248","332581","0.0-248.0","3F1567XTNXRHYEANF9HQX9HMJ6F9Q4","AKSLU0C30G3JT","3HUR21WDDUBEMSLDIXZW1FAIHWSYXN","","null","<img src=""img/flower1.png"" style=""width:200px;border:14px solid red;"">","null","","","","","","","","",""
"","image-keyboard-response","249","334584","0.0-249.0","3F1567XTNXRHYEANF9HQX9HMJ6F9Q4","AKSLU0C30G3JT","3HUR21WDDUBEMSLDIXZW1FAIHWSYXN","","","img/flower4.png","","2004","-1","0","1","2","1,0,0,1,1,0,1,0,1","0,0,1,1,0,1,0,1,1","2",""
"","html-keyboard-response","250","334888","0.0-250.0","3F1567XTNXRHYEANF9HQX9HMJ6F9Q4","AKSLU0C30G3JT","3HUR21WDDUBEMSLDIXZW1FAIHWSYXN","","null","<img src=""img/flower4.png"" style=""width:200px;border:14px solid red;"">","null","","","","","","","","",""
"","image-keyboard-response","251","336893","0.0-251.0","3F1567XTNXRHYEANF9HQX9HMJ6F9Q4","AKSLU0C30G3JT","3HUR21WDDUBEMSLDIXZW1FAIHWSYXN","","","img/flower1.png","","2005","-1","0","2","2","1,0,0,1,1,0,1,0,1","0,0,1,1,0,1,0,1,1","2",""
"","html-keyboard-response","252","337199","0.0-252.0","3F1567XTNXRHYEANF9HQX9HMJ6F9Q4","AKSLU0C30G3JT","3HUR21WDDUBEMSLDIXZW1FAIHWSYXN","","null","<img src=""img/flower1.png"" style=""width:200px;border:14px solid red;"">","null","","","","","","","","",""
"","image-keyboard-response","253","339204","0.0-253.0","3F1567XTNXRHYEANF9HQX9HMJ6F9Q4","AKSLU0C30G3JT","3HUR21WDDUBEMSLDIXZW1FAIHWSYXN","","","img/flower1.png","","2004","-1","0","2","2","1,0,0,1,1,0,1,0,1","0,0,1,1,0,1,0,1,1","2",""
"","html-keyboard-response","254","339507","0.0-254.0","3F1567XTNXRHYEANF9HQX9HMJ6F9Q4","AKSLU0C30G3JT","3HUR21WDDUBEMSLDIXZW1FAIHWSYXN","","null","<img src=""img/flower1.png"" style=""width:200px;border:14px solid red;"">","null","","","","","","","","",""
"","image-keyboard-response","255","341513","0.0-255.0","3F1567XTNXRHYEANF9HQX9HMJ6F9Q4","AKSLU0C30G3JT","3HUR21WDDUBEMSLDIXZW1FAIHWSYXN","","","img/flower4.png","","2003.9999999999418","-1","0","1","2","1,0,0,1,1,0,1,0,1","0,0,1,1,0,1,0,1,1","2",""
"","html-keyboard-response","256","341822","0.0-256.0","3F1567XTNXRHYEANF9HQX9HMJ6F9Q4","AKSLU0C30G3JT","3HUR21WDDUBEMSLDIXZW1FAIHWSYXN","","null","<img src=""img/flower4.png"" style=""width:200px;border:14px solid red;"">","null","","","","","","","","",""
"","image-keyboard-response","257","343828","0.0-257.0","3F1567XTNXRHYEANF9HQX9HMJ6F9Q4","AKSLU0C30G3JT","3HUR21WDDUBEMSLDIXZW1FAIHWSYXN","","","img/flower1.png","","2007","-1","0","2","2","1,0,0,1,1,0,1,0,1","0,0,1,1,0,1,0,1,1","2",""
"","html-keyboard-response","258","344137","0.0-258.0","3F1567XTNXRHYEANF9HQX9HMJ6F9Q4","AKSLU0C30G3JT","3HUR21WDDUBEMSLDIXZW1FAIHWSYXN","","null","<img src=""img/flower1.png"" style=""width:200px;border:14px solid red;"">","null","","","","","","","","",""
"","image-keyboard-response","259","346144","0.0-259.0","3F1567XTNXRHYEANF9HQX9HMJ6F9Q4","AKSLU0C30G3JT","3HUR21WDDUBEMSLDIXZW1FAIHWSYXN","","","img/flower1.png","","2005","-1","0","2","2","1,0,0,1,1,0,1,0,1","0,0,1,1,0,1,0,1,1","2",""
"","html-keyboard-response","260","346453","0.0-260.0","3F1567XTNXRHYEANF9HQX9HMJ6F9Q4","AKSLU0C30G3JT","3HUR21WDDUBEMSLDIXZW1FAIHWSYXN","","null","<img src=""img/flower1.png"" style=""width:200px;border:14px solid red;"">","null","","","","","","","","",""
"","image-keyboard-response","261","348459","0.0-261.0","3F1567XTNXRHYEANF9HQX9HMJ6F9Q4","AKSLU0C30G3JT","3HUR21WDDUBEMSLDIXZW1FAIHWSYXN","","","img/flower4.png","","2005","-1","0","1","2","1,0,0,1,1,0,1,0,1","0,0,1,1,0,1,0,1,1","2",""
"","html-keyboard-response","262","348766","0.0-262.0","3F1567XTNXRHYEANF9HQX9HMJ6F9Q4","AKSLU0C30G3JT","3HUR21WDDUBEMSLDIXZW1FAIHWSYXN","","null","<img src=""img/flower4.png"" style=""width:200px;border:14px solid red;"">","null","","","","","","","","",""
"","image-keyboard-response","263","350771","0.0-263.0","3F1567XTNXRHYEANF9HQX9HMJ6F9Q4","AKSLU0C30G3JT","3HUR21WDDUBEMSLDIXZW1FAIHWSYXN","","","img/flower1.png","","2004.0000000000582","-1","0","2","2","1,0,0,1,1,0,1,0,1","0,0,1,1,0,1,0,1,1","2",""
"","html-keyboard-response","264","351074","0.0-264.0","3F1567XTNXRHYEANF9HQX9HMJ6F9Q4","AKSLU0C30G3JT","3HUR21WDDUBEMSLDIXZW1FAIHWSYXN","","null","<img src=""img/flower1.png"" style=""width:200px;border:14px solid red;"">","null","","","","","","","","",""
"","image-keyboard-response","265","353079","0.0-265.0","3F1567XTNXRHYEANF9HQX9HMJ6F9Q4","AKSLU0C30G3JT","3HUR21WDDUBEMSLDIXZW1FAIHWSYXN","","","img/flower1.png","","2004","-1","0","2","2","1,0,0,1,1,0,1,0,1","0,0,1,1,0,1,0,1,1","2",""
"","html-keyboard-response","266","353385","0.0-266.0","3F1567XTNXRHYEANF9HQX9HMJ6F9Q4","AKSLU0C30G3JT","3HUR21WDDUBEMSLDIXZW1FAIHWSYXN","","null","<img src=""img/flower1.png"" style=""width:200px;border:14px solid red;"">","null","","","","","","","","",""
"","image-keyboard-response","267","355391","0.0-267.0","3F1567XTNXRHYEANF9HQX9HMJ6F9Q4","AKSLU0C30G3JT","3HUR21WDDUBEMSLDIXZW1FAIHWSYXN","","","img/flower6.png","","2004","-1","0","3","2","1,0,0,1,1,0,1,0,1","0,0,1,1,0,1,0,1,1","2",""
"","html-keyboard-response","268","355697","0.0-268.0","3F1567XTNXRHYEANF9HQX9HMJ6F9Q4","AKSLU0C30G3JT","3HUR21WDDUBEMSLDIXZW1FAIHWSYXN","","null","<img src=""img/flower6.png"" style=""width:200px;border:14px solid red;"">","null","","","","","","","","",""
"","image-keyboard-response","269","357703","0.0-269.0","3F1567XTNXRHYEANF9HQX9HMJ6F9Q4","AKSLU0C30G3JT","3HUR21WDDUBEMSLDIXZW1FAIHWSYXN","","","img/flower4.png","","2003.9999999999418","-1","0","1","2","1,0,0,1,1,0,1,0,1","0,0,1,1,0,1,0,1,1","2",""
"","html-keyboard-response","270","358008","0.0-270.0","3F1567XTNXRHYEANF9HQX9HMJ6F9Q4","AKSLU0C30G3JT","3HUR21WDDUBEMSLDIXZW1FAIHWSYXN","","null","<img src=""img/flower4.png"" style=""width:200px;border:14px solid red;"">","null","","","","","","","","",""
"","image-keyboard-response","271","360014","0.0-271.0","3F1567XTNXRHYEANF9HQX9HMJ6F9Q4","AKSLU0C30G3JT","3HUR21WDDUBEMSLDIXZW1FAIHWSYXN","","","img/flower1.png","","2004","-1","0","2","2","1,0,0,1,1,0,1,0,1","0,0,1,1,0,1,0,1,1","2",""
"","html-keyboard-response","272","360323","0.0-272.0","3F1567XTNXRHYEANF9HQX9HMJ6F9Q4","AKSLU0C30G3JT","3HUR21WDDUBEMSLDIXZW1FAIHWSYXN","","null","<img src=""img/flower1.png"" style=""width:200px;border:14px solid red;"">","null","","","","","","","","",""
"","image-keyboard-response","273","362333","0.0-273.0","3F1567XTNXRHYEANF9HQX9HMJ6F9Q4","AKSLU0C30G3JT","3HUR21WDDUBEMSLDIXZW1FAIHWSYXN","","","img/flower6.png","","2009","-1","0","3","2","1,0,0,1,1,0,1,0,1","0,0,1,1,0,1,0,1,1","2",""
"","html-keyboard-response","274","362648","0.0-274.0","3F1567XTNXRHYEANF9HQX9HMJ6F9Q4","AKSLU0C30G3JT","3HUR21WDDUBEMSLDIXZW1FAIHWSYXN","","null","<img src=""img/flower6.png"" style=""width:200px;border:14px solid red;"">","null","","","","","","","","",""
"","image-keyboard-response","275","364656","0.0-275.0","3F1567XTNXRHYEANF9HQX9HMJ6F9Q4","AKSLU0C30G3JT","3HUR21WDDUBEMSLDIXZW1FAIHWSYXN","","","img/flower6.png","","2005","-1","0","3","2","1,0,0,1,1,0,1,0,1","0,0,1,1,0,1,0,1,1","2",""
"","html-keyboard-response","276","364963","0.0-276.0","3F1567XTNXRHYEANF9HQX9HMJ6F9Q4","AKSLU0C30G3JT","3HUR21WDDUBEMSLDIXZW1FAIHWSYXN","","null","<img src=""img/flower6.png"" style=""width:200px;border:14px solid red;"">","null","","","","","","","","",""
"","image-keyboard-response","277","366968","0.0-277.0","3F1567XTNXRHYEANF9HQX9HMJ6F9Q4","AKSLU0C30G3JT","3HUR21WDDUBEMSLDIXZW1FAIHWSYXN","","","img/flower1.png","","2004","-1","0","2","2","1,0,0,1,1,0,1,0,1","0,0,1,1,0,1,0,1,1","2",""
"","html-keyboard-response","278","367274","0.0-278.0","3F1567XTNXRHYEANF9HQX9HMJ6F9Q4","AKSLU0C30G3JT","3HUR21WDDUBEMSLDIXZW1FAIHWSYXN","","null","<img src=""img/flower1.png"" style=""width:200px;border:14px solid red;"">","null","","","","","","","","",""
"","image-keyboard-response","279","369280","0.0-279.0","3F1567XTNXRHYEANF9HQX9HMJ6F9Q4","AKSLU0C30G3JT","3HUR21WDDUBEMSLDIXZW1FAIHWSYXN","","","img/flower4.png","","2004","-1","0","1","2","1,0,0,1,1,0,1,0,1","0,0,1,1,0,1,0,1,1","2",""
"","html-keyboard-response","280","369587","0.0-280.0","3F1567XTNXRHYEANF9HQX9HMJ6F9Q4","AKSLU0C30G3JT","3HUR21WDDUBEMSLDIXZW1FAIHWSYXN","","null","<img src=""img/flower4.png"" style=""width:200px;border:14px solid red;"">","null","","","","","","","","",""
"","image-keyboard-response","281","371593","0.0-281.0","3F1567XTNXRHYEANF9HQX9HMJ6F9Q4","AKSLU0C30G3JT","3HUR21WDDUBEMSLDIXZW1FAIHWSYXN","","","img/flower6.png","","2004.0000000000582","-1","0","3","2","1,0,0,1,1,0,1,0,1","0,0,1,1,0,1,0,1,1","2",""
"","html-keyboard-response","282","371899","0.0-282.0","3F1567XTNXRHYEANF9HQX9HMJ6F9Q4","AKSLU0C30G3JT","3HUR21WDDUBEMSLDIXZW1FAIHWSYXN","","null","<img src=""img/flower6.png"" style=""width:200px;border:14px solid red;"">","null","","","","","","","","",""
"","image-keyboard-response","283","373905","0.0-283.0","3F1567XTNXRHYEANF9HQX9HMJ6F9Q4","AKSLU0C30G3JT","3HUR21WDDUBEMSLDIXZW1FAIHWSYXN","","","img/flower4.png","","2005","-1","0","1","2","1,0,0,1,1,0,1,0,1","0,0,1,1,0,1,0,1,1","2",""
"","html-keyboard-response","284","374211","0.0-284.0","3F1567XTNXRHYEANF9HQX9HMJ6F9Q4","AKSLU0C30G3JT","3HUR21WDDUBEMSLDIXZW1FAIHWSYXN","","null","<img src=""img/flower4.png"" style=""width:200px;border:14px solid red;"">","null","","","","","","","","",""
"","image-keyboard-response","285","376217","0.0-285.0","3F1567XTNXRHYEANF9HQX9HMJ6F9Q4","AKSLU0C30G3JT","3HUR21WDDUBEMSLDIXZW1FAIHWSYXN","","","img/flower1.png","","2005.0000000000582","-1","0","2","2","1,0,0,1,1,0,1,0,1","0,0,1,1,0,1,0,1,1","2",""
"","html-keyboard-response","286","376526","0.0-286.0","3F1567XTNXRHYEANF9HQX9HMJ6F9Q4","AKSLU0C30G3JT","3HUR21WDDUBEMSLDIXZW1FAIHWSYXN","","null","<img src=""img/flower1.png"" style=""width:200px;border:14px solid red;"">","null","","","","","","","","",""
"","image-keyboard-response","287","378532","0.0-287.0","3F1567XTNXRHYEANF9HQX9HMJ6F9Q4","AKSLU0C30G3JT","3HUR21WDDUBEMSLDIXZW1FAIHWSYXN","","","img/flower1.png","","2010","-1","0","2","2","1,0,0,1,1,0,1,0,1","0,0,1,1,0,1,0,1,1","2",""
"","html-keyboard-response","288","378861","0.0-288.0","3F1567XTNXRHYEANF9HQX9HMJ6F9Q4","AKSLU0C30G3JT","3HUR21WDDUBEMSLDIXZW1FAIHWSYXN","","null","<img src=""img/flower1.png"" style=""width:200px;border:14px solid red;"">","null","","","","","","","","",""
"","image-keyboard-response","289","380868","0.0-289.0","3F1567XTNXRHYEANF9HQX9HMJ6F9Q4","AKSLU0C30G3JT","3HUR21WDDUBEMSLDIXZW1FAIHWSYXN","","","img/flower4.png","","2005","-1","0","1","2","1,0,0,1,1,0,1,0,1","0,0,1,1,0,1,0,1,1","2",""
"","html-keyboard-response","290","381171","0.0-290.0","3F1567XTNXRHYEANF9HQX9HMJ6F9Q4","AKSLU0C30G3JT","3HUR21WDDUBEMSLDIXZW1FAIHWSYXN","","null","<img src=""img/flower4.png"" style=""width:200px;border:14px solid red;"">","null","","","","","","","","",""
"","image-keyboard-response","291","383177","0.0-291.0","3F1567XTNXRHYEANF9HQX9HMJ6F9Q4","AKSLU0C30G3JT","3HUR21WDDUBEMSLDIXZW1FAIHWSYXN","","","img/flower6.png","","2005","-1","0","3","2","1,0,0,1,1,0,1,0,1","0,0,1,1,0,1,0,1,1","2",""
"","html-keyboard-response","292","383483","0.0-292.0","3F1567XTNXRHYEANF9HQX9HMJ6F9Q4","AKSLU0C30G3JT","3HUR21WDDUBEMSLDIXZW1FAIHWSYXN","","null","<img src=""img/flower6.png"" style=""width:200px;border:14px solid red;"">","null","","","","","","","","",""
"","image-keyboard-response","293","385489","0.0-293.0","3F1567XTNXRHYEANF9HQX9HMJ6F9Q4","AKSLU0C30G3JT","3HUR21WDDUBEMSLDIXZW1FAIHWSYXN","","","img/flower4.png","","2004.9999999999418","-1","0","1","2","1,0,0,1,1,0,1,0,1","0,0,1,1,0,1,0,1,1","2",""
"","html-keyboard-response","294","385796","0.0-294.0","3F1567XTNXRHYEANF9HQX9HMJ6F9Q4","AKSLU0C30G3JT","3HUR21WDDUBEMSLDIXZW1FAIHWSYXN","","null","<img src=""img/flower4.png"" style=""width:200px;border:14px solid red;"">","null","","","","","","","","",""
"","image-keyboard-response","295","387806","0.0-295.0","3F1567XTNXRHYEANF9HQX9HMJ6F9Q4","AKSLU0C30G3JT","3HUR21WDDUBEMSLDIXZW1FAIHWSYXN","","","img/flower4.png","","2009.0000000000582","-1","0","1","2","1,0,0,1,1,0,1,0,1","0,0,1,1,0,1,0,1,1","2",""
"","html-keyboard-response","296","388112","0.0-296.0","3F1567XTNXRHYEANF9HQX9HMJ6F9Q4","AKSLU0C30G3JT","3HUR21WDDUBEMSLDIXZW1FAIHWSYXN","","null","<img src=""img/flower4.png"" style=""width:200px;border:14px solid red;"">","null","","","","","","","","",""
"","image-keyboard-response","297","390118","0.0-297.0","3F1567XTNXRHYEANF9HQX9HMJ6F9Q4","AKSLU0C30G3JT","3HUR21WDDUBEMSLDIXZW1FAIHWSYXN","","","img/flower4.png","","2008.0000000000582","-1","0","1","2","1,0,0,1,1,0,1,0,1","0,0,1,1,0,1,0,1,1","2",""
"","html-keyboard-response","298","390427","0.0-298.0","3F1567XTNXRHYEANF9HQX9HMJ6F9Q4","AKSLU0C30G3JT","3HUR21WDDUBEMSLDIXZW1FAIHWSYXN","","null","<img src=""img/flower4.png"" style=""width:200px;border:14px solid red;"">","null","","","","","","","","",""
"","image-keyboard-response","299","392432","0.0-299.0","3F1567XTNXRHYEANF9HQX9HMJ6F9Q4","AKSLU0C30G3JT","3HUR21WDDUBEMSLDIXZW1FAIHWSYXN","","","img/flower1.png","","2004","-1","0","2","2","1,0,0,1,1,0,1,0,1","0,0,1,1,0,1,0,1,1","2",""
"","html-keyboard-response","300","392739","0.0-300.0","3F1567XTNXRHYEANF9HQX9HMJ6F9Q4","AKSLU0C30G3JT","3HUR21WDDUBEMSLDIXZW1FAIHWSYXN","","null","<img src=""img/flower1.png"" style=""width:200px;border:14px solid red;"">","null","","","","","","","","",""
"","image-keyboard-response","301","394745","0.0-301.0","3F1567XTNXRHYEANF9HQX9HMJ6F9Q4","AKSLU0C30G3JT","3HUR21WDDUBEMSLDIXZW1FAIHWSYXN","","","img/flower6.png","","2005","-1","0","3","2","1,0,0,1,1,0,1,0,1","0,0,1,1,0,1,0,1,1","2",""
"","html-keyboard-response","302","395051","0.0-302.0","3F1567XTNXRHYEANF9HQX9HMJ6F9Q4","AKSLU0C30G3JT","3HUR21WDDUBEMSLDIXZW1FAIHWSYXN","","null","<img src=""img/flower6.png"" style=""width:200px;border:14px solid red;"">","null","","","","","","","","",""
"","image-keyboard-response","303","397055","0.0-303.0","3F1567XTNXRHYEANF9HQX9HMJ6F9Q4","AKSLU0C30G3JT","3HUR21WDDUBEMSLDIXZW1FAIHWSYXN","","","img/flower4.png","","2004","-1","0","1","2","1,0,0,1,1,0,1,0,1","0,0,1,1,0,1,0,1,1","2",""
"","html-keyboard-response","304","397361","0.0-304.0","3F1567XTNXRHYEANF9HQX9HMJ6F9Q4","AKSLU0C30G3JT","3HUR21WDDUBEMSLDIXZW1FAIHWSYXN","","null","<img src=""img/flower4.png"" style=""width:200px;border:14px solid red;"">","null","","","","","","","","",""
"","image-keyboard-response","305","399366","0.0-305.0","3F1567XTNXRHYEANF9HQX9HMJ6F9Q4","AKSLU0C30G3JT","3HUR21WDDUBEMSLDIXZW1FAIHWSYXN","","","img/flower6.png","","2003","-1","0","3","2","1,0,0,1,1,0,1,0,1","0,0,1,1,0,1,0,1,1","2",""
"","html-keyboard-response","306","399672","0.0-306.0","3F1567XTNXRHYEANF9HQX9HMJ6F9Q4","AKSLU0C30G3JT","3HUR21WDDUBEMSLDIXZW1FAIHWSYXN","","null","<img src=""img/flower6.png"" style=""width:200px;border:14px solid red;"">","null","","","","","","","","",""
"","image-keyboard-response","307","401679","0.0-307.0","3F1567XTNXRHYEANF9HQX9HMJ6F9Q4","AKSLU0C30G3JT","3HUR21WDDUBEMSLDIXZW1FAIHWSYXN","","","img/flower1.png","","2005","-1","0","2","2","1,0,0,1,1,0,1,0,1","0,0,1,1,0,1,0,1,1","2",""
"","html-keyboard-response","308","401985","0.0-308.0","3F1567XTNXRHYEANF9HQX9HMJ6F9Q4","AKSLU0C30G3JT","3HUR21WDDUBEMSLDIXZW1FAIHWSYXN","","null","<img src=""img/flower1.png"" style=""width:200px;border:14px solid red;"">","null","","","","","","","","",""
"","image-keyboard-response","309","403990","0.0-309.0","3F1567XTNXRHYEANF9HQX9HMJ6F9Q4","AKSLU0C30G3JT","3HUR21WDDUBEMSLDIXZW1FAIHWSYXN","","","img/flower6.png","","2005","-1","0","3","2","1,0,0,1,1,0,1,0,1","0,0,1,1,0,1,0,1,1","2",""
"","html-keyboard-response","310","404296","0.0-310.0","3F1567XTNXRHYEANF9HQX9HMJ6F9Q4","AKSLU0C30G3JT","3HUR21WDDUBEMSLDIXZW1FAIHWSYXN","","null","<img src=""img/flower6.png"" style=""width:200px;border:14px solid red;"">","null","","","","","","","","",""
"","image-keyboard-response","311","406301","0.0-311.0","3F1567XTNXRHYEANF9HQX9HMJ6F9Q4","AKSLU0C30G3JT","3HUR21WDDUBEMSLDIXZW1FAIHWSYXN","","","img/flower4.png","","2004","-1","0","1","2","1,0,0,1,1,0,1,0,1","0,0,1,1,0,1,0,1,1","2",""
"","html-keyboard-response","312","406611","0.0-312.0","3F1567XTNXRHYEANF9HQX9HMJ6F9Q4","AKSLU0C30G3JT","3HUR21WDDUBEMSLDIXZW1FAIHWSYXN","","null","<img src=""img/flower4.png"" style=""width:200px;border:14px solid red;"">","null","","","","","","","","",""
"","image-keyboard-response","313","408617","0.0-313.0","3F1567XTNXRHYEANF9HQX9HMJ6F9Q4","AKSLU0C30G3JT","3HUR21WDDUBEMSLDIXZW1FAIHWSYXN","","","img/flower6.png","","2007","-1","0","3","2","1,0,0,1,1,0,1,0,1","0,0,1,1,0,1,0,1,1","2",""
"","html-keyboard-response","314","408927","0.0-314.0","3F1567XTNXRHYEANF9HQX9HMJ6F9Q4","AKSLU0C30G3JT","3HUR21WDDUBEMSLDIXZW1FAIHWSYXN","","null","<img src=""img/flower6.png"" style=""width:200px;border:14px solid red;"">","null","","","","","","","","",""
"","image-keyboard-response","315","410934","0.0-315.0","3F1567XTNXRHYEANF9HQX9HMJ6F9Q4","AKSLU0C30G3JT","3HUR21WDDUBEMSLDIXZW1FAIHWSYXN","","","img/flower4.png","","2005","-1","0","1","2","1,0,0,1,1,0,1,0,1","0,0,1,1,0,1,0,1,1","2",""
"","html-keyboard-response","316","411240","0.0-316.0","3F1567XTNXRHYEANF9HQX9HMJ6F9Q4","AKSLU0C30G3JT","3HUR21WDDUBEMSLDIXZW1FAIHWSYXN","","null","<img src=""img/flower4.png"" style=""width:200px;border:14px solid red;"">","null","","","","","","","","",""
"","image-keyboard-response","317","413247","0.0-317.0","3F1567XTNXRHYEANF9HQX9HMJ6F9Q4","AKSLU0C30G3JT","3HUR21WDDUBEMSLDIXZW1FAIHWSYXN","","","img/flower6.png","","2005","-1","0","3","2","1,0,0,1,1,0,1,0,1","0,0,1,1,0,1,0,1,1","2",""
"","html-keyboard-response","318","413553","0.0-318.0","3F1567XTNXRHYEANF9HQX9HMJ6F9Q4","AKSLU0C30G3JT","3HUR21WDDUBEMSLDIXZW1FAIHWSYXN","","null","<img src=""img/flower6.png"" style=""width:200px;border:14px solid red;"">","null","","","","","","","","",""
"","image-keyboard-response","319","415559","0.0-319.0","3F1567XTNXRHYEANF9HQX9HMJ6F9Q4","AKSLU0C30G3JT","3HUR21WDDUBEMSLDIXZW1FAIHWSYXN","","","img/flower1.png","","2005","-1","0","2","2","1,0,0,1,1,0,1,0,1","0,0,1,1,0,1,0,1,1","2",""
"","html-keyboard-response","320","415866","0.0-320.0","3F1567XTNXRHYEANF9HQX9HMJ6F9Q4","AKSLU0C30G3JT","3HUR21WDDUBEMSLDIXZW1FAIHWSYXN","","null","<img src=""img/flower1.png"" style=""width:200px;border:14px solid red;"">","null","","","","","","","","",""
"","image-keyboard-response","321","417871","0.0-321.0","3F1567XTNXRHYEANF9HQX9HMJ6F9Q4","AKSLU0C30G3JT","3HUR21WDDUBEMSLDIXZW1FAIHWSYXN","","","img/flower4.png","","2004.0000000000582","-1","0","1","2","1,0,0,1,1,0,1,0,1","0,0,1,1,0,1,0,1,1","2",""
"","html-keyboard-response","322","418176","0.0-322.0","3F1567XTNXRHYEANF9HQX9HMJ6F9Q4","AKSLU0C30G3JT","3HUR21WDDUBEMSLDIXZW1FAIHWSYXN","","null","<img src=""img/flower4.png"" style=""width:200px;border:14px solid red;"">","null","","","","","","","","",""
"","image-keyboard-response","323","420182","0.0-323.0","3F1567XTNXRHYEANF9HQX9HMJ6F9Q4","AKSLU0C30G3JT","3HUR21WDDUBEMSLDIXZW1FAIHWSYXN","","","img/flower1.png","","2005","-1","0","2","2","1,0,0,1,1,0,1,0,1","0,0,1,1,0,1,0,1,1","2",""
"","html-keyboard-response","324","420488","0.0-324.0","3F1567XTNXRHYEANF9HQX9HMJ6F9Q4","AKSLU0C30G3JT","3HUR21WDDUBEMSLDIXZW1FAIHWSYXN","","null","<img src=""img/flower1.png"" style=""width:200px;border:14px solid red;"">","null","","","","","","","","",""
"","image-keyboard-response","325","422500","0.0-325.0","3F1567XTNXRHYEANF9HQX9HMJ6F9Q4","AKSLU0C30G3JT","3HUR21WDDUBEMSLDIXZW1FAIHWSYXN","","","img/flower4.png","","2013","-1","0","1","2","1,0,0,1,1,0,1,0,1","0,0,1,1,0,1,0,1,1","2",""
"","html-keyboard-response","326","422809","0.0-326.0","3F1567XTNXRHYEANF9HQX9HMJ6F9Q4","AKSLU0C30G3JT","3HUR21WDDUBEMSLDIXZW1FAIHWSYXN","","null","<img src=""img/flower4.png"" style=""width:200px;border:14px solid red;"">","null","","","","","","","","",""
"","image-keyboard-response","327","424815","0.0-327.0","3F1567XTNXRHYEANF9HQX9HMJ6F9Q4","AKSLU0C30G3JT","3HUR21WDDUBEMSLDIXZW1FAIHWSYXN","","","img/flower4.png","","2004.9999999999418","-1","0","1","2","1,0,0,1,1,0,1,0,1","0,0,1,1,0,1,0,1,1","2",""
"","html-keyboard-response","328","425121","0.0-328.0","3F1567XTNXRHYEANF9HQX9HMJ6F9Q4","AKSLU0C30G3JT","3HUR21WDDUBEMSLDIXZW1FAIHWSYXN","","null","<img src=""img/flower4.png"" style=""width:200px;border:14px solid red;"">","null","","","","","","","","",""
"","image-keyboard-response","329","427127","0.0-329.0","3F1567XTNXRHYEANF9HQX9HMJ6F9Q4","AKSLU0C30G3JT","3HUR21WDDUBEMSLDIXZW1FAIHWSYXN","","","img/flower6.png","","2004","-1","0","3","2","1,0,0,1,1,0,1,0,1","0,0,1,1,0,1,0,1,1","2",""
"","html-keyboard-response","330","427433","0.0-330.0","3F1567XTNXRHYEANF9HQX9HMJ6F9Q4","AKSLU0C30G3JT","3HUR21WDDUBEMSLDIXZW1FAIHWSYXN","","null","<img src=""img/flower6.png"" style=""width:200px;border:14px solid red;"">","null","","","","","","","","",""
"","image-keyboard-response","331","429439","0.0-331.0","3F1567XTNXRHYEANF9HQX9HMJ6F9Q4","AKSLU0C30G3JT","3HUR21WDDUBEMSLDIXZW1FAIHWSYXN","","","img/flower1.png","","2005","-1","0","2","2","1,0,0,1,1,0,1,0,1","0,0,1,1,0,1,0,1,1","2",""
"","html-keyboard-response","332","429745","0.0-332.0","3F1567XTNXRHYEANF9HQX9HMJ6F9Q4","AKSLU0C30G3JT","3HUR21WDDUBEMSLDIXZW1FAIHWSYXN","","null","<img src=""img/flower1.png"" style=""width:200px;border:14px solid red;"">","null","","","","","","","","",""
"","image-keyboard-response","333","431752","0.0-333.0","3F1567XTNXRHYEANF9HQX9HMJ6F9Q4","AKSLU0C30G3JT","3HUR21WDDUBEMSLDIXZW1FAIHWSYXN","","","img/flower4.png","","2005.9999999999418","-1","0","1","2","1,0,0,1,1,0,1,0,1","0,0,1,1,0,1,0,1,1","2",""
"","html-keyboard-response","334","432063","0.0-334.0","3F1567XTNXRHYEANF9HQX9HMJ6F9Q4","AKSLU0C30G3JT","3HUR21WDDUBEMSLDIXZW1FAIHWSYXN","","null","<img src=""img/flower4.png"" style=""width:200px;border:14px solid red;"">","null","","","","","","","","",""
"","image-keyboard-response","335","434069","0.0-335.0","3F1567XTNXRHYEANF9HQX9HMJ6F9Q4","AKSLU0C30G3JT","3HUR21WDDUBEMSLDIXZW1FAIHWSYXN","","","img/flower4.png","","2007","-1","0","1","2","1,0,0,1,1,0,1,0,1","0,0,1,1,0,1,0,1,1","2",""
"","html-keyboard-response","336","434383","0.0-336.0","3F1567XTNXRHYEANF9HQX9HMJ6F9Q4","AKSLU0C30G3JT","3HUR21WDDUBEMSLDIXZW1FAIHWSYXN","","null","<img src=""img/flower4.png"" style=""width:200px;border:14px solid red;"">","null","","","","","","","","",""
"","image-keyboard-response","337","436388","0.0-337.0","3F1567XTNXRHYEANF9HQX9HMJ6F9Q4","AKSLU0C30G3JT","3HUR21WDDUBEMSLDIXZW1FAIHWSYXN","","","img/flower6.png","","2005","-1","0","3","2","1,0,0,1,1,0,1,0,1","0,0,1,1,0,1,0,1,1","2",""
"","html-keyboard-response","338","436696","0.0-338.0","3F1567XTNXRHYEANF9HQX9HMJ6F9Q4","AKSLU0C30G3JT","3HUR21WDDUBEMSLDIXZW1FAIHWSYXN","","null","<img src=""img/flower6.png"" style=""width:200px;border:14px solid red;"">","null","","","","","","","","",""
"","image-keyboard-response","339","438703","0.0-339.0","3F1567XTNXRHYEANF9HQX9HMJ6F9Q4","AKSLU0C30G3JT","3HUR21WDDUBEMSLDIXZW1FAIHWSYXN","","","img/flower1.png","","2004.9999999999418","-1","0","2","2","1,0,0,1,1,0,1,0,1","0,0,1,1,0,1,0,1,1","2",""
"","html-keyboard-response","340","439009","0.0-340.0","3F1567XTNXRHYEANF9HQX9HMJ6F9Q4","AKSLU0C30G3JT","3HUR21WDDUBEMSLDIXZW1FAIHWSYXN","","null","<img src=""img/flower1.png"" style=""width:200px;border:14px solid red;"">","null","","","","","","","","",""
"","image-keyboard-response","341","441015","0.0-341.0","3F1567XTNXRHYEANF9HQX9HMJ6F9Q4","AKSLU0C30G3JT","3HUR21WDDUBEMSLDIXZW1FAIHWSYXN","","","img/flower1.png","","2004","-1","0","2","2","1,0,0,1,1,0,1,0,1","0,0,1,1,0,1,0,1,1","2",""
"","html-keyboard-response","342","441319","0.0-342.0","3F1567XTNXRHYEANF9HQX9HMJ6F9Q4","AKSLU0C30G3JT","3HUR21WDDUBEMSLDIXZW1FAIHWSYXN","","null","<img src=""img/flower1.png"" style=""width:200px;border:14px solid red;"">","null","","","","","","","","",""
"","image-keyboard-response","343","443325","0.0-343.0","3F1567XTNXRHYEANF9HQX9HMJ6F9Q4","AKSLU0C30G3JT","3HUR21WDDUBEMSLDIXZW1FAIHWSYXN","","","img/flower1.png","","2005","-1","0","2","2","1,0,0,1,1,0,1,0,1","0,0,1,1,0,1,0,1,1","2",""
"","html-keyboard-response","344","443631","0.0-344.0","3F1567XTNXRHYEANF9HQX9HMJ6F9Q4","AKSLU0C30G3JT","3HUR21WDDUBEMSLDIXZW1FAIHWSYXN","","null","<img src=""img/flower1.png"" style=""width:200px;border:14px solid red;"">","null","","","","","","","","",""
"","image-keyboard-response","345","445637","0.0-345.0","3F1567XTNXRHYEANF9HQX9HMJ6F9Q4","AKSLU0C30G3JT","3HUR21WDDUBEMSLDIXZW1FAIHWSYXN","","","img/flower6.png","","2004.9999999999418","-1","0","3","2","1,0,0,1,1,0,1,0,1","0,0,1,1,0,1,0,1,1","2",""
"","html-keyboard-response","346","445944","0.0-346.0","3F1567XTNXRHYEANF9HQX9HMJ6F9Q4","AKSLU0C30G3JT","3HUR21WDDUBEMSLDIXZW1FAIHWSYXN","","null","<img src=""img/flower6.png"" style=""width:200px;border:14px solid red;"">","null","","","","","","","","",""
"","image-keyboard-response","347","447949","0.0-347.0","3F1567XTNXRHYEANF9HQX9HMJ6F9Q4","AKSLU0C30G3JT","3HUR21WDDUBEMSLDIXZW1FAIHWSYXN","","","img/flower6.png","","2005","-1","0","3","2","1,0,0,1,1,0,1,0,1","0,0,1,1,0,1,0,1,1","2",""
"","html-keyboard-response","348","448255","0.0-348.0","3F1567XTNXRHYEANF9HQX9HMJ6F9Q4","AKSLU0C30G3JT","3HUR21WDDUBEMSLDIXZW1FAIHWSYXN","","null","<img src=""img/flower6.png"" style=""width:200px;border:14px solid red;"">","null","","","","","","","","",""
"","image-keyboard-response","349","450261","0.0-349.0","3F1567XTNXRHYEANF9HQX9HMJ6F9Q4","AKSLU0C30G3JT","3HUR21WDDUBEMSLDIXZW1FAIHWSYXN","","","img/flower6.png","","2005","-1","0","3","2","1,0,0,1,1,0,1,0,1","0,0,1,1,0,1,0,1,1","2",""
"","html-keyboard-response","350","450566","0.0-350.0","3F1567XTNXRHYEANF9HQX9HMJ6F9Q4","AKSLU0C30G3JT","3HUR21WDDUBEMSLDIXZW1FAIHWSYXN","","null","<img src=""img/flower6.png"" style=""width:200px;border:14px solid red;"">","null","","","","","","","","",""
"","image-keyboard-response","351","452572","0.0-351.0","3F1567XTNXRHYEANF9HQX9HMJ6F9Q4","AKSLU0C30G3JT","3HUR21WDDUBEMSLDIXZW1FAIHWSYXN","","","img/flower4.png","","2005","-1","0","1","2","1,0,0,1,1,0,1,0,1","0,0,1,1,0,1,0,1,1","2",""
"","html-keyboard-response","352","452877","0.0-352.0","3F1567XTNXRHYEANF9HQX9HMJ6F9Q4","AKSLU0C30G3JT","3HUR21WDDUBEMSLDIXZW1FAIHWSYXN","","null","<img src=""img/flower4.png"" style=""width:200px;border:14px solid red;"">","null","","","","","","","","",""
"","image-keyboard-response","353","454891","0.0-353.0","3F1567XTNXRHYEANF9HQX9HMJ6F9Q4","AKSLU0C30G3JT","3HUR21WDDUBEMSLDIXZW1FAIHWSYXN","","","img/flower4.png","","2013","-1","0","1","2","1,0,0,1,1,0,1,0,1","0,0,1,1,0,1,0,1,1","2",""
"","html-keyboard-response","354","455205","0.0-354.0","3F1567XTNXRHYEANF9HQX9HMJ6F9Q4","AKSLU0C30G3JT","3HUR21WDDUBEMSLDIXZW1FAIHWSYXN","","null","<img src=""img/flower4.png"" style=""width:200px;border:14px solid red;"">","null","","","","","","","","",""
"","image-keyboard-response","355","457213","0.0-355.0","3F1567XTNXRHYEANF9HQX9HMJ6F9Q4","AKSLU0C30G3JT","3HUR21WDDUBEMSLDIXZW1FAIHWSYXN","","","img/flower1.png","","2005","-1","0","2","2","1,0,0,1,1,0,1,0,1","0,0,1,1,0,1,0,1,1","2",""
"","html-keyboard-response","356","457520","0.0-356.0","3F1567XTNXRHYEANF9HQX9HMJ6F9Q4","AKSLU0C30G3JT","3HUR21WDDUBEMSLDIXZW1FAIHWSYXN","","null","<img src=""img/flower1.png"" style=""width:200px;border:14px solid red;"">","null","","","","","","","","",""
"","image-keyboard-response","357","459526","0.0-357.0","3F1567XTNXRHYEANF9HQX9HMJ6F9Q4","AKSLU0C30G3JT","3HUR21WDDUBEMSLDIXZW1FAIHWSYXN","","","img/flower6.png","","2005","-1","0","3","2","1,0,0,1,1,0,1,0,1","0,0,1,1,0,1,0,1,1","2",""
"","html-keyboard-response","358","459833","0.0-358.0","3F1567XTNXRHYEANF9HQX9HMJ6F9Q4","AKSLU0C30G3JT","3HUR21WDDUBEMSLDIXZW1FAIHWSYXN","","null","<img src=""img/flower6.png"" style=""width:200px;border:14px solid red;"">","null","","","","","","","","",""
"","image-keyboard-response","359","461839","0.0-359.0","3F1567XTNXRHYEANF9HQX9HMJ6F9Q4","AKSLU0C30G3JT","3HUR21WDDUBEMSLDIXZW1FAIHWSYXN","","","img/flower6.png","","2006","-1","0","3","2","1,0,0,1,1,0,1,0,1","0,0,1,1,0,1,0,1,1","2",""
"","html-keyboard-response","360","462145","0.0-360.0","3F1567XTNXRHYEANF9HQX9HMJ6F9Q4","AKSLU0C30G3JT","3HUR21WDDUBEMSLDIXZW1FAIHWSYXN","","null","<img src=""img/flower6.png"" style=""width:200px;border:14px solid red;"">","null","","","","","","","","",""
"","image-keyboard-response","361","464151","0.0-361.0","3F1567XTNXRHYEANF9HQX9HMJ6F9Q4","AKSLU0C30G3JT","3HUR21WDDUBEMSLDIXZW1FAIHWSYXN","","","img/flower1.png","","2004","-1","0","2","2","1,0,0,1,1,0,1,0,1","0,0,1,1,0,1,0,1,1","2",""
"","html-keyboard-response","362","464458","0.0-362.0","3F1567XTNXRHYEANF9HQX9HMJ6F9Q4","AKSLU0C30G3JT","3HUR21WDDUBEMSLDIXZW1FAIHWSYXN","","null","<img src=""img/flower1.png"" style=""width:200px;border:14px solid red;"">","null","","","","","","","","",""
"","instructions","363","468679","0.0-363.0","3F1567XTNXRHYEANF9HQX9HMJ6F9Q4","AKSLU0C30G3JT","3HUR21WDDUBEMSLDIXZW1FAIHWSYXN","[{""page_index"":0,""viewing_time"":4216}]","4217","","","","","","","","","","",""
"","survey-text","364","481962","0.0-364.0","3F1567XTNXRHYEANF9HQX9HMJ6F9Q4","AKSLU0C30G3JT","3HUR21WDDUBEMSLDIXZW1FAIHWSYXN","","13166","","","","","","","","","","","{""Q0"":""AKSLU0C30G3JT""}"
