"success","trial_type","trial_index","time_elapsed","internal_node_id","assignmentID","mturkID","hitID","view_history","rt","stimulus","key_press","reactionTime","a","r","s","cond","reward_cond","reward_cond_actual","reward_matrix_idx","responses"
"true","fullscreen","0","3432","0.0-0.0","3F6HPJW4JEMBIRLA691HFBRU07HW29","AKX4H8RT7BL7H","3WPCIUYH1AU470H2HRBLZRFBM95TDS","","","","","","","","","","","","",""
"","instructions","1","26955","0.0-1.0","3F6HPJW4JEMBIRLA691HFBRU07HW29","AKX4H8RT7BL7H","3WPCIUYH1AU470H2HRBLZRFBM95TDS","[{""page_index"":0,""viewing_time"":2206.8999996185303},{""page_index"":1,""viewing_time"":1081},{""page_index"":2,""viewing_time"":1200.5},{""page_index"":3,""viewing_time"":3367.6000003814697},{""page_index"":4,""viewing_time"":5949},{""page_index"":5,""viewing_time"":1349.6999998092651},{""page_index"":6,""viewing_time"":1483.8000001907349},{""page_index"":7,""viewing_time"":6883.699999809265}]","23522.39999961853","","","","","","","","","","",""
"","image-keyboard-response","2","28108","0.0-2.0","3F6HPJW4JEMBIRLA691HFBRU07HW29","AKX4H8RT7BL7H","3WPCIUYH1AU470H2HRBLZRFBM95TDS","","1151.6000003814697","img/flower2.png","74","1152.7999992370605","1","0","2","2","1,0,0,1,1,0,1,0,1","0,1,0,0,1,1,1,1,0","3",""
"","html-keyboard-response","3","28412","0.0-3.0","3F6HPJW4JEMBIRLA691HFBRU07HW29","AKX4H8RT7BL7H","3WPCIUYH1AU470H2HRBLZRFBM95TDS","","null","<img src=""img/flower2.png"" style=""width:200px;border:14px solid red;"">","null","","","","","","","","",""
"","image-keyboard-response","4","28869","0.0-4.0","3F6HPJW4JEMBIRLA691HFBRU07HW29","AKX4H8RT7BL7H","3WPCIUYH1AU470H2HRBLZRFBM95TDS","","454.9000005722046","img/flower5.png","75","457","2","1","1","2","1,0,0,1,1,0,1,0,1","0,1,0,0,1,1,1,1,0","3",""
"","html-keyboard-response","5","29177","0.0-5.0","3F6HPJW4JEMBIRLA691HFBRU07HW29","AKX4H8RT7BL7H","3WPCIUYH1AU470H2HRBLZRFBM95TDS","","null","<img src=""img/flower5.png"" style=""width:200px; border:14px solid green;"">","null","","","","","","","","",""
"","image-keyboard-response","6","29548","0.0-6.0","3F6HPJW4JEMBIRLA691HFBRU07HW29","AKX4H8RT7BL7H","3WPCIUYH1AU470H2HRBLZRFBM95TDS","","368","img/flower5.png","75","369.80000019073486","2","1","1","2","1,0,0,1,1,0,1,0,1","0,1,0,0,1,1,1,1,0","3",""
"","html-keyboard-response","7","29854","0.0-7.0","3F6HPJW4JEMBIRLA691HFBRU07HW29","AKX4H8RT7BL7H","3WPCIUYH1AU470H2HRBLZRFBM95TDS","","null","<img src=""img/flower5.png"" style=""width:200px; border:14px solid green;"">","null","","","","","","","","",""
"","image-keyboard-response","8","30203","0.0-8.0","3F6HPJW4JEMBIRLA691HFBRU07HW29","AKX4H8RT7BL7H","3WPCIUYH1AU470H2HRBLZRFBM95TDS","","347.19999980926514","img/flower5.png","75","348.70000076293945","2","1","1","2","1,0,0,1,1,0,1,0,1","0,1,0,0,1,1,1,1,0","3",""
"","html-keyboard-response","9","30511","0.0-9.0","3F6HPJW4JEMBIRLA691HFBRU07HW29","AKX4H8RT7BL7H","3WPCIUYH1AU470H2HRBLZRFBM95TDS","","null","<img src=""img/flower5.png"" style=""width:200px; border:14px solid green;"">","null","","","","","","","","",""
"","image-keyboard-response","10","31129","0.0-10.0","3F6HPJW4JEMBIRLA691HFBRU07HW29","AKX4H8RT7BL7H","3WPCIUYH1AU470H2HRBLZRFBM95TDS","","616.8000001907349","img/flower2.png","76","618.1999998092651","3","1","2","2","1,0,0,1,1,0,1,0,1","0,1,0,0,1,1,1,1,0","3",""
"","html-keyboard-response","11","31435","0.0-11.0","3F6HPJW4JEMBIRLA691HFBRU07HW29","AKX4H8RT7BL7H","3WPCIUYH1AU470H2HRBLZRFBM95TDS","","null","<img src=""img/flower2.png"" style=""width:200px; border:14px solid green;"">","null","","","","","","","","",""
"","image-keyboard-response","12","31803","0.0-12.0","3F6HPJW4JEMBIRLA691HFBRU07HW29","AKX4H8RT7BL7H","3WPCIUYH1AU470H2HRBLZRFBM95TDS","","366.1000003814697","img/flower2.png","76","368.1000003814697","3","1","2","2","1,0,0,1,1,0,1,0,1","0,1,0,0,1,1,1,1,0","3",""
"","html-keyboard-response","13","32110","0.0-13.0","3F6HPJW4JEMBIRLA691HFBRU07HW29","AKX4H8RT7BL7H","3WPCIUYH1AU470H2HRBLZRFBM95TDS","","null","<img src=""img/flower2.png"" style=""width:200px; border:14px solid green;"">","null","","","","","","","","",""
"","image-keyboard-response","14","32857","0.0-14.0","3F6HPJW4JEMBIRLA691HFBRU07HW29","AKX4H8RT7BL7H","3WPCIUYH1AU470H2HRBLZRFBM95TDS","","745.6000003814697","img/flower6.png","74","746.5","1","1","3","2","1,0,0,1,1,0,1,0,1","0,1,0,0,1,1,1,1,0","3",""
"","html-keyboard-response","15","33164","0.0-15.0","3F6HPJW4JEMBIRLA691HFBRU07HW29","AKX4H8RT7BL7H","3WPCIUYH1AU470H2HRBLZRFBM95TDS","","null","<img src=""img/flower6.png"" style=""width:200px; border:14px solid green;"">","null","","","","","","","","",""
"","image-keyboard-response","16","34056","0.0-16.0","3F6HPJW4JEMBIRLA691HFBRU07HW29","AKX4H8RT7BL7H","3WPCIUYH1AU470H2HRBLZRFBM95TDS","","890.8000001907349","img/flower5.png","76","892.1999998092651","3","0","1","2","1,0,0,1,1,0,1,0,1","0,1,0,0,1,1,1,1,0","3",""
"","html-keyboard-response","17","34362","0.0-17.0","3F6HPJW4JEMBIRLA691HFBRU07HW29","AKX4H8RT7BL7H","3WPCIUYH1AU470H2HRBLZRFBM95TDS","","null","<img src=""img/flower5.png"" style=""width:200px;border:14px solid red;"">","null","","","","","","","","",""
"","image-keyboard-response","18","35475","0.0-18.0","3F6HPJW4JEMBIRLA691HFBRU07HW29","AKX4H8RT7BL7H","3WPCIUYH1AU470H2HRBLZRFBM95TDS","","1111.3000001907349","img/flower2.png","75","1112.0999994277954","2","1","2","2","1,0,0,1,1,0,1,0,1","0,1,0,0,1,1,1,1,0","3",""
"","html-keyboard-response","19","35779","0.0-19.0","3F6HPJW4JEMBIRLA691HFBRU07HW29","AKX4H8RT7BL7H","3WPCIUYH1AU470H2HRBLZRFBM95TDS","","null","<img src=""img/flower2.png"" style=""width:200px; border:14px solid green;"">","null","","","","","","","","",""
"","image-keyboard-response","20","36562","0.0-20.0","3F6HPJW4JEMBIRLA691HFBRU07HW29","AKX4H8RT7BL7H","3WPCIUYH1AU470H2HRBLZRFBM95TDS","","781.0999994277954","img/flower6.png","75","782.5","2","1","3","2","1,0,0,1,1,0,1,0,1","0,1,0,0,1,1,1,1,0","3",""
"","html-keyboard-response","21","36867","0.0-21.0","3F6HPJW4JEMBIRLA691HFBRU07HW29","AKX4H8RT7BL7H","3WPCIUYH1AU470H2HRBLZRFBM95TDS","","null","<img src=""img/flower6.png"" style=""width:200px; border:14px solid green;"">","null","","","","","","","","",""
"","image-keyboard-response","22","37267","0.0-22.0","3F6HPJW4JEMBIRLA691HFBRU07HW29","AKX4H8RT7BL7H","3WPCIUYH1AU470H2HRBLZRFBM95TDS","","398.6000003814697","img/flower6.png","75","400.30000019073486","2","1","3","2","1,0,0,1,1,0,1,0,1","0,1,0,0,1,1,1,1,0","3",""
"","html-keyboard-response","23","37571","0.0-23.0","3F6HPJW4JEMBIRLA691HFBRU07HW29","AKX4H8RT7BL7H","3WPCIUYH1AU470H2HRBLZRFBM95TDS","","null","<img src=""img/flower6.png"" style=""width:200px; border:14px solid green;"">","null","","","","","","","","",""
"","image-keyboard-response","24","38152","0.0-24.0","3F6HPJW4JEMBIRLA691HFBRU07HW29","AKX4H8RT7BL7H","3WPCIUYH1AU470H2HRBLZRFBM95TDS","","579.5999994277954","img/flower5.png","75","581.5","2","1","1","2","1,0,0,1,1,0,1,0,1","0,1,0,0,1,1,1,1,0","3",""
"","html-keyboard-response","25","38459","0.0-25.0","3F6HPJW4JEMBIRLA691HFBRU07HW29","AKX4H8RT7BL7H","3WPCIUYH1AU470H2HRBLZRFBM95TDS","","null","<img src=""img/flower5.png"" style=""width:200px; border:14px solid green;"">","null","","","","","","","","",""
"","image-keyboard-response","26","38797","0.0-26.0","3F6HPJW4JEMBIRLA691HFBRU07HW29","AKX4H8RT7BL7H","3WPCIUYH1AU470H2HRBLZRFBM95TDS","","336.19999980926514","img/flower5.png","75","337.80000019073486","2","1","1","2","1,0,0,1,1,0,1,0,1","0,1,0,0,1,1,1,1,0","3",""
"","html-keyboard-response","27","39101","0.0-27.0","3F6HPJW4JEMBIRLA691HFBRU07HW29","AKX4H8RT7BL7H","3WPCIUYH1AU470H2HRBLZRFBM95TDS","","null","<img src=""img/flower5.png"" style=""width:200px; border:14px solid green;"">","null","","","","","","","","",""
"","image-keyboard-response","28","39967","0.0-28.0","3F6HPJW4JEMBIRLA691HFBRU07HW29","AKX4H8RT7BL7H","3WPCIUYH1AU470H2HRBLZRFBM95TDS","","864.0999994277954","img/flower2.png","74","865.6000003814697","1","0","2","2","1,0,0,1,1,0,1,0,1","0,1,0,0,1,1,1,1,0","3",""
"","html-keyboard-response","29","40273","0.0-29.0","3F6HPJW4JEMBIRLA691HFBRU07HW29","AKX4H8RT7BL7H","3WPCIUYH1AU470H2HRBLZRFBM95TDS","","null","<img src=""img/flower2.png"" style=""width:200px;border:14px solid red;"">","null","","","","","","","","",""
"","image-keyboard-response","30","41043","0.0-30.0","3F6HPJW4JEMBIRLA691HFBRU07HW29","AKX4H8RT7BL7H","3WPCIUYH1AU470H2HRBLZRFBM95TDS","","768.0999994277954","img/flower2.png","76","769.6999998092651","3","1","2","2","1,0,0,1,1,0,1,0,1","0,1,0,0,1,1,1,1,0","3",""
"","html-keyboard-response","31","41350","0.0-31.0","3F6HPJW4JEMBIRLA691HFBRU07HW29","AKX4H8RT7BL7H","3WPCIUYH1AU470H2HRBLZRFBM95TDS","","null","<img src=""img/flower2.png"" style=""width:200px; border:14px solid green;"">","null","","","","","","","","",""
"","image-keyboard-response","32","41488","0.0-32.0","3F6HPJW4JEMBIRLA691HFBRU07HW29","AKX4H8RT7BL7H","3WPCIUYH1AU470H2HRBLZRFBM95TDS","","135.9000005722046","img/flower2.png","76","137.69999980926514","3","1","2","2","1,0,0,1,1,0,1,0,1","0,1,0,0,1,1,1,1,0","3",""
"","html-keyboard-response","33","41793","0.0-33.0","3F6HPJW4JEMBIRLA691HFBRU07HW29","AKX4H8RT7BL7H","3WPCIUYH1AU470H2HRBLZRFBM95TDS","","null","<img src=""img/flower2.png"" style=""width:200px; border:14px solid green;"">","null","","","","","","","","",""
"","image-keyboard-response","34","41978","0.0-34.0","3F6HPJW4JEMBIRLA691HFBRU07HW29","AKX4H8RT7BL7H","3WPCIUYH1AU470H2HRBLZRFBM95TDS","","182.69999980926514","img/flower2.png","76","184.0999994277954","3","1","2","2","1,0,0,1,1,0,1,0,1","0,1,0,0,1,1,1,1,0","3",""
"","html-keyboard-response","35","42280","0.0-35.0","3F6HPJW4JEMBIRLA691HFBRU07HW29","AKX4H8RT7BL7H","3WPCIUYH1AU470H2HRBLZRFBM95TDS","","null","<img src=""img/flower2.png"" style=""width:200px; border:14px solid green;"">","null","","","","","","","","",""
"","image-keyboard-response","36","42507","0.0-36.0","3F6HPJW4JEMBIRLA691HFBRU07HW29","AKX4H8RT7BL7H","3WPCIUYH1AU470H2HRBLZRFBM95TDS","","225.39999961853027","img/flower5.png","76","226.9000005722046","3","0","1","2","1,0,0,1,1,0,1,0,1","0,1,0,0,1,1,1,1,0","3",""
"","html-keyboard-response","37","42814","0.0-37.0","3F6HPJW4JEMBIRLA691HFBRU07HW29","AKX4H8RT7BL7H","3WPCIUYH1AU470H2HRBLZRFBM95TDS","","null","<img src=""img/flower5.png"" style=""width:200px;border:14px solid red;"">","null","","","","","","","","",""
"","image-keyboard-response","38","43576","0.0-38.0","3F6HPJW4JEMBIRLA691HFBRU07HW29","AKX4H8RT7BL7H","3WPCIUYH1AU470H2HRBLZRFBM95TDS","","760.3000001907349","img/flower2.png","76","762.1999998092651","3","1","2","2","1,0,0,1,1,0,1,0,1","0,1,0,0,1,1,1,1,0","3",""
"","html-keyboard-response","39","43879","0.0-39.0","3F6HPJW4JEMBIRLA691HFBRU07HW29","AKX4H8RT7BL7H","3WPCIUYH1AU470H2HRBLZRFBM95TDS","","null","<img src=""img/flower2.png"" style=""width:200px; border:14px solid green;"">","null","","","","","","","","",""
"","image-keyboard-response","40","44620","0.0-40.0","3F6HPJW4JEMBIRLA691HFBRU07HW29","AKX4H8RT7BL7H","3WPCIUYH1AU470H2HRBLZRFBM95TDS","","739.8999996185303","img/flower6.png","75","740.3000001907349","2","1","3","2","1,0,0,1,1,0,1,0,1","0,1,0,0,1,1,1,1,0","3",""
"","html-keyboard-response","41","44925","0.0-41.0","3F6HPJW4JEMBIRLA691HFBRU07HW29","AKX4H8RT7BL7H","3WPCIUYH1AU470H2HRBLZRFBM95TDS","","null","<img src=""img/flower6.png"" style=""width:200px; border:14px solid green;"">","null","","","","","","","","",""
"","image-keyboard-response","42","45571","0.0-42.0","3F6HPJW4JEMBIRLA691HFBRU07HW29","AKX4H8RT7BL7H","3WPCIUYH1AU470H2HRBLZRFBM95TDS","","644.3999996185303","img/flower2.png","76","645.2999992370605","3","1","2","2","1,0,0,1,1,0,1,0,1","0,1,0,0,1,1,1,1,0","3",""
"","html-keyboard-response","43","45878","0.0-43.0","3F6HPJW4JEMBIRLA691HFBRU07HW29","AKX4H8RT7BL7H","3WPCIUYH1AU470H2HRBLZRFBM95TDS","","null","<img src=""img/flower2.png"" style=""width:200px; border:14px solid green;"">","null","","","","","","","","",""
"","image-keyboard-response","44","46397","0.0-44.0","3F6HPJW4JEMBIRLA691HFBRU07HW29","AKX4H8RT7BL7H","3WPCIUYH1AU470H2HRBLZRFBM95TDS","","517.6999998092651","img/flower6.png","76","518.8000001907349","3","0","3","2","1,0,0,1,1,0,1,0,1","0,1,0,0,1,1,1,1,0","3",""
"","html-keyboard-response","45","46704","0.0-45.0","3F6HPJW4JEMBIRLA691HFBRU07HW29","AKX4H8RT7BL7H","3WPCIUYH1AU470H2HRBLZRFBM95TDS","","null","<img src=""img/flower6.png"" style=""width:200px;border:14px solid red;"">","null","","","","","","","","",""
"","image-keyboard-response","46","47686","0.0-46.0","3F6HPJW4JEMBIRLA691HFBRU07HW29","AKX4H8RT7BL7H","3WPCIUYH1AU470H2HRBLZRFBM95TDS","","979.8999996185303","img/flower5.png","75","981.3000001907349","2","1","1","2","1,0,0,1,1,0,1,0,1","0,1,0,0,1,1,1,1,0","3",""
"","html-keyboard-response","47","47991","0.0-47.0","3F6HPJW4JEMBIRLA691HFBRU07HW29","AKX4H8RT7BL7H","3WPCIUYH1AU470H2HRBLZRFBM95TDS","","null","<img src=""img/flower5.png"" style=""width:200px; border:14px solid green;"">","null","","","","","","","","",""
"","image-keyboard-response","48","48539","0.0-48.0","3F6HPJW4JEMBIRLA691HFBRU07HW29","AKX4H8RT7BL7H","3WPCIUYH1AU470H2HRBLZRFBM95TDS","","546.5","img/flower2.png","76","547.3999996185303","3","1","2","2","1,0,0,1,1,0,1,0,1","0,1,0,0,1,1,1,1,0","3",""
"","html-keyboard-response","49","48846","0.0-49.0","3F6HPJW4JEMBIRLA691HFBRU07HW29","AKX4H8RT7BL7H","3WPCIUYH1AU470H2HRBLZRFBM95TDS","","null","<img src=""img/flower2.png"" style=""width:200px; border:14px solid green;"">","null","","","","","","","","",""
"","image-keyboard-response","50","49399","0.0-50.0","3F6HPJW4JEMBIRLA691HFBRU07HW29","AKX4H8RT7BL7H","3WPCIUYH1AU470H2HRBLZRFBM95TDS","","550.7999992370605","img/flower5.png","75","552.1000003814697","2","1","1","2","1,0,0,1,1,0,1,0,1","0,1,0,0,1,1,1,1,0","3",""
"","html-keyboard-response","51","49705","0.0-51.0","3F6HPJW4JEMBIRLA691HFBRU07HW29","AKX4H8RT7BL7H","3WPCIUYH1AU470H2HRBLZRFBM95TDS","","null","<img src=""img/flower5.png"" style=""width:200px; border:14px solid green;"">","null","","","","","","","","",""
"","image-keyboard-response","52","50607","0.0-52.0","3F6HPJW4JEMBIRLA691HFBRU07HW29","AKX4H8RT7BL7H","3WPCIUYH1AU470H2HRBLZRFBM95TDS","","899.8999996185303","img/flower5.png","75","901.6999998092651","2","1","1","2","1,0,0,1,1,0,1,0,1","0,1,0,0,1,1,1,1,0","3",""
"","html-keyboard-response","53","50914","0.0-53.0","3F6HPJW4JEMBIRLA691HFBRU07HW29","AKX4H8RT7BL7H","3WPCIUYH1AU470H2HRBLZRFBM95TDS","","null","<img src=""img/flower5.png"" style=""width:200px; border:14px solid green;"">","null","","","","","","","","",""
"","image-keyboard-response","54","51493","0.0-54.0","3F6HPJW4JEMBIRLA691HFBRU07HW29","AKX4H8RT7BL7H","3WPCIUYH1AU470H2HRBLZRFBM95TDS","","576.5999994277954","img/flower2.png","76","578.3000001907349","3","1","2","2","1,0,0,1,1,0,1,0,1","0,1,0,0,1,1,1,1,0","3",""
"","html-keyboard-response","55","51800","0.0-55.0","3F6HPJW4JEMBIRLA691HFBRU07HW29","AKX4H8RT7BL7H","3WPCIUYH1AU470H2HRBLZRFBM95TDS","","null","<img src=""img/flower2.png"" style=""width:200px; border:14px solid green;"">","null","","","","","","","","",""
"","image-keyboard-response","56","52408","0.0-56.0","3F6HPJW4JEMBIRLA691HFBRU07HW29","AKX4H8RT7BL7H","3WPCIUYH1AU470H2HRBLZRFBM95TDS","","607.3999996185303","img/flower5.png","75","608.5","2","1","1","2","1,0,0,1,1,0,1,0,1","0,1,0,0,1,1,1,1,0","3",""
"","html-keyboard-response","57","52715","0.0-57.0","3F6HPJW4JEMBIRLA691HFBRU07HW29","AKX4H8RT7BL7H","3WPCIUYH1AU470H2HRBLZRFBM95TDS","","null","<img src=""img/flower5.png"" style=""width:200px; border:14px solid green;"">","null","","","","","","","","",""
"","image-keyboard-response","58","53410","0.0-58.0","3F6HPJW4JEMBIRLA691HFBRU07HW29","AKX4H8RT7BL7H","3WPCIUYH1AU470H2HRBLZRFBM95TDS","","692.6999998092651","img/flower2.png","76","694.3999996185303","3","1","2","2","1,0,0,1,1,0,1,0,1","0,1,0,0,1,1,1,1,0","3",""
"","html-keyboard-response","59","53715","0.0-59.0","3F6HPJW4JEMBIRLA691HFBRU07HW29","AKX4H8RT7BL7H","3WPCIUYH1AU470H2HRBLZRFBM95TDS","","null","<img src=""img/flower2.png"" style=""width:200px; border:14px solid green;"">","null","","","","","","","","",""
"","image-keyboard-response","60","54431","0.0-60.0","3F6HPJW4JEMBIRLA691HFBRU07HW29","AKX4H8RT7BL7H","3WPCIUYH1AU470H2HRBLZRFBM95TDS","","714.8999996185303","img/flower6.png","74","716","1","1","3","2","1,0,0,1,1,0,1,0,1","0,1,0,0,1,1,1,1,0","3",""
"","html-keyboard-response","61","54737","0.0-61.0","3F6HPJW4JEMBIRLA691HFBRU07HW29","AKX4H8RT7BL7H","3WPCIUYH1AU470H2HRBLZRFBM95TDS","","null","<img src=""img/flower6.png"" style=""width:200px; border:14px solid green;"">","null","","","","","","","","",""
"","image-keyboard-response","62","55618","0.0-62.0","3F6HPJW4JEMBIRLA691HFBRU07HW29","AKX4H8RT7BL7H","3WPCIUYH1AU470H2HRBLZRFBM95TDS","","878.5","img/flower2.png","76","880.1999998092651","3","1","2","2","1,0,0,1,1,0,1,0,1","0,1,0,0,1,1,1,1,0","3",""
"","html-keyboard-response","63","55925","0.0-63.0","3F6HPJW4JEMBIRLA691HFBRU07HW29","AKX4H8RT7BL7H","3WPCIUYH1AU470H2HRBLZRFBM95TDS","","null","<img src=""img/flower2.png"" style=""width:200px; border:14px solid green;"">","null","","","","","","","","",""
"","image-keyboard-response","64","56303","0.0-64.0","3F6HPJW4JEMBIRLA691HFBRU07HW29","AKX4H8RT7BL7H","3WPCIUYH1AU470H2HRBLZRFBM95TDS","","376.8999996185303","img/flower2.png","76","377.9000005722046","3","1","2","2","1,0,0,1,1,0,1,0,1","0,1,0,0,1,1,1,1,0","3",""
"","html-keyboard-response","65","56610","0.0-65.0","3F6HPJW4JEMBIRLA691HFBRU07HW29","AKX4H8RT7BL7H","3WPCIUYH1AU470H2HRBLZRFBM95TDS","","null","<img src=""img/flower2.png"" style=""width:200px; border:14px solid green;"">","null","","","","","","","","",""
"","image-keyboard-response","66","57201","0.0-66.0","3F6HPJW4JEMBIRLA691HFBRU07HW29","AKX4H8RT7BL7H","3WPCIUYH1AU470H2HRBLZRFBM95TDS","","588.5","img/flower6.png","75","590.3999996185303","2","1","3","2","1,0,0,1,1,0,1,0,1","0,1,0,0,1,1,1,1,0","3",""
"","html-keyboard-response","67","57504","0.0-67.0","3F6HPJW4JEMBIRLA691HFBRU07HW29","AKX4H8RT7BL7H","3WPCIUYH1AU470H2HRBLZRFBM95TDS","","null","<img src=""img/flower6.png"" style=""width:200px; border:14px solid green;"">","null","","","","","","","","",""
"","image-keyboard-response","68","57945","0.0-68.0","3F6HPJW4JEMBIRLA691HFBRU07HW29","AKX4H8RT7BL7H","3WPCIUYH1AU470H2HRBLZRFBM95TDS","","440","img/flower6.png","75","440.9000005722046","2","1","3","2","1,0,0,1,1,0,1,0,1","0,1,0,0,1,1,1,1,0","3",""
"","html-keyboard-response","69","58252","0.0-69.0","3F6HPJW4JEMBIRLA691HFBRU07HW29","AKX4H8RT7BL7H","3WPCIUYH1AU470H2HRBLZRFBM95TDS","","null","<img src=""img/flower6.png"" style=""width:200px; border:14px solid green;"">","null","","","","","","","","",""
"","image-keyboard-response","70","59332","0.0-70.0","3F6HPJW4JEMBIRLA691HFBRU07HW29","AKX4H8RT7BL7H","3WPCIUYH1AU470H2HRBLZRFBM95TDS","","1077.8000001907349","img/flower5.png","75","1079.8000001907349","2","1","1","2","1,0,0,1,1,0,1,0,1","0,1,0,0,1,1,1,1,0","3",""
"","html-keyboard-response","71","59638","0.0-71.0","3F6HPJW4JEMBIRLA691HFBRU07HW29","AKX4H8RT7BL7H","3WPCIUYH1AU470H2HRBLZRFBM95TDS","","null","<img src=""img/flower5.png"" style=""width:200px; border:14px solid green;"">","null","","","","","","","","",""
"","image-keyboard-response","72","60483","0.0-72.0","3F6HPJW4JEMBIRLA691HFBRU07HW29","AKX4H8RT7BL7H","3WPCIUYH1AU470H2HRBLZRFBM95TDS","","843.6999998092651","img/flower2.png","76","844.5","3","1","2","2","1,0,0,1,1,0,1,0,1","0,1,0,0,1,1,1,1,0","3",""
"","html-keyboard-response","73","60790","0.0-73.0","3F6HPJW4JEMBIRLA691HFBRU07HW29","AKX4H8RT7BL7H","3WPCIUYH1AU470H2HRBLZRFBM95TDS","","null","<img src=""img/flower2.png"" style=""width:200px; border:14px solid green;"">","null","","","","","","","","",""
"","image-keyboard-response","74","61538","0.0-74.0","3F6HPJW4JEMBIRLA691HFBRU07HW29","AKX4H8RT7BL7H","3WPCIUYH1AU470H2HRBLZRFBM95TDS","","746","img/flower5.png","75","747.3999996185303","2","1","1","2","1,0,0,1,1,0,1,0,1","0,1,0,0,1,1,1,1,0","3",""
"","html-keyboard-response","75","61842","0.0-75.0","3F6HPJW4JEMBIRLA691HFBRU07HW29","AKX4H8RT7BL7H","3WPCIUYH1AU470H2HRBLZRFBM95TDS","","null","<img src=""img/flower5.png"" style=""width:200px; border:14px solid green;"">","null","","","","","","","","",""
"","image-keyboard-response","76","62225","0.0-76.0","3F6HPJW4JEMBIRLA691HFBRU07HW29","AKX4H8RT7BL7H","3WPCIUYH1AU470H2HRBLZRFBM95TDS","","381.80000019073486","img/flower5.png","75","383","2","1","1","2","1,0,0,1,1,0,1,0,1","0,1,0,0,1,1,1,1,0","3",""
"","html-keyboard-response","77","62532","0.0-77.0","3F6HPJW4JEMBIRLA691HFBRU07HW29","AKX4H8RT7BL7H","3WPCIUYH1AU470H2HRBLZRFBM95TDS","","null","<img src=""img/flower5.png"" style=""width:200px; border:14px solid green;"">","null","","","","","","","","",""
"","image-keyboard-response","78","63244","0.0-78.0","3F6HPJW4JEMBIRLA691HFBRU07HW29","AKX4H8RT7BL7H","3WPCIUYH1AU470H2HRBLZRFBM95TDS","","709.9000005722046","img/flower2.png","76","711.8000001907349","3","1","2","2","1,0,0,1,1,0,1,0,1","0,1,0,0,1,1,1,1,0","3",""
"","html-keyboard-response","79","63551","0.0-79.0","3F6HPJW4JEMBIRLA691HFBRU07HW29","AKX4H8RT7BL7H","3WPCIUYH1AU470H2HRBLZRFBM95TDS","","null","<img src=""img/flower2.png"" style=""width:200px; border:14px solid green;"">","null","","","","","","","","",""
"","image-keyboard-response","80","64233","0.0-80.0","3F6HPJW4JEMBIRLA691HFBRU07HW29","AKX4H8RT7BL7H","3WPCIUYH1AU470H2HRBLZRFBM95TDS","","681.0999994277954","img/flower6.png","74","681.8000001907349","1","1","3","2","1,0,0,1,1,0,1,0,1","0,1,0,0,1,1,1,1,0","3",""
"","html-keyboard-response","81","64538","0.0-81.0","3F6HPJW4JEMBIRLA691HFBRU07HW29","AKX4H8RT7BL7H","3WPCIUYH1AU470H2HRBLZRFBM95TDS","","null","<img src=""img/flower6.png"" style=""width:200px; border:14px solid green;"">","null","","","","","","","","",""
"","image-keyboard-response","82","64975","0.0-82.0","3F6HPJW4JEMBIRLA691HFBRU07HW29","AKX4H8RT7BL7H","3WPCIUYH1AU470H2HRBLZRFBM95TDS","","435.30000019073486","img/flower6.png","74","436.8999996185303","1","1","3","2","1,0,0,1,1,0,1,0,1","0,1,0,0,1,1,1,1,0","3",""
"","html-keyboard-response","83","65282","0.0-83.0","3F6HPJW4JEMBIRLA691HFBRU07HW29","AKX4H8RT7BL7H","3WPCIUYH1AU470H2HRBLZRFBM95TDS","","null","<img src=""img/flower6.png"" style=""width:200px; border:14px solid green;"">","null","","","","","","","","",""
"","image-keyboard-response","84","66004","0.0-84.0","3F6HPJW4JEMBIRLA691HFBRU07HW29","AKX4H8RT7BL7H","3WPCIUYH1AU470H2HRBLZRFBM95TDS","","719.8999996185303","img/flower2.png","76","721.1999998092651","3","1","2","2","1,0,0,1,1,0,1,0,1","0,1,0,0,1,1,1,1,0","3",""
"","html-keyboard-response","85","66310","0.0-85.0","3F6HPJW4JEMBIRLA691HFBRU07HW29","AKX4H8RT7BL7H","3WPCIUYH1AU470H2HRBLZRFBM95TDS","","null","<img src=""img/flower2.png"" style=""width:200px; border:14px solid green;"">","null","","","","","","","","",""
"","image-keyboard-response","86","66687","0.0-86.0","3F6HPJW4JEMBIRLA691HFBRU07HW29","AKX4H8RT7BL7H","3WPCIUYH1AU470H2HRBLZRFBM95TDS","","374.0999994277954","img/flower2.png","76","376","3","1","2","2","1,0,0,1,1,0,1,0,1","0,1,0,0,1,1,1,1,0","3",""
"","html-keyboard-response","87","66993","0.0-87.0","3F6HPJW4JEMBIRLA691HFBRU07HW29","AKX4H8RT7BL7H","3WPCIUYH1AU470H2HRBLZRFBM95TDS","","null","<img src=""img/flower2.png"" style=""width:200px; border:14px solid green;"">","null","","","","","","","","",""
"","image-keyboard-response","88","67592","0.0-88.0","3F6HPJW4JEMBIRLA691HFBRU07HW29","AKX4H8RT7BL7H","3WPCIUYH1AU470H2HRBLZRFBM95TDS","","597.1999998092651","img/flower6.png","74","598.5999994277954","1","1","3","2","1,0,0,1,1,0,1,0,1","0,1,0,0,1,1,1,1,0","3",""
"","html-keyboard-response","89","67894","0.0-89.0","3F6HPJW4JEMBIRLA691HFBRU07HW29","AKX4H8RT7BL7H","3WPCIUYH1AU470H2HRBLZRFBM95TDS","","null","<img src=""img/flower6.png"" style=""width:200px; border:14px solid green;"">","null","","","","","","","","",""
"","image-keyboard-response","90","68768","0.0-90.0","3F6HPJW4JEMBIRLA691HFBRU07HW29","AKX4H8RT7BL7H","3WPCIUYH1AU470H2HRBLZRFBM95TDS","","872.5999994277954","img/flower5.png","75","873.3999996185303","2","1","1","2","1,0,0,1,1,0,1,0,1","0,1,0,0,1,1,1,1,0","3",""
"","html-keyboard-response","91","69075","0.0-91.0","3F6HPJW4JEMBIRLA691HFBRU07HW29","AKX4H8RT7BL7H","3WPCIUYH1AU470H2HRBLZRFBM95TDS","","null","<img src=""img/flower5.png"" style=""width:200px; border:14px solid green;"">","null","","","","","","","","",""
"","image-keyboard-response","92","69420","0.0-92.0","3F6HPJW4JEMBIRLA691HFBRU07HW29","AKX4H8RT7BL7H","3WPCIUYH1AU470H2HRBLZRFBM95TDS","","343.69999980926514","img/flower5.png","75","345","2","1","1","2","1,0,0,1,1,0,1,0,1","0,1,0,0,1,1,1,1,0","3",""
"","html-keyboard-response","93","69724","0.0-93.0","3F6HPJW4JEMBIRLA691HFBRU07HW29","AKX4H8RT7BL7H","3WPCIUYH1AU470H2HRBLZRFBM95TDS","","null","<img src=""img/flower5.png"" style=""width:200px; border:14px solid green;"">","null","","","","","","","","",""
"","image-keyboard-response","94","70595","0.0-94.0","3F6HPJW4JEMBIRLA691HFBRU07HW29","AKX4H8RT7BL7H","3WPCIUYH1AU470H2HRBLZRFBM95TDS","","870.1999998092651","img/flower6.png","74","871","1","1","3","2","1,0,0,1,1,0,1,0,1","0,1,0,0,1,1,1,1,0","3",""
"","html-keyboard-response","95","70899","0.0-95.0","3F6HPJW4JEMBIRLA691HFBRU07HW29","AKX4H8RT7BL7H","3WPCIUYH1AU470H2HRBLZRFBM95TDS","","null","<img src=""img/flower6.png"" style=""width:200px; border:14px solid green;"">","null","","","","","","","","",""
"","image-keyboard-response","96","71577","0.0-96.0","3F6HPJW4JEMBIRLA691HFBRU07HW29","AKX4H8RT7BL7H","3WPCIUYH1AU470H2HRBLZRFBM95TDS","","675.7000007629395","img/flower5.png","75","677.2999992370605","2","1","1","2","1,0,0,1,1,0,1,0,1","0,1,0,0,1,1,1,1,0","3",""
"","html-keyboard-response","97","71883","0.0-97.0","3F6HPJW4JEMBIRLA691HFBRU07HW29","AKX4H8RT7BL7H","3WPCIUYH1AU470H2HRBLZRFBM95TDS","","null","<img src=""img/flower5.png"" style=""width:200px; border:14px solid green;"">","null","","","","","","","","",""
"","image-keyboard-response","98","72215","0.0-98.0","3F6HPJW4JEMBIRLA691HFBRU07HW29","AKX4H8RT7BL7H","3WPCIUYH1AU470H2HRBLZRFBM95TDS","","331.9000005722046","img/flower5.png","75","332.69999980926514","2","1","1","2","1,0,0,1,1,0,1,0,1","0,1,0,0,1,1,1,1,0","3",""
"","html-keyboard-response","99","72518","0.0-99.0","3F6HPJW4JEMBIRLA691HFBRU07HW29","AKX4H8RT7BL7H","3WPCIUYH1AU470H2HRBLZRFBM95TDS","","null","<img src=""img/flower5.png"" style=""width:200px; border:14px solid green;"">","null","","","","","","","","",""
"","image-keyboard-response","100","72875","0.0-100.0","3F6HPJW4JEMBIRLA691HFBRU07HW29","AKX4H8RT7BL7H","3WPCIUYH1AU470H2HRBLZRFBM95TDS","","354.80000019073486","img/flower5.png","75","356.69999980926514","2","1","1","2","1,0,0,1,1,0,1,0,1","0,1,0,0,1,1,1,1,0","3",""
"","html-keyboard-response","101","73181","0.0-101.0","3F6HPJW4JEMBIRLA691HFBRU07HW29","AKX4H8RT7BL7H","3WPCIUYH1AU470H2HRBLZRFBM95TDS","","null","<img src=""img/flower5.png"" style=""width:200px; border:14px solid green;"">","null","","","","","","","","",""
"","image-keyboard-response","102","73523","0.0-102.0","3F6HPJW4JEMBIRLA691HFBRU07HW29","AKX4H8RT7BL7H","3WPCIUYH1AU470H2HRBLZRFBM95TDS","","340.4000005722046","img/flower5.png","75","341.80000019073486","2","1","1","2","1,0,0,1,1,0,1,0,1","0,1,0,0,1,1,1,1,0","3",""
"","html-keyboard-response","103","73830","0.0-103.0","3F6HPJW4JEMBIRLA691HFBRU07HW29","AKX4H8RT7BL7H","3WPCIUYH1AU470H2HRBLZRFBM95TDS","","null","<img src=""img/flower5.png"" style=""width:200px; border:14px solid green;"">","null","","","","","","","","",""
"","image-keyboard-response","104","74513","0.0-104.0","3F6HPJW4JEMBIRLA691HFBRU07HW29","AKX4H8RT7BL7H","3WPCIUYH1AU470H2HRBLZRFBM95TDS","","680.3999996185303","img/flower6.png","74","682.5999994277954","1","1","3","2","1,0,0,1,1,0,1,0,1","0,1,0,0,1,1,1,1,0","3",""
"","html-keyboard-response","105","74820","0.0-105.0","3F6HPJW4JEMBIRLA691HFBRU07HW29","AKX4H8RT7BL7H","3WPCIUYH1AU470H2HRBLZRFBM95TDS","","null","<img src=""img/flower6.png"" style=""width:200px; border:14px solid green;"">","null","","","","","","","","",""
"","image-keyboard-response","106","75163","0.0-106.0","3F6HPJW4JEMBIRLA691HFBRU07HW29","AKX4H8RT7BL7H","3WPCIUYH1AU470H2HRBLZRFBM95TDS","","341.29999923706055","img/flower6.png","74","343.1000003814697","1","1","3","2","1,0,0,1,1,0,1,0,1","0,1,0,0,1,1,1,1,0","3",""
"","html-keyboard-response","107","75471","0.0-107.0","3F6HPJW4JEMBIRLA691HFBRU07HW29","AKX4H8RT7BL7H","3WPCIUYH1AU470H2HRBLZRFBM95TDS","","null","<img src=""img/flower6.png"" style=""width:200px; border:14px solid green;"">","null","","","","","","","","",""
"","image-keyboard-response","108","75531","0.0-108.0","3F6HPJW4JEMBIRLA691HFBRU07HW29","AKX4H8RT7BL7H","3WPCIUYH1AU470H2HRBLZRFBM95TDS","","59.70000076293945","img/flower2.png","74","60.39999961853027","1","0","2","2","1,0,0,1,1,0,1,0,1","0,1,0,0,1,1,1,1,0","3",""
"","html-keyboard-response","109","75836","0.0-109.0","3F6HPJW4JEMBIRLA691HFBRU07HW29","AKX4H8RT7BL7H","3WPCIUYH1AU470H2HRBLZRFBM95TDS","","null","<img src=""img/flower2.png"" style=""width:200px;border:14px solid red;"">","null","","","","","","","","",""
"","image-keyboard-response","110","77048","0.0-110.0","3F6HPJW4JEMBIRLA691HFBRU07HW29","AKX4H8RT7BL7H","3WPCIUYH1AU470H2HRBLZRFBM95TDS","","1210","img/flower5.png","76","1211.7000007629395","3","0","1","2","1,0,0,1,1,0,1,0,1","0,1,0,0,1,1,1,1,0","3",""
"","html-keyboard-response","111","77350","0.0-111.0","3F6HPJW4JEMBIRLA691HFBRU07HW29","AKX4H8RT7BL7H","3WPCIUYH1AU470H2HRBLZRFBM95TDS","","null","<img src=""img/flower5.png"" style=""width:200px;border:14px solid red;"">","null","","","","","","","","",""
"","image-keyboard-response","112","78183","0.0-112.0","3F6HPJW4JEMBIRLA691HFBRU07HW29","AKX4H8RT7BL7H","3WPCIUYH1AU470H2HRBLZRFBM95TDS","","830.1999998092651","img/flower2.png","76","831.8999996185303","3","1","2","2","1,0,0,1,1,0,1,0,1","0,1,0,0,1,1,1,1,0","3",""
"","html-keyboard-response","113","78490","0.0-113.0","3F6HPJW4JEMBIRLA691HFBRU07HW29","AKX4H8RT7BL7H","3WPCIUYH1AU470H2HRBLZRFBM95TDS","","null","<img src=""img/flower2.png"" style=""width:200px; border:14px solid green;"">","null","","","","","","","","",""
"","image-keyboard-response","114","79166","0.0-114.0","3F6HPJW4JEMBIRLA691HFBRU07HW29","AKX4H8RT7BL7H","3WPCIUYH1AU470H2HRBLZRFBM95TDS","","674.6999998092651","img/flower5.png","75","676.5999994277954","2","1","1","2","1,0,0,1,1,0,1,0,1","0,1,0,0,1,1,1,1,0","3",""
"","html-keyboard-response","115","79473","0.0-115.0","3F6HPJW4JEMBIRLA691HFBRU07HW29","AKX4H8RT7BL7H","3WPCIUYH1AU470H2HRBLZRFBM95TDS","","null","<img src=""img/flower5.png"" style=""width:200px; border:14px solid green;"">","null","","","","","","","","",""
"","image-keyboard-response","116","79812","0.0-116.0","3F6HPJW4JEMBIRLA691HFBRU07HW29","AKX4H8RT7BL7H","3WPCIUYH1AU470H2HRBLZRFBM95TDS","","337.5","img/flower5.png","75","339.30000019073486","2","1","1","2","1,0,0,1,1,0,1,0,1","0,1,0,0,1,1,1,1,0","3",""
"","html-keyboard-response","117","80119","0.0-117.0","3F6HPJW4JEMBIRLA691HFBRU07HW29","AKX4H8RT7BL7H","3WPCIUYH1AU470H2HRBLZRFBM95TDS","","null","<img src=""img/flower5.png"" style=""width:200px; border:14px solid green;"">","null","","","","","","","","",""
"","image-keyboard-response","118","81048","0.0-118.0","3F6HPJW4JEMBIRLA691HFBRU07HW29","AKX4H8RT7BL7H","3WPCIUYH1AU470H2HRBLZRFBM95TDS","","926.6999998092651","img/flower2.png","76","928","3","1","2","2","1,0,0,1,1,0,1,0,1","0,1,0,0,1,1,1,1,0","3",""
"","html-keyboard-response","119","81355","0.0-119.0","3F6HPJW4JEMBIRLA691HFBRU07HW29","AKX4H8RT7BL7H","3WPCIUYH1AU470H2HRBLZRFBM95TDS","","null","<img src=""img/flower2.png"" style=""width:200px; border:14px solid green;"">","null","","","","","","","","",""
"","image-keyboard-response","120","81757","0.0-120.0","3F6HPJW4JEMBIRLA691HFBRU07HW29","AKX4H8RT7BL7H","3WPCIUYH1AU470H2HRBLZRFBM95TDS","","400.29999923706055","img/flower2.png","76","401.80000019073486","3","1","2","2","1,0,0,1,1,0,1,0,1","0,1,0,0,1,1,1,1,0","3",""
"","html-keyboard-response","121","82063","0.0-121.0","3F6HPJW4JEMBIRLA691HFBRU07HW29","AKX4H8RT7BL7H","3WPCIUYH1AU470H2HRBLZRFBM95TDS","","null","<img src=""img/flower2.png"" style=""width:200px; border:14px solid green;"">","null","","","","","","","","",""
"","image-keyboard-response","122","82814","0.0-122.0","3F6HPJW4JEMBIRLA691HFBRU07HW29","AKX4H8RT7BL7H","3WPCIUYH1AU470H2HRBLZRFBM95TDS","","749.5999994277954","img/flower6.png","74","750.7000007629395","1","1","3","2","1,0,0,1,1,0,1,0,1","0,1,0,0,1,1,1,1,0","3",""
"","html-keyboard-response","123","83121","0.0-123.0","3F6HPJW4JEMBIRLA691HFBRU07HW29","AKX4H8RT7BL7H","3WPCIUYH1AU470H2HRBLZRFBM95TDS","","null","<img src=""img/flower6.png"" style=""width:200px; border:14px solid green;"">","null","","","","","","","","",""
"","image-keyboard-response","124","83396","0.0-124.0","3F6HPJW4JEMBIRLA691HFBRU07HW29","AKX4H8RT7BL7H","3WPCIUYH1AU470H2HRBLZRFBM95TDS","","273.5","img/flower6.png","74","275.1000003814697","1","1","3","2","1,0,0,1,1,0,1,0,1","0,1,0,0,1,1,1,1,0","3",""
"","html-keyboard-response","125","83703","0.0-125.0","3F6HPJW4JEMBIRLA691HFBRU07HW29","AKX4H8RT7BL7H","3WPCIUYH1AU470H2HRBLZRFBM95TDS","","null","<img src=""img/flower6.png"" style=""width:200px; border:14px solid green;"">","null","","","","","","","","",""
"","image-keyboard-response","126","84545","0.0-126.0","3F6HPJW4JEMBIRLA691HFBRU07HW29","AKX4H8RT7BL7H","3WPCIUYH1AU470H2HRBLZRFBM95TDS","","841.6999998092651","img/flower5.png","75","842.6999998092651","2","1","1","2","1,0,0,1,1,0,1,0,1","0,1,0,0,1,1,1,1,0","3",""
"","html-keyboard-response","127","84848","0.0-127.0","3F6HPJW4JEMBIRLA691HFBRU07HW29","AKX4H8RT7BL7H","3WPCIUYH1AU470H2HRBLZRFBM95TDS","","null","<img src=""img/flower5.png"" style=""width:200px; border:14px solid green;"">","null","","","","","","","","",""
"","image-keyboard-response","128","85168","0.0-128.0","3F6HPJW4JEMBIRLA691HFBRU07HW29","AKX4H8RT7BL7H","3WPCIUYH1AU470H2HRBLZRFBM95TDS","","319.1000003814697","img/flower6.png","75","320.30000019073486","2","1","3","2","1,0,0,1,1,0,1,0,1","0,1,0,0,1,1,1,1,0","3",""
"","html-keyboard-response","129","85470","0.0-129.0","3F6HPJW4JEMBIRLA691HFBRU07HW29","AKX4H8RT7BL7H","3WPCIUYH1AU470H2HRBLZRFBM95TDS","","null","<img src=""img/flower6.png"" style=""width:200px; border:14px solid green;"">","null","","","","","","","","",""
"","image-keyboard-response","130","86293","0.0-130.0","3F6HPJW4JEMBIRLA691HFBRU07HW29","AKX4H8RT7BL7H","3WPCIUYH1AU470H2HRBLZRFBM95TDS","","820.7999992370605","img/flower5.png","76","822.5999994277954","3","0","1","2","1,0,0,1,1,0,1,0,1","0,1,0,0,1,1,1,1,0","3",""
"","html-keyboard-response","131","86598","0.0-131.0","3F6HPJW4JEMBIRLA691HFBRU07HW29","AKX4H8RT7BL7H","3WPCIUYH1AU470H2HRBLZRFBM95TDS","","null","<img src=""img/flower5.png"" style=""width:200px;border:14px solid red;"">","null","","","","","","","","",""
"","image-keyboard-response","132","87296","0.0-132.0","3F6HPJW4JEMBIRLA691HFBRU07HW29","AKX4H8RT7BL7H","3WPCIUYH1AU470H2HRBLZRFBM95TDS","","696.1999998092651","img/flower2.png","76","698.1999998092651","3","1","2","2","1,0,0,1,1,0,1,0,1","0,1,0,0,1,1,1,1,0","3",""
"","html-keyboard-response","133","87599","0.0-133.0","3F6HPJW4JEMBIRLA691HFBRU07HW29","AKX4H8RT7BL7H","3WPCIUYH1AU470H2HRBLZRFBM95TDS","","null","<img src=""img/flower2.png"" style=""width:200px; border:14px solid green;"">","null","","","","","","","","",""
"","image-keyboard-response","134","88273","0.0-134.0","3F6HPJW4JEMBIRLA691HFBRU07HW29","AKX4H8RT7BL7H","3WPCIUYH1AU470H2HRBLZRFBM95TDS","","673","img/flower5.png","75","674.1999998092651","2","1","1","2","1,0,0,1,1,0,1,0,1","0,1,0,0,1,1,1,1,0","3",""
"","html-keyboard-response","135","88576","0.0-135.0","3F6HPJW4JEMBIRLA691HFBRU07HW29","AKX4H8RT7BL7H","3WPCIUYH1AU470H2HRBLZRFBM95TDS","","null","<img src=""img/flower5.png"" style=""width:200px; border:14px solid green;"">","null","","","","","","","","",""
"","image-keyboard-response","136","89232","0.0-136.0","3F6HPJW4JEMBIRLA691HFBRU07HW29","AKX4H8RT7BL7H","3WPCIUYH1AU470H2HRBLZRFBM95TDS","","652.1999998092651","img/flower6.png","74","654.1999998092651","1","1","3","2","1,0,0,1,1,0,1,0,1","0,1,0,0,1,1,1,1,0","3",""
"","html-keyboard-response","137","89540","0.0-137.0","3F6HPJW4JEMBIRLA691HFBRU07HW29","AKX4H8RT7BL7H","3WPCIUYH1AU470H2HRBLZRFBM95TDS","","null","<img src=""img/flower6.png"" style=""width:200px; border:14px solid green;"">","null","","","","","","","","",""
"","image-keyboard-response","138","89906","0.0-138.0","3F6HPJW4JEMBIRLA691HFBRU07HW29","AKX4H8RT7BL7H","3WPCIUYH1AU470H2HRBLZRFBM95TDS","","364.30000019073486","img/flower6.png","74","365.79999923706055","1","1","3","2","1,0,0,1,1,0,1,0,1","0,1,0,0,1,1,1,1,0","3",""
"","html-keyboard-response","139","90208","0.0-139.0","3F6HPJW4JEMBIRLA691HFBRU07HW29","AKX4H8RT7BL7H","3WPCIUYH1AU470H2HRBLZRFBM95TDS","","null","<img src=""img/flower6.png"" style=""width:200px; border:14px solid green;"">","null","","","","","","","","",""
"","image-keyboard-response","140","90531","0.0-140.0","3F6HPJW4JEMBIRLA691HFBRU07HW29","AKX4H8RT7BL7H","3WPCIUYH1AU470H2HRBLZRFBM95TDS","","320.69999980926514","img/flower6.png","74","322.69999980926514","1","1","3","2","1,0,0,1,1,0,1,0,1","0,1,0,0,1,1,1,1,0","3",""
"","html-keyboard-response","141","90839","0.0-141.0","3F6HPJW4JEMBIRLA691HFBRU07HW29","AKX4H8RT7BL7H","3WPCIUYH1AU470H2HRBLZRFBM95TDS","","null","<img src=""img/flower6.png"" style=""width:200px; border:14px solid green;"">","null","","","","","","","","",""
"","image-keyboard-response","142","91129","0.0-142.0","3F6HPJW4JEMBIRLA691HFBRU07HW29","AKX4H8RT7BL7H","3WPCIUYH1AU470H2HRBLZRFBM95TDS","","288.19999980926514","img/flower6.png","74","289.80000019073486","1","1","3","2","1,0,0,1,1,0,1,0,1","0,1,0,0,1,1,1,1,0","3",""
"","html-keyboard-response","143","91436","0.0-143.0","3F6HPJW4JEMBIRLA691HFBRU07HW29","AKX4H8RT7BL7H","3WPCIUYH1AU470H2HRBLZRFBM95TDS","","null","<img src=""img/flower6.png"" style=""width:200px; border:14px solid green;"">","null","","","","","","","","",""
"","image-keyboard-response","144","92592","0.0-144.0","3F6HPJW4JEMBIRLA691HFBRU07HW29","AKX4H8RT7BL7H","3WPCIUYH1AU470H2HRBLZRFBM95TDS","","1155.2000007629395","img/flower2.png","76","1155.9000005722046","3","1","2","2","1,0,0,1,1,0,1,0,1","0,1,0,0,1,1,1,1,0","3",""
"","html-keyboard-response","145","92899","0.0-145.0","3F6HPJW4JEMBIRLA691HFBRU07HW29","AKX4H8RT7BL7H","3WPCIUYH1AU470H2HRBLZRFBM95TDS","","null","<img src=""img/flower2.png"" style=""width:200px; border:14px solid green;"">","null","","","","","","","","",""
"","image-keyboard-response","146","93196","0.0-146.0","3F6HPJW4JEMBIRLA691HFBRU07HW29","AKX4H8RT7BL7H","3WPCIUYH1AU470H2HRBLZRFBM95TDS","","295.5999994277954","img/flower2.png","76","297.30000019073486","3","1","2","2","1,0,0,1,1,0,1,0,1","0,1,0,0,1,1,1,1,0","3",""
"","html-keyboard-response","147","93502","0.0-147.0","3F6HPJW4JEMBIRLA691HFBRU07HW29","AKX4H8RT7BL7H","3WPCIUYH1AU470H2HRBLZRFBM95TDS","","null","<img src=""img/flower2.png"" style=""width:200px; border:14px solid green;"">","null","","","","","","","","",""
"","image-keyboard-response","148","94346","0.0-148.0","3F6HPJW4JEMBIRLA691HFBRU07HW29","AKX4H8RT7BL7H","3WPCIUYH1AU470H2HRBLZRFBM95TDS","","842.8999996185303","img/flower6.png","75","843.6999998092651","2","1","3","2","1,0,0,1,1,0,1,0,1","0,1,0,0,1,1,1,1,0","3",""
"","html-keyboard-response","149","94651","0.0-149.0","3F6HPJW4JEMBIRLA691HFBRU07HW29","AKX4H8RT7BL7H","3WPCIUYH1AU470H2HRBLZRFBM95TDS","","null","<img src=""img/flower6.png"" style=""width:200px; border:14px solid green;"">","null","","","","","","","","",""
"","image-keyboard-response","150","95547","0.0-150.0","3F6HPJW4JEMBIRLA691HFBRU07HW29","AKX4H8RT7BL7H","3WPCIUYH1AU470H2HRBLZRFBM95TDS","","894.0999994277954","img/flower2.png","76","895.6999998092651","3","1","2","2","1,0,0,1,1,0,1,0,1","0,1,0,0,1,1,1,1,0","3",""
"","html-keyboard-response","151","95853","0.0-151.0","3F6HPJW4JEMBIRLA691HFBRU07HW29","AKX4H8RT7BL7H","3WPCIUYH1AU470H2HRBLZRFBM95TDS","","null","<img src=""img/flower2.png"" style=""width:200px; border:14px solid green;"">","null","","","","","","","","",""
"","image-keyboard-response","152","96737","0.0-152.0","3F6HPJW4JEMBIRLA691HFBRU07HW29","AKX4H8RT7BL7H","3WPCIUYH1AU470H2HRBLZRFBM95TDS","","882.6000003814697","img/flower5.png","75","883.8000001907349","2","1","1","2","1,0,0,1,1,0,1,0,1","0,1,0,0,1,1,1,1,0","3",""
"","html-keyboard-response","153","97045","0.0-153.0","3F6HPJW4JEMBIRLA691HFBRU07HW29","AKX4H8RT7BL7H","3WPCIUYH1AU470H2HRBLZRFBM95TDS","","null","<img src=""img/flower5.png"" style=""width:200px; border:14px solid green;"">","null","","","","","","","","",""
"","image-keyboard-response","154","97819","0.0-154.0","3F6HPJW4JEMBIRLA691HFBRU07HW29","AKX4H8RT7BL7H","3WPCIUYH1AU470H2HRBLZRFBM95TDS","","771.6999998092651","img/flower6.png","74","773.6000003814697","1","1","3","2","1,0,0,1,1,0,1,0,1","0,1,0,0,1,1,1,1,0","3",""
"","html-keyboard-response","155","98124","0.0-155.0","3F6HPJW4JEMBIRLA691HFBRU07HW29","AKX4H8RT7BL7H","3WPCIUYH1AU470H2HRBLZRFBM95TDS","","null","<img src=""img/flower6.png"" style=""width:200px; border:14px solid green;"">","null","","","","","","","","",""
"","image-keyboard-response","156","99079","0.0-156.0","3F6HPJW4JEMBIRLA691HFBRU07HW29","AKX4H8RT7BL7H","3WPCIUYH1AU470H2HRBLZRFBM95TDS","","953.5","img/flower2.png","76","954.8000001907349","3","1","2","2","1,0,0,1,1,0,1,0,1","0,1,0,0,1,1,1,1,0","3",""
"","html-keyboard-response","157","99384","0.0-157.0","3F6HPJW4JEMBIRLA691HFBRU07HW29","AKX4H8RT7BL7H","3WPCIUYH1AU470H2HRBLZRFBM95TDS","","null","<img src=""img/flower2.png"" style=""width:200px; border:14px solid green;"">","null","","","","","","","","",""
"","image-keyboard-response","158","100286","0.0-158.0","3F6HPJW4JEMBIRLA691HFBRU07HW29","AKX4H8RT7BL7H","3WPCIUYH1AU470H2HRBLZRFBM95TDS","","899.3000001907349","img/flower6.png","74","901.1999998092651","1","1","3","2","1,0,0,1,1,0,1,0,1","0,1,0,0,1,1,1,1,0","3",""
"","html-keyboard-response","159","100593","0.0-159.0","3F6HPJW4JEMBIRLA691HFBRU07HW29","AKX4H8RT7BL7H","3WPCIUYH1AU470H2HRBLZRFBM95TDS","","null","<img src=""img/flower6.png"" style=""width:200px; border:14px solid green;"">","null","","","","","","","","",""
"","image-keyboard-response","160","100965","0.0-160.0","3F6HPJW4JEMBIRLA691HFBRU07HW29","AKX4H8RT7BL7H","3WPCIUYH1AU470H2HRBLZRFBM95TDS","","370.3999996185303","img/flower6.png","74","372.20000076293945","1","1","3","2","1,0,0,1,1,0,1,0,1","0,1,0,0,1,1,1,1,0","3",""
"","html-keyboard-response","161","101273","0.0-161.0","3F6HPJW4JEMBIRLA691HFBRU07HW29","AKX4H8RT7BL7H","3WPCIUYH1AU470H2HRBLZRFBM95TDS","","null","<img src=""img/flower6.png"" style=""width:200px; border:14px solid green;"">","null","","","","","","","","",""
"","image-keyboard-response","162","101946","0.0-162.0","3F6HPJW4JEMBIRLA691HFBRU07HW29","AKX4H8RT7BL7H","3WPCIUYH1AU470H2HRBLZRFBM95TDS","","671.9000005722046","img/flower6.png","74","673.3000001907349","1","1","3","2","1,0,0,1,1,0,1,0,1","0,1,0,0,1,1,1,1,0","3",""
"","html-keyboard-response","163","102252","0.0-163.0","3F6HPJW4JEMBIRLA691HFBRU07HW29","AKX4H8RT7BL7H","3WPCIUYH1AU470H2HRBLZRFBM95TDS","","null","<img src=""img/flower6.png"" style=""width:200px; border:14px solid green;"">","null","","","","","","","","",""
"","image-keyboard-response","164","102959","0.0-164.0","3F6HPJW4JEMBIRLA691HFBRU07HW29","AKX4H8RT7BL7H","3WPCIUYH1AU470H2HRBLZRFBM95TDS","","704.3999996185303","img/flower5.png","75","706.1000003814697","2","1","1","2","1,0,0,1,1,0,1,0,1","0,1,0,0,1,1,1,1,0","3",""
"","html-keyboard-response","165","103266","0.0-165.0","3F6HPJW4JEMBIRLA691HFBRU07HW29","AKX4H8RT7BL7H","3WPCIUYH1AU470H2HRBLZRFBM95TDS","","null","<img src=""img/flower5.png"" style=""width:200px; border:14px solid green;"">","null","","","","","","","","",""
"","image-keyboard-response","166","103688","0.0-166.0","3F6HPJW4JEMBIRLA691HFBRU07HW29","AKX4H8RT7BL7H","3WPCIUYH1AU470H2HRBLZRFBM95TDS","","420","img/flower5.png","75","421.6000003814697","2","1","1","2","1,0,0,1,1,0,1,0,1","0,1,0,0,1,1,1,1,0","3",""
"","html-keyboard-response","167","103994","0.0-167.0","3F6HPJW4JEMBIRLA691HFBRU07HW29","AKX4H8RT7BL7H","3WPCIUYH1AU470H2HRBLZRFBM95TDS","","null","<img src=""img/flower5.png"" style=""width:200px; border:14px solid green;"">","null","","","","","","","","",""
"","image-keyboard-response","168","104725","0.0-168.0","3F6HPJW4JEMBIRLA691HFBRU07HW29","AKX4H8RT7BL7H","3WPCIUYH1AU470H2HRBLZRFBM95TDS","","729.9000005722046","img/flower6.png","74","730.8000001907349","1","1","3","2","1,0,0,1,1,0,1,0,1","0,1,0,0,1,1,1,1,0","3",""
"","html-keyboard-response","169","105032","0.0-169.0","3F6HPJW4JEMBIRLA691HFBRU07HW29","AKX4H8RT7BL7H","3WPCIUYH1AU470H2HRBLZRFBM95TDS","","null","<img src=""img/flower6.png"" style=""width:200px; border:14px solid green;"">","null","","","","","","","","",""
"","image-keyboard-response","170","105445","0.0-170.0","3F6HPJW4JEMBIRLA691HFBRU07HW29","AKX4H8RT7BL7H","3WPCIUYH1AU470H2HRBLZRFBM95TDS","","410.1000003814697","img/flower6.png","74","412","1","1","3","2","1,0,0,1,1,0,1,0,1","0,1,0,0,1,1,1,1,0","3",""
"","html-keyboard-response","171","105752","0.0-171.0","3F6HPJW4JEMBIRLA691HFBRU07HW29","AKX4H8RT7BL7H","3WPCIUYH1AU470H2HRBLZRFBM95TDS","","null","<img src=""img/flower6.png"" style=""width:200px; border:14px solid green;"">","null","","","","","","","","",""
"","image-keyboard-response","172","105995","0.0-172.0","3F6HPJW4JEMBIRLA691HFBRU07HW29","AKX4H8RT7BL7H","3WPCIUYH1AU470H2HRBLZRFBM95TDS","","242.30000019073486","img/flower6.png","74","243.5999994277954","1","1","3","2","1,0,0,1,1,0,1,0,1","0,1,0,0,1,1,1,1,0","3",""
"","html-keyboard-response","173","106302","0.0-173.0","3F6HPJW4JEMBIRLA691HFBRU07HW29","AKX4H8RT7BL7H","3WPCIUYH1AU470H2HRBLZRFBM95TDS","","null","<img src=""img/flower6.png"" style=""width:200px; border:14px solid green;"">","null","","","","","","","","",""
"","image-keyboard-response","174","107073","0.0-174.0","3F6HPJW4JEMBIRLA691HFBRU07HW29","AKX4H8RT7BL7H","3WPCIUYH1AU470H2HRBLZRFBM95TDS","","769.0999994277954","img/flower2.png","76","770.8000001907349","3","1","2","2","1,0,0,1,1,0,1,0,1","0,1,0,0,1,1,1,1,0","3",""
"","html-keyboard-response","175","107376","0.0-175.0","3F6HPJW4JEMBIRLA691HFBRU07HW29","AKX4H8RT7BL7H","3WPCIUYH1AU470H2HRBLZRFBM95TDS","","null","<img src=""img/flower2.png"" style=""width:200px; border:14px solid green;"">","null","","","","","","","","",""
"","image-keyboard-response","176","107584","0.0-176.0","3F6HPJW4JEMBIRLA691HFBRU07HW29","AKX4H8RT7BL7H","3WPCIUYH1AU470H2HRBLZRFBM95TDS","","205.89999961853027","img/flower6.png","76","207.30000019073486","3","0","3","2","1,0,0,1,1,0,1,0,1","0,1,0,0,1,1,1,1,0","3",""
"","html-keyboard-response","177","107887","0.0-177.0","3F6HPJW4JEMBIRLA691HFBRU07HW29","AKX4H8RT7BL7H","3WPCIUYH1AU470H2HRBLZRFBM95TDS","","null","<img src=""img/flower6.png"" style=""width:200px;border:14px solid red;"">","null","","","","","","","","",""
"","image-keyboard-response","178","108637","0.0-178.0","3F6HPJW4JEMBIRLA691HFBRU07HW29","AKX4H8RT7BL7H","3WPCIUYH1AU470H2HRBLZRFBM95TDS","","748.8999996185303","img/flower2.png","76","749.8000001907349","3","1","2","2","1,0,0,1,1,0,1,0,1","0,1,0,0,1,1,1,1,0","3",""
"","html-keyboard-response","179","108943","0.0-179.0","3F6HPJW4JEMBIRLA691HFBRU07HW29","AKX4H8RT7BL7H","3WPCIUYH1AU470H2HRBLZRFBM95TDS","","null","<img src=""img/flower2.png"" style=""width:200px; border:14px solid green;"">","null","","","","","","","","",""
"","image-keyboard-response","180","109999","0.0-180.0","3F6HPJW4JEMBIRLA691HFBRU07HW29","AKX4H8RT7BL7H","3WPCIUYH1AU470H2HRBLZRFBM95TDS","","1056","img/flower5.png","75","1056.7999992370605","2","1","1","2","1,0,0,1,1,0,1,0,1","0,1,0,0,1,1,1,1,0","3",""
"","html-keyboard-response","181","110306","0.0-181.0","3F6HPJW4JEMBIRLA691HFBRU07HW29","AKX4H8RT7BL7H","3WPCIUYH1AU470H2HRBLZRFBM95TDS","","null","<img src=""img/flower5.png"" style=""width:200px; border:14px solid green;"">","null","","","","","","","","",""
"","image-keyboard-response","182","110771","0.0-182.0","3F6HPJW4JEMBIRLA691HFBRU07HW29","AKX4H8RT7BL7H","3WPCIUYH1AU470H2HRBLZRFBM95TDS","","463.19999980926514","img/flower4.png","75","465.1000003814697","2","1","3","1","1,0.333,0.333,0.333,1,0.333,0.333,0.333,1","1,0.333,0.333,0.333,1,0.333,0.333,0.333,1","1",""
"","html-keyboard-response","183","111078","0.0-183.0","3F6HPJW4JEMBIRLA691HFBRU07HW29","AKX4H8RT7BL7H","3WPCIUYH1AU470H2HRBLZRFBM95TDS","","null","<img src=""img/flower4.png"" style=""width:200px; border:14px solid green;"">","null","","","","","","","","",""
"","image-keyboard-response","184","111672","0.0-184.0","3F6HPJW4JEMBIRLA691HFBRU07HW29","AKX4H8RT7BL7H","3WPCIUYH1AU470H2HRBLZRFBM95TDS","","592.1999998092651","img/flower3.png","75","593.5","2","1","2","1","1,0.333,0.333,0.333,1,0.333,0.333,0.333,1","1,0.333,0.333,0.333,1,0.333,0.333,0.333,1","1",""
"","html-keyboard-response","185","111978","0.0-185.0","3F6HPJW4JEMBIRLA691HFBRU07HW29","AKX4H8RT7BL7H","3WPCIUYH1AU470H2HRBLZRFBM95TDS","","null","<img src=""img/flower3.png"" style=""width:200px; border:14px solid green;"">","null","","","","","","","","",""
"","image-keyboard-response","186","112735","0.0-186.0","3F6HPJW4JEMBIRLA691HFBRU07HW29","AKX4H8RT7BL7H","3WPCIUYH1AU470H2HRBLZRFBM95TDS","","756.3000001907349","img/flower4.png","75","757.2000007629395","2","0","3","1","1,0.333,0.333,0.333,1,0.333,0.333,0.333,1","1,0.333,0.333,0.333,1,0.333,0.333,0.333,1","1",""
"","html-keyboard-response","187","113039","0.0-187.0","3F6HPJW4JEMBIRLA691HFBRU07HW29","AKX4H8RT7BL7H","3WPCIUYH1AU470H2HRBLZRFBM95TDS","","null","<img src=""img/flower4.png"" style=""width:200px;border:14px solid red;"">","null","","","","","","","","",""
"","image-keyboard-response","188","113571","0.0-188.0","3F6HPJW4JEMBIRLA691HFBRU07HW29","AKX4H8RT7BL7H","3WPCIUYH1AU470H2HRBLZRFBM95TDS","","530","img/flower3.png","75","531.5","2","1","2","1","1,0.333,0.333,0.333,1,0.333,0.333,0.333,1","1,0.333,0.333,0.333,1,0.333,0.333,0.333,1","1",""
"","html-keyboard-response","189","113877","0.0-189.0","3F6HPJW4JEMBIRLA691HFBRU07HW29","AKX4H8RT7BL7H","3WPCIUYH1AU470H2HRBLZRFBM95TDS","","null","<img src=""img/flower3.png"" style=""width:200px; border:14px solid green;"">","null","","","","","","","","",""
"","image-keyboard-response","190","114842","0.0-190.0","3F6HPJW4JEMBIRLA691HFBRU07HW29","AKX4H8RT7BL7H","3WPCIUYH1AU470H2HRBLZRFBM95TDS","","964.1000003814697","img/flower4.png","75","964.9000005722046","2","1","3","1","1,0.333,0.333,0.333,1,0.333,0.333,0.333,1","1,0.333,0.333,0.333,1,0.333,0.333,0.333,1","1",""
"","html-keyboard-response","191","115150","0.0-191.0","3F6HPJW4JEMBIRLA691HFBRU07HW29","AKX4H8RT7BL7H","3WPCIUYH1AU470H2HRBLZRFBM95TDS","","null","<img src=""img/flower4.png"" style=""width:200px; border:14px solid green;"">","null","","","","","","","","",""
"","image-keyboard-response","192","115929","0.0-192.0","3F6HPJW4JEMBIRLA691HFBRU07HW29","AKX4H8RT7BL7H","3WPCIUYH1AU470H2HRBLZRFBM95TDS","","777.4000005722046","img/flower4.png","75","779","2","0","3","1","1,0.333,0.333,0.333,1,0.333,0.333,0.333,1","1,0.333,0.333,0.333,1,0.333,0.333,0.333,1","1",""
"","html-keyboard-response","193","116236","0.0-193.0","3F6HPJW4JEMBIRLA691HFBRU07HW29","AKX4H8RT7BL7H","3WPCIUYH1AU470H2HRBLZRFBM95TDS","","null","<img src=""img/flower4.png"" style=""width:200px;border:14px solid red;"">","null","","","","","","","","",""
"","image-keyboard-response","194","117718","0.0-194.0","3F6HPJW4JEMBIRLA691HFBRU07HW29","AKX4H8RT7BL7H","3WPCIUYH1AU470H2HRBLZRFBM95TDS","","1479.9000005722046","img/flower1.png","76","1481.4000005722046","3","0","1","1","1,0.333,0.333,0.333,1,0.333,0.333,0.333,1","1,0.333,0.333,0.333,1,0.333,0.333,0.333,1","1",""
"","html-keyboard-response","195","118020","0.0-195.0","3F6HPJW4JEMBIRLA691HFBRU07HW29","AKX4H8RT7BL7H","3WPCIUYH1AU470H2HRBLZRFBM95TDS","","null","<img src=""img/flower1.png"" style=""width:200px;border:14px solid red;"">","null","","","","","","","","",""
"","image-keyboard-response","196","118897","0.0-196.0","3F6HPJW4JEMBIRLA691HFBRU07HW29","AKX4H8RT7BL7H","3WPCIUYH1AU470H2HRBLZRFBM95TDS","","875.7000007629395","img/flower4.png","74","876.6000003814697","1","0","3","1","1,0.333,0.333,0.333,1,0.333,0.333,0.333,1","1,0.333,0.333,0.333,1,0.333,0.333,0.333,1","1",""
"","html-keyboard-response","197","119204","0.0-197.0","3F6HPJW4JEMBIRLA691HFBRU07HW29","AKX4H8RT7BL7H","3WPCIUYH1AU470H2HRBLZRFBM95TDS","","null","<img src=""img/flower4.png"" style=""width:200px;border:14px solid red;"">","null","","","","","","","","",""
"","image-keyboard-response","198","120115","0.0-198.0","3F6HPJW4JEMBIRLA691HFBRU07HW29","AKX4H8RT7BL7H","3WPCIUYH1AU470H2HRBLZRFBM95TDS","","909.4000005722046","img/flower1.png","74","911","1","1","1","1","1,0.333,0.333,0.333,1,0.333,0.333,0.333,1","1,0.333,0.333,0.333,1,0.333,0.333,0.333,1","1",""
"","html-keyboard-response","199","120420","0.0-199.0","3F6HPJW4JEMBIRLA691HFBRU07HW29","AKX4H8RT7BL7H","3WPCIUYH1AU470H2HRBLZRFBM95TDS","","null","<img src=""img/flower1.png"" style=""width:200px; border:14px solid green;"">","null","","","","","","","","",""
"","image-keyboard-response","200","121258","0.0-200.0","3F6HPJW4JEMBIRLA691HFBRU07HW29","AKX4H8RT7BL7H","3WPCIUYH1AU470H2HRBLZRFBM95TDS","","836","img/flower3.png","75","837.8000001907349","2","1","2","1","1,0.333,0.333,0.333,1,0.333,0.333,0.333,1","1,0.333,0.333,0.333,1,0.333,0.333,0.333,1","1",""
"","html-keyboard-response","201","121561","0.0-201.0","3F6HPJW4JEMBIRLA691HFBRU07HW29","AKX4H8RT7BL7H","3WPCIUYH1AU470H2HRBLZRFBM95TDS","","null","<img src=""img/flower3.png"" style=""width:200px; border:14px solid green;"">","null","","","","","","","","",""
"","image-keyboard-response","202","122454","0.0-202.0","3F6HPJW4JEMBIRLA691HFBRU07HW29","AKX4H8RT7BL7H","3WPCIUYH1AU470H2HRBLZRFBM95TDS","","891.3000001907349","img/flower4.png","74","892.1000003814697","1","1","3","1","1,0.333,0.333,0.333,1,0.333,0.333,0.333,1","1,0.333,0.333,0.333,1,0.333,0.333,0.333,1","1",""
"","html-keyboard-response","203","122756","0.0-203.0","3F6HPJW4JEMBIRLA691HFBRU07HW29","AKX4H8RT7BL7H","3WPCIUYH1AU470H2HRBLZRFBM95TDS","","null","<img src=""img/flower4.png"" style=""width:200px; border:14px solid green;"">","null","","","","","","","","",""
"","image-keyboard-response","204","123778","0.0-204.0","3F6HPJW4JEMBIRLA691HFBRU07HW29","AKX4H8RT7BL7H","3WPCIUYH1AU470H2HRBLZRFBM95TDS","","1019.5","img/flower3.png","75","1021.2999992370605","2","1","2","1","1,0.333,0.333,0.333,1,0.333,0.333,0.333,1","1,0.333,0.333,0.333,1,0.333,0.333,0.333,1","1",""
"","html-keyboard-response","205","124085","0.0-205.0","3F6HPJW4JEMBIRLA691HFBRU07HW29","AKX4H8RT7BL7H","3WPCIUYH1AU470H2HRBLZRFBM95TDS","","null","<img src=""img/flower3.png"" style=""width:200px; border:14px solid green;"">","null","","","","","","","","",""
"","image-keyboard-response","206","124586","0.0-206.0","3F6HPJW4JEMBIRLA691HFBRU07HW29","AKX4H8RT7BL7H","3WPCIUYH1AU470H2HRBLZRFBM95TDS","","499.9000005722046","img/flower3.png","75","500.80000019073486","2","1","2","1","1,0.333,0.333,0.333,1,0.333,0.333,0.333,1","1,0.333,0.333,0.333,1,0.333,0.333,0.333,1","1",""
"","html-keyboard-response","207","124892","0.0-207.0","3F6HPJW4JEMBIRLA691HFBRU07HW29","AKX4H8RT7BL7H","3WPCIUYH1AU470H2HRBLZRFBM95TDS","","null","<img src=""img/flower3.png"" style=""width:200px; border:14px solid green;"">","null","","","","","","","","",""
"","image-keyboard-response","208","125653","0.0-208.0","3F6HPJW4JEMBIRLA691HFBRU07HW29","AKX4H8RT7BL7H","3WPCIUYH1AU470H2HRBLZRFBM95TDS","","758.8000001907349","img/flower4.png","74","760.2000007629395","1","0","3","1","1,0.333,0.333,0.333,1,0.333,0.333,0.333,1","1,0.333,0.333,0.333,1,0.333,0.333,0.333,1","1",""
"","html-keyboard-response","209","125959","0.0-209.0","3F6HPJW4JEMBIRLA691HFBRU07HW29","AKX4H8RT7BL7H","3WPCIUYH1AU470H2HRBLZRFBM95TDS","","null","<img src=""img/flower4.png"" style=""width:200px;border:14px solid red;"">","null","","","","","","","","",""
"","image-keyboard-response","210","127251","0.0-210.0","3F6HPJW4JEMBIRLA691HFBRU07HW29","AKX4H8RT7BL7H","3WPCIUYH1AU470H2HRBLZRFBM95TDS","","1291.6000003814697","img/flower1.png","75","1292.3999996185303","2","1","1","1","1,0.333,0.333,0.333,1,0.333,0.333,0.333,1","1,0.333,0.333,0.333,1,0.333,0.333,0.333,1","1",""
"","html-keyboard-response","211","127554","0.0-211.0","3F6HPJW4JEMBIRLA691HFBRU07HW29","AKX4H8RT7BL7H","3WPCIUYH1AU470H2HRBLZRFBM95TDS","","null","<img src=""img/flower1.png"" style=""width:200px; border:14px solid green;"">","null","","","","","","","","",""
"","image-keyboard-response","212","128521","0.0-212.0","3F6HPJW4JEMBIRLA691HFBRU07HW29","AKX4H8RT7BL7H","3WPCIUYH1AU470H2HRBLZRFBM95TDS","","966.0999994277954","img/flower3.png","75","966.8000001907349","2","1","2","1","1,0.333,0.333,0.333,1,0.333,0.333,0.333,1","1,0.333,0.333,0.333,1,0.333,0.333,0.333,1","1",""
"","html-keyboard-response","213","128825","0.0-213.0","3F6HPJW4JEMBIRLA691HFBRU07HW29","AKX4H8RT7BL7H","3WPCIUYH1AU470H2HRBLZRFBM95TDS","","null","<img src=""img/flower3.png"" style=""width:200px; border:14px solid green;"">","null","","","","","","","","",""
"","image-keyboard-response","214","129818","0.0-214.0","3F6HPJW4JEMBIRLA691HFBRU07HW29","AKX4H8RT7BL7H","3WPCIUYH1AU470H2HRBLZRFBM95TDS","","990.8999996185303","img/flower4.png","75","993","2","0","3","1","1,0.333,0.333,0.333,1,0.333,0.333,0.333,1","1,0.333,0.333,0.333,1,0.333,0.333,0.333,1","1",""
"","html-keyboard-response","215","130124","0.0-215.0","3F6HPJW4JEMBIRLA691HFBRU07HW29","AKX4H8RT7BL7H","3WPCIUYH1AU470H2HRBLZRFBM95TDS","","null","<img src=""img/flower4.png"" style=""width:200px;border:14px solid red;"">","null","","","","","","","","",""
"","image-keyboard-response","216","131660","0.0-216.0","3F6HPJW4JEMBIRLA691HFBRU07HW29","AKX4H8RT7BL7H","3WPCIUYH1AU470H2HRBLZRFBM95TDS","","1534.0999994277954","img/flower1.png","74","1535.4000005722046","1","1","1","1","1,0.333,0.333,0.333,1,0.333,0.333,0.333,1","1,0.333,0.333,0.333,1,0.333,0.333,0.333,1","1",""
"","html-keyboard-response","217","131966","0.0-217.0","3F6HPJW4JEMBIRLA691HFBRU07HW29","AKX4H8RT7BL7H","3WPCIUYH1AU470H2HRBLZRFBM95TDS","","null","<img src=""img/flower1.png"" style=""width:200px; border:14px solid green;"">","null","","","","","","","","",""
"","image-keyboard-response","218","132706","0.0-218.0","3F6HPJW4JEMBIRLA691HFBRU07HW29","AKX4H8RT7BL7H","3WPCIUYH1AU470H2HRBLZRFBM95TDS","","739.2000007629395","img/flower3.png","75","740.1999998092651","2","1","2","1","1,0.333,0.333,0.333,1,0.333,0.333,0.333,1","1,0.333,0.333,0.333,1,0.333,0.333,0.333,1","1",""
"","html-keyboard-response","219","133013","0.0-219.0","3F6HPJW4JEMBIRLA691HFBRU07HW29","AKX4H8RT7BL7H","3WPCIUYH1AU470H2HRBLZRFBM95TDS","","null","<img src=""img/flower3.png"" style=""width:200px; border:14px solid green;"">","null","","","","","","","","",""
"","image-keyboard-response","220","133892","0.0-220.0","3F6HPJW4JEMBIRLA691HFBRU07HW29","AKX4H8RT7BL7H","3WPCIUYH1AU470H2HRBLZRFBM95TDS","","877.6999998092651","img/flower1.png","76","878.6999998092651","3","0","1","1","1,0.333,0.333,0.333,1,0.333,0.333,0.333,1","1,0.333,0.333,0.333,1,0.333,0.333,0.333,1","1",""
"","html-keyboard-response","221","134196","0.0-221.0","3F6HPJW4JEMBIRLA691HFBRU07HW29","AKX4H8RT7BL7H","3WPCIUYH1AU470H2HRBLZRFBM95TDS","","null","<img src=""img/flower1.png"" style=""width:200px;border:14px solid red;"">","null","","","","","","","","",""
"","image-keyboard-response","222","135278","0.0-222.0","3F6HPJW4JEMBIRLA691HFBRU07HW29","AKX4H8RT7BL7H","3WPCIUYH1AU470H2HRBLZRFBM95TDS","","1081","img/flower4.png","76","1082","3","1","3","1","1,0.333,0.333,0.333,1,0.333,0.333,0.333,1","1,0.333,0.333,0.333,1,0.333,0.333,0.333,1","1",""
"","html-keyboard-response","223","135585","0.0-223.0","3F6HPJW4JEMBIRLA691HFBRU07HW29","AKX4H8RT7BL7H","3WPCIUYH1AU470H2HRBLZRFBM95TDS","","null","<img src=""img/flower4.png"" style=""width:200px; border:14px solid green;"">","null","","","","","","","","",""
"","image-keyboard-response","224","136108","0.0-224.0","3F6HPJW4JEMBIRLA691HFBRU07HW29","AKX4H8RT7BL7H","3WPCIUYH1AU470H2HRBLZRFBM95TDS","","520.6000003814697","img/flower4.png","76","522.1999998092651","3","1","3","1","1,0.333,0.333,0.333,1,0.333,0.333,0.333,1","1,0.333,0.333,0.333,1,0.333,0.333,0.333,1","1",""
"","html-keyboard-response","225","136411","0.0-225.0","3F6HPJW4JEMBIRLA691HFBRU07HW29","AKX4H8RT7BL7H","3WPCIUYH1AU470H2HRBLZRFBM95TDS","","null","<img src=""img/flower4.png"" style=""width:200px; border:14px solid green;"">","null","","","","","","","","",""
"","image-keyboard-response","226","136788","0.0-226.0","3F6HPJW4JEMBIRLA691HFBRU07HW29","AKX4H8RT7BL7H","3WPCIUYH1AU470H2HRBLZRFBM95TDS","","376.29999923706055","img/flower4.png","76","377.30000019073486","3","1","3","1","1,0.333,0.333,0.333,1,0.333,0.333,0.333,1","1,0.333,0.333,0.333,1,0.333,0.333,0.333,1","1",""
"","html-keyboard-response","227","137096","0.0-227.0","3F6HPJW4JEMBIRLA691HFBRU07HW29","AKX4H8RT7BL7H","3WPCIUYH1AU470H2HRBLZRFBM95TDS","","null","<img src=""img/flower4.png"" style=""width:200px; border:14px solid green;"">","null","","","","","","","","",""
"","image-keyboard-response","228","137904","0.0-228.0","3F6HPJW4JEMBIRLA691HFBRU07HW29","AKX4H8RT7BL7H","3WPCIUYH1AU470H2HRBLZRFBM95TDS","","806.8000001907349","img/flower3.png","75","808.1999998092651","2","1","2","1","1,0.333,0.333,0.333,1,0.333,0.333,0.333,1","1,0.333,0.333,0.333,1,0.333,0.333,0.333,1","1",""
"","html-keyboard-response","229","138206","0.0-229.0","3F6HPJW4JEMBIRLA691HFBRU07HW29","AKX4H8RT7BL7H","3WPCIUYH1AU470H2HRBLZRFBM95TDS","","null","<img src=""img/flower3.png"" style=""width:200px; border:14px solid green;"">","null","","","","","","","","",""
"","image-keyboard-response","230","138965","0.0-230.0","3F6HPJW4JEMBIRLA691HFBRU07HW29","AKX4H8RT7BL7H","3WPCIUYH1AU470H2HRBLZRFBM95TDS","","756.5","img/flower4.png","76","758.2000007629395","3","1","3","1","1,0.333,0.333,0.333,1,0.333,0.333,0.333,1","1,0.333,0.333,0.333,1,0.333,0.333,0.333,1","1",""
"","html-keyboard-response","231","139267","0.0-231.0","3F6HPJW4JEMBIRLA691HFBRU07HW29","AKX4H8RT7BL7H","3WPCIUYH1AU470H2HRBLZRFBM95TDS","","null","<img src=""img/flower4.png"" style=""width:200px; border:14px solid green;"">","null","","","","","","","","",""
"","image-keyboard-response","232","140267","0.0-232.0","3F6HPJW4JEMBIRLA691HFBRU07HW29","AKX4H8RT7BL7H","3WPCIUYH1AU470H2HRBLZRFBM95TDS","","997.3999996185303","img/flower1.png","75","999.1999998092651","2","1","1","1","1,0.333,0.333,0.333,1,0.333,0.333,0.333,1","1,0.333,0.333,0.333,1,0.333,0.333,0.333,1","1",""
"","html-keyboard-response","233","140572","0.0-233.0","3F6HPJW4JEMBIRLA691HFBRU07HW29","AKX4H8RT7BL7H","3WPCIUYH1AU470H2HRBLZRFBM95TDS","","null","<img src=""img/flower1.png"" style=""width:200px; border:14px solid green;"">","null","","","","","","","","",""
"","image-keyboard-response","234","141371","0.0-234.0","3F6HPJW4JEMBIRLA691HFBRU07HW29","AKX4H8RT7BL7H","3WPCIUYH1AU470H2HRBLZRFBM95TDS","","796.6999998092651","img/flower3.png","76","798.5999994277954","3","0","2","1","1,0.333,0.333,0.333,1,0.333,0.333,0.333,1","1,0.333,0.333,0.333,1,0.333,0.333,0.333,1","1",""
"","html-keyboard-response","235","141678","0.0-235.0","3F6HPJW4JEMBIRLA691HFBRU07HW29","AKX4H8RT7BL7H","3WPCIUYH1AU470H2HRBLZRFBM95TDS","","null","<img src=""img/flower3.png"" style=""width:200px;border:14px solid red;"">","null","","","","","","","","",""
"","image-keyboard-response","236","142243","0.0-236.0","3F6HPJW4JEMBIRLA691HFBRU07HW29","AKX4H8RT7BL7H","3WPCIUYH1AU470H2HRBLZRFBM95TDS","","563.3000001907349","img/flower3.png","75","564.8999996185303","2","1","2","1","1,0.333,0.333,0.333,1,0.333,0.333,0.333,1","1,0.333,0.333,0.333,1,0.333,0.333,0.333,1","1",""
"","html-keyboard-response","237","142547","0.0-237.0","3F6HPJW4JEMBIRLA691HFBRU07HW29","AKX4H8RT7BL7H","3WPCIUYH1AU470H2HRBLZRFBM95TDS","","null","<img src=""img/flower3.png"" style=""width:200px; border:14px solid green;"">","null","","","","","","","","",""
"","image-keyboard-response","238","143419","0.0-238.0","3F6HPJW4JEMBIRLA691HFBRU07HW29","AKX4H8RT7BL7H","3WPCIUYH1AU470H2HRBLZRFBM95TDS","","869.6000003814697","img/flower4.png","76","871.5","3","1","3","1","1,0.333,0.333,0.333,1,0.333,0.333,0.333,1","1,0.333,0.333,0.333,1,0.333,0.333,0.333,1","1",""
"","html-keyboard-response","239","143726","0.0-239.0","3F6HPJW4JEMBIRLA691HFBRU07HW29","AKX4H8RT7BL7H","3WPCIUYH1AU470H2HRBLZRFBM95TDS","","null","<img src=""img/flower4.png"" style=""width:200px; border:14px solid green;"">","null","","","","","","","","",""
"","image-keyboard-response","240","144116","0.0-240.0","3F6HPJW4JEMBIRLA691HFBRU07HW29","AKX4H8RT7BL7H","3WPCIUYH1AU470H2HRBLZRFBM95TDS","","389","img/flower4.png","76","389.69999980926514","3","1","3","1","1,0.333,0.333,0.333,1,0.333,0.333,0.333,1","1,0.333,0.333,0.333,1,0.333,0.333,0.333,1","1",""
"","html-keyboard-response","241","144419","0.0-241.0","3F6HPJW4JEMBIRLA691HFBRU07HW29","AKX4H8RT7BL7H","3WPCIUYH1AU470H2HRBLZRFBM95TDS","","null","<img src=""img/flower4.png"" style=""width:200px; border:14px solid green;"">","null","","","","","","","","",""
"","image-keyboard-response","242","145324","0.0-242.0","3F6HPJW4JEMBIRLA691HFBRU07HW29","AKX4H8RT7BL7H","3WPCIUYH1AU470H2HRBLZRFBM95TDS","","903.1000003814697","img/flower1.png","75","904.9000005722046","2","1","1","1","1,0.333,0.333,0.333,1,0.333,0.333,0.333,1","1,0.333,0.333,0.333,1,0.333,0.333,0.333,1","1",""
"","html-keyboard-response","243","145627","0.0-243.0","3F6HPJW4JEMBIRLA691HFBRU07HW29","AKX4H8RT7BL7H","3WPCIUYH1AU470H2HRBLZRFBM95TDS","","null","<img src=""img/flower1.png"" style=""width:200px; border:14px solid green;"">","null","","","","","","","","",""
"","image-keyboard-response","244","146536","0.0-244.0","3F6HPJW4JEMBIRLA691HFBRU07HW29","AKX4H8RT7BL7H","3WPCIUYH1AU470H2HRBLZRFBM95TDS","","907.1999998092651","img/flower4.png","76","909.1000003814697","3","1","3","1","1,0.333,0.333,0.333,1,0.333,0.333,0.333,1","1,0.333,0.333,0.333,1,0.333,0.333,0.333,1","1",""
"","html-keyboard-response","245","146840","0.0-245.0","3F6HPJW4JEMBIRLA691HFBRU07HW29","AKX4H8RT7BL7H","3WPCIUYH1AU470H2HRBLZRFBM95TDS","","null","<img src=""img/flower4.png"" style=""width:200px; border:14px solid green;"">","null","","","","","","","","",""
"","image-keyboard-response","246","147209","0.0-246.0","3F6HPJW4JEMBIRLA691HFBRU07HW29","AKX4H8RT7BL7H","3WPCIUYH1AU470H2HRBLZRFBM95TDS","","366.3999996185303","img/flower4.png","76","368.30000019073486","3","1","3","1","1,0.333,0.333,0.333,1,0.333,0.333,0.333,1","1,0.333,0.333,0.333,1,0.333,0.333,0.333,1","1",""
"","html-keyboard-response","247","147516","0.0-247.0","3F6HPJW4JEMBIRLA691HFBRU07HW29","AKX4H8RT7BL7H","3WPCIUYH1AU470H2HRBLZRFBM95TDS","","null","<img src=""img/flower4.png"" style=""width:200px; border:14px solid green;"">","null","","","","","","","","",""
"","image-keyboard-response","248","148554","0.0-248.0","3F6HPJW4JEMBIRLA691HFBRU07HW29","AKX4H8RT7BL7H","3WPCIUYH1AU470H2HRBLZRFBM95TDS","","1036.3999996185303","img/flower1.png","74","1038.0999994277954","1","1","1","1","1,0.333,0.333,0.333,1,0.333,0.333,0.333,1","1,0.333,0.333,0.333,1,0.333,0.333,0.333,1","1",""
"","html-keyboard-response","249","148860","0.0-249.0","3F6HPJW4JEMBIRLA691HFBRU07HW29","AKX4H8RT7BL7H","3WPCIUYH1AU470H2HRBLZRFBM95TDS","","null","<img src=""img/flower1.png"" style=""width:200px; border:14px solid green;"">","null","","","","","","","","",""
"","image-keyboard-response","250","149337","0.0-250.0","3F6HPJW4JEMBIRLA691HFBRU07HW29","AKX4H8RT7BL7H","3WPCIUYH1AU470H2HRBLZRFBM95TDS","","474.19999980926514","img/flower1.png","74","476","1","1","1","1","1,0.333,0.333,0.333,1,0.333,0.333,0.333,1","1,0.333,0.333,0.333,1,0.333,0.333,0.333,1","1",""
"","html-keyboard-response","251","149644","0.0-251.0","3F6HPJW4JEMBIRLA691HFBRU07HW29","AKX4H8RT7BL7H","3WPCIUYH1AU470H2HRBLZRFBM95TDS","","null","<img src=""img/flower1.png"" style=""width:200px; border:14px solid green;"">","null","","","","","","","","",""
"","image-keyboard-response","252","150313","0.0-252.0","3F6HPJW4JEMBIRLA691HFBRU07HW29","AKX4H8RT7BL7H","3WPCIUYH1AU470H2HRBLZRFBM95TDS","","666.8000001907349","img/flower3.png","75","668.5999994277954","2","1","2","1","1,0.333,0.333,0.333,1,0.333,0.333,0.333,1","1,0.333,0.333,0.333,1,0.333,0.333,0.333,1","1",""
"","html-keyboard-response","253","150620","0.0-253.0","3F6HPJW4JEMBIRLA691HFBRU07HW29","AKX4H8RT7BL7H","3WPCIUYH1AU470H2HRBLZRFBM95TDS","","null","<img src=""img/flower3.png"" style=""width:200px; border:14px solid green;"">","null","","","","","","","","",""
"","image-keyboard-response","254","151029","0.0-254.0","3F6HPJW4JEMBIRLA691HFBRU07HW29","AKX4H8RT7BL7H","3WPCIUYH1AU470H2HRBLZRFBM95TDS","","408.1000003814697","img/flower3.png","75","408.9000005722046","2","1","2","1","1,0.333,0.333,0.333,1,0.333,0.333,0.333,1","1,0.333,0.333,0.333,1,0.333,0.333,0.333,1","1",""
"","html-keyboard-response","255","151337","0.0-255.0","3F6HPJW4JEMBIRLA691HFBRU07HW29","AKX4H8RT7BL7H","3WPCIUYH1AU470H2HRBLZRFBM95TDS","","null","<img src=""img/flower3.png"" style=""width:200px; border:14px solid green;"">","null","","","","","","","","",""
"","image-keyboard-response","256","152277","0.0-256.0","3F6HPJW4JEMBIRLA691HFBRU07HW29","AKX4H8RT7BL7H","3WPCIUYH1AU470H2HRBLZRFBM95TDS","","938.2000007629395","img/flower1.png","75","940","2","0","1","1","1,0.333,0.333,0.333,1,0.333,0.333,0.333,1","1,0.333,0.333,0.333,1,0.333,0.333,0.333,1","1",""
"","html-keyboard-response","257","152583","0.0-257.0","3F6HPJW4JEMBIRLA691HFBRU07HW29","AKX4H8RT7BL7H","3WPCIUYH1AU470H2HRBLZRFBM95TDS","","null","<img src=""img/flower1.png"" style=""width:200px;border:14px solid red;"">","null","","","","","","","","",""
"","image-keyboard-response","258","153229","0.0-258.0","3F6HPJW4JEMBIRLA691HFBRU07HW29","AKX4H8RT7BL7H","3WPCIUYH1AU470H2HRBLZRFBM95TDS","","645.8000001907349","img/flower1.png","74","646.6000003814697","1","1","1","1","1,0.333,0.333,0.333,1,0.333,0.333,0.333,1","1,0.333,0.333,0.333,1,0.333,0.333,0.333,1","1",""
"","html-keyboard-response","259","153536","0.0-259.0","3F6HPJW4JEMBIRLA691HFBRU07HW29","AKX4H8RT7BL7H","3WPCIUYH1AU470H2HRBLZRFBM95TDS","","null","<img src=""img/flower1.png"" style=""width:200px; border:14px solid green;"">","null","","","","","","","","",""
"","image-keyboard-response","260","153919","0.0-260.0","3F6HPJW4JEMBIRLA691HFBRU07HW29","AKX4H8RT7BL7H","3WPCIUYH1AU470H2HRBLZRFBM95TDS","","380.8999996185303","img/flower1.png","74","382.5","1","1","1","1","1,0.333,0.333,0.333,1,0.333,0.333,0.333,1","1,0.333,0.333,0.333,1,0.333,0.333,0.333,1","1",""
"","html-keyboard-response","261","154222","0.0-261.0","3F6HPJW4JEMBIRLA691HFBRU07HW29","AKX4H8RT7BL7H","3WPCIUYH1AU470H2HRBLZRFBM95TDS","","null","<img src=""img/flower1.png"" style=""width:200px; border:14px solid green;"">","null","","","","","","","","",""
"","image-keyboard-response","262","155159","0.0-262.0","3F6HPJW4JEMBIRLA691HFBRU07HW29","AKX4H8RT7BL7H","3WPCIUYH1AU470H2HRBLZRFBM95TDS","","935.0999994277954","img/flower3.png","75","936.8000001907349","2","1","2","1","1,0.333,0.333,0.333,1,0.333,0.333,0.333,1","1,0.333,0.333,0.333,1,0.333,0.333,0.333,1","1",""
"","html-keyboard-response","263","155464","0.0-263.0","3F6HPJW4JEMBIRLA691HFBRU07HW29","AKX4H8RT7BL7H","3WPCIUYH1AU470H2HRBLZRFBM95TDS","","null","<img src=""img/flower3.png"" style=""width:200px; border:14px solid green;"">","null","","","","","","","","",""
"","image-keyboard-response","264","156052","0.0-264.0","3F6HPJW4JEMBIRLA691HFBRU07HW29","AKX4H8RT7BL7H","3WPCIUYH1AU470H2HRBLZRFBM95TDS","","586.0999994277954","img/flower3.png","75","587.6000003814697","2","1","2","1","1,0.333,0.333,0.333,1,0.333,0.333,0.333,1","1,0.333,0.333,0.333,1,0.333,0.333,0.333,1","1",""
"","html-keyboard-response","265","156359","0.0-265.0","3F6HPJW4JEMBIRLA691HFBRU07HW29","AKX4H8RT7BL7H","3WPCIUYH1AU470H2HRBLZRFBM95TDS","","null","<img src=""img/flower3.png"" style=""width:200px; border:14px solid green;"">","null","","","","","","","","",""
"","image-keyboard-response","266","157029","0.0-266.0","3F6HPJW4JEMBIRLA691HFBRU07HW29","AKX4H8RT7BL7H","3WPCIUYH1AU470H2HRBLZRFBM95TDS","","668.3999996185303","img/flower1.png","74","670.1999998092651","1","1","1","1","1,0.333,0.333,0.333,1,0.333,0.333,0.333,1","1,0.333,0.333,0.333,1,0.333,0.333,0.333,1","1",""
"","html-keyboard-response","267","157335","0.0-267.0","3F6HPJW4JEMBIRLA691HFBRU07HW29","AKX4H8RT7BL7H","3WPCIUYH1AU470H2HRBLZRFBM95TDS","","null","<img src=""img/flower1.png"" style=""width:200px; border:14px solid green;"">","null","","","","","","","","",""
"","image-keyboard-response","268","158071","0.0-268.0","3F6HPJW4JEMBIRLA691HFBRU07HW29","AKX4H8RT7BL7H","3WPCIUYH1AU470H2HRBLZRFBM95TDS","","734.5999994277954","img/flower4.png","76","736.1000003814697","3","1","3","1","1,0.333,0.333,0.333,1,0.333,0.333,0.333,1","1,0.333,0.333,0.333,1,0.333,0.333,0.333,1","1",""
"","html-keyboard-response","269","158378","0.0-269.0","3F6HPJW4JEMBIRLA691HFBRU07HW29","AKX4H8RT7BL7H","3WPCIUYH1AU470H2HRBLZRFBM95TDS","","null","<img src=""img/flower4.png"" style=""width:200px; border:14px solid green;"">","null","","","","","","","","",""
"","image-keyboard-response","270","158845","0.0-270.0","3F6HPJW4JEMBIRLA691HFBRU07HW29","AKX4H8RT7BL7H","3WPCIUYH1AU470H2HRBLZRFBM95TDS","","465.30000019073486","img/flower4.png","76","467.0999994277954","3","1","3","1","1,0.333,0.333,0.333,1,0.333,0.333,0.333,1","1,0.333,0.333,0.333,1,0.333,0.333,0.333,1","1",""
"","html-keyboard-response","271","159153","0.0-271.0","3F6HPJW4JEMBIRLA691HFBRU07HW29","AKX4H8RT7BL7H","3WPCIUYH1AU470H2HRBLZRFBM95TDS","","null","<img src=""img/flower4.png"" style=""width:200px; border:14px solid green;"">","null","","","","","","","","",""
"","image-keyboard-response","272","159902","0.0-272.0","3F6HPJW4JEMBIRLA691HFBRU07HW29","AKX4H8RT7BL7H","3WPCIUYH1AU470H2HRBLZRFBM95TDS","","747.6999998092651","img/flower3.png","75","749.1000003814697","2","1","2","1","1,0.333,0.333,0.333,1,0.333,0.333,0.333,1","1,0.333,0.333,0.333,1,0.333,0.333,0.333,1","1",""
"","html-keyboard-response","273","160208","0.0-273.0","3F6HPJW4JEMBIRLA691HFBRU07HW29","AKX4H8RT7BL7H","3WPCIUYH1AU470H2HRBLZRFBM95TDS","","null","<img src=""img/flower3.png"" style=""width:200px; border:14px solid green;"">","null","","","","","","","","",""
"","image-keyboard-response","274","160684","0.0-274.0","3F6HPJW4JEMBIRLA691HFBRU07HW29","AKX4H8RT7BL7H","3WPCIUYH1AU470H2HRBLZRFBM95TDS","","474","img/flower3.png","75","475.3999996185303","2","1","2","1","1,0.333,0.333,0.333,1,0.333,0.333,0.333,1","1,0.333,0.333,0.333,1,0.333,0.333,0.333,1","1",""
"","html-keyboard-response","275","160989","0.0-275.0","3F6HPJW4JEMBIRLA691HFBRU07HW29","AKX4H8RT7BL7H","3WPCIUYH1AU470H2HRBLZRFBM95TDS","","null","<img src=""img/flower3.png"" style=""width:200px; border:14px solid green;"">","null","","","","","","","","",""
"","image-keyboard-response","276","161413","0.0-276.0","3F6HPJW4JEMBIRLA691HFBRU07HW29","AKX4H8RT7BL7H","3WPCIUYH1AU470H2HRBLZRFBM95TDS","","421.3999996185303","img/flower3.png","75","422.8999996185303","2","1","2","1","1,0.333,0.333,0.333,1,0.333,0.333,0.333,1","1,0.333,0.333,0.333,1,0.333,0.333,0.333,1","1",""
"","html-keyboard-response","277","161715","0.0-277.0","3F6HPJW4JEMBIRLA691HFBRU07HW29","AKX4H8RT7BL7H","3WPCIUYH1AU470H2HRBLZRFBM95TDS","","null","<img src=""img/flower3.png"" style=""width:200px; border:14px solid green;"">","null","","","","","","","","",""
"","image-keyboard-response","278","162116","0.0-278.0","3F6HPJW4JEMBIRLA691HFBRU07HW29","AKX4H8RT7BL7H","3WPCIUYH1AU470H2HRBLZRFBM95TDS","","399.5999994277954","img/flower3.png","75","401.4000005722046","2","1","2","1","1,0.333,0.333,0.333,1,0.333,0.333,0.333,1","1,0.333,0.333,0.333,1,0.333,0.333,0.333,1","1",""
"","html-keyboard-response","279","162419","0.0-279.0","3F6HPJW4JEMBIRLA691HFBRU07HW29","AKX4H8RT7BL7H","3WPCIUYH1AU470H2HRBLZRFBM95TDS","","null","<img src=""img/flower3.png"" style=""width:200px; border:14px solid green;"">","null","","","","","","","","",""
"","image-keyboard-response","280","162994","0.0-280.0","3F6HPJW4JEMBIRLA691HFBRU07HW29","AKX4H8RT7BL7H","3WPCIUYH1AU470H2HRBLZRFBM95TDS","","574","img/flower3.png","75","575.1999998092651","2","1","2","1","1,0.333,0.333,0.333,1,0.333,0.333,0.333,1","1,0.333,0.333,0.333,1,0.333,0.333,0.333,1","1",""
"","html-keyboard-response","281","163298","0.0-281.0","3F6HPJW4JEMBIRLA691HFBRU07HW29","AKX4H8RT7BL7H","3WPCIUYH1AU470H2HRBLZRFBM95TDS","","null","<img src=""img/flower3.png"" style=""width:200px; border:14px solid green;"">","null","","","","","","","","",""
"","image-keyboard-response","282","164103","0.0-282.0","3F6HPJW4JEMBIRLA691HFBRU07HW29","AKX4H8RT7BL7H","3WPCIUYH1AU470H2HRBLZRFBM95TDS","","802.7000007629395","img/flower4.png","76","804.2999992370605","3","1","3","1","1,0.333,0.333,0.333,1,0.333,0.333,0.333,1","1,0.333,0.333,0.333,1,0.333,0.333,0.333,1","1",""
"","html-keyboard-response","283","164407","0.0-283.0","3F6HPJW4JEMBIRLA691HFBRU07HW29","AKX4H8RT7BL7H","3WPCIUYH1AU470H2HRBLZRFBM95TDS","","null","<img src=""img/flower4.png"" style=""width:200px; border:14px solid green;"">","null","","","","","","","","",""
"","image-keyboard-response","284","165127","0.0-284.0","3F6HPJW4JEMBIRLA691HFBRU07HW29","AKX4H8RT7BL7H","3WPCIUYH1AU470H2HRBLZRFBM95TDS","","718.6999998092651","img/flower1.png","74","719.8000001907349","1","1","1","1","1,0.333,0.333,0.333,1,0.333,0.333,0.333,1","1,0.333,0.333,0.333,1,0.333,0.333,0.333,1","1",""
"","html-keyboard-response","285","165434","0.0-285.0","3F6HPJW4JEMBIRLA691HFBRU07HW29","AKX4H8RT7BL7H","3WPCIUYH1AU470H2HRBLZRFBM95TDS","","null","<img src=""img/flower1.png"" style=""width:200px; border:14px solid green;"">","null","","","","","","","","",""
"","image-keyboard-response","286","166333","0.0-286.0","3F6HPJW4JEMBIRLA691HFBRU07HW29","AKX4H8RT7BL7H","3WPCIUYH1AU470H2HRBLZRFBM95TDS","","897","img/flower4.png","76","899.1000003814697","3","1","3","1","1,0.333,0.333,0.333,1,0.333,0.333,0.333,1","1,0.333,0.333,0.333,1,0.333,0.333,0.333,1","1",""
"","html-keyboard-response","287","166639","0.0-287.0","3F6HPJW4JEMBIRLA691HFBRU07HW29","AKX4H8RT7BL7H","3WPCIUYH1AU470H2HRBLZRFBM95TDS","","null","<img src=""img/flower4.png"" style=""width:200px; border:14px solid green;"">","null","","","","","","","","",""
"","image-keyboard-response","288","167124","0.0-288.0","3F6HPJW4JEMBIRLA691HFBRU07HW29","AKX4H8RT7BL7H","3WPCIUYH1AU470H2HRBLZRFBM95TDS","","483.80000019073486","img/flower4.png","76","484.5","3","1","3","1","1,0.333,0.333,0.333,1,0.333,0.333,0.333,1","1,0.333,0.333,0.333,1,0.333,0.333,0.333,1","1",""
"","html-keyboard-response","289","167431","0.0-289.0","3F6HPJW4JEMBIRLA691HFBRU07HW29","AKX4H8RT7BL7H","3WPCIUYH1AU470H2HRBLZRFBM95TDS","","null","<img src=""img/flower4.png"" style=""width:200px; border:14px solid green;"">","null","","","","","","","","",""
"","image-keyboard-response","290","168278","0.0-290.0","3F6HPJW4JEMBIRLA691HFBRU07HW29","AKX4H8RT7BL7H","3WPCIUYH1AU470H2HRBLZRFBM95TDS","","845.1000003814697","img/flower1.png","74","846.8000001907349","1","1","1","1","1,0.333,0.333,0.333,1,0.333,0.333,0.333,1","1,0.333,0.333,0.333,1,0.333,0.333,0.333,1","1",""
"","html-keyboard-response","291","168585","0.0-291.0","3F6HPJW4JEMBIRLA691HFBRU07HW29","AKX4H8RT7BL7H","3WPCIUYH1AU470H2HRBLZRFBM95TDS","","null","<img src=""img/flower1.png"" style=""width:200px; border:14px solid green;"">","null","","","","","","","","",""
"","image-keyboard-response","292","168981","0.0-292.0","3F6HPJW4JEMBIRLA691HFBRU07HW29","AKX4H8RT7BL7H","3WPCIUYH1AU470H2HRBLZRFBM95TDS","","395.4000005722046","img/flower1.png","74","396.20000076293945","1","1","1","1","1,0.333,0.333,0.333,1,0.333,0.333,0.333,1","1,0.333,0.333,0.333,1,0.333,0.333,0.333,1","1",""
"","html-keyboard-response","293","169287","0.0-293.0","3F6HPJW4JEMBIRLA691HFBRU07HW29","AKX4H8RT7BL7H","3WPCIUYH1AU470H2HRBLZRFBM95TDS","","null","<img src=""img/flower1.png"" style=""width:200px; border:14px solid green;"">","null","","","","","","","","",""
"","image-keyboard-response","294","170020","0.0-294.0","3F6HPJW4JEMBIRLA691HFBRU07HW29","AKX4H8RT7BL7H","3WPCIUYH1AU470H2HRBLZRFBM95TDS","","731","img/flower4.png","76","732.3999996185303","3","1","3","1","1,0.333,0.333,0.333,1,0.333,0.333,0.333,1","1,0.333,0.333,0.333,1,0.333,0.333,0.333,1","1",""
"","html-keyboard-response","295","170327","0.0-295.0","3F6HPJW4JEMBIRLA691HFBRU07HW29","AKX4H8RT7BL7H","3WPCIUYH1AU470H2HRBLZRFBM95TDS","","null","<img src=""img/flower4.png"" style=""width:200px; border:14px solid green;"">","null","","","","","","","","",""
"","image-keyboard-response","296","171071","0.0-296.0","3F6HPJW4JEMBIRLA691HFBRU07HW29","AKX4H8RT7BL7H","3WPCIUYH1AU470H2HRBLZRFBM95TDS","","742.1999998092651","img/flower3.png","75","744.1999998092651","2","1","2","1","1,0.333,0.333,0.333,1,0.333,0.333,0.333,1","1,0.333,0.333,0.333,1,0.333,0.333,0.333,1","1",""
"","html-keyboard-response","297","171378","0.0-297.0","3F6HPJW4JEMBIRLA691HFBRU07HW29","AKX4H8RT7BL7H","3WPCIUYH1AU470H2HRBLZRFBM95TDS","","null","<img src=""img/flower3.png"" style=""width:200px; border:14px solid green;"">","null","","","","","","","","",""
"","image-keyboard-response","298","172096","0.0-298.0","3F6HPJW4JEMBIRLA691HFBRU07HW29","AKX4H8RT7BL7H","3WPCIUYH1AU470H2HRBLZRFBM95TDS","","715.6999998092651","img/flower4.png","76","717.0999994277954","3","1","3","1","1,0.333,0.333,0.333,1,0.333,0.333,0.333,1","1,0.333,0.333,0.333,1,0.333,0.333,0.333,1","1",""
"","html-keyboard-response","299","172398","0.0-299.0","3F6HPJW4JEMBIRLA691HFBRU07HW29","AKX4H8RT7BL7H","3WPCIUYH1AU470H2HRBLZRFBM95TDS","","null","<img src=""img/flower4.png"" style=""width:200px; border:14px solid green;"">","null","","","","","","","","",""
"","image-keyboard-response","300","173098","0.0-300.0","3F6HPJW4JEMBIRLA691HFBRU07HW29","AKX4H8RT7BL7H","3WPCIUYH1AU470H2HRBLZRFBM95TDS","","697.8999996185303","img/flower3.png","75","699.5","2","1","2","1","1,0.333,0.333,0.333,1,0.333,0.333,0.333,1","1,0.333,0.333,0.333,1,0.333,0.333,0.333,1","1",""
"","html-keyboard-response","301","173405","0.0-301.0","3F6HPJW4JEMBIRLA691HFBRU07HW29","AKX4H8RT7BL7H","3WPCIUYH1AU470H2HRBLZRFBM95TDS","","null","<img src=""img/flower3.png"" style=""width:200px; border:14px solid green;"">","null","","","","","","","","",""
"","image-keyboard-response","302","174120","0.0-302.0","3F6HPJW4JEMBIRLA691HFBRU07HW29","AKX4H8RT7BL7H","3WPCIUYH1AU470H2HRBLZRFBM95TDS","","713.8999996185303","img/flower1.png","74","715.5999994277954","1","1","1","1","1,0.333,0.333,0.333,1,0.333,0.333,0.333,1","1,0.333,0.333,0.333,1,0.333,0.333,0.333,1","1",""
"","html-keyboard-response","303","174424","0.0-303.0","3F6HPJW4JEMBIRLA691HFBRU07HW29","AKX4H8RT7BL7H","3WPCIUYH1AU470H2HRBLZRFBM95TDS","","null","<img src=""img/flower1.png"" style=""width:200px; border:14px solid green;"">","null","","","","","","","","",""
"","image-keyboard-response","304","174829","0.0-304.0","3F6HPJW4JEMBIRLA691HFBRU07HW29","AKX4H8RT7BL7H","3WPCIUYH1AU470H2HRBLZRFBM95TDS","","403.69999980926514","img/flower1.png","74","405.30000019073486","1","1","1","1","1,0.333,0.333,0.333,1,0.333,0.333,0.333,1","1,0.333,0.333,0.333,1,0.333,0.333,0.333,1","1",""
"","html-keyboard-response","305","175137","0.0-305.0","3F6HPJW4JEMBIRLA691HFBRU07HW29","AKX4H8RT7BL7H","3WPCIUYH1AU470H2HRBLZRFBM95TDS","","null","<img src=""img/flower1.png"" style=""width:200px; border:14px solid green;"">","null","","","","","","","","",""
"","image-keyboard-response","306","175453","0.0-306.0","3F6HPJW4JEMBIRLA691HFBRU07HW29","AKX4H8RT7BL7H","3WPCIUYH1AU470H2HRBLZRFBM95TDS","","314.29999923706055","img/flower1.png","74","316.1000003814697","1","1","1","1","1,0.333,0.333,0.333,1,0.333,0.333,0.333,1","1,0.333,0.333,0.333,1,0.333,0.333,0.333,1","1",""
"","html-keyboard-response","307","175760","0.0-307.0","3F6HPJW4JEMBIRLA691HFBRU07HW29","AKX4H8RT7BL7H","3WPCIUYH1AU470H2HRBLZRFBM95TDS","","null","<img src=""img/flower1.png"" style=""width:200px; border:14px solid green;"">","null","","","","","","","","",""
"","image-keyboard-response","308","176528","0.0-308.0","3F6HPJW4JEMBIRLA691HFBRU07HW29","AKX4H8RT7BL7H","3WPCIUYH1AU470H2HRBLZRFBM95TDS","","765.5","img/flower4.png","76","767.0999994277954","3","1","3","1","1,0.333,0.333,0.333,1,0.333,0.333,0.333,1","1,0.333,0.333,0.333,1,0.333,0.333,0.333,1","1",""
"","html-keyboard-response","309","176831","0.0-309.0","3F6HPJW4JEMBIRLA691HFBRU07HW29","AKX4H8RT7BL7H","3WPCIUYH1AU470H2HRBLZRFBM95TDS","","null","<img src=""img/flower4.png"" style=""width:200px; border:14px solid green;"">","null","","","","","","","","",""
"","image-keyboard-response","310","177578","0.0-310.0","3F6HPJW4JEMBIRLA691HFBRU07HW29","AKX4H8RT7BL7H","3WPCIUYH1AU470H2HRBLZRFBM95TDS","","745.5999994277954","img/flower3.png","75","747.5","2","1","2","1","1,0.333,0.333,0.333,1,0.333,0.333,0.333,1","1,0.333,0.333,0.333,1,0.333,0.333,0.333,1","1",""
"","html-keyboard-response","311","177885","0.0-311.0","3F6HPJW4JEMBIRLA691HFBRU07HW29","AKX4H8RT7BL7H","3WPCIUYH1AU470H2HRBLZRFBM95TDS","","null","<img src=""img/flower3.png"" style=""width:200px; border:14px solid green;"">","null","","","","","","","","",""
"","image-keyboard-response","312","178559","0.0-312.0","3F6HPJW4JEMBIRLA691HFBRU07HW29","AKX4H8RT7BL7H","3WPCIUYH1AU470H2HRBLZRFBM95TDS","","673.1000003814697","img/flower1.png","74","673.6000003814697","1","1","1","1","1,0.333,0.333,0.333,1,0.333,0.333,0.333,1","1,0.333,0.333,0.333,1,0.333,0.333,0.333,1","1",""
"","html-keyboard-response","313","178860","0.0-313.0","3F6HPJW4JEMBIRLA691HFBRU07HW29","AKX4H8RT7BL7H","3WPCIUYH1AU470H2HRBLZRFBM95TDS","","null","<img src=""img/flower1.png"" style=""width:200px; border:14px solid green;"">","null","","","","","","","","",""
"","image-keyboard-response","314","180046","0.0-314.0","3F6HPJW4JEMBIRLA691HFBRU07HW29","AKX4H8RT7BL7H","3WPCIUYH1AU470H2HRBLZRFBM95TDS","","1183.7999992370605","img/flower3.png","75","1185.2000007629395","2","1","2","1","1,0.333,0.333,0.333,1,0.333,0.333,0.333,1","1,0.333,0.333,0.333,1,0.333,0.333,0.333,1","1",""
"","html-keyboard-response","315","180352","0.0-315.0","3F6HPJW4JEMBIRLA691HFBRU07HW29","AKX4H8RT7BL7H","3WPCIUYH1AU470H2HRBLZRFBM95TDS","","null","<img src=""img/flower3.png"" style=""width:200px; border:14px solid green;"">","null","","","","","","","","",""
"","image-keyboard-response","316","181013","0.0-316.0","3F6HPJW4JEMBIRLA691HFBRU07HW29","AKX4H8RT7BL7H","3WPCIUYH1AU470H2HRBLZRFBM95TDS","","659.1999998092651","img/flower1.png","74","661","1","1","1","1","1,0.333,0.333,0.333,1,0.333,0.333,0.333,1","1,0.333,0.333,0.333,1,0.333,0.333,0.333,1","1",""
"","html-keyboard-response","317","181317","0.0-317.0","3F6HPJW4JEMBIRLA691HFBRU07HW29","AKX4H8RT7BL7H","3WPCIUYH1AU470H2HRBLZRFBM95TDS","","null","<img src=""img/flower1.png"" style=""width:200px; border:14px solid green;"">","null","","","","","","","","",""
"","image-keyboard-response","318","181805","0.0-318.0","3F6HPJW4JEMBIRLA691HFBRU07HW29","AKX4H8RT7BL7H","3WPCIUYH1AU470H2HRBLZRFBM95TDS","","485.5","img/flower1.png","74","487.30000019073486","1","1","1","1","1,0.333,0.333,0.333,1,0.333,0.333,0.333,1","1,0.333,0.333,0.333,1,0.333,0.333,0.333,1","1",""
"","html-keyboard-response","319","182108","0.0-319.0","3F6HPJW4JEMBIRLA691HFBRU07HW29","AKX4H8RT7BL7H","3WPCIUYH1AU470H2HRBLZRFBM95TDS","","null","<img src=""img/flower1.png"" style=""width:200px; border:14px solid green;"">","null","","","","","","","","",""
"","image-keyboard-response","320","182468","0.0-320.0","3F6HPJW4JEMBIRLA691HFBRU07HW29","AKX4H8RT7BL7H","3WPCIUYH1AU470H2HRBLZRFBM95TDS","","358.4000005722046","img/flower1.png","74","359.69999980926514","1","1","1","1","1,0.333,0.333,0.333,1,0.333,0.333,0.333,1","1,0.333,0.333,0.333,1,0.333,0.333,0.333,1","1",""
"","html-keyboard-response","321","182775","0.0-321.0","3F6HPJW4JEMBIRLA691HFBRU07HW29","AKX4H8RT7BL7H","3WPCIUYH1AU470H2HRBLZRFBM95TDS","","null","<img src=""img/flower1.png"" style=""width:200px; border:14px solid green;"">","null","","","","","","","","",""
"","image-keyboard-response","322","183102","0.0-322.0","3F6HPJW4JEMBIRLA691HFBRU07HW29","AKX4H8RT7BL7H","3WPCIUYH1AU470H2HRBLZRFBM95TDS","","326","img/flower1.png","74","327","1","1","1","1","1,0.333,0.333,0.333,1,0.333,0.333,0.333,1","1,0.333,0.333,0.333,1,0.333,0.333,0.333,1","1",""
"","html-keyboard-response","323","183408","0.0-323.0","3F6HPJW4JEMBIRLA691HFBRU07HW29","AKX4H8RT7BL7H","3WPCIUYH1AU470H2HRBLZRFBM95TDS","","null","<img src=""img/flower1.png"" style=""width:200px; border:14px solid green;"">","null","","","","","","","","",""
"","image-keyboard-response","324","183752","0.0-324.0","3F6HPJW4JEMBIRLA691HFBRU07HW29","AKX4H8RT7BL7H","3WPCIUYH1AU470H2HRBLZRFBM95TDS","","341.20000076293945","img/flower1.png","74","343","1","1","1","1","1,0.333,0.333,0.333,1,0.333,0.333,0.333,1","1,0.333,0.333,0.333,1,0.333,0.333,0.333,1","1",""
"","html-keyboard-response","325","184058","0.0-325.0","3F6HPJW4JEMBIRLA691HFBRU07HW29","AKX4H8RT7BL7H","3WPCIUYH1AU470H2HRBLZRFBM95TDS","","null","<img src=""img/flower1.png"" style=""width:200px; border:14px solid green;"">","null","","","","","","","","",""
"","image-keyboard-response","326","184672","0.0-326.0","3F6HPJW4JEMBIRLA691HFBRU07HW29","AKX4H8RT7BL7H","3WPCIUYH1AU470H2HRBLZRFBM95TDS","","613.8999996185303","img/flower4.png","76","614.5","3","1","3","1","1,0.333,0.333,0.333,1,0.333,0.333,0.333,1","1,0.333,0.333,0.333,1,0.333,0.333,0.333,1","1",""
"","html-keyboard-response","327","184979","0.0-327.0","3F6HPJW4JEMBIRLA691HFBRU07HW29","AKX4H8RT7BL7H","3WPCIUYH1AU470H2HRBLZRFBM95TDS","","null","<img src=""img/flower4.png"" style=""width:200px; border:14px solid green;"">","null","","","","","","","","",""
"","image-keyboard-response","328","185461","0.0-328.0","3F6HPJW4JEMBIRLA691HFBRU07HW29","AKX4H8RT7BL7H","3WPCIUYH1AU470H2HRBLZRFBM95TDS","","480.79999923706055","img/flower4.png","76","482.20000076293945","3","1","3","1","1,0.333,0.333,0.333,1,0.333,0.333,0.333,1","1,0.333,0.333,0.333,1,0.333,0.333,0.333,1","1",""
"","html-keyboard-response","329","185765","0.0-329.0","3F6HPJW4JEMBIRLA691HFBRU07HW29","AKX4H8RT7BL7H","3WPCIUYH1AU470H2HRBLZRFBM95TDS","","null","<img src=""img/flower4.png"" style=""width:200px; border:14px solid green;"">","null","","","","","","","","",""
"","image-keyboard-response","330","186638","0.0-330.0","3F6HPJW4JEMBIRLA691HFBRU07HW29","AKX4H8RT7BL7H","3WPCIUYH1AU470H2HRBLZRFBM95TDS","","871.7000007629395","img/flower1.png","74","873.1000003814697","1","1","1","1","1,0.333,0.333,0.333,1,0.333,0.333,0.333,1","1,0.333,0.333,0.333,1,0.333,0.333,0.333,1","1",""
"","html-keyboard-response","331","186946","0.0-331.0","3F6HPJW4JEMBIRLA691HFBRU07HW29","AKX4H8RT7BL7H","3WPCIUYH1AU470H2HRBLZRFBM95TDS","","null","<img src=""img/flower1.png"" style=""width:200px; border:14px solid green;"">","null","","","","","","","","",""
"","image-keyboard-response","332","187676","0.0-332.0","3F6HPJW4JEMBIRLA691HFBRU07HW29","AKX4H8RT7BL7H","3WPCIUYH1AU470H2HRBLZRFBM95TDS","","728.5","img/flower4.png","76","730","3","1","3","1","1,0.333,0.333,0.333,1,0.333,0.333,0.333,1","1,0.333,0.333,0.333,1,0.333,0.333,0.333,1","1",""
"","html-keyboard-response","333","187983","0.0-333.0","3F6HPJW4JEMBIRLA691HFBRU07HW29","AKX4H8RT7BL7H","3WPCIUYH1AU470H2HRBLZRFBM95TDS","","null","<img src=""img/flower4.png"" style=""width:200px; border:14px solid green;"">","null","","","","","","","","",""
"","image-keyboard-response","334","188386","0.0-334.0","3F6HPJW4JEMBIRLA691HFBRU07HW29","AKX4H8RT7BL7H","3WPCIUYH1AU470H2HRBLZRFBM95TDS","","402.5999994277954","img/flower4.png","76","403.0999994277954","3","1","3","1","1,0.333,0.333,0.333,1,0.333,0.333,0.333,1","1,0.333,0.333,0.333,1,0.333,0.333,0.333,1","1",""
"","html-keyboard-response","335","188691","0.0-335.0","3F6HPJW4JEMBIRLA691HFBRU07HW29","AKX4H8RT7BL7H","3WPCIUYH1AU470H2HRBLZRFBM95TDS","","null","<img src=""img/flower4.png"" style=""width:200px; border:14px solid green;"">","null","","","","","","","","",""
"","image-keyboard-response","336","189395","0.0-336.0","3F6HPJW4JEMBIRLA691HFBRU07HW29","AKX4H8RT7BL7H","3WPCIUYH1AU470H2HRBLZRFBM95TDS","","703","img/flower3.png","75","704","2","1","2","1","1,0.333,0.333,0.333,1,0.333,0.333,0.333,1","1,0.333,0.333,0.333,1,0.333,0.333,0.333,1","1",""
"","html-keyboard-response","337","189702","0.0-337.0","3F6HPJW4JEMBIRLA691HFBRU07HW29","AKX4H8RT7BL7H","3WPCIUYH1AU470H2HRBLZRFBM95TDS","","null","<img src=""img/flower3.png"" style=""width:200px; border:14px solid green;"">","null","","","","","","","","",""
"","image-keyboard-response","338","190060","0.0-338.0","3F6HPJW4JEMBIRLA691HFBRU07HW29","AKX4H8RT7BL7H","3WPCIUYH1AU470H2HRBLZRFBM95TDS","","356.20000076293945","img/flower3.png","75","357.19999980926514","2","1","2","1","1,0.333,0.333,0.333,1,0.333,0.333,0.333,1","1,0.333,0.333,0.333,1,0.333,0.333,0.333,1","1",""
"","html-keyboard-response","339","190366","0.0-339.0","3F6HPJW4JEMBIRLA691HFBRU07HW29","AKX4H8RT7BL7H","3WPCIUYH1AU470H2HRBLZRFBM95TDS","","null","<img src=""img/flower3.png"" style=""width:200px; border:14px solid green;"">","null","","","","","","","","",""
"","image-keyboard-response","340","191167","0.0-340.0","3F6HPJW4JEMBIRLA691HFBRU07HW29","AKX4H8RT7BL7H","3WPCIUYH1AU470H2HRBLZRFBM95TDS","","798.3999996185303","img/flower4.png","76","800.1999998092651","3","1","3","1","1,0.333,0.333,0.333,1,0.333,0.333,0.333,1","1,0.333,0.333,0.333,1,0.333,0.333,0.333,1","1",""
"","html-keyboard-response","341","191474","0.0-341.0","3F6HPJW4JEMBIRLA691HFBRU07HW29","AKX4H8RT7BL7H","3WPCIUYH1AU470H2HRBLZRFBM95TDS","","null","<img src=""img/flower4.png"" style=""width:200px; border:14px solid green;"">","null","","","","","","","","",""
"","image-keyboard-response","342","192167","0.0-342.0","3F6HPJW4JEMBIRLA691HFBRU07HW29","AKX4H8RT7BL7H","3WPCIUYH1AU470H2HRBLZRFBM95TDS","","691.3999996185303","img/flower1.png","74","693.0999994277954","1","1","1","1","1,0.333,0.333,0.333,1,0.333,0.333,0.333,1","1,0.333,0.333,0.333,1,0.333,0.333,0.333,1","1",""
"","html-keyboard-response","343","192474","0.0-343.0","3F6HPJW4JEMBIRLA691HFBRU07HW29","AKX4H8RT7BL7H","3WPCIUYH1AU470H2HRBLZRFBM95TDS","","null","<img src=""img/flower1.png"" style=""width:200px; border:14px solid green;"">","null","","","","","","","","",""
"","image-keyboard-response","344","193412","0.0-344.0","3F6HPJW4JEMBIRLA691HFBRU07HW29","AKX4H8RT7BL7H","3WPCIUYH1AU470H2HRBLZRFBM95TDS","","935.0999994277954","img/flower3.png","75","937.2000007629395","2","1","2","1","1,0.333,0.333,0.333,1,0.333,0.333,0.333,1","1,0.333,0.333,0.333,1,0.333,0.333,0.333,1","1",""
"","html-keyboard-response","345","193718","0.0-345.0","3F6HPJW4JEMBIRLA691HFBRU07HW29","AKX4H8RT7BL7H","3WPCIUYH1AU470H2HRBLZRFBM95TDS","","null","<img src=""img/flower3.png"" style=""width:200px; border:14px solid green;"">","null","","","","","","","","",""
"","image-keyboard-response","346","194112","0.0-346.0","3F6HPJW4JEMBIRLA691HFBRU07HW29","AKX4H8RT7BL7H","3WPCIUYH1AU470H2HRBLZRFBM95TDS","","392.69999980926514","img/flower3.png","75","393.5999994277954","2","1","2","1","1,0.333,0.333,0.333,1,0.333,0.333,0.333,1","1,0.333,0.333,0.333,1,0.333,0.333,0.333,1","1",""
"","html-keyboard-response","347","194417","0.0-347.0","3F6HPJW4JEMBIRLA691HFBRU07HW29","AKX4H8RT7BL7H","3WPCIUYH1AU470H2HRBLZRFBM95TDS","","null","<img src=""img/flower3.png"" style=""width:200px; border:14px solid green;"">","null","","","","","","","","",""
"","image-keyboard-response","348","194777","0.0-348.0","3F6HPJW4JEMBIRLA691HFBRU07HW29","AKX4H8RT7BL7H","3WPCIUYH1AU470H2HRBLZRFBM95TDS","","359.1000003814697","img/flower3.png","75","360.5","2","1","2","1","1,0.333,0.333,0.333,1,0.333,0.333,0.333,1","1,0.333,0.333,0.333,1,0.333,0.333,0.333,1","1",""
"","html-keyboard-response","349","195084","0.0-349.0","3F6HPJW4JEMBIRLA691HFBRU07HW29","AKX4H8RT7BL7H","3WPCIUYH1AU470H2HRBLZRFBM95TDS","","null","<img src=""img/flower3.png"" style=""width:200px; border:14px solid green;"">","null","","","","","","","","",""
"","image-keyboard-response","350","195427","0.0-350.0","3F6HPJW4JEMBIRLA691HFBRU07HW29","AKX4H8RT7BL7H","3WPCIUYH1AU470H2HRBLZRFBM95TDS","","340.79999923706055","img/flower3.png","75","342.69999980926514","2","1","2","1","1,0.333,0.333,0.333,1,0.333,0.333,0.333,1","1,0.333,0.333,0.333,1,0.333,0.333,0.333,1","1",""
"","html-keyboard-response","351","195732","0.0-351.0","3F6HPJW4JEMBIRLA691HFBRU07HW29","AKX4H8RT7BL7H","3WPCIUYH1AU470H2HRBLZRFBM95TDS","","null","<img src=""img/flower3.png"" style=""width:200px; border:14px solid green;"">","null","","","","","","","","",""
"","image-keyboard-response","352","196051","0.0-352.0","3F6HPJW4JEMBIRLA691HFBRU07HW29","AKX4H8RT7BL7H","3WPCIUYH1AU470H2HRBLZRFBM95TDS","","317.3999996185303","img/flower3.png","75","319","2","1","2","1","1,0.333,0.333,0.333,1,0.333,0.333,0.333,1","1,0.333,0.333,0.333,1,0.333,0.333,0.333,1","1",""
"","html-keyboard-response","353","196358","0.0-353.0","3F6HPJW4JEMBIRLA691HFBRU07HW29","AKX4H8RT7BL7H","3WPCIUYH1AU470H2HRBLZRFBM95TDS","","null","<img src=""img/flower3.png"" style=""width:200px; border:14px solid green;"">","null","","","","","","","","",""
"","image-keyboard-response","354","197586","0.0-354.0","3F6HPJW4JEMBIRLA691HFBRU07HW29","AKX4H8RT7BL7H","3WPCIUYH1AU470H2HRBLZRFBM95TDS","","1226","img/flower1.png","76","1227.8999996185303","3","0","1","1","1,0.333,0.333,0.333,1,0.333,0.333,0.333,1","1,0.333,0.333,0.333,1,0.333,0.333,0.333,1","1",""
"","html-keyboard-response","355","197894","0.0-355.0","3F6HPJW4JEMBIRLA691HFBRU07HW29","AKX4H8RT7BL7H","3WPCIUYH1AU470H2HRBLZRFBM95TDS","","null","<img src=""img/flower1.png"" style=""width:200px;border:14px solid red;"">","null","","","","","","","","",""
"","image-keyboard-response","356","198225","0.0-356.0","3F6HPJW4JEMBIRLA691HFBRU07HW29","AKX4H8RT7BL7H","3WPCIUYH1AU470H2HRBLZRFBM95TDS","","330.1000003814697","img/flower1.png","74","331","1","1","1","1","1,0.333,0.333,0.333,1,0.333,0.333,0.333,1","1,0.333,0.333,0.333,1,0.333,0.333,0.333,1","1",""
"","html-keyboard-response","357","198530","0.0-357.0","3F6HPJW4JEMBIRLA691HFBRU07HW29","AKX4H8RT7BL7H","3WPCIUYH1AU470H2HRBLZRFBM95TDS","","null","<img src=""img/flower1.png"" style=""width:200px; border:14px solid green;"">","null","","","","","","","","",""
"","image-keyboard-response","358","199196","0.0-358.0","3F6HPJW4JEMBIRLA691HFBRU07HW29","AKX4H8RT7BL7H","3WPCIUYH1AU470H2HRBLZRFBM95TDS","","665","img/flower4.png","76","666","3","1","3","1","1,0.333,0.333,0.333,1,0.333,0.333,0.333,1","1,0.333,0.333,0.333,1,0.333,0.333,0.333,1","1",""
"","html-keyboard-response","359","199504","0.0-359.0","3F6HPJW4JEMBIRLA691HFBRU07HW29","AKX4H8RT7BL7H","3WPCIUYH1AU470H2HRBLZRFBM95TDS","","null","<img src=""img/flower4.png"" style=""width:200px; border:14px solid green;"">","null","","","","","","","","",""
"","image-keyboard-response","360","200039","0.0-360.0","3F6HPJW4JEMBIRLA691HFBRU07HW29","AKX4H8RT7BL7H","3WPCIUYH1AU470H2HRBLZRFBM95TDS","","532.6999998092651","img/flower1.png","74","534.1000003814697","1","1","1","1","1,0.333,0.333,0.333,1,0.333,0.333,0.333,1","1,0.333,0.333,0.333,1,0.333,0.333,0.333,1","1",""
"","html-keyboard-response","361","200345","0.0-361.0","3F6HPJW4JEMBIRLA691HFBRU07HW29","AKX4H8RT7BL7H","3WPCIUYH1AU470H2HRBLZRFBM95TDS","","null","<img src=""img/flower1.png"" style=""width:200px; border:14px solid green;"">","null","","","","","","","","",""
"","html-keyboard-response","362","208909","0.0-362.0","3F6HPJW4JEMBIRLA691HFBRU07HW29","AKX4H8RT7BL7H","3WPCIUYH1AU470H2HRBLZRFBM95TDS","","","","","","","","","","","","",""
"","instructions","363","212438","0.0-363.0","3F6HPJW4JEMBIRLA691HFBRU07HW29","AKX4H8RT7BL7H","3WPCIUYH1AU470H2HRBLZRFBM95TDS","[{""page_index"":0,""viewing_time"":3528.0999994277954}]","3528.2999992370605","","","","","","","","","","",""
"","survey-text","364","215222","0.0-364.0","3F6HPJW4JEMBIRLA691HFBRU07HW29","AKX4H8RT7BL7H","3WPCIUYH1AU470H2HRBLZRFBM95TDS","","2780.5","","","","","","","","","","","{""Q0"":""AKX4H8RT7BL7H""}"
