"success","trial_type","trial_index","time_elapsed","internal_node_id","assignmentID","mturkID","hitID","view_history","rt","stimulus","key_press","reactionTime","a","r","s","cond","reward_cond","reward_cond_actual","reward_matrix_idx","responses"
"true","fullscreen","0","3415","0.0-0.0","3N2BF7Y2VRGJS5UELSY1THV5SIJMHD","ALVNMQMD3Q3ZE","3THR0FZ95PF7SK0MYRNAOUHTWDJOLG","","","","","","","","","","","","",""
"","instructions","1","39081","0.0-1.0","3N2BF7Y2VRGJS5UELSY1THV5SIJMHD","ALVNMQMD3Q3ZE","3THR0FZ95PF7SK0MYRNAOUHTWDJOLG","[{""page_index"":0,""viewing_time"":2508.4000000953674},{""page_index"":1,""viewing_time"":6790.599999904633},{""page_index"":2,""viewing_time"":4061.5999999046326},{""page_index"":3,""viewing_time"":2897.2000000476837},{""page_index"":4,""viewing_time"":6552.100000143051},{""page_index"":5,""viewing_time"":5818.5},{""page_index"":6,""viewing_time"":5368.5},{""page_index"":7,""viewing_time"":1666.0999999046326}]","35663.5","","","","","","","","","","",""
"","image-keyboard-response","2","40011","0.0-2.0","3N2BF7Y2VRGJS5UELSY1THV5SIJMHD","ALVNMQMD3Q3ZE","3THR0FZ95PF7SK0MYRNAOUHTWDJOLG","","928","img/flower2.png","74","929.5","1","1","3","2","1,0,0,1,1,0,1,0,1","1,0,0,1,1,0,1,0,1","1",""
"","html-keyboard-response","3","40313","0.0-3.0","3N2BF7Y2VRGJS5UELSY1THV5SIJMHD","ALVNMQMD3Q3ZE","3THR0FZ95PF7SK0MYRNAOUHTWDJOLG","","null","<img src=""img/flower2.png"" style=""width:200px; border:14px solid green;"">","null","","","","","","","","",""
"","image-keyboard-response","4","41162","0.0-4.0","3N2BF7Y2VRGJS5UELSY1THV5SIJMHD","ALVNMQMD3Q3ZE","3THR0FZ95PF7SK0MYRNAOUHTWDJOLG","","847","img/flower6.png","75","847.9000000953674","2","1","2","2","1,0,0,1,1,0,1,0,1","1,0,0,1,1,0,1,0,1","1",""
"","html-keyboard-response","5","41464","0.0-5.0","3N2BF7Y2VRGJS5UELSY1THV5SIJMHD","ALVNMQMD3Q3ZE","3THR0FZ95PF7SK0MYRNAOUHTWDJOLG","","null","<img src=""img/flower6.png"" style=""width:200px; border:14px solid green;"">","null","","","","","","","","",""
"","image-keyboard-response","6","42075","0.0-6.0","3N2BF7Y2VRGJS5UELSY1THV5SIJMHD","ALVNMQMD3Q3ZE","3THR0FZ95PF7SK0MYRNAOUHTWDJOLG","","610.3999998569489","img/flower6.png","75","611.2999999523163","2","1","2","2","1,0,0,1,1,0,1,0,1","1,0,0,1,1,0,1,0,1","1",""
"","html-keyboard-response","7","42377","0.0-7.0","3N2BF7Y2VRGJS5UELSY1THV5SIJMHD","ALVNMQMD3Q3ZE","3THR0FZ95PF7SK0MYRNAOUHTWDJOLG","","null","<img src=""img/flower6.png"" style=""width:200px; border:14px solid green;"">","null","","","","","","","","",""
"","image-keyboard-response","8","42882","0.0-8.0","3N2BF7Y2VRGJS5UELSY1THV5SIJMHD","ALVNMQMD3Q3ZE","3THR0FZ95PF7SK0MYRNAOUHTWDJOLG","","503.40000009536743","img/flower1.png","75","504.2000000476837","2","0","1","2","1,0,0,1,1,0,1,0,1","1,0,0,1,1,0,1,0,1","1",""
"","html-keyboard-response","9","43184","0.0-9.0","3N2BF7Y2VRGJS5UELSY1THV5SIJMHD","ALVNMQMD3Q3ZE","3THR0FZ95PF7SK0MYRNAOUHTWDJOLG","","null","<img src=""img/flower1.png"" style=""width:200px;border:14px solid red;"">","null","","","","","","","","",""
"","image-keyboard-response","10","43637","0.0-10.0","3N2BF7Y2VRGJS5UELSY1THV5SIJMHD","ALVNMQMD3Q3ZE","3THR0FZ95PF7SK0MYRNAOUHTWDJOLG","","451.69999980926514","img/flower1.png","74","453","1","1","1","2","1,0,0,1,1,0,1,0,1","1,0,0,1,1,0,1,0,1","1",""
"","html-keyboard-response","11","43940","0.0-11.0","3N2BF7Y2VRGJS5UELSY1THV5SIJMHD","ALVNMQMD3Q3ZE","3THR0FZ95PF7SK0MYRNAOUHTWDJOLG","","null","<img src=""img/flower1.png"" style=""width:200px; border:14px solid green;"">","null","","","","","","","","",""
"","image-keyboard-response","12","44655","0.0-12.0","3N2BF7Y2VRGJS5UELSY1THV5SIJMHD","ALVNMQMD3Q3ZE","3THR0FZ95PF7SK0MYRNAOUHTWDJOLG","","707.5","img/flower6.png","74","708.2999999523163","1","1","2","2","1,0,0,1,1,0,1,0,1","1,0,0,1,1,0,1,0,1","1",""
"","html-keyboard-response","13","44956","0.0-13.0","3N2BF7Y2VRGJS5UELSY1THV5SIJMHD","ALVNMQMD3Q3ZE","3THR0FZ95PF7SK0MYRNAOUHTWDJOLG","","null","<img src=""img/flower6.png"" style=""width:200px; border:14px solid green;"">","null","","","","","","","","",""
"","image-keyboard-response","14","45705","0.0-14.0","3N2BF7Y2VRGJS5UELSY1THV5SIJMHD","ALVNMQMD3Q3ZE","3THR0FZ95PF7SK0MYRNAOUHTWDJOLG","","747.8999998569489","img/flower6.png","74","748.7000000476837","1","1","2","2","1,0,0,1,1,0,1,0,1","1,0,0,1,1,0,1,0,1","1",""
"","html-keyboard-response","15","46007","0.0-15.0","3N2BF7Y2VRGJS5UELSY1THV5SIJMHD","ALVNMQMD3Q3ZE","3THR0FZ95PF7SK0MYRNAOUHTWDJOLG","","null","<img src=""img/flower6.png"" style=""width:200px; border:14px solid green;"">","null","","","","","","","","",""
"","image-keyboard-response","16","46629","0.0-16.0","3N2BF7Y2VRGJS5UELSY1THV5SIJMHD","ALVNMQMD3Q3ZE","3THR0FZ95PF7SK0MYRNAOUHTWDJOLG","","620.5999999046326","img/flower6.png","74","621.5","1","1","2","2","1,0,0,1,1,0,1,0,1","1,0,0,1,1,0,1,0,1","1",""
"","html-keyboard-response","17","46930","0.0-17.0","3N2BF7Y2VRGJS5UELSY1THV5SIJMHD","ALVNMQMD3Q3ZE","3THR0FZ95PF7SK0MYRNAOUHTWDJOLG","","null","<img src=""img/flower6.png"" style=""width:200px; border:14px solid green;"">","null","","","","","","","","",""
"","image-keyboard-response","18","47637","0.0-18.0","3N2BF7Y2VRGJS5UELSY1THV5SIJMHD","ALVNMQMD3Q3ZE","3THR0FZ95PF7SK0MYRNAOUHTWDJOLG","","705","img/flower1.png","74","706","1","1","1","2","1,0,0,1,1,0,1,0,1","1,0,0,1,1,0,1,0,1","1",""
"","html-keyboard-response","19","47939","0.0-19.0","3N2BF7Y2VRGJS5UELSY1THV5SIJMHD","ALVNMQMD3Q3ZE","3THR0FZ95PF7SK0MYRNAOUHTWDJOLG","","null","<img src=""img/flower1.png"" style=""width:200px; border:14px solid green;"">","null","","","","","","","","",""
"","image-keyboard-response","20","48597","0.0-20.0","3N2BF7Y2VRGJS5UELSY1THV5SIJMHD","ALVNMQMD3Q3ZE","3THR0FZ95PF7SK0MYRNAOUHTWDJOLG","","656.2999999523163","img/flower2.png","74","657.4000000953674","1","1","3","2","1,0,0,1,1,0,1,0,1","1,0,0,1,1,0,1,0,1","1",""
"","html-keyboard-response","21","48899","0.0-21.0","3N2BF7Y2VRGJS5UELSY1THV5SIJMHD","ALVNMQMD3Q3ZE","3THR0FZ95PF7SK0MYRNAOUHTWDJOLG","","null","<img src=""img/flower2.png"" style=""width:200px; border:14px solid green;"">","null","","","","","","","","",""
"","image-keyboard-response","22","49469","0.0-22.0","3N2BF7Y2VRGJS5UELSY1THV5SIJMHD","ALVNMQMD3Q3ZE","3THR0FZ95PF7SK0MYRNAOUHTWDJOLG","","568.5999999046326","img/flower2.png","74","570.3999998569489","1","1","3","2","1,0,0,1,1,0,1,0,1","1,0,0,1,1,0,1,0,1","1",""
"","html-keyboard-response","23","49770","0.0-23.0","3N2BF7Y2VRGJS5UELSY1THV5SIJMHD","ALVNMQMD3Q3ZE","3THR0FZ95PF7SK0MYRNAOUHTWDJOLG","","null","<img src=""img/flower2.png"" style=""width:200px; border:14px solid green;"">","null","","","","","","","","",""
"","image-keyboard-response","24","50326","0.0-24.0","3N2BF7Y2VRGJS5UELSY1THV5SIJMHD","ALVNMQMD3Q3ZE","3THR0FZ95PF7SK0MYRNAOUHTWDJOLG","","554.8999998569489","img/flower6.png","74","555.6999998092651","1","1","2","2","1,0,0,1,1,0,1,0,1","1,0,0,1,1,0,1,0,1","1",""
"","html-keyboard-response","25","50628","0.0-25.0","3N2BF7Y2VRGJS5UELSY1THV5SIJMHD","ALVNMQMD3Q3ZE","3THR0FZ95PF7SK0MYRNAOUHTWDJOLG","","null","<img src=""img/flower6.png"" style=""width:200px; border:14px solid green;"">","null","","","","","","","","",""
"","image-keyboard-response","26","51193","0.0-26.0","3N2BF7Y2VRGJS5UELSY1THV5SIJMHD","ALVNMQMD3Q3ZE","3THR0FZ95PF7SK0MYRNAOUHTWDJOLG","","564.0999999046326","img/flower2.png","74","565.4000000953674","1","1","3","2","1,0,0,1,1,0,1,0,1","1,0,0,1,1,0,1,0,1","1",""
"","html-keyboard-response","27","51505","0.0-27.0","3N2BF7Y2VRGJS5UELSY1THV5SIJMHD","ALVNMQMD3Q3ZE","3THR0FZ95PF7SK0MYRNAOUHTWDJOLG","","null","<img src=""img/flower2.png"" style=""width:200px; border:14px solid green;"">","null","","","","","","","","",""
"","image-keyboard-response","28","51974","0.0-28.0","3N2BF7Y2VRGJS5UELSY1THV5SIJMHD","ALVNMQMD3Q3ZE","3THR0FZ95PF7SK0MYRNAOUHTWDJOLG","","468.59999990463257","img/flower2.png","74","469.2999999523163","1","1","3","2","1,0,0,1,1,0,1,0,1","1,0,0,1,1,0,1,0,1","1",""
"","html-keyboard-response","29","52276","0.0-29.0","3N2BF7Y2VRGJS5UELSY1THV5SIJMHD","ALVNMQMD3Q3ZE","3THR0FZ95PF7SK0MYRNAOUHTWDJOLG","","null","<img src=""img/flower2.png"" style=""width:200px; border:14px solid green;"">","null","","","","","","","","",""
"","image-keyboard-response","30","52849","0.0-30.0","3N2BF7Y2VRGJS5UELSY1THV5SIJMHD","ALVNMQMD3Q3ZE","3THR0FZ95PF7SK0MYRNAOUHTWDJOLG","","571.5","img/flower1.png","74","572.4000000953674","1","1","1","2","1,0,0,1,1,0,1,0,1","1,0,0,1,1,0,1,0,1","1",""
"","html-keyboard-response","31","53157","0.0-31.0","3N2BF7Y2VRGJS5UELSY1THV5SIJMHD","ALVNMQMD3Q3ZE","3THR0FZ95PF7SK0MYRNAOUHTWDJOLG","","null","<img src=""img/flower1.png"" style=""width:200px; border:14px solid green;"">","null","","","","","","","","",""
"","image-keyboard-response","32","53626","0.0-32.0","3N2BF7Y2VRGJS5UELSY1THV5SIJMHD","ALVNMQMD3Q3ZE","3THR0FZ95PF7SK0MYRNAOUHTWDJOLG","","467.7000000476837","img/flower1.png","74","468.60000014305115","1","1","1","2","1,0,0,1,1,0,1,0,1","1,0,0,1,1,0,1,0,1","1",""
"","html-keyboard-response","33","53939","0.0-33.0","3N2BF7Y2VRGJS5UELSY1THV5SIJMHD","ALVNMQMD3Q3ZE","3THR0FZ95PF7SK0MYRNAOUHTWDJOLG","","null","<img src=""img/flower1.png"" style=""width:200px; border:14px solid green;"">","null","","","","","","","","",""
"","image-keyboard-response","34","54414","0.0-34.0","3N2BF7Y2VRGJS5UELSY1THV5SIJMHD","ALVNMQMD3Q3ZE","3THR0FZ95PF7SK0MYRNAOUHTWDJOLG","","473.60000014305115","img/flower2.png","74","474.5","1","1","3","2","1,0,0,1,1,0,1,0,1","1,0,0,1,1,0,1,0,1","1",""
"","html-keyboard-response","35","54715","0.0-35.0","3N2BF7Y2VRGJS5UELSY1THV5SIJMHD","ALVNMQMD3Q3ZE","3THR0FZ95PF7SK0MYRNAOUHTWDJOLG","","null","<img src=""img/flower2.png"" style=""width:200px; border:14px solid green;"">","null","","","","","","","","",""
"","image-keyboard-response","36","55205","0.0-36.0","3N2BF7Y2VRGJS5UELSY1THV5SIJMHD","ALVNMQMD3Q3ZE","3THR0FZ95PF7SK0MYRNAOUHTWDJOLG","","488.69999980926514","img/flower2.png","74","489.7000000476837","1","1","3","2","1,0,0,1,1,0,1,0,1","1,0,0,1,1,0,1,0,1","1",""
"","html-keyboard-response","37","55507","0.0-37.0","3N2BF7Y2VRGJS5UELSY1THV5SIJMHD","ALVNMQMD3Q3ZE","3THR0FZ95PF7SK0MYRNAOUHTWDJOLG","","null","<img src=""img/flower2.png"" style=""width:200px; border:14px solid green;"">","null","","","","","","","","",""
"","image-keyboard-response","38","56043","0.0-38.0","3N2BF7Y2VRGJS5UELSY1THV5SIJMHD","ALVNMQMD3Q3ZE","3THR0FZ95PF7SK0MYRNAOUHTWDJOLG","","535","img/flower1.png","74","536.2000000476837","1","1","1","2","1,0,0,1,1,0,1,0,1","1,0,0,1,1,0,1,0,1","1",""
"","html-keyboard-response","39","56345","0.0-39.0","3N2BF7Y2VRGJS5UELSY1THV5SIJMHD","ALVNMQMD3Q3ZE","3THR0FZ95PF7SK0MYRNAOUHTWDJOLG","","null","<img src=""img/flower1.png"" style=""width:200px; border:14px solid green;"">","null","","","","","","","","",""
"","image-keyboard-response","40","56870","0.0-40.0","3N2BF7Y2VRGJS5UELSY1THV5SIJMHD","ALVNMQMD3Q3ZE","3THR0FZ95PF7SK0MYRNAOUHTWDJOLG","","524","img/flower1.png","74","524.7999999523163","1","1","1","2","1,0,0,1,1,0,1,0,1","1,0,0,1,1,0,1,0,1","1",""
"","html-keyboard-response","41","57172","0.0-41.0","3N2BF7Y2VRGJS5UELSY1THV5SIJMHD","ALVNMQMD3Q3ZE","3THR0FZ95PF7SK0MYRNAOUHTWDJOLG","","null","<img src=""img/flower1.png"" style=""width:200px; border:14px solid green;"">","null","","","","","","","","",""
"","image-keyboard-response","42","57521","0.0-42.0","3N2BF7Y2VRGJS5UELSY1THV5SIJMHD","ALVNMQMD3Q3ZE","3THR0FZ95PF7SK0MYRNAOUHTWDJOLG","","349","img/flower6.png","74","349.7000000476837","1","1","2","2","1,0,0,1,1,0,1,0,1","1,0,0,1,1,0,1,0,1","1",""
"","html-keyboard-response","43","57823","0.0-43.0","3N2BF7Y2VRGJS5UELSY1THV5SIJMHD","ALVNMQMD3Q3ZE","3THR0FZ95PF7SK0MYRNAOUHTWDJOLG","","null","<img src=""img/flower6.png"" style=""width:200px; border:14px solid green;"">","null","","","","","","","","",""
"","image-keyboard-response","44","58388","0.0-44.0","3N2BF7Y2VRGJS5UELSY1THV5SIJMHD","ALVNMQMD3Q3ZE","3THR0FZ95PF7SK0MYRNAOUHTWDJOLG","","564","img/flower2.png","74","564.8000001907349","1","1","3","2","1,0,0,1,1,0,1,0,1","1,0,0,1,1,0,1,0,1","1",""
"","html-keyboard-response","45","58690","0.0-45.0","3N2BF7Y2VRGJS5UELSY1THV5SIJMHD","ALVNMQMD3Q3ZE","3THR0FZ95PF7SK0MYRNAOUHTWDJOLG","","null","<img src=""img/flower2.png"" style=""width:200px; border:14px solid green;"">","null","","","","","","","","",""
"","image-keyboard-response","46","59011","0.0-46.0","3N2BF7Y2VRGJS5UELSY1THV5SIJMHD","ALVNMQMD3Q3ZE","3THR0FZ95PF7SK0MYRNAOUHTWDJOLG","","319.90000009536743","img/flower6.png","74","321.09999990463257","1","1","2","2","1,0,0,1,1,0,1,0,1","1,0,0,1,1,0,1,0,1","1",""
"","html-keyboard-response","47","59312","0.0-47.0","3N2BF7Y2VRGJS5UELSY1THV5SIJMHD","ALVNMQMD3Q3ZE","3THR0FZ95PF7SK0MYRNAOUHTWDJOLG","","null","<img src=""img/flower6.png"" style=""width:200px; border:14px solid green;"">","null","","","","","","","","",""
"","image-keyboard-response","48","59750","0.0-48.0","3N2BF7Y2VRGJS5UELSY1THV5SIJMHD","ALVNMQMD3Q3ZE","3THR0FZ95PF7SK0MYRNAOUHTWDJOLG","","436.7999999523163","img/flower1.png","74","437.59999990463257","1","1","1","2","1,0,0,1,1,0,1,0,1","1,0,0,1,1,0,1,0,1","1",""
"","html-keyboard-response","49","60052","0.0-49.0","3N2BF7Y2VRGJS5UELSY1THV5SIJMHD","ALVNMQMD3Q3ZE","3THR0FZ95PF7SK0MYRNAOUHTWDJOLG","","null","<img src=""img/flower1.png"" style=""width:200px; border:14px solid green;"">","null","","","","","","","","",""
"","image-keyboard-response","50","60410","0.0-50.0","3N2BF7Y2VRGJS5UELSY1THV5SIJMHD","ALVNMQMD3Q3ZE","3THR0FZ95PF7SK0MYRNAOUHTWDJOLG","","356.2999999523163","img/flower2.png","74","357.30000019073486","1","1","3","2","1,0,0,1,1,0,1,0,1","1,0,0,1,1,0,1,0,1","1",""
"","html-keyboard-response","51","60711","0.0-51.0","3N2BF7Y2VRGJS5UELSY1THV5SIJMHD","ALVNMQMD3Q3ZE","3THR0FZ95PF7SK0MYRNAOUHTWDJOLG","","null","<img src=""img/flower2.png"" style=""width:200px; border:14px solid green;"">","null","","","","","","","","",""
"","image-keyboard-response","52","61006","0.0-52.0","3N2BF7Y2VRGJS5UELSY1THV5SIJMHD","ALVNMQMD3Q3ZE","3THR0FZ95PF7SK0MYRNAOUHTWDJOLG","","294.09999990463257","img/flower2.png","74","294.7999999523163","1","1","3","2","1,0,0,1,1,0,1,0,1","1,0,0,1,1,0,1,0,1","1",""
"","html-keyboard-response","53","61308","0.0-53.0","3N2BF7Y2VRGJS5UELSY1THV5SIJMHD","ALVNMQMD3Q3ZE","3THR0FZ95PF7SK0MYRNAOUHTWDJOLG","","null","<img src=""img/flower2.png"" style=""width:200px; border:14px solid green;"">","null","","","","","","","","",""
"","image-keyboard-response","54","61693","0.0-54.0","3N2BF7Y2VRGJS5UELSY1THV5SIJMHD","ALVNMQMD3Q3ZE","3THR0FZ95PF7SK0MYRNAOUHTWDJOLG","","383.5","img/flower1.png","74","384.2000000476837","1","1","1","2","1,0,0,1,1,0,1,0,1","1,0,0,1,1,0,1,0,1","1",""
"","html-keyboard-response","55","61995","0.0-55.0","3N2BF7Y2VRGJS5UELSY1THV5SIJMHD","ALVNMQMD3Q3ZE","3THR0FZ95PF7SK0MYRNAOUHTWDJOLG","","null","<img src=""img/flower1.png"" style=""width:200px; border:14px solid green;"">","null","","","","","","","","",""
"","image-keyboard-response","56","62371","0.0-56.0","3N2BF7Y2VRGJS5UELSY1THV5SIJMHD","ALVNMQMD3Q3ZE","3THR0FZ95PF7SK0MYRNAOUHTWDJOLG","","374.89999985694885","img/flower1.png","74","375.59999990463257","1","1","1","2","1,0,0,1,1,0,1,0,1","1,0,0,1,1,0,1,0,1","1",""
"","html-keyboard-response","57","62674","0.0-57.0","3N2BF7Y2VRGJS5UELSY1THV5SIJMHD","ALVNMQMD3Q3ZE","3THR0FZ95PF7SK0MYRNAOUHTWDJOLG","","null","<img src=""img/flower1.png"" style=""width:200px; border:14px solid green;"">","null","","","","","","","","",""
"","image-keyboard-response","58","62978","0.0-58.0","3N2BF7Y2VRGJS5UELSY1THV5SIJMHD","ALVNMQMD3Q3ZE","3THR0FZ95PF7SK0MYRNAOUHTWDJOLG","","302.89999985694885","img/flower2.png","74","303.59999990463257","1","1","3","2","1,0,0,1,1,0,1,0,1","1,0,0,1,1,0,1,0,1","1",""
"","html-keyboard-response","59","63279","0.0-59.0","3N2BF7Y2VRGJS5UELSY1THV5SIJMHD","ALVNMQMD3Q3ZE","3THR0FZ95PF7SK0MYRNAOUHTWDJOLG","","null","<img src=""img/flower2.png"" style=""width:200px; border:14px solid green;"">","null","","","","","","","","",""
"","image-keyboard-response","60","63371","0.0-60.0","3N2BF7Y2VRGJS5UELSY1THV5SIJMHD","ALVNMQMD3Q3ZE","3THR0FZ95PF7SK0MYRNAOUHTWDJOLG","","90.79999995231628","img/flower6.png","74","91.90000009536743","1","1","2","2","1,0,0,1,1,0,1,0,1","1,0,0,1,1,0,1,0,1","1",""
"","html-keyboard-response","61","63673","0.0-61.0","3N2BF7Y2VRGJS5UELSY1THV5SIJMHD","ALVNMQMD3Q3ZE","3THR0FZ95PF7SK0MYRNAOUHTWDJOLG","","null","<img src=""img/flower6.png"" style=""width:200px; border:14px solid green;"">","null","","","","","","","","",""
"","image-keyboard-response","62","63978","0.0-62.0","3N2BF7Y2VRGJS5UELSY1THV5SIJMHD","ALVNMQMD3Q3ZE","3THR0FZ95PF7SK0MYRNAOUHTWDJOLG","","304","img/flower1.png","74","304.7999999523163","1","1","1","2","1,0,0,1,1,0,1,0,1","1,0,0,1,1,0,1,0,1","1",""
"","html-keyboard-response","63","64280","0.0-63.0","3N2BF7Y2VRGJS5UELSY1THV5SIJMHD","ALVNMQMD3Q3ZE","3THR0FZ95PF7SK0MYRNAOUHTWDJOLG","","null","<img src=""img/flower1.png"" style=""width:200px; border:14px solid green;"">","null","","","","","","","","",""
"","image-keyboard-response","64","64588","0.0-64.0","3N2BF7Y2VRGJS5UELSY1THV5SIJMHD","ALVNMQMD3Q3ZE","3THR0FZ95PF7SK0MYRNAOUHTWDJOLG","","306.7000000476837","img/flower6.png","74","308","1","1","2","2","1,0,0,1,1,0,1,0,1","1,0,0,1,1,0,1,0,1","1",""
"","html-keyboard-response","65","64891","0.0-65.0","3N2BF7Y2VRGJS5UELSY1THV5SIJMHD","ALVNMQMD3Q3ZE","3THR0FZ95PF7SK0MYRNAOUHTWDJOLG","","null","<img src=""img/flower6.png"" style=""width:200px; border:14px solid green;"">","null","","","","","","","","",""
"","image-keyboard-response","66","65230","0.0-66.0","3N2BF7Y2VRGJS5UELSY1THV5SIJMHD","ALVNMQMD3Q3ZE","3THR0FZ95PF7SK0MYRNAOUHTWDJOLG","","338.5","img/flower2.png","74","339.5","1","1","3","2","1,0,0,1,1,0,1,0,1","1,0,0,1,1,0,1,0,1","1",""
"","html-keyboard-response","67","65531","0.0-67.0","3N2BF7Y2VRGJS5UELSY1THV5SIJMHD","ALVNMQMD3Q3ZE","3THR0FZ95PF7SK0MYRNAOUHTWDJOLG","","null","<img src=""img/flower2.png"" style=""width:200px; border:14px solid green;"">","null","","","","","","","","",""
"","image-keyboard-response","68","65878","0.0-68.0","3N2BF7Y2VRGJS5UELSY1THV5SIJMHD","ALVNMQMD3Q3ZE","3THR0FZ95PF7SK0MYRNAOUHTWDJOLG","","345.90000009536743","img/flower1.png","74","346.7999999523163","1","1","1","2","1,0,0,1,1,0,1,0,1","1,0,0,1,1,0,1,0,1","1",""
"","html-keyboard-response","69","66181","0.0-69.0","3N2BF7Y2VRGJS5UELSY1THV5SIJMHD","ALVNMQMD3Q3ZE","3THR0FZ95PF7SK0MYRNAOUHTWDJOLG","","null","<img src=""img/flower1.png"" style=""width:200px; border:14px solid green;"">","null","","","","","","","","",""
"","image-keyboard-response","70","66534","0.0-70.0","3N2BF7Y2VRGJS5UELSY1THV5SIJMHD","ALVNMQMD3Q3ZE","3THR0FZ95PF7SK0MYRNAOUHTWDJOLG","","352.2000000476837","img/flower6.png","74","353.2000000476837","1","1","2","2","1,0,0,1,1,0,1,0,1","1,0,0,1,1,0,1,0,1","1",""
"","html-keyboard-response","71","66837","0.0-71.0","3N2BF7Y2VRGJS5UELSY1THV5SIJMHD","ALVNMQMD3Q3ZE","3THR0FZ95PF7SK0MYRNAOUHTWDJOLG","","null","<img src=""img/flower6.png"" style=""width:200px; border:14px solid green;"">","null","","","","","","","","",""
"","image-keyboard-response","72","67096","0.0-72.0","3N2BF7Y2VRGJS5UELSY1THV5SIJMHD","ALVNMQMD3Q3ZE","3THR0FZ95PF7SK0MYRNAOUHTWDJOLG","","258.2999999523163","img/flower2.png","74","259.19999980926514","1","1","3","2","1,0,0,1,1,0,1,0,1","1,0,0,1,1,0,1,0,1","1",""
"","html-keyboard-response","73","67399","0.0-73.0","3N2BF7Y2VRGJS5UELSY1THV5SIJMHD","ALVNMQMD3Q3ZE","3THR0FZ95PF7SK0MYRNAOUHTWDJOLG","","null","<img src=""img/flower2.png"" style=""width:200px; border:14px solid green;"">","null","","","","","","","","",""
"","image-keyboard-response","74","67685","0.0-74.0","3N2BF7Y2VRGJS5UELSY1THV5SIJMHD","ALVNMQMD3Q3ZE","3THR0FZ95PF7SK0MYRNAOUHTWDJOLG","","285.2999999523163","img/flower2.png","74","286.09999990463257","1","1","3","2","1,0,0,1,1,0,1,0,1","1,0,0,1,1,0,1,0,1","1",""
"","html-keyboard-response","75","67987","0.0-75.0","3N2BF7Y2VRGJS5UELSY1THV5SIJMHD","ALVNMQMD3Q3ZE","3THR0FZ95PF7SK0MYRNAOUHTWDJOLG","","null","<img src=""img/flower2.png"" style=""width:200px; border:14px solid green;"">","null","","","","","","","","",""
"","image-keyboard-response","76","68266","0.0-76.0","3N2BF7Y2VRGJS5UELSY1THV5SIJMHD","ALVNMQMD3Q3ZE","3THR0FZ95PF7SK0MYRNAOUHTWDJOLG","","277.7000000476837","img/flower1.png","74","278.5","1","1","1","2","1,0,0,1,1,0,1,0,1","1,0,0,1,1,0,1,0,1","1",""
"","html-keyboard-response","77","68568","0.0-77.0","3N2BF7Y2VRGJS5UELSY1THV5SIJMHD","ALVNMQMD3Q3ZE","3THR0FZ95PF7SK0MYRNAOUHTWDJOLG","","null","<img src=""img/flower1.png"" style=""width:200px; border:14px solid green;"">","null","","","","","","","","",""
"","image-keyboard-response","78","68905","0.0-78.0","3N2BF7Y2VRGJS5UELSY1THV5SIJMHD","ALVNMQMD3Q3ZE","3THR0FZ95PF7SK0MYRNAOUHTWDJOLG","","336.7000000476837","img/flower1.png","74","337.5","1","1","1","2","1,0,0,1,1,0,1,0,1","1,0,0,1,1,0,1,0,1","1",""
"","html-keyboard-response","79","69208","0.0-79.0","3N2BF7Y2VRGJS5UELSY1THV5SIJMHD","ALVNMQMD3Q3ZE","3THR0FZ95PF7SK0MYRNAOUHTWDJOLG","","null","<img src=""img/flower1.png"" style=""width:200px; border:14px solid green;"">","null","","","","","","","","",""
"","image-keyboard-response","80","69524","0.0-80.0","3N2BF7Y2VRGJS5UELSY1THV5SIJMHD","ALVNMQMD3Q3ZE","3THR0FZ95PF7SK0MYRNAOUHTWDJOLG","","315.60000014305115","img/flower1.png","74","316.40000009536743","1","1","1","2","1,0,0,1,1,0,1,0,1","1,0,0,1,1,0,1,0,1","1",""
"","html-keyboard-response","81","69827","0.0-81.0","3N2BF7Y2VRGJS5UELSY1THV5SIJMHD","ALVNMQMD3Q3ZE","3THR0FZ95PF7SK0MYRNAOUHTWDJOLG","","null","<img src=""img/flower1.png"" style=""width:200px; border:14px solid green;"">","null","","","","","","","","",""
"","image-keyboard-response","82","70131","0.0-82.0","3N2BF7Y2VRGJS5UELSY1THV5SIJMHD","ALVNMQMD3Q3ZE","3THR0FZ95PF7SK0MYRNAOUHTWDJOLG","","302.90000009536743","img/flower1.png","74","303.7000000476837","1","1","1","2","1,0,0,1,1,0,1,0,1","1,0,0,1,1,0,1,0,1","1",""
"","html-keyboard-response","83","70433","0.0-83.0","3N2BF7Y2VRGJS5UELSY1THV5SIJMHD","ALVNMQMD3Q3ZE","3THR0FZ95PF7SK0MYRNAOUHTWDJOLG","","null","<img src=""img/flower1.png"" style=""width:200px; border:14px solid green;"">","null","","","","","","","","",""
"","image-keyboard-response","84","70731","0.0-84.0","3N2BF7Y2VRGJS5UELSY1THV5SIJMHD","ALVNMQMD3Q3ZE","3THR0FZ95PF7SK0MYRNAOUHTWDJOLG","","297.5","img/flower1.png","74","298.2999999523163","1","1","1","2","1,0,0,1,1,0,1,0,1","1,0,0,1,1,0,1,0,1","1",""
"","html-keyboard-response","85","71034","0.0-85.0","3N2BF7Y2VRGJS5UELSY1THV5SIJMHD","ALVNMQMD3Q3ZE","3THR0FZ95PF7SK0MYRNAOUHTWDJOLG","","null","<img src=""img/flower1.png"" style=""width:200px; border:14px solid green;"">","null","","","","","","","","",""
"","image-keyboard-response","86","71211","0.0-86.0","3N2BF7Y2VRGJS5UELSY1THV5SIJMHD","ALVNMQMD3Q3ZE","3THR0FZ95PF7SK0MYRNAOUHTWDJOLG","","175.5","img/flower1.png","74","176.39999985694885","1","1","1","2","1,0,0,1,1,0,1,0,1","1,0,0,1,1,0,1,0,1","1",""
"","html-keyboard-response","87","71512","0.0-87.0","3N2BF7Y2VRGJS5UELSY1THV5SIJMHD","ALVNMQMD3Q3ZE","3THR0FZ95PF7SK0MYRNAOUHTWDJOLG","","null","<img src=""img/flower1.png"" style=""width:200px; border:14px solid green;"">","null","","","","","","","","",""
"","image-keyboard-response","88","71669","0.0-88.0","3N2BF7Y2VRGJS5UELSY1THV5SIJMHD","ALVNMQMD3Q3ZE","3THR0FZ95PF7SK0MYRNAOUHTWDJOLG","","155.19999980926514","img/flower6.png","74","156.29999995231628","1","1","2","2","1,0,0,1,1,0,1,0,1","1,0,0,1,1,0,1,0,1","1",""
"","html-keyboard-response","89","71971","0.0-89.0","3N2BF7Y2VRGJS5UELSY1THV5SIJMHD","ALVNMQMD3Q3ZE","3THR0FZ95PF7SK0MYRNAOUHTWDJOLG","","null","<img src=""img/flower6.png"" style=""width:200px; border:14px solid green;"">","null","","","","","","","","",""
"","image-keyboard-response","90","72464","0.0-90.0","3N2BF7Y2VRGJS5UELSY1THV5SIJMHD","ALVNMQMD3Q3ZE","3THR0FZ95PF7SK0MYRNAOUHTWDJOLG","","492.5","img/flower1.png","74","493.2999999523163","1","1","1","2","1,0,0,1,1,0,1,0,1","1,0,0,1,1,0,1,0,1","1",""
"","html-keyboard-response","91","72767","0.0-91.0","3N2BF7Y2VRGJS5UELSY1THV5SIJMHD","ALVNMQMD3Q3ZE","3THR0FZ95PF7SK0MYRNAOUHTWDJOLG","","null","<img src=""img/flower1.png"" style=""width:200px; border:14px solid green;"">","null","","","","","","","","",""
"","image-keyboard-response","92","73013","0.0-92.0","3N2BF7Y2VRGJS5UELSY1THV5SIJMHD","ALVNMQMD3Q3ZE","3THR0FZ95PF7SK0MYRNAOUHTWDJOLG","","244.5","img/flower6.png","74","245.09999990463257","1","1","2","2","1,0,0,1,1,0,1,0,1","1,0,0,1,1,0,1,0,1","1",""
"","html-keyboard-response","93","73315","0.0-93.0","3N2BF7Y2VRGJS5UELSY1THV5SIJMHD","ALVNMQMD3Q3ZE","3THR0FZ95PF7SK0MYRNAOUHTWDJOLG","","null","<img src=""img/flower6.png"" style=""width:200px; border:14px solid green;"">","null","","","","","","","","",""
"","image-keyboard-response","94","73628","0.0-94.0","3N2BF7Y2VRGJS5UELSY1THV5SIJMHD","ALVNMQMD3Q3ZE","3THR0FZ95PF7SK0MYRNAOUHTWDJOLG","","312.39999985694885","img/flower6.png","74","313.10000014305115","1","1","2","2","1,0,0,1,1,0,1,0,1","1,0,0,1,1,0,1,0,1","1",""
"","html-keyboard-response","95","73931","0.0-95.0","3N2BF7Y2VRGJS5UELSY1THV5SIJMHD","ALVNMQMD3Q3ZE","3THR0FZ95PF7SK0MYRNAOUHTWDJOLG","","null","<img src=""img/flower6.png"" style=""width:200px; border:14px solid green;"">","null","","","","","","","","",""
"","image-keyboard-response","96","75933","0.0-96.0","3N2BF7Y2VRGJS5UELSY1THV5SIJMHD","ALVNMQMD3Q3ZE","3THR0FZ95PF7SK0MYRNAOUHTWDJOLG","","","img/flower6.png","","2002.3999998569489","-1","0","2","2","1,0,0,1,1,0,1,0,1","1,0,0,1,1,0,1,0,1","1",""
"","html-keyboard-response","97","76236","0.0-97.0","3N2BF7Y2VRGJS5UELSY1THV5SIJMHD","ALVNMQMD3Q3ZE","3THR0FZ95PF7SK0MYRNAOUHTWDJOLG","","null","<img src=""img/flower6.png"" style=""width:200px;border:14px solid red;"">","null","","","","","","","","",""
"","image-keyboard-response","98","76549","0.0-98.0","3N2BF7Y2VRGJS5UELSY1THV5SIJMHD","ALVNMQMD3Q3ZE","3THR0FZ95PF7SK0MYRNAOUHTWDJOLG","","312.40000009536743","img/flower2.png","74","313.09999990463257","1","1","3","2","1,0,0,1,1,0,1,0,1","1,0,0,1,1,0,1,0,1","1",""
"","html-keyboard-response","99","76851","0.0-99.0","3N2BF7Y2VRGJS5UELSY1THV5SIJMHD","ALVNMQMD3Q3ZE","3THR0FZ95PF7SK0MYRNAOUHTWDJOLG","","null","<img src=""img/flower2.png"" style=""width:200px; border:14px solid green;"">","null","","","","","","","","",""
"","image-keyboard-response","100","78854","0.0-100.0","3N2BF7Y2VRGJS5UELSY1THV5SIJMHD","ALVNMQMD3Q3ZE","3THR0FZ95PF7SK0MYRNAOUHTWDJOLG","","","img/flower2.png","","2002.4000000953674","-1","0","3","2","1,0,0,1,1,0,1,0,1","1,0,0,1,1,0,1,0,1","1",""
"","html-keyboard-response","101","79157","0.0-101.0","3N2BF7Y2VRGJS5UELSY1THV5SIJMHD","ALVNMQMD3Q3ZE","3THR0FZ95PF7SK0MYRNAOUHTWDJOLG","","null","<img src=""img/flower2.png"" style=""width:200px;border:14px solid red;"">","null","","","","","","","","",""
"","image-keyboard-response","102","79476","0.0-102.0","3N2BF7Y2VRGJS5UELSY1THV5SIJMHD","ALVNMQMD3Q3ZE","3THR0FZ95PF7SK0MYRNAOUHTWDJOLG","","317.7000000476837","img/flower6.png","74","318.90000009536743","1","1","2","2","1,0,0,1,1,0,1,0,1","1,0,0,1,1,0,1,0,1","1",""
"","html-keyboard-response","103","79784","0.0-103.0","3N2BF7Y2VRGJS5UELSY1THV5SIJMHD","ALVNMQMD3Q3ZE","3THR0FZ95PF7SK0MYRNAOUHTWDJOLG","","null","<img src=""img/flower6.png"" style=""width:200px; border:14px solid green;"">","null","","","","","","","","",""
"","image-keyboard-response","104","81786","0.0-104.0","3N2BF7Y2VRGJS5UELSY1THV5SIJMHD","ALVNMQMD3Q3ZE","3THR0FZ95PF7SK0MYRNAOUHTWDJOLG","","","img/flower2.png","","2002.2000000476837","-1","0","3","2","1,0,0,1,1,0,1,0,1","1,0,0,1,1,0,1,0,1","1",""
"","html-keyboard-response","105","82088","0.0-105.0","3N2BF7Y2VRGJS5UELSY1THV5SIJMHD","ALVNMQMD3Q3ZE","3THR0FZ95PF7SK0MYRNAOUHTWDJOLG","","null","<img src=""img/flower2.png"" style=""width:200px;border:14px solid red;"">","null","","","","","","","","",""
"","image-keyboard-response","106","83290","0.0-106.0","3N2BF7Y2VRGJS5UELSY1THV5SIJMHD","ALVNMQMD3Q3ZE","3THR0FZ95PF7SK0MYRNAOUHTWDJOLG","","1200.9000000953674","img/flower2.png","74","1201.7999999523163","1","1","3","2","1,0,0,1,1,0,1,0,1","1,0,0,1,1,0,1,0,1","1",""
"","html-keyboard-response","107","83592","0.0-107.0","3N2BF7Y2VRGJS5UELSY1THV5SIJMHD","ALVNMQMD3Q3ZE","3THR0FZ95PF7SK0MYRNAOUHTWDJOLG","","null","<img src=""img/flower2.png"" style=""width:200px; border:14px solid green;"">","null","","","","","","","","",""
"","image-keyboard-response","108","84186","0.0-108.0","3N2BF7Y2VRGJS5UELSY1THV5SIJMHD","ALVNMQMD3Q3ZE","3THR0FZ95PF7SK0MYRNAOUHTWDJOLG","","592.2000000476837","img/flower6.png","74","593.1999998092651","1","1","2","2","1,0,0,1,1,0,1,0,1","1,0,0,1,1,0,1,0,1","1",""
"","html-keyboard-response","109","84487","0.0-109.0","3N2BF7Y2VRGJS5UELSY1THV5SIJMHD","ALVNMQMD3Q3ZE","3THR0FZ95PF7SK0MYRNAOUHTWDJOLG","","null","<img src=""img/flower6.png"" style=""width:200px; border:14px solid green;"">","null","","","","","","","","",""
"","image-keyboard-response","110","85093","0.0-110.0","3N2BF7Y2VRGJS5UELSY1THV5SIJMHD","ALVNMQMD3Q3ZE","3THR0FZ95PF7SK0MYRNAOUHTWDJOLG","","604.8999998569489","img/flower1.png","74","605.8999998569489","1","1","1","2","1,0,0,1,1,0,1,0,1","1,0,0,1,1,0,1,0,1","1",""
"","html-keyboard-response","111","85396","0.0-111.0","3N2BF7Y2VRGJS5UELSY1THV5SIJMHD","ALVNMQMD3Q3ZE","3THR0FZ95PF7SK0MYRNAOUHTWDJOLG","","null","<img src=""img/flower1.png"" style=""width:200px; border:14px solid green;"">","null","","","","","","","","",""
"","image-keyboard-response","112","85876","0.0-112.0","3N2BF7Y2VRGJS5UELSY1THV5SIJMHD","ALVNMQMD3Q3ZE","3THR0FZ95PF7SK0MYRNAOUHTWDJOLG","","479.5","img/flower2.png","74","480.2999999523163","1","1","3","2","1,0,0,1,1,0,1,0,1","1,0,0,1,1,0,1,0,1","1",""
"","html-keyboard-response","113","86182","0.0-113.0","3N2BF7Y2VRGJS5UELSY1THV5SIJMHD","ALVNMQMD3Q3ZE","3THR0FZ95PF7SK0MYRNAOUHTWDJOLG","","null","<img src=""img/flower2.png"" style=""width:200px; border:14px solid green;"">","null","","","","","","","","",""
"","image-keyboard-response","114","86658","0.0-114.0","3N2BF7Y2VRGJS5UELSY1THV5SIJMHD","ALVNMQMD3Q3ZE","3THR0FZ95PF7SK0MYRNAOUHTWDJOLG","","475.7000000476837","img/flower6.png","74","476.5","1","1","2","2","1,0,0,1,1,0,1,0,1","1,0,0,1,1,0,1,0,1","1",""
"","html-keyboard-response","115","86960","0.0-115.0","3N2BF7Y2VRGJS5UELSY1THV5SIJMHD","ALVNMQMD3Q3ZE","3THR0FZ95PF7SK0MYRNAOUHTWDJOLG","","null","<img src=""img/flower6.png"" style=""width:200px; border:14px solid green;"">","null","","","","","","","","",""
"","image-keyboard-response","116","87397","0.0-116.0","3N2BF7Y2VRGJS5UELSY1THV5SIJMHD","ALVNMQMD3Q3ZE","3THR0FZ95PF7SK0MYRNAOUHTWDJOLG","","435.7000000476837","img/flower2.png","74","436.59999990463257","1","1","3","2","1,0,0,1,1,0,1,0,1","1,0,0,1,1,0,1,0,1","1",""
"","html-keyboard-response","117","87699","0.0-117.0","3N2BF7Y2VRGJS5UELSY1THV5SIJMHD","ALVNMQMD3Q3ZE","3THR0FZ95PF7SK0MYRNAOUHTWDJOLG","","null","<img src=""img/flower2.png"" style=""width:200px; border:14px solid green;"">","null","","","","","","","","",""
"","image-keyboard-response","118","88093","0.0-118.0","3N2BF7Y2VRGJS5UELSY1THV5SIJMHD","ALVNMQMD3Q3ZE","3THR0FZ95PF7SK0MYRNAOUHTWDJOLG","","392.89999985694885","img/flower1.png","74","393.5","1","1","1","2","1,0,0,1,1,0,1,0,1","1,0,0,1,1,0,1,0,1","1",""
"","html-keyboard-response","119","88396","0.0-119.0","3N2BF7Y2VRGJS5UELSY1THV5SIJMHD","ALVNMQMD3Q3ZE","3THR0FZ95PF7SK0MYRNAOUHTWDJOLG","","null","<img src=""img/flower1.png"" style=""width:200px; border:14px solid green;"">","null","","","","","","","","",""
"","image-keyboard-response","120","88792","0.0-120.0","3N2BF7Y2VRGJS5UELSY1THV5SIJMHD","ALVNMQMD3Q3ZE","3THR0FZ95PF7SK0MYRNAOUHTWDJOLG","","395.40000009536743","img/flower6.png","74","396.2000000476837","1","1","2","2","1,0,0,1,1,0,1,0,1","1,0,0,1,1,0,1,0,1","1",""
"","html-keyboard-response","121","89094","0.0-121.0","3N2BF7Y2VRGJS5UELSY1THV5SIJMHD","ALVNMQMD3Q3ZE","3THR0FZ95PF7SK0MYRNAOUHTWDJOLG","","null","<img src=""img/flower6.png"" style=""width:200px; border:14px solid green;"">","null","","","","","","","","",""
"","image-keyboard-response","122","89463","0.0-122.0","3N2BF7Y2VRGJS5UELSY1THV5SIJMHD","ALVNMQMD3Q3ZE","3THR0FZ95PF7SK0MYRNAOUHTWDJOLG","","368.39999985694885","img/flower6.png","74","369.2999999523163","1","1","2","2","1,0,0,1,1,0,1,0,1","1,0,0,1,1,0,1,0,1","1",""
"","html-keyboard-response","123","89766","0.0-123.0","3N2BF7Y2VRGJS5UELSY1THV5SIJMHD","ALVNMQMD3Q3ZE","3THR0FZ95PF7SK0MYRNAOUHTWDJOLG","","null","<img src=""img/flower6.png"" style=""width:200px; border:14px solid green;"">","null","","","","","","","","",""
"","image-keyboard-response","124","90242","0.0-124.0","3N2BF7Y2VRGJS5UELSY1THV5SIJMHD","ALVNMQMD3Q3ZE","3THR0FZ95PF7SK0MYRNAOUHTWDJOLG","","475","img/flower6.png","74","475.80000019073486","1","1","2","2","1,0,0,1,1,0,1,0,1","1,0,0,1,1,0,1,0,1","1",""
"","html-keyboard-response","125","90543","0.0-125.0","3N2BF7Y2VRGJS5UELSY1THV5SIJMHD","ALVNMQMD3Q3ZE","3THR0FZ95PF7SK0MYRNAOUHTWDJOLG","","null","<img src=""img/flower6.png"" style=""width:200px; border:14px solid green;"">","null","","","","","","","","",""
"","image-keyboard-response","126","90790","0.0-126.0","3N2BF7Y2VRGJS5UELSY1THV5SIJMHD","ALVNMQMD3Q3ZE","3THR0FZ95PF7SK0MYRNAOUHTWDJOLG","","245.79999995231628","img/flower2.png","74","246.70000004768372","1","1","3","2","1,0,0,1,1,0,1,0,1","1,0,0,1,1,0,1,0,1","1",""
"","html-keyboard-response","127","91091","0.0-127.0","3N2BF7Y2VRGJS5UELSY1THV5SIJMHD","ALVNMQMD3Q3ZE","3THR0FZ95PF7SK0MYRNAOUHTWDJOLG","","null","<img src=""img/flower2.png"" style=""width:200px; border:14px solid green;"">","null","","","","","","","","",""
"","image-keyboard-response","128","91573","0.0-128.0","3N2BF7Y2VRGJS5UELSY1THV5SIJMHD","ALVNMQMD3Q3ZE","3THR0FZ95PF7SK0MYRNAOUHTWDJOLG","","480","img/flower6.png","74","480.90000009536743","1","1","2","2","1,0,0,1,1,0,1,0,1","1,0,0,1,1,0,1,0,1","1",""
"","html-keyboard-response","129","91875","0.0-129.0","3N2BF7Y2VRGJS5UELSY1THV5SIJMHD","ALVNMQMD3Q3ZE","3THR0FZ95PF7SK0MYRNAOUHTWDJOLG","","null","<img src=""img/flower6.png"" style=""width:200px; border:14px solid green;"">","null","","","","","","","","",""
"","image-keyboard-response","130","92356","0.0-130.0","3N2BF7Y2VRGJS5UELSY1THV5SIJMHD","ALVNMQMD3Q3ZE","3THR0FZ95PF7SK0MYRNAOUHTWDJOLG","","480.09999990463257","img/flower6.png","74","480.90000009536743","1","1","2","2","1,0,0,1,1,0,1,0,1","1,0,0,1,1,0,1,0,1","1",""
"","html-keyboard-response","131","92659","0.0-131.0","3N2BF7Y2VRGJS5UELSY1THV5SIJMHD","ALVNMQMD3Q3ZE","3THR0FZ95PF7SK0MYRNAOUHTWDJOLG","","null","<img src=""img/flower6.png"" style=""width:200px; border:14px solid green;"">","null","","","","","","","","",""
"","image-keyboard-response","132","93059","0.0-132.0","3N2BF7Y2VRGJS5UELSY1THV5SIJMHD","ALVNMQMD3Q3ZE","3THR0FZ95PF7SK0MYRNAOUHTWDJOLG","","399.09999990463257","img/flower6.png","74","399.7999999523163","1","1","2","2","1,0,0,1,1,0,1,0,1","1,0,0,1,1,0,1,0,1","1",""
"","html-keyboard-response","133","93374","0.0-133.0","3N2BF7Y2VRGJS5UELSY1THV5SIJMHD","ALVNMQMD3Q3ZE","3THR0FZ95PF7SK0MYRNAOUHTWDJOLG","","null","<img src=""img/flower6.png"" style=""width:200px; border:14px solid green;"">","null","","","","","","","","",""
"","image-keyboard-response","134","93709","0.0-134.0","3N2BF7Y2VRGJS5UELSY1THV5SIJMHD","ALVNMQMD3Q3ZE","3THR0FZ95PF7SK0MYRNAOUHTWDJOLG","","333.7999999523163","img/flower2.png","74","334.60000014305115","1","1","3","2","1,0,0,1,1,0,1,0,1","1,0,0,1,1,0,1,0,1","1",""
"","html-keyboard-response","135","94011","0.0-135.0","3N2BF7Y2VRGJS5UELSY1THV5SIJMHD","ALVNMQMD3Q3ZE","3THR0FZ95PF7SK0MYRNAOUHTWDJOLG","","null","<img src=""img/flower2.png"" style=""width:200px; border:14px solid green;"">","null","","","","","","","","",""
"","image-keyboard-response","136","94483","0.0-136.0","3N2BF7Y2VRGJS5UELSY1THV5SIJMHD","ALVNMQMD3Q3ZE","3THR0FZ95PF7SK0MYRNAOUHTWDJOLG","","471.10000014305115","img/flower1.png","74","471.89999985694885","1","1","1","2","1,0,0,1,1,0,1,0,1","1,0,0,1,1,0,1,0,1","1",""
"","html-keyboard-response","137","94785","0.0-137.0","3N2BF7Y2VRGJS5UELSY1THV5SIJMHD","ALVNMQMD3Q3ZE","3THR0FZ95PF7SK0MYRNAOUHTWDJOLG","","null","<img src=""img/flower1.png"" style=""width:200px; border:14px solid green;"">","null","","","","","","","","",""
"","image-keyboard-response","138","95144","0.0-138.0","3N2BF7Y2VRGJS5UELSY1THV5SIJMHD","ALVNMQMD3Q3ZE","3THR0FZ95PF7SK0MYRNAOUHTWDJOLG","","358.59999990463257","img/flower1.png","74","359.2999999523163","1","1","1","2","1,0,0,1,1,0,1,0,1","1,0,0,1,1,0,1,0,1","1",""
"","html-keyboard-response","139","95447","0.0-139.0","3N2BF7Y2VRGJS5UELSY1THV5SIJMHD","ALVNMQMD3Q3ZE","3THR0FZ95PF7SK0MYRNAOUHTWDJOLG","","null","<img src=""img/flower1.png"" style=""width:200px; border:14px solid green;"">","null","","","","","","","","",""
"","image-keyboard-response","140","95669","0.0-140.0","3N2BF7Y2VRGJS5UELSY1THV5SIJMHD","ALVNMQMD3Q3ZE","3THR0FZ95PF7SK0MYRNAOUHTWDJOLG","","221.09999990463257","img/flower1.png","74","222.29999995231628","1","1","1","2","1,0,0,1,1,0,1,0,1","1,0,0,1,1,0,1,0,1","1",""
"","html-keyboard-response","141","95971","0.0-141.0","3N2BF7Y2VRGJS5UELSY1THV5SIJMHD","ALVNMQMD3Q3ZE","3THR0FZ95PF7SK0MYRNAOUHTWDJOLG","","null","<img src=""img/flower1.png"" style=""width:200px; border:14px solid green;"">","null","","","","","","","","",""
"","image-keyboard-response","142","96056","0.0-142.0","3N2BF7Y2VRGJS5UELSY1THV5SIJMHD","ALVNMQMD3Q3ZE","3THR0FZ95PF7SK0MYRNAOUHTWDJOLG","","83.09999990463257","img/flower6.png","74","84.20000004768372","1","1","2","2","1,0,0,1,1,0,1,0,1","1,0,0,1,1,0,1,0,1","1",""
"","html-keyboard-response","143","96358","0.0-143.0","3N2BF7Y2VRGJS5UELSY1THV5SIJMHD","ALVNMQMD3Q3ZE","3THR0FZ95PF7SK0MYRNAOUHTWDJOLG","","null","<img src=""img/flower6.png"" style=""width:200px; border:14px solid green;"">","null","","","","","","","","",""
"","image-keyboard-response","144","96643","0.0-144.0","3N2BF7Y2VRGJS5UELSY1THV5SIJMHD","ALVNMQMD3Q3ZE","3THR0FZ95PF7SK0MYRNAOUHTWDJOLG","","284.40000009536743","img/flower6.png","74","285.59999990463257","1","1","2","2","1,0,0,1,1,0,1,0,1","1,0,0,1,1,0,1,0,1","1",""
"","html-keyboard-response","145","96945","0.0-145.0","3N2BF7Y2VRGJS5UELSY1THV5SIJMHD","ALVNMQMD3Q3ZE","3THR0FZ95PF7SK0MYRNAOUHTWDJOLG","","null","<img src=""img/flower6.png"" style=""width:200px; border:14px solid green;"">","null","","","","","","","","",""
"","image-keyboard-response","146","97399","0.0-146.0","3N2BF7Y2VRGJS5UELSY1THV5SIJMHD","ALVNMQMD3Q3ZE","3THR0FZ95PF7SK0MYRNAOUHTWDJOLG","","453.5","img/flower2.png","74","454.60000014305115","1","1","3","2","1,0,0,1,1,0,1,0,1","1,0,0,1,1,0,1,0,1","1",""
"","html-keyboard-response","147","97703","0.0-147.0","3N2BF7Y2VRGJS5UELSY1THV5SIJMHD","ALVNMQMD3Q3ZE","3THR0FZ95PF7SK0MYRNAOUHTWDJOLG","","null","<img src=""img/flower2.png"" style=""width:200px; border:14px solid green;"">","null","","","","","","","","",""
"","image-keyboard-response","148","98006","0.0-148.0","3N2BF7Y2VRGJS5UELSY1THV5SIJMHD","ALVNMQMD3Q3ZE","3THR0FZ95PF7SK0MYRNAOUHTWDJOLG","","302.59999990463257","img/flower6.png","74","303.40000009536743","1","1","2","2","1,0,0,1,1,0,1,0,1","1,0,0,1,1,0,1,0,1","1",""
"","html-keyboard-response","149","98308","0.0-149.0","3N2BF7Y2VRGJS5UELSY1THV5SIJMHD","ALVNMQMD3Q3ZE","3THR0FZ95PF7SK0MYRNAOUHTWDJOLG","","null","<img src=""img/flower6.png"" style=""width:200px; border:14px solid green;"">","null","","","","","","","","",""
"","image-keyboard-response","150","99120","0.0-150.0","3N2BF7Y2VRGJS5UELSY1THV5SIJMHD","ALVNMQMD3Q3ZE","3THR0FZ95PF7SK0MYRNAOUHTWDJOLG","","811","img/flower6.png","74","812.0999999046326","1","1","2","2","1,0,0,1,1,0,1,0,1","1,0,0,1,1,0,1,0,1","1",""
"","html-keyboard-response","151","99422","0.0-151.0","3N2BF7Y2VRGJS5UELSY1THV5SIJMHD","ALVNMQMD3Q3ZE","3THR0FZ95PF7SK0MYRNAOUHTWDJOLG","","null","<img src=""img/flower6.png"" style=""width:200px; border:14px solid green;"">","null","","","","","","","","",""
"","image-keyboard-response","152","99839","0.0-152.0","3N2BF7Y2VRGJS5UELSY1THV5SIJMHD","ALVNMQMD3Q3ZE","3THR0FZ95PF7SK0MYRNAOUHTWDJOLG","","415.2999999523163","img/flower1.png","74","416.40000009536743","1","1","1","2","1,0,0,1,1,0,1,0,1","1,0,0,1,1,0,1,0,1","1",""
"","html-keyboard-response","153","100141","0.0-153.0","3N2BF7Y2VRGJS5UELSY1THV5SIJMHD","ALVNMQMD3Q3ZE","3THR0FZ95PF7SK0MYRNAOUHTWDJOLG","","null","<img src=""img/flower1.png"" style=""width:200px; border:14px solid green;"">","null","","","","","","","","",""
"","image-keyboard-response","154","100554","0.0-154.0","3N2BF7Y2VRGJS5UELSY1THV5SIJMHD","ALVNMQMD3Q3ZE","3THR0FZ95PF7SK0MYRNAOUHTWDJOLG","","412.10000014305115","img/flower2.png","74","412.90000009536743","1","1","3","2","1,0,0,1,1,0,1,0,1","1,0,0,1,1,0,1,0,1","1",""
"","html-keyboard-response","155","100856","0.0-155.0","3N2BF7Y2VRGJS5UELSY1THV5SIJMHD","ALVNMQMD3Q3ZE","3THR0FZ95PF7SK0MYRNAOUHTWDJOLG","","null","<img src=""img/flower2.png"" style=""width:200px; border:14px solid green;"">","null","","","","","","","","",""
"","image-keyboard-response","156","101371","0.0-156.0","3N2BF7Y2VRGJS5UELSY1THV5SIJMHD","ALVNMQMD3Q3ZE","3THR0FZ95PF7SK0MYRNAOUHTWDJOLG","","514.2999999523163","img/flower2.png","74","515.0999999046326","1","1","3","2","1,0,0,1,1,0,1,0,1","1,0,0,1,1,0,1,0,1","1",""
"","html-keyboard-response","157","101673","0.0-157.0","3N2BF7Y2VRGJS5UELSY1THV5SIJMHD","ALVNMQMD3Q3ZE","3THR0FZ95PF7SK0MYRNAOUHTWDJOLG","","null","<img src=""img/flower2.png"" style=""width:200px; border:14px solid green;"">","null","","","","","","","","",""
"","image-keyboard-response","158","102116","0.0-158.0","3N2BF7Y2VRGJS5UELSY1THV5SIJMHD","ALVNMQMD3Q3ZE","3THR0FZ95PF7SK0MYRNAOUHTWDJOLG","","441.59999990463257","img/flower1.png","74","442.40000009536743","1","1","1","2","1,0,0,1,1,0,1,0,1","1,0,0,1,1,0,1,0,1","1",""
"","html-keyboard-response","159","102417","0.0-159.0","3N2BF7Y2VRGJS5UELSY1THV5SIJMHD","ALVNMQMD3Q3ZE","3THR0FZ95PF7SK0MYRNAOUHTWDJOLG","","null","<img src=""img/flower1.png"" style=""width:200px; border:14px solid green;"">","null","","","","","","","","",""
"","image-keyboard-response","160","102862","0.0-160.0","3N2BF7Y2VRGJS5UELSY1THV5SIJMHD","ALVNMQMD3Q3ZE","3THR0FZ95PF7SK0MYRNAOUHTWDJOLG","","444.09999990463257","img/flower6.png","74","444.7999999523163","1","1","2","2","1,0,0,1,1,0,1,0,1","1,0,0,1,1,0,1,0,1","1",""
"","html-keyboard-response","161","103166","0.0-161.0","3N2BF7Y2VRGJS5UELSY1THV5SIJMHD","ALVNMQMD3Q3ZE","3THR0FZ95PF7SK0MYRNAOUHTWDJOLG","","null","<img src=""img/flower6.png"" style=""width:200px; border:14px solid green;"">","null","","","","","","","","",""
"","image-keyboard-response","162","103591","0.0-162.0","3N2BF7Y2VRGJS5UELSY1THV5SIJMHD","ALVNMQMD3Q3ZE","3THR0FZ95PF7SK0MYRNAOUHTWDJOLG","","422.7000000476837","img/flower2.png","74","424.30000019073486","1","1","3","2","1,0,0,1,1,0,1,0,1","1,0,0,1,1,0,1,0,1","1",""
"","html-keyboard-response","163","103892","0.0-163.0","3N2BF7Y2VRGJS5UELSY1THV5SIJMHD","ALVNMQMD3Q3ZE","3THR0FZ95PF7SK0MYRNAOUHTWDJOLG","","null","<img src=""img/flower2.png"" style=""width:200px; border:14px solid green;"">","null","","","","","","","","",""
"","image-keyboard-response","164","104365","0.0-164.0","3N2BF7Y2VRGJS5UELSY1THV5SIJMHD","ALVNMQMD3Q3ZE","3THR0FZ95PF7SK0MYRNAOUHTWDJOLG","","472","img/flower1.png","74","473","1","1","1","2","1,0,0,1,1,0,1,0,1","1,0,0,1,1,0,1,0,1","1",""
"","html-keyboard-response","165","104668","0.0-165.0","3N2BF7Y2VRGJS5UELSY1THV5SIJMHD","ALVNMQMD3Q3ZE","3THR0FZ95PF7SK0MYRNAOUHTWDJOLG","","null","<img src=""img/flower1.png"" style=""width:200px; border:14px solid green;"">","null","","","","","","","","",""
"","image-keyboard-response","166","105121","0.0-166.0","3N2BF7Y2VRGJS5UELSY1THV5SIJMHD","ALVNMQMD3Q3ZE","3THR0FZ95PF7SK0MYRNAOUHTWDJOLG","","452.10000014305115","img/flower2.png","74","453.10000014305115","1","1","3","2","1,0,0,1,1,0,1,0,1","1,0,0,1,1,0,1,0,1","1",""
"","html-keyboard-response","167","105423","0.0-167.0","3N2BF7Y2VRGJS5UELSY1THV5SIJMHD","ALVNMQMD3Q3ZE","3THR0FZ95PF7SK0MYRNAOUHTWDJOLG","","null","<img src=""img/flower2.png"" style=""width:200px; border:14px solid green;"">","null","","","","","","","","",""
"","image-keyboard-response","168","105780","0.0-168.0","3N2BF7Y2VRGJS5UELSY1THV5SIJMHD","ALVNMQMD3Q3ZE","3THR0FZ95PF7SK0MYRNAOUHTWDJOLG","","356","img/flower1.png","74","356.7999999523163","1","1","1","2","1,0,0,1,1,0,1,0,1","1,0,0,1,1,0,1,0,1","1",""
"","html-keyboard-response","169","106082","0.0-169.0","3N2BF7Y2VRGJS5UELSY1THV5SIJMHD","ALVNMQMD3Q3ZE","3THR0FZ95PF7SK0MYRNAOUHTWDJOLG","","null","<img src=""img/flower1.png"" style=""width:200px; border:14px solid green;"">","null","","","","","","","","",""
"","image-keyboard-response","170","106407","0.0-170.0","3N2BF7Y2VRGJS5UELSY1THV5SIJMHD","ALVNMQMD3Q3ZE","3THR0FZ95PF7SK0MYRNAOUHTWDJOLG","","324","img/flower2.png","74","324.7999999523163","1","1","3","2","1,0,0,1,1,0,1,0,1","1,0,0,1,1,0,1,0,1","1",""
"","html-keyboard-response","171","106708","0.0-171.0","3N2BF7Y2VRGJS5UELSY1THV5SIJMHD","ALVNMQMD3Q3ZE","3THR0FZ95PF7SK0MYRNAOUHTWDJOLG","","null","<img src=""img/flower2.png"" style=""width:200px; border:14px solid green;"">","null","","","","","","","","",""
"","image-keyboard-response","172","107095","0.0-172.0","3N2BF7Y2VRGJS5UELSY1THV5SIJMHD","ALVNMQMD3Q3ZE","3THR0FZ95PF7SK0MYRNAOUHTWDJOLG","","385","img/flower6.png","74","386.59999990463257","1","1","2","2","1,0,0,1,1,0,1,0,1","1,0,0,1,1,0,1,0,1","1",""
"","html-keyboard-response","173","107397","0.0-173.0","3N2BF7Y2VRGJS5UELSY1THV5SIJMHD","ALVNMQMD3Q3ZE","3THR0FZ95PF7SK0MYRNAOUHTWDJOLG","","null","<img src=""img/flower6.png"" style=""width:200px; border:14px solid green;"">","null","","","","","","","","",""
"","image-keyboard-response","174","107753","0.0-174.0","3N2BF7Y2VRGJS5UELSY1THV5SIJMHD","ALVNMQMD3Q3ZE","3THR0FZ95PF7SK0MYRNAOUHTWDJOLG","","355.5","img/flower1.png","74","356.2000000476837","1","1","1","2","1,0,0,1,1,0,1,0,1","1,0,0,1,1,0,1,0,1","1",""
"","html-keyboard-response","175","108056","0.0-175.0","3N2BF7Y2VRGJS5UELSY1THV5SIJMHD","ALVNMQMD3Q3ZE","3THR0FZ95PF7SK0MYRNAOUHTWDJOLG","","null","<img src=""img/flower1.png"" style=""width:200px; border:14px solid green;"">","null","","","","","","","","",""
"","image-keyboard-response","176","108437","0.0-176.0","3N2BF7Y2VRGJS5UELSY1THV5SIJMHD","ALVNMQMD3Q3ZE","3THR0FZ95PF7SK0MYRNAOUHTWDJOLG","","380","img/flower2.png","74","381.2000000476837","1","1","3","2","1,0,0,1,1,0,1,0,1","1,0,0,1,1,0,1,0,1","1",""
"","html-keyboard-response","177","108739","0.0-177.0","3N2BF7Y2VRGJS5UELSY1THV5SIJMHD","ALVNMQMD3Q3ZE","3THR0FZ95PF7SK0MYRNAOUHTWDJOLG","","null","<img src=""img/flower2.png"" style=""width:200px; border:14px solid green;"">","null","","","","","","","","",""
"","image-keyboard-response","178","109225","0.0-178.0","3N2BF7Y2VRGJS5UELSY1THV5SIJMHD","ALVNMQMD3Q3ZE","3THR0FZ95PF7SK0MYRNAOUHTWDJOLG","","485.40000009536743","img/flower1.png","74","486.59999990463257","1","1","1","2","1,0,0,1,1,0,1,0,1","1,0,0,1,1,0,1,0,1","1",""
"","html-keyboard-response","179","109527","0.0-179.0","3N2BF7Y2VRGJS5UELSY1THV5SIJMHD","ALVNMQMD3Q3ZE","3THR0FZ95PF7SK0MYRNAOUHTWDJOLG","","null","<img src=""img/flower1.png"" style=""width:200px; border:14px solid green;"">","null","","","","","","","","",""
"","image-keyboard-response","180","109776","0.0-180.0","3N2BF7Y2VRGJS5UELSY1THV5SIJMHD","ALVNMQMD3Q3ZE","3THR0FZ95PF7SK0MYRNAOUHTWDJOLG","","248.40000009536743","img/flower2.png","74","249.20000004768372","1","1","3","2","1,0,0,1,1,0,1,0,1","1,0,0,1,1,0,1,0,1","1",""
"","html-keyboard-response","181","110078","0.0-181.0","3N2BF7Y2VRGJS5UELSY1THV5SIJMHD","ALVNMQMD3Q3ZE","3THR0FZ95PF7SK0MYRNAOUHTWDJOLG","","null","<img src=""img/flower2.png"" style=""width:200px; border:14px solid green;"">","null","","","","","","","","",""
"","image-keyboard-response","182","110419","0.0-182.0","3N2BF7Y2VRGJS5UELSY1THV5SIJMHD","ALVNMQMD3Q3ZE","3THR0FZ95PF7SK0MYRNAOUHTWDJOLG","","339.5","img/flower5.png","74","340.7000000476837","1","1","1","1","1,0.333,0.333,0.333,1,0.333,0.333,0.333,1","1,0.333,0.333,0.333,1,0.333,0.333,0.333,1","1",""
"","html-keyboard-response","183","110721","0.0-183.0","3N2BF7Y2VRGJS5UELSY1THV5SIJMHD","ALVNMQMD3Q3ZE","3THR0FZ95PF7SK0MYRNAOUHTWDJOLG","","null","<img src=""img/flower5.png"" style=""width:200px; border:14px solid green;"">","null","","","","","","","","",""
"","image-keyboard-response","184","111278","0.0-184.0","3N2BF7Y2VRGJS5UELSY1THV5SIJMHD","ALVNMQMD3Q3ZE","3THR0FZ95PF7SK0MYRNAOUHTWDJOLG","","554.9000000953674","img/flower4.png","74","556.2000000476837","1","1","2","1","1,0.333,0.333,0.333,1,0.333,0.333,0.333,1","1,0.333,0.333,0.333,1,0.333,0.333,0.333,1","1",""
"","html-keyboard-response","185","111579","0.0-185.0","3N2BF7Y2VRGJS5UELSY1THV5SIJMHD","ALVNMQMD3Q3ZE","3THR0FZ95PF7SK0MYRNAOUHTWDJOLG","","null","<img src=""img/flower4.png"" style=""width:200px; border:14px solid green;"">","null","","","","","","","","",""
"","image-keyboard-response","186","111947","0.0-186.0","3N2BF7Y2VRGJS5UELSY1THV5SIJMHD","ALVNMQMD3Q3ZE","3THR0FZ95PF7SK0MYRNAOUHTWDJOLG","","367.09999990463257","img/flower4.png","74","368.09999990463257","1","0","2","1","1,0.333,0.333,0.333,1,0.333,0.333,0.333,1","1,0.333,0.333,0.333,1,0.333,0.333,0.333,1","1",""
"","html-keyboard-response","187","112256","0.0-187.0","3N2BF7Y2VRGJS5UELSY1THV5SIJMHD","ALVNMQMD3Q3ZE","3THR0FZ95PF7SK0MYRNAOUHTWDJOLG","","null","<img src=""img/flower4.png"" style=""width:200px;border:14px solid red;"">","null","","","","","","","","",""
"","image-keyboard-response","188","112924","0.0-188.0","3N2BF7Y2VRGJS5UELSY1THV5SIJMHD","ALVNMQMD3Q3ZE","3THR0FZ95PF7SK0MYRNAOUHTWDJOLG","","667.2000000476837","img/flower3.png","74","668","1","0","3","1","1,0.333,0.333,0.333,1,0.333,0.333,0.333,1","1,0.333,0.333,0.333,1,0.333,0.333,0.333,1","1",""
"","html-keyboard-response","189","113226","0.0-189.0","3N2BF7Y2VRGJS5UELSY1THV5SIJMHD","ALVNMQMD3Q3ZE","3THR0FZ95PF7SK0MYRNAOUHTWDJOLG","","null","<img src=""img/flower3.png"" style=""width:200px;border:14px solid red;"">","null","","","","","","","","",""
"","image-keyboard-response","190","114013","0.0-190.0","3N2BF7Y2VRGJS5UELSY1THV5SIJMHD","ALVNMQMD3Q3ZE","3THR0FZ95PF7SK0MYRNAOUHTWDJOLG","","785.9000000953674","img/flower3.png","74","787.2000000476837","1","1","3","1","1,0.333,0.333,0.333,1,0.333,0.333,0.333,1","1,0.333,0.333,0.333,1,0.333,0.333,0.333,1","1",""
"","html-keyboard-response","191","114315","0.0-191.0","3N2BF7Y2VRGJS5UELSY1THV5SIJMHD","ALVNMQMD3Q3ZE","3THR0FZ95PF7SK0MYRNAOUHTWDJOLG","","null","<img src=""img/flower3.png"" style=""width:200px; border:14px solid green;"">","null","","","","","","","","",""
"","image-keyboard-response","192","114792","0.0-192.0","3N2BF7Y2VRGJS5UELSY1THV5SIJMHD","ALVNMQMD3Q3ZE","3THR0FZ95PF7SK0MYRNAOUHTWDJOLG","","476.2000000476837","img/flower4.png","74","476.7999999523163","1","1","2","1","1,0.333,0.333,0.333,1,0.333,0.333,0.333,1","1,0.333,0.333,0.333,1,0.333,0.333,0.333,1","1",""
"","html-keyboard-response","193","115099","0.0-193.0","3N2BF7Y2VRGJS5UELSY1THV5SIJMHD","ALVNMQMD3Q3ZE","3THR0FZ95PF7SK0MYRNAOUHTWDJOLG","","null","<img src=""img/flower4.png"" style=""width:200px; border:14px solid green;"">","null","","","","","","","","",""
"","image-keyboard-response","194","115659","0.0-194.0","3N2BF7Y2VRGJS5UELSY1THV5SIJMHD","ALVNMQMD3Q3ZE","3THR0FZ95PF7SK0MYRNAOUHTWDJOLG","","557","img/flower5.png","74","558","1","1","1","1","1,0.333,0.333,0.333,1,0.333,0.333,0.333,1","1,0.333,0.333,0.333,1,0.333,0.333,0.333,1","1",""
"","html-keyboard-response","195","115960","0.0-195.0","3N2BF7Y2VRGJS5UELSY1THV5SIJMHD","ALVNMQMD3Q3ZE","3THR0FZ95PF7SK0MYRNAOUHTWDJOLG","","null","<img src=""img/flower5.png"" style=""width:200px; border:14px solid green;"">","null","","","","","","","","",""
"","image-keyboard-response","196","116502","0.0-196.0","3N2BF7Y2VRGJS5UELSY1THV5SIJMHD","ALVNMQMD3Q3ZE","3THR0FZ95PF7SK0MYRNAOUHTWDJOLG","","540.5999999046326","img/flower4.png","74","541.3999998569489","1","0","2","1","1,0.333,0.333,0.333,1,0.333,0.333,0.333,1","1,0.333,0.333,0.333,1,0.333,0.333,0.333,1","1",""
"","html-keyboard-response","197","116803","0.0-197.0","3N2BF7Y2VRGJS5UELSY1THV5SIJMHD","ALVNMQMD3Q3ZE","3THR0FZ95PF7SK0MYRNAOUHTWDJOLG","","null","<img src=""img/flower4.png"" style=""width:200px;border:14px solid red;"">","null","","","","","","","","",""
"","image-keyboard-response","198","117335","0.0-198.0","3N2BF7Y2VRGJS5UELSY1THV5SIJMHD","ALVNMQMD3Q3ZE","3THR0FZ95PF7SK0MYRNAOUHTWDJOLG","","531.7999999523163","img/flower4.png","74","532.8000001907349","1","0","2","1","1,0.333,0.333,0.333,1,0.333,0.333,0.333,1","1,0.333,0.333,0.333,1,0.333,0.333,0.333,1","1",""
"","html-keyboard-response","199","117637","0.0-199.0","3N2BF7Y2VRGJS5UELSY1THV5SIJMHD","ALVNMQMD3Q3ZE","3THR0FZ95PF7SK0MYRNAOUHTWDJOLG","","null","<img src=""img/flower4.png"" style=""width:200px;border:14px solid red;"">","null","","","","","","","","",""
"","image-keyboard-response","200","118173","0.0-200.0","3N2BF7Y2VRGJS5UELSY1THV5SIJMHD","ALVNMQMD3Q3ZE","3THR0FZ95PF7SK0MYRNAOUHTWDJOLG","","534.5","img/flower3.png","75","535.3999998569489","2","0","3","1","1,0.333,0.333,0.333,1,0.333,0.333,0.333,1","1,0.333,0.333,0.333,1,0.333,0.333,0.333,1","1",""
"","html-keyboard-response","201","118474","0.0-201.0","3N2BF7Y2VRGJS5UELSY1THV5SIJMHD","ALVNMQMD3Q3ZE","3THR0FZ95PF7SK0MYRNAOUHTWDJOLG","","null","<img src=""img/flower3.png"" style=""width:200px;border:14px solid red;"">","null","","","","","","","","",""
"","image-keyboard-response","202","118798","0.0-202.0","3N2BF7Y2VRGJS5UELSY1THV5SIJMHD","ALVNMQMD3Q3ZE","3THR0FZ95PF7SK0MYRNAOUHTWDJOLG","","322.7999999523163","img/flower5.png","74","323.7000000476837","1","1","1","1","1,0.333,0.333,0.333,1,0.333,0.333,0.333,1","1,0.333,0.333,0.333,1,0.333,0.333,0.333,1","1",""
"","html-keyboard-response","203","119099","0.0-203.0","3N2BF7Y2VRGJS5UELSY1THV5SIJMHD","ALVNMQMD3Q3ZE","3THR0FZ95PF7SK0MYRNAOUHTWDJOLG","","null","<img src=""img/flower5.png"" style=""width:200px; border:14px solid green;"">","null","","","","","","","","",""
"","image-keyboard-response","204","119579","0.0-204.0","3N2BF7Y2VRGJS5UELSY1THV5SIJMHD","ALVNMQMD3Q3ZE","3THR0FZ95PF7SK0MYRNAOUHTWDJOLG","","478.40000009536743","img/flower5.png","74","479.60000014305115","1","1","1","1","1,0.333,0.333,0.333,1,0.333,0.333,0.333,1","1,0.333,0.333,0.333,1,0.333,0.333,0.333,1","1",""
"","html-keyboard-response","205","119881","0.0-205.0","3N2BF7Y2VRGJS5UELSY1THV5SIJMHD","ALVNMQMD3Q3ZE","3THR0FZ95PF7SK0MYRNAOUHTWDJOLG","","null","<img src=""img/flower5.png"" style=""width:200px; border:14px solid green;"">","null","","","","","","","","",""
"","image-keyboard-response","206","120417","0.0-206.0","3N2BF7Y2VRGJS5UELSY1THV5SIJMHD","ALVNMQMD3Q3ZE","3THR0FZ95PF7SK0MYRNAOUHTWDJOLG","","535","img/flower3.png","74","535.7999999523163","1","1","3","1","1,0.333,0.333,0.333,1,0.333,0.333,0.333,1","1,0.333,0.333,0.333,1,0.333,0.333,0.333,1","1",""
"","html-keyboard-response","207","120720","0.0-207.0","3N2BF7Y2VRGJS5UELSY1THV5SIJMHD","ALVNMQMD3Q3ZE","3THR0FZ95PF7SK0MYRNAOUHTWDJOLG","","null","<img src=""img/flower3.png"" style=""width:200px; border:14px solid green;"">","null","","","","","","","","",""
"","image-keyboard-response","208","121189","0.0-208.0","3N2BF7Y2VRGJS5UELSY1THV5SIJMHD","ALVNMQMD3Q3ZE","3THR0FZ95PF7SK0MYRNAOUHTWDJOLG","","468.90000009536743","img/flower5.png","74","469.60000014305115","1","1","1","1","1,0.333,0.333,0.333,1,0.333,0.333,0.333,1","1,0.333,0.333,0.333,1,0.333,0.333,0.333,1","1",""
"","html-keyboard-response","209","121491","0.0-209.0","3N2BF7Y2VRGJS5UELSY1THV5SIJMHD","ALVNMQMD3Q3ZE","3THR0FZ95PF7SK0MYRNAOUHTWDJOLG","","null","<img src=""img/flower5.png"" style=""width:200px; border:14px solid green;"">","null","","","","","","","","",""
"","image-keyboard-response","210","121948","0.0-210.0","3N2BF7Y2VRGJS5UELSY1THV5SIJMHD","ALVNMQMD3Q3ZE","3THR0FZ95PF7SK0MYRNAOUHTWDJOLG","","455.90000009536743","img/flower5.png","74","456.60000014305115","1","1","1","1","1,0.333,0.333,0.333,1,0.333,0.333,0.333,1","1,0.333,0.333,0.333,1,0.333,0.333,0.333,1","1",""
"","html-keyboard-response","211","122249","0.0-211.0","3N2BF7Y2VRGJS5UELSY1THV5SIJMHD","ALVNMQMD3Q3ZE","3THR0FZ95PF7SK0MYRNAOUHTWDJOLG","","null","<img src=""img/flower5.png"" style=""width:200px; border:14px solid green;"">","null","","","","","","","","",""
"","image-keyboard-response","212","122661","0.0-212.0","3N2BF7Y2VRGJS5UELSY1THV5SIJMHD","ALVNMQMD3Q3ZE","3THR0FZ95PF7SK0MYRNAOUHTWDJOLG","","410.2000000476837","img/flower4.png","74","411","1","0","2","1","1,0.333,0.333,0.333,1,0.333,0.333,0.333,1","1,0.333,0.333,0.333,1,0.333,0.333,0.333,1","1",""
"","html-keyboard-response","213","122964","0.0-213.0","3N2BF7Y2VRGJS5UELSY1THV5SIJMHD","ALVNMQMD3Q3ZE","3THR0FZ95PF7SK0MYRNAOUHTWDJOLG","","null","<img src=""img/flower4.png"" style=""width:200px;border:14px solid red;"">","null","","","","","","","","",""
"","image-keyboard-response","214","123594","0.0-214.0","3N2BF7Y2VRGJS5UELSY1THV5SIJMHD","ALVNMQMD3Q3ZE","3THR0FZ95PF7SK0MYRNAOUHTWDJOLG","","629.5","img/flower3.png","74","630.2000000476837","1","1","3","1","1,0.333,0.333,0.333,1,0.333,0.333,0.333,1","1,0.333,0.333,0.333,1,0.333,0.333,0.333,1","1",""
"","html-keyboard-response","215","123896","0.0-215.0","3N2BF7Y2VRGJS5UELSY1THV5SIJMHD","ALVNMQMD3Q3ZE","3THR0FZ95PF7SK0MYRNAOUHTWDJOLG","","null","<img src=""img/flower3.png"" style=""width:200px; border:14px solid green;"">","null","","","","","","","","",""
"","image-keyboard-response","216","124256","0.0-216.0","3N2BF7Y2VRGJS5UELSY1THV5SIJMHD","ALVNMQMD3Q3ZE","3THR0FZ95PF7SK0MYRNAOUHTWDJOLG","","359.10000014305115","img/flower4.png","74","360.09999990463257","1","0","2","1","1,0.333,0.333,0.333,1,0.333,0.333,0.333,1","1,0.333,0.333,0.333,1,0.333,0.333,0.333,1","1",""
"","html-keyboard-response","217","124557","0.0-217.0","3N2BF7Y2VRGJS5UELSY1THV5SIJMHD","ALVNMQMD3Q3ZE","3THR0FZ95PF7SK0MYRNAOUHTWDJOLG","","null","<img src=""img/flower4.png"" style=""width:200px;border:14px solid red;"">","null","","","","","","","","",""
"","image-keyboard-response","218","125110","0.0-218.0","3N2BF7Y2VRGJS5UELSY1THV5SIJMHD","ALVNMQMD3Q3ZE","3THR0FZ95PF7SK0MYRNAOUHTWDJOLG","","552","img/flower5.png","74","552.7999999523163","1","1","1","1","1,0.333,0.333,0.333,1,0.333,0.333,0.333,1","1,0.333,0.333,0.333,1,0.333,0.333,0.333,1","1",""
"","html-keyboard-response","219","125413","0.0-219.0","3N2BF7Y2VRGJS5UELSY1THV5SIJMHD","ALVNMQMD3Q3ZE","3THR0FZ95PF7SK0MYRNAOUHTWDJOLG","","null","<img src=""img/flower5.png"" style=""width:200px; border:14px solid green;"">","null","","","","","","","","",""
"","image-keyboard-response","220","125875","0.0-220.0","3N2BF7Y2VRGJS5UELSY1THV5SIJMHD","ALVNMQMD3Q3ZE","3THR0FZ95PF7SK0MYRNAOUHTWDJOLG","","461.5","img/flower4.png","74","462.10000014305115","1","0","2","1","1,0.333,0.333,0.333,1,0.333,0.333,0.333,1","1,0.333,0.333,0.333,1,0.333,0.333,0.333,1","1",""
"","html-keyboard-response","221","126177","0.0-221.0","3N2BF7Y2VRGJS5UELSY1THV5SIJMHD","ALVNMQMD3Q3ZE","3THR0FZ95PF7SK0MYRNAOUHTWDJOLG","","null","<img src=""img/flower4.png"" style=""width:200px;border:14px solid red;"">","null","","","","","","","","",""
"","image-keyboard-response","222","126615","0.0-222.0","3N2BF7Y2VRGJS5UELSY1THV5SIJMHD","ALVNMQMD3Q3ZE","3THR0FZ95PF7SK0MYRNAOUHTWDJOLG","","436.90000009536743","img/flower3.png","74","437.90000009536743","1","1","3","1","1,0.333,0.333,0.333,1,0.333,0.333,0.333,1","1,0.333,0.333,0.333,1,0.333,0.333,0.333,1","1",""
"","html-keyboard-response","223","126917","0.0-223.0","3N2BF7Y2VRGJS5UELSY1THV5SIJMHD","ALVNMQMD3Q3ZE","3THR0FZ95PF7SK0MYRNAOUHTWDJOLG","","null","<img src=""img/flower3.png"" style=""width:200px; border:14px solid green;"">","null","","","","","","","","",""
"","image-keyboard-response","224","127320","0.0-224.0","3N2BF7Y2VRGJS5UELSY1THV5SIJMHD","ALVNMQMD3Q3ZE","3THR0FZ95PF7SK0MYRNAOUHTWDJOLG","","402.2999999523163","img/flower3.png","74","403.09999990463257","1","0","3","1","1,0.333,0.333,0.333,1,0.333,0.333,0.333,1","1,0.333,0.333,0.333,1,0.333,0.333,0.333,1","1",""
"","html-keyboard-response","225","127623","0.0-225.0","3N2BF7Y2VRGJS5UELSY1THV5SIJMHD","ALVNMQMD3Q3ZE","3THR0FZ95PF7SK0MYRNAOUHTWDJOLG","","null","<img src=""img/flower3.png"" style=""width:200px;border:14px solid red;"">","null","","","","","","","","",""
"","image-keyboard-response","226","128007","0.0-226.0","3N2BF7Y2VRGJS5UELSY1THV5SIJMHD","ALVNMQMD3Q3ZE","3THR0FZ95PF7SK0MYRNAOUHTWDJOLG","","383.60000014305115","img/flower4.png","74","384.30000019073486","1","1","2","1","1,0.333,0.333,0.333,1,0.333,0.333,0.333,1","1,0.333,0.333,0.333,1,0.333,0.333,0.333,1","1",""
"","html-keyboard-response","227","128310","0.0-227.0","3N2BF7Y2VRGJS5UELSY1THV5SIJMHD","ALVNMQMD3Q3ZE","3THR0FZ95PF7SK0MYRNAOUHTWDJOLG","","null","<img src=""img/flower4.png"" style=""width:200px; border:14px solid green;"">","null","","","","","","","","",""
"","image-keyboard-response","228","128816","0.0-228.0","3N2BF7Y2VRGJS5UELSY1THV5SIJMHD","ALVNMQMD3Q3ZE","3THR0FZ95PF7SK0MYRNAOUHTWDJOLG","","505.30000019073486","img/flower5.png","75","506","2","0","1","1","1,0.333,0.333,0.333,1,0.333,0.333,0.333,1","1,0.333,0.333,0.333,1,0.333,0.333,0.333,1","1",""
"","html-keyboard-response","229","129117","0.0-229.0","3N2BF7Y2VRGJS5UELSY1THV5SIJMHD","ALVNMQMD3Q3ZE","3THR0FZ95PF7SK0MYRNAOUHTWDJOLG","","null","<img src=""img/flower5.png"" style=""width:200px;border:14px solid red;"">","null","","","","","","","","",""
"","image-keyboard-response","230","129301","0.0-230.0","3N2BF7Y2VRGJS5UELSY1THV5SIJMHD","ALVNMQMD3Q3ZE","3THR0FZ95PF7SK0MYRNAOUHTWDJOLG","","182.40000009536743","img/flower3.png","74","183.70000004768372","1","0","3","1","1,0.333,0.333,0.333,1,0.333,0.333,0.333,1","1,0.333,0.333,0.333,1,0.333,0.333,0.333,1","1",""
"","html-keyboard-response","231","129604","0.0-231.0","3N2BF7Y2VRGJS5UELSY1THV5SIJMHD","ALVNMQMD3Q3ZE","3THR0FZ95PF7SK0MYRNAOUHTWDJOLG","","null","<img src=""img/flower3.png"" style=""width:200px;border:14px solid red;"">","null","","","","","","","","",""
"","image-keyboard-response","232","130008","0.0-232.0","3N2BF7Y2VRGJS5UELSY1THV5SIJMHD","ALVNMQMD3Q3ZE","3THR0FZ95PF7SK0MYRNAOUHTWDJOLG","","402.7999999523163","img/flower3.png","76","403.40000009536743","3","1","3","1","1,0.333,0.333,0.333,1,0.333,0.333,0.333,1","1,0.333,0.333,0.333,1,0.333,0.333,0.333,1","1",""
"","html-keyboard-response","233","130309","0.0-233.0","3N2BF7Y2VRGJS5UELSY1THV5SIJMHD","ALVNMQMD3Q3ZE","3THR0FZ95PF7SK0MYRNAOUHTWDJOLG","","null","<img src=""img/flower3.png"" style=""width:200px; border:14px solid green;"">","null","","","","","","","","",""
"","image-keyboard-response","234","130668","0.0-234.0","3N2BF7Y2VRGJS5UELSY1THV5SIJMHD","ALVNMQMD3Q3ZE","3THR0FZ95PF7SK0MYRNAOUHTWDJOLG","","357.2000000476837","img/flower5.png","76","358.7000000476837","3","0","1","1","1,0.333,0.333,0.333,1,0.333,0.333,0.333,1","1,0.333,0.333,0.333,1,0.333,0.333,0.333,1","1",""
"","html-keyboard-response","235","130970","0.0-235.0","3N2BF7Y2VRGJS5UELSY1THV5SIJMHD","ALVNMQMD3Q3ZE","3THR0FZ95PF7SK0MYRNAOUHTWDJOLG","","null","<img src=""img/flower5.png"" style=""width:200px;border:14px solid red;"">","null","","","","","","","","",""
"","image-keyboard-response","236","131514","0.0-236.0","3N2BF7Y2VRGJS5UELSY1THV5SIJMHD","ALVNMQMD3Q3ZE","3THR0FZ95PF7SK0MYRNAOUHTWDJOLG","","543.1000001430511","img/flower5.png","75","544.3000001907349","2","1","1","1","1,0.333,0.333,0.333,1,0.333,0.333,0.333,1","1,0.333,0.333,0.333,1,0.333,0.333,0.333,1","1",""
"","html-keyboard-response","237","131818","0.0-237.0","3N2BF7Y2VRGJS5UELSY1THV5SIJMHD","ALVNMQMD3Q3ZE","3THR0FZ95PF7SK0MYRNAOUHTWDJOLG","","null","<img src=""img/flower5.png"" style=""width:200px; border:14px solid green;"">","null","","","","","","","","",""
"","image-keyboard-response","238","132320","0.0-238.0","3N2BF7Y2VRGJS5UELSY1THV5SIJMHD","ALVNMQMD3Q3ZE","3THR0FZ95PF7SK0MYRNAOUHTWDJOLG","","501.2000000476837","img/flower4.png","75","502.7000000476837","2","1","2","1","1,0.333,0.333,0.333,1,0.333,0.333,0.333,1","1,0.333,0.333,0.333,1,0.333,0.333,0.333,1","1",""
"","html-keyboard-response","239","132623","0.0-239.0","3N2BF7Y2VRGJS5UELSY1THV5SIJMHD","ALVNMQMD3Q3ZE","3THR0FZ95PF7SK0MYRNAOUHTWDJOLG","","null","<img src=""img/flower4.png"" style=""width:200px; border:14px solid green;"">","null","","","","","","","","",""
"","image-keyboard-response","240","133112","0.0-240.0","3N2BF7Y2VRGJS5UELSY1THV5SIJMHD","ALVNMQMD3Q3ZE","3THR0FZ95PF7SK0MYRNAOUHTWDJOLG","","487.7999999523163","img/flower4.png","75","488.5","2","1","2","1","1,0.333,0.333,0.333,1,0.333,0.333,0.333,1","1,0.333,0.333,0.333,1,0.333,0.333,0.333,1","1",""
"","html-keyboard-response","241","133413","0.0-241.0","3N2BF7Y2VRGJS5UELSY1THV5SIJMHD","ALVNMQMD3Q3ZE","3THR0FZ95PF7SK0MYRNAOUHTWDJOLG","","null","<img src=""img/flower4.png"" style=""width:200px; border:14px solid green;"">","null","","","","","","","","",""
"","image-keyboard-response","242","133862","0.0-242.0","3N2BF7Y2VRGJS5UELSY1THV5SIJMHD","ALVNMQMD3Q3ZE","3THR0FZ95PF7SK0MYRNAOUHTWDJOLG","","448.2999999523163","img/flower4.png","75","449","2","1","2","1","1,0.333,0.333,0.333,1,0.333,0.333,0.333,1","1,0.333,0.333,0.333,1,0.333,0.333,0.333,1","1",""
"","html-keyboard-response","243","134164","0.0-243.0","3N2BF7Y2VRGJS5UELSY1THV5SIJMHD","ALVNMQMD3Q3ZE","3THR0FZ95PF7SK0MYRNAOUHTWDJOLG","","null","<img src=""img/flower4.png"" style=""width:200px; border:14px solid green;"">","null","","","","","","","","",""
"","image-keyboard-response","244","134750","0.0-244.0","3N2BF7Y2VRGJS5UELSY1THV5SIJMHD","ALVNMQMD3Q3ZE","3THR0FZ95PF7SK0MYRNAOUHTWDJOLG","","584.2999999523163","img/flower5.png","75","585.2999999523163","2","0","1","1","1,0.333,0.333,0.333,1,0.333,0.333,0.333,1","1,0.333,0.333,0.333,1,0.333,0.333,0.333,1","1",""
"","html-keyboard-response","245","135051","0.0-245.0","3N2BF7Y2VRGJS5UELSY1THV5SIJMHD","ALVNMQMD3Q3ZE","3THR0FZ95PF7SK0MYRNAOUHTWDJOLG","","null","<img src=""img/flower5.png"" style=""width:200px;border:14px solid red;"">","null","","","","","","","","",""
"","image-keyboard-response","246","135317","0.0-246.0","3N2BF7Y2VRGJS5UELSY1THV5SIJMHD","ALVNMQMD3Q3ZE","3THR0FZ95PF7SK0MYRNAOUHTWDJOLG","","264.5","img/flower5.png","74","265.09999990463257","1","1","1","1","1,0.333,0.333,0.333,1,0.333,0.333,0.333,1","1,0.333,0.333,0.333,1,0.333,0.333,0.333,1","1",""
"","html-keyboard-response","247","135618","0.0-247.0","3N2BF7Y2VRGJS5UELSY1THV5SIJMHD","ALVNMQMD3Q3ZE","3THR0FZ95PF7SK0MYRNAOUHTWDJOLG","","null","<img src=""img/flower5.png"" style=""width:200px; border:14px solid green;"">","null","","","","","","","","",""
"","image-keyboard-response","248","136060","0.0-248.0","3N2BF7Y2VRGJS5UELSY1THV5SIJMHD","ALVNMQMD3Q3ZE","3THR0FZ95PF7SK0MYRNAOUHTWDJOLG","","440.90000009536743","img/flower4.png","75","441.7000000476837","2","1","2","1","1,0.333,0.333,0.333,1,0.333,0.333,0.333,1","1,0.333,0.333,0.333,1,0.333,0.333,0.333,1","1",""
"","html-keyboard-response","249","136361","0.0-249.0","3N2BF7Y2VRGJS5UELSY1THV5SIJMHD","ALVNMQMD3Q3ZE","3THR0FZ95PF7SK0MYRNAOUHTWDJOLG","","null","<img src=""img/flower4.png"" style=""width:200px; border:14px solid green;"">","null","","","","","","","","",""
"","image-keyboard-response","250","136560","0.0-250.0","3N2BF7Y2VRGJS5UELSY1THV5SIJMHD","ALVNMQMD3Q3ZE","3THR0FZ95PF7SK0MYRNAOUHTWDJOLG","","197.29999995231628","img/flower4.png","74","198.40000009536743","1","0","2","1","1,0.333,0.333,0.333,1,0.333,0.333,0.333,1","1,0.333,0.333,0.333,1,0.333,0.333,0.333,1","1",""
"","html-keyboard-response","251","136862","0.0-251.0","3N2BF7Y2VRGJS5UELSY1THV5SIJMHD","ALVNMQMD3Q3ZE","3THR0FZ95PF7SK0MYRNAOUHTWDJOLG","","null","<img src=""img/flower4.png"" style=""width:200px;border:14px solid red;"">","null","","","","","","","","",""
"","image-keyboard-response","252","137276","0.0-252.0","3N2BF7Y2VRGJS5UELSY1THV5SIJMHD","ALVNMQMD3Q3ZE","3THR0FZ95PF7SK0MYRNAOUHTWDJOLG","","412.09999990463257","img/flower4.png","75","413","2","1","2","1","1,0.333,0.333,0.333,1,0.333,0.333,0.333,1","1,0.333,0.333,0.333,1,0.333,0.333,0.333,1","1",""
"","html-keyboard-response","253","137580","0.0-253.0","3N2BF7Y2VRGJS5UELSY1THV5SIJMHD","ALVNMQMD3Q3ZE","3THR0FZ95PF7SK0MYRNAOUHTWDJOLG","","null","<img src=""img/flower4.png"" style=""width:200px; border:14px solid green;"">","null","","","","","","","","",""
"","image-keyboard-response","254","137716","0.0-254.0","3N2BF7Y2VRGJS5UELSY1THV5SIJMHD","ALVNMQMD3Q3ZE","3THR0FZ95PF7SK0MYRNAOUHTWDJOLG","","135.39999985694885","img/flower4.png","75","136.39999985694885","2","1","2","1","1,0.333,0.333,0.333,1,0.333,0.333,0.333,1","1,0.333,0.333,0.333,1,0.333,0.333,0.333,1","1",""
"","html-keyboard-response","255","138019","0.0-255.0","3N2BF7Y2VRGJS5UELSY1THV5SIJMHD","ALVNMQMD3Q3ZE","3THR0FZ95PF7SK0MYRNAOUHTWDJOLG","","null","<img src=""img/flower4.png"" style=""width:200px; border:14px solid green;"">","null","","","","","","","","",""
"","image-keyboard-response","256","138220","0.0-256.0","3N2BF7Y2VRGJS5UELSY1THV5SIJMHD","ALVNMQMD3Q3ZE","3THR0FZ95PF7SK0MYRNAOUHTWDJOLG","","200.30000019073486","img/flower3.png","75","201.19999980926514","2","0","3","1","1,0.333,0.333,0.333,1,0.333,0.333,0.333,1","1,0.333,0.333,0.333,1,0.333,0.333,0.333,1","1",""
"","html-keyboard-response","257","138523","0.0-257.0","3N2BF7Y2VRGJS5UELSY1THV5SIJMHD","ALVNMQMD3Q3ZE","3THR0FZ95PF7SK0MYRNAOUHTWDJOLG","","null","<img src=""img/flower3.png"" style=""width:200px;border:14px solid red;"">","null","","","","","","","","",""
"","image-keyboard-response","258","138808","0.0-258.0","3N2BF7Y2VRGJS5UELSY1THV5SIJMHD","ALVNMQMD3Q3ZE","3THR0FZ95PF7SK0MYRNAOUHTWDJOLG","","284.5","img/flower3.png","74","285.40000009536743","1","1","3","1","1,0.333,0.333,0.333,1,0.333,0.333,0.333,1","1,0.333,0.333,0.333,1,0.333,0.333,0.333,1","1",""
"","html-keyboard-response","259","139111","0.0-259.0","3N2BF7Y2VRGJS5UELSY1THV5SIJMHD","ALVNMQMD3Q3ZE","3THR0FZ95PF7SK0MYRNAOUHTWDJOLG","","null","<img src=""img/flower3.png"" style=""width:200px; border:14px solid green;"">","null","","","","","","","","",""
"","image-keyboard-response","260","139266","0.0-260.0","3N2BF7Y2VRGJS5UELSY1THV5SIJMHD","ALVNMQMD3Q3ZE","3THR0FZ95PF7SK0MYRNAOUHTWDJOLG","","154.09999990463257","img/flower3.png","74","155.10000014305115","1","0","3","1","1,0.333,0.333,0.333,1,0.333,0.333,0.333,1","1,0.333,0.333,0.333,1,0.333,0.333,0.333,1","1",""
"","html-keyboard-response","261","139567","0.0-261.0","3N2BF7Y2VRGJS5UELSY1THV5SIJMHD","ALVNMQMD3Q3ZE","3THR0FZ95PF7SK0MYRNAOUHTWDJOLG","","null","<img src=""img/flower3.png"" style=""width:200px;border:14px solid red;"">","null","","","","","","","","",""
"","image-keyboard-response","262","140037","0.0-262.0","3N2BF7Y2VRGJS5UELSY1THV5SIJMHD","ALVNMQMD3Q3ZE","3THR0FZ95PF7SK0MYRNAOUHTWDJOLG","","468.90000009536743","img/flower3.png","75","469.59999990463257","2","0","3","1","1,0.333,0.333,0.333,1,0.333,0.333,0.333,1","1,0.333,0.333,0.333,1,0.333,0.333,0.333,1","1",""
"","html-keyboard-response","263","140339","0.0-263.0","3N2BF7Y2VRGJS5UELSY1THV5SIJMHD","ALVNMQMD3Q3ZE","3THR0FZ95PF7SK0MYRNAOUHTWDJOLG","","null","<img src=""img/flower3.png"" style=""width:200px;border:14px solid red;"">","null","","","","","","","","",""
"","image-keyboard-response","264","140519","0.0-264.0","3N2BF7Y2VRGJS5UELSY1THV5SIJMHD","ALVNMQMD3Q3ZE","3THR0FZ95PF7SK0MYRNAOUHTWDJOLG","","178.5","img/flower3.png","76","179.59999990463257","3","1","3","1","1,0.333,0.333,0.333,1,0.333,0.333,0.333,1","1,0.333,0.333,0.333,1,0.333,0.333,0.333,1","1",""
"","html-keyboard-response","265","140821","0.0-265.0","3N2BF7Y2VRGJS5UELSY1THV5SIJMHD","ALVNMQMD3Q3ZE","3THR0FZ95PF7SK0MYRNAOUHTWDJOLG","","null","<img src=""img/flower3.png"" style=""width:200px; border:14px solid green;"">","null","","","","","","","","",""
"","image-keyboard-response","266","141076","0.0-266.0","3N2BF7Y2VRGJS5UELSY1THV5SIJMHD","ALVNMQMD3Q3ZE","3THR0FZ95PF7SK0MYRNAOUHTWDJOLG","","253.40000009536743","img/flower5.png","76","254.5","3","0","1","1","1,0.333,0.333,0.333,1,0.333,0.333,0.333,1","1,0.333,0.333,0.333,1,0.333,0.333,0.333,1","1",""
"","html-keyboard-response","267","141378","0.0-267.0","3N2BF7Y2VRGJS5UELSY1THV5SIJMHD","ALVNMQMD3Q3ZE","3THR0FZ95PF7SK0MYRNAOUHTWDJOLG","","null","<img src=""img/flower5.png"" style=""width:200px;border:14px solid red;"">","null","","","","","","","","",""
"","image-keyboard-response","268","141809","0.0-268.0","3N2BF7Y2VRGJS5UELSY1THV5SIJMHD","ALVNMQMD3Q3ZE","3THR0FZ95PF7SK0MYRNAOUHTWDJOLG","","429.7999999523163","img/flower5.png","75","430.5","2","0","1","1","1,0.333,0.333,0.333,1,0.333,0.333,0.333,1","1,0.333,0.333,0.333,1,0.333,0.333,0.333,1","1",""
"","html-keyboard-response","269","142111","0.0-269.0","3N2BF7Y2VRGJS5UELSY1THV5SIJMHD","ALVNMQMD3Q3ZE","3THR0FZ95PF7SK0MYRNAOUHTWDJOLG","","null","<img src=""img/flower5.png"" style=""width:200px;border:14px solid red;"">","null","","","","","","","","",""
"","image-keyboard-response","270","142588","0.0-270.0","3N2BF7Y2VRGJS5UELSY1THV5SIJMHD","ALVNMQMD3Q3ZE","3THR0FZ95PF7SK0MYRNAOUHTWDJOLG","","475.2999999523163","img/flower4.png","75","476.5","2","1","2","1","1,0.333,0.333,0.333,1,0.333,0.333,0.333,1","1,0.333,0.333,0.333,1,0.333,0.333,0.333,1","1",""
"","html-keyboard-response","271","142889","0.0-271.0","3N2BF7Y2VRGJS5UELSY1THV5SIJMHD","ALVNMQMD3Q3ZE","3THR0FZ95PF7SK0MYRNAOUHTWDJOLG","","null","<img src=""img/flower4.png"" style=""width:200px; border:14px solid green;"">","null","","","","","","","","",""
"","image-keyboard-response","272","143479","0.0-272.0","3N2BF7Y2VRGJS5UELSY1THV5SIJMHD","ALVNMQMD3Q3ZE","3THR0FZ95PF7SK0MYRNAOUHTWDJOLG","","588.6000001430511","img/flower3.png","74","589.6999998092651","1","1","3","1","1,0.333,0.333,0.333,1,0.333,0.333,0.333,1","1,0.333,0.333,0.333,1,0.333,0.333,0.333,1","1",""
"","html-keyboard-response","273","143781","0.0-273.0","3N2BF7Y2VRGJS5UELSY1THV5SIJMHD","ALVNMQMD3Q3ZE","3THR0FZ95PF7SK0MYRNAOUHTWDJOLG","","null","<img src=""img/flower3.png"" style=""width:200px; border:14px solid green;"">","null","","","","","","","","",""
"","image-keyboard-response","274","144158","0.0-274.0","3N2BF7Y2VRGJS5UELSY1THV5SIJMHD","ALVNMQMD3Q3ZE","3THR0FZ95PF7SK0MYRNAOUHTWDJOLG","","376","img/flower5.png","74","376.7000000476837","1","1","1","1","1,0.333,0.333,0.333,1,0.333,0.333,0.333,1","1,0.333,0.333,0.333,1,0.333,0.333,0.333,1","1",""
"","html-keyboard-response","275","144460","0.0-275.0","3N2BF7Y2VRGJS5UELSY1THV5SIJMHD","ALVNMQMD3Q3ZE","3THR0FZ95PF7SK0MYRNAOUHTWDJOLG","","null","<img src=""img/flower5.png"" style=""width:200px; border:14px solid green;"">","null","","","","","","","","",""
"","image-keyboard-response","276","144889","0.0-276.0","3N2BF7Y2VRGJS5UELSY1THV5SIJMHD","ALVNMQMD3Q3ZE","3THR0FZ95PF7SK0MYRNAOUHTWDJOLG","","427.89999985694885","img/flower5.png","74","428.7999999523163","1","1","1","1","1,0.333,0.333,0.333,1,0.333,0.333,0.333,1","1,0.333,0.333,0.333,1,0.333,0.333,0.333,1","1",""
"","html-keyboard-response","277","145191","0.0-277.0","3N2BF7Y2VRGJS5UELSY1THV5SIJMHD","ALVNMQMD3Q3ZE","3THR0FZ95PF7SK0MYRNAOUHTWDJOLG","","null","<img src=""img/flower5.png"" style=""width:200px; border:14px solid green;"">","null","","","","","","","","",""
"","image-keyboard-response","278","145628","0.0-278.0","3N2BF7Y2VRGJS5UELSY1THV5SIJMHD","ALVNMQMD3Q3ZE","3THR0FZ95PF7SK0MYRNAOUHTWDJOLG","","435.5","img/flower5.png","74","436.39999985694885","1","1","1","1","1,0.333,0.333,0.333,1,0.333,0.333,0.333,1","1,0.333,0.333,0.333,1,0.333,0.333,0.333,1","1",""
"","html-keyboard-response","279","145930","0.0-279.0","3N2BF7Y2VRGJS5UELSY1THV5SIJMHD","ALVNMQMD3Q3ZE","3THR0FZ95PF7SK0MYRNAOUHTWDJOLG","","null","<img src=""img/flower5.png"" style=""width:200px; border:14px solid green;"">","null","","","","","","","","",""
"","image-keyboard-response","280","146363","0.0-280.0","3N2BF7Y2VRGJS5UELSY1THV5SIJMHD","ALVNMQMD3Q3ZE","3THR0FZ95PF7SK0MYRNAOUHTWDJOLG","","432.59999990463257","img/flower5.png","74","433.39999985694885","1","1","1","1","1,0.333,0.333,0.333,1,0.333,0.333,0.333,1","1,0.333,0.333,0.333,1,0.333,0.333,0.333,1","1",""
"","html-keyboard-response","281","146665","0.0-281.0","3N2BF7Y2VRGJS5UELSY1THV5SIJMHD","ALVNMQMD3Q3ZE","3THR0FZ95PF7SK0MYRNAOUHTWDJOLG","","null","<img src=""img/flower5.png"" style=""width:200px; border:14px solid green;"">","null","","","","","","","","",""
"","image-keyboard-response","282","146977","0.0-282.0","3N2BF7Y2VRGJS5UELSY1THV5SIJMHD","ALVNMQMD3Q3ZE","3THR0FZ95PF7SK0MYRNAOUHTWDJOLG","","310.69999980926514","img/flower5.png","74","312","1","1","1","1","1,0.333,0.333,0.333,1,0.333,0.333,0.333,1","1,0.333,0.333,0.333,1,0.333,0.333,0.333,1","1",""
"","html-keyboard-response","283","147280","0.0-283.0","3N2BF7Y2VRGJS5UELSY1THV5SIJMHD","ALVNMQMD3Q3ZE","3THR0FZ95PF7SK0MYRNAOUHTWDJOLG","","null","<img src=""img/flower5.png"" style=""width:200px; border:14px solid green;"">","null","","","","","","","","",""
"","image-keyboard-response","284","147723","0.0-284.0","3N2BF7Y2VRGJS5UELSY1THV5SIJMHD","ALVNMQMD3Q3ZE","3THR0FZ95PF7SK0MYRNAOUHTWDJOLG","","442.40000009536743","img/flower5.png","74","443.10000014305115","1","1","1","1","1,0.333,0.333,0.333,1,0.333,0.333,0.333,1","1,0.333,0.333,0.333,1,0.333,0.333,0.333,1","1",""
"","html-keyboard-response","285","148025","0.0-285.0","3N2BF7Y2VRGJS5UELSY1THV5SIJMHD","ALVNMQMD3Q3ZE","3THR0FZ95PF7SK0MYRNAOUHTWDJOLG","","null","<img src=""img/flower5.png"" style=""width:200px; border:14px solid green;"">","null","","","","","","","","",""
"","image-keyboard-response","286","148379","0.0-286.0","3N2BF7Y2VRGJS5UELSY1THV5SIJMHD","ALVNMQMD3Q3ZE","3THR0FZ95PF7SK0MYRNAOUHTWDJOLG","","352.40000009536743","img/flower4.png","74","353.2999999523163","1","1","2","1","1,0.333,0.333,0.333,1,0.333,0.333,0.333,1","1,0.333,0.333,0.333,1,0.333,0.333,0.333,1","1",""
"","html-keyboard-response","287","148681","0.0-287.0","3N2BF7Y2VRGJS5UELSY1THV5SIJMHD","ALVNMQMD3Q3ZE","3THR0FZ95PF7SK0MYRNAOUHTWDJOLG","","null","<img src=""img/flower4.png"" style=""width:200px; border:14px solid green;"">","null","","","","","","","","",""
"","image-keyboard-response","288","149114","0.0-288.0","3N2BF7Y2VRGJS5UELSY1THV5SIJMHD","ALVNMQMD3Q3ZE","3THR0FZ95PF7SK0MYRNAOUHTWDJOLG","","431.89999985694885","img/flower3.png","74","432.89999985694885","1","1","3","1","1,0.333,0.333,0.333,1,0.333,0.333,0.333,1","1,0.333,0.333,0.333,1,0.333,0.333,0.333,1","1",""
"","html-keyboard-response","289","149415","0.0-289.0","3N2BF7Y2VRGJS5UELSY1THV5SIJMHD","ALVNMQMD3Q3ZE","3THR0FZ95PF7SK0MYRNAOUHTWDJOLG","","null","<img src=""img/flower3.png"" style=""width:200px; border:14px solid green;"">","null","","","","","","","","",""
"","image-keyboard-response","290","149837","0.0-290.0","3N2BF7Y2VRGJS5UELSY1THV5SIJMHD","ALVNMQMD3Q3ZE","3THR0FZ95PF7SK0MYRNAOUHTWDJOLG","","419.40000009536743","img/flower4.png","74","420.40000009536743","1","1","2","1","1,0.333,0.333,0.333,1,0.333,0.333,0.333,1","1,0.333,0.333,0.333,1,0.333,0.333,0.333,1","1",""
"","html-keyboard-response","291","150138","0.0-291.0","3N2BF7Y2VRGJS5UELSY1THV5SIJMHD","ALVNMQMD3Q3ZE","3THR0FZ95PF7SK0MYRNAOUHTWDJOLG","","null","<img src=""img/flower4.png"" style=""width:200px; border:14px solid green;"">","null","","","","","","","","",""
"","image-keyboard-response","292","150547","0.0-292.0","3N2BF7Y2VRGJS5UELSY1THV5SIJMHD","ALVNMQMD3Q3ZE","3THR0FZ95PF7SK0MYRNAOUHTWDJOLG","","407.40000009536743","img/flower5.png","74","408.2999999523163","1","1","1","1","1,0.333,0.333,0.333,1,0.333,0.333,0.333,1","1,0.333,0.333,0.333,1,0.333,0.333,0.333,1","1",""
"","html-keyboard-response","293","150850","0.0-293.0","3N2BF7Y2VRGJS5UELSY1THV5SIJMHD","ALVNMQMD3Q3ZE","3THR0FZ95PF7SK0MYRNAOUHTWDJOLG","","null","<img src=""img/flower5.png"" style=""width:200px; border:14px solid green;"">","null","","","","","","","","",""
"","image-keyboard-response","294","151237","0.0-294.0","3N2BF7Y2VRGJS5UELSY1THV5SIJMHD","ALVNMQMD3Q3ZE","3THR0FZ95PF7SK0MYRNAOUHTWDJOLG","","385.2999999523163","img/flower5.png","74","386.10000014305115","1","1","1","1","1,0.333,0.333,0.333,1,0.333,0.333,0.333,1","1,0.333,0.333,0.333,1,0.333,0.333,0.333,1","1",""
"","html-keyboard-response","295","151539","0.0-295.0","3N2BF7Y2VRGJS5UELSY1THV5SIJMHD","ALVNMQMD3Q3ZE","3THR0FZ95PF7SK0MYRNAOUHTWDJOLG","","null","<img src=""img/flower5.png"" style=""width:200px; border:14px solid green;"">","null","","","","","","","","",""
"","image-keyboard-response","296","152048","0.0-296.0","3N2BF7Y2VRGJS5UELSY1THV5SIJMHD","ALVNMQMD3Q3ZE","3THR0FZ95PF7SK0MYRNAOUHTWDJOLG","","507.59999990463257","img/flower3.png","74","508.7999999523163","1","0","3","1","1,0.333,0.333,0.333,1,0.333,0.333,0.333,1","1,0.333,0.333,0.333,1,0.333,0.333,0.333,1","1",""
"","html-keyboard-response","297","152349","0.0-297.0","3N2BF7Y2VRGJS5UELSY1THV5SIJMHD","ALVNMQMD3Q3ZE","3THR0FZ95PF7SK0MYRNAOUHTWDJOLG","","null","<img src=""img/flower3.png"" style=""width:200px;border:14px solid red;"">","null","","","","","","","","",""
"","image-keyboard-response","298","153106","0.0-298.0","3N2BF7Y2VRGJS5UELSY1THV5SIJMHD","ALVNMQMD3Q3ZE","3THR0FZ95PF7SK0MYRNAOUHTWDJOLG","","755.5","img/flower4.png","74","756.5","1","0","2","1","1,0.333,0.333,0.333,1,0.333,0.333,0.333,1","1,0.333,0.333,0.333,1,0.333,0.333,0.333,1","1",""
"","html-keyboard-response","299","153407","0.0-299.0","3N2BF7Y2VRGJS5UELSY1THV5SIJMHD","ALVNMQMD3Q3ZE","3THR0FZ95PF7SK0MYRNAOUHTWDJOLG","","null","<img src=""img/flower4.png"" style=""width:200px;border:14px solid red;"">","null","","","","","","","","",""
"","image-keyboard-response","300","153900","0.0-300.0","3N2BF7Y2VRGJS5UELSY1THV5SIJMHD","ALVNMQMD3Q3ZE","3THR0FZ95PF7SK0MYRNAOUHTWDJOLG","","492.19999980926514","img/flower3.png","74","492.89999985694885","1","1","3","1","1,0.333,0.333,0.333,1,0.333,0.333,0.333,1","1,0.333,0.333,0.333,1,0.333,0.333,0.333,1","1",""
"","html-keyboard-response","301","154203","0.0-301.0","3N2BF7Y2VRGJS5UELSY1THV5SIJMHD","ALVNMQMD3Q3ZE","3THR0FZ95PF7SK0MYRNAOUHTWDJOLG","","null","<img src=""img/flower3.png"" style=""width:200px; border:14px solid green;"">","null","","","","","","","","",""
"","image-keyboard-response","302","154590","0.0-302.0","3N2BF7Y2VRGJS5UELSY1THV5SIJMHD","ALVNMQMD3Q3ZE","3THR0FZ95PF7SK0MYRNAOUHTWDJOLG","","385.90000009536743","img/flower5.png","74","386.7000000476837","1","1","1","1","1,0.333,0.333,0.333,1,0.333,0.333,0.333,1","1,0.333,0.333,0.333,1,0.333,0.333,0.333,1","1",""
"","html-keyboard-response","303","154892","0.0-303.0","3N2BF7Y2VRGJS5UELSY1THV5SIJMHD","ALVNMQMD3Q3ZE","3THR0FZ95PF7SK0MYRNAOUHTWDJOLG","","null","<img src=""img/flower5.png"" style=""width:200px; border:14px solid green;"">","null","","","","","","","","",""
"","image-keyboard-response","304","155268","0.0-304.0","3N2BF7Y2VRGJS5UELSY1THV5SIJMHD","ALVNMQMD3Q3ZE","3THR0FZ95PF7SK0MYRNAOUHTWDJOLG","","375.59999990463257","img/flower5.png","74","376.10000014305115","1","1","1","1","1,0.333,0.333,0.333,1,0.333,0.333,0.333,1","1,0.333,0.333,0.333,1,0.333,0.333,0.333,1","1",""
"","html-keyboard-response","305","155570","0.0-305.0","3N2BF7Y2VRGJS5UELSY1THV5SIJMHD","ALVNMQMD3Q3ZE","3THR0FZ95PF7SK0MYRNAOUHTWDJOLG","","null","<img src=""img/flower5.png"" style=""width:200px; border:14px solid green;"">","null","","","","","","","","",""
"","image-keyboard-response","306","156115","0.0-306.0","3N2BF7Y2VRGJS5UELSY1THV5SIJMHD","ALVNMQMD3Q3ZE","3THR0FZ95PF7SK0MYRNAOUHTWDJOLG","","544.1999998092651","img/flower3.png","74","545.0999999046326","1","0","3","1","1,0.333,0.333,0.333,1,0.333,0.333,0.333,1","1,0.333,0.333,0.333,1,0.333,0.333,0.333,1","1",""
"","html-keyboard-response","307","156417","0.0-307.0","3N2BF7Y2VRGJS5UELSY1THV5SIJMHD","ALVNMQMD3Q3ZE","3THR0FZ95PF7SK0MYRNAOUHTWDJOLG","","null","<img src=""img/flower3.png"" style=""width:200px;border:14px solid red;"">","null","","","","","","","","",""
"","image-keyboard-response","308","156922","0.0-308.0","3N2BF7Y2VRGJS5UELSY1THV5SIJMHD","ALVNMQMD3Q3ZE","3THR0FZ95PF7SK0MYRNAOUHTWDJOLG","","503.19999980926514","img/flower5.png","75","504.19999980926514","2","0","1","1","1,0.333,0.333,0.333,1,0.333,0.333,0.333,1","1,0.333,0.333,0.333,1,0.333,0.333,0.333,1","1",""
"","html-keyboard-response","309","157223","0.0-309.0","3N2BF7Y2VRGJS5UELSY1THV5SIJMHD","ALVNMQMD3Q3ZE","3THR0FZ95PF7SK0MYRNAOUHTWDJOLG","","null","<img src=""img/flower5.png"" style=""width:200px;border:14px solid red;"">","null","","","","","","","","",""
"","image-keyboard-response","310","157776","0.0-310.0","3N2BF7Y2VRGJS5UELSY1THV5SIJMHD","ALVNMQMD3Q3ZE","3THR0FZ95PF7SK0MYRNAOUHTWDJOLG","","551.7999999523163","img/flower3.png","76","552.8999998569489","3","1","3","1","1,0.333,0.333,0.333,1,0.333,0.333,0.333,1","1,0.333,0.333,0.333,1,0.333,0.333,0.333,1","1",""
"","html-keyboard-response","311","158077","0.0-311.0","3N2BF7Y2VRGJS5UELSY1THV5SIJMHD","ALVNMQMD3Q3ZE","3THR0FZ95PF7SK0MYRNAOUHTWDJOLG","","null","<img src=""img/flower3.png"" style=""width:200px; border:14px solid green;"">","null","","","","","","","","",""
"","image-keyboard-response","312","158579","0.0-312.0","3N2BF7Y2VRGJS5UELSY1THV5SIJMHD","ALVNMQMD3Q3ZE","3THR0FZ95PF7SK0MYRNAOUHTWDJOLG","","500.7000000476837","img/flower3.png","76","501.5","3","1","3","1","1,0.333,0.333,0.333,1,0.333,0.333,0.333,1","1,0.333,0.333,0.333,1,0.333,0.333,0.333,1","1",""
"","html-keyboard-response","313","158881","0.0-313.0","3N2BF7Y2VRGJS5UELSY1THV5SIJMHD","ALVNMQMD3Q3ZE","3THR0FZ95PF7SK0MYRNAOUHTWDJOLG","","null","<img src=""img/flower3.png"" style=""width:200px; border:14px solid green;"">","null","","","","","","","","",""
"","image-keyboard-response","314","159244","0.0-314.0","3N2BF7Y2VRGJS5UELSY1THV5SIJMHD","ALVNMQMD3Q3ZE","3THR0FZ95PF7SK0MYRNAOUHTWDJOLG","","362.2999999523163","img/flower3.png","76","363","3","1","3","1","1,0.333,0.333,0.333,1,0.333,0.333,0.333,1","1,0.333,0.333,0.333,1,0.333,0.333,0.333,1","1",""
"","html-keyboard-response","315","159546","0.0-315.0","3N2BF7Y2VRGJS5UELSY1THV5SIJMHD","ALVNMQMD3Q3ZE","3THR0FZ95PF7SK0MYRNAOUHTWDJOLG","","null","<img src=""img/flower3.png"" style=""width:200px; border:14px solid green;"">","null","","","","","","","","",""
"","image-keyboard-response","316","160212","0.0-316.0","3N2BF7Y2VRGJS5UELSY1THV5SIJMHD","ALVNMQMD3Q3ZE","3THR0FZ95PF7SK0MYRNAOUHTWDJOLG","","664.9000000953674","img/flower4.png","74","665.6000001430511","1","0","2","1","1,0.333,0.333,0.333,1,0.333,0.333,0.333,1","1,0.333,0.333,0.333,1,0.333,0.333,0.333,1","1",""
"","html-keyboard-response","317","160515","0.0-317.0","3N2BF7Y2VRGJS5UELSY1THV5SIJMHD","ALVNMQMD3Q3ZE","3THR0FZ95PF7SK0MYRNAOUHTWDJOLG","","null","<img src=""img/flower4.png"" style=""width:200px;border:14px solid red;"">","null","","","","","","","","",""
"","image-keyboard-response","318","160663","0.0-318.0","3N2BF7Y2VRGJS5UELSY1THV5SIJMHD","ALVNMQMD3Q3ZE","3THR0FZ95PF7SK0MYRNAOUHTWDJOLG","","147.29999995231628","img/flower5.png","76","148.20000004768372","3","0","1","1","1,0.333,0.333,0.333,1,0.333,0.333,0.333,1","1,0.333,0.333,0.333,1,0.333,0.333,0.333,1","1",""
"","html-keyboard-response","319","160965","0.0-319.0","3N2BF7Y2VRGJS5UELSY1THV5SIJMHD","ALVNMQMD3Q3ZE","3THR0FZ95PF7SK0MYRNAOUHTWDJOLG","","null","<img src=""img/flower5.png"" style=""width:200px;border:14px solid red;"">","null","","","","","","","","",""
"","image-keyboard-response","320","161309","0.0-320.0","3N2BF7Y2VRGJS5UELSY1THV5SIJMHD","ALVNMQMD3Q3ZE","3THR0FZ95PF7SK0MYRNAOUHTWDJOLG","","342.90000009536743","img/flower3.png","75","344.09999990463257","2","0","3","1","1,0.333,0.333,0.333,1,0.333,0.333,0.333,1","1,0.333,0.333,0.333,1,0.333,0.333,0.333,1","1",""
"","html-keyboard-response","321","161612","0.0-321.0","3N2BF7Y2VRGJS5UELSY1THV5SIJMHD","ALVNMQMD3Q3ZE","3THR0FZ95PF7SK0MYRNAOUHTWDJOLG","","null","<img src=""img/flower3.png"" style=""width:200px;border:14px solid red;"">","null","","","","","","","","",""
"","image-keyboard-response","322","161894","0.0-322.0","3N2BF7Y2VRGJS5UELSY1THV5SIJMHD","ALVNMQMD3Q3ZE","3THR0FZ95PF7SK0MYRNAOUHTWDJOLG","","281.39999985694885","img/flower3.png","74","282.39999985694885","1","0","3","1","1,0.333,0.333,0.333,1,0.333,0.333,0.333,1","1,0.333,0.333,0.333,1,0.333,0.333,0.333,1","1",""
"","html-keyboard-response","323","162197","0.0-323.0","3N2BF7Y2VRGJS5UELSY1THV5SIJMHD","ALVNMQMD3Q3ZE","3THR0FZ95PF7SK0MYRNAOUHTWDJOLG","","null","<img src=""img/flower3.png"" style=""width:200px;border:14px solid red;"">","null","","","","","","","","",""
"","image-keyboard-response","324","162621","0.0-324.0","3N2BF7Y2VRGJS5UELSY1THV5SIJMHD","ALVNMQMD3Q3ZE","3THR0FZ95PF7SK0MYRNAOUHTWDJOLG","","423.2999999523163","img/flower3.png","74","424.09999990463257","1","0","3","1","1,0.333,0.333,0.333,1,0.333,0.333,0.333,1","1,0.333,0.333,0.333,1,0.333,0.333,0.333,1","1",""
"","html-keyboard-response","325","162923","0.0-325.0","3N2BF7Y2VRGJS5UELSY1THV5SIJMHD","ALVNMQMD3Q3ZE","3THR0FZ95PF7SK0MYRNAOUHTWDJOLG","","null","<img src=""img/flower3.png"" style=""width:200px;border:14px solid red;"">","null","","","","","","","","",""
"","image-keyboard-response","326","163114","0.0-326.0","3N2BF7Y2VRGJS5UELSY1THV5SIJMHD","ALVNMQMD3Q3ZE","3THR0FZ95PF7SK0MYRNAOUHTWDJOLG","","189.79999995231628","img/flower5.png","74","190.90000009536743","1","1","1","1","1,0.333,0.333,0.333,1,0.333,0.333,0.333,1","1,0.333,0.333,0.333,1,0.333,0.333,0.333,1","1",""
"","html-keyboard-response","327","163416","0.0-327.0","3N2BF7Y2VRGJS5UELSY1THV5SIJMHD","ALVNMQMD3Q3ZE","3THR0FZ95PF7SK0MYRNAOUHTWDJOLG","","null","<img src=""img/flower5.png"" style=""width:200px; border:14px solid green;"">","null","","","","","","","","",""
"","image-keyboard-response","328","163845","0.0-328.0","3N2BF7Y2VRGJS5UELSY1THV5SIJMHD","ALVNMQMD3Q3ZE","3THR0FZ95PF7SK0MYRNAOUHTWDJOLG","","428.09999990463257","img/flower3.png","74","428.90000009536743","1","0","3","1","1,0.333,0.333,0.333,1,0.333,0.333,0.333,1","1,0.333,0.333,0.333,1,0.333,0.333,0.333,1","1",""
"","html-keyboard-response","329","164148","0.0-329.0","3N2BF7Y2VRGJS5UELSY1THV5SIJMHD","ALVNMQMD3Q3ZE","3THR0FZ95PF7SK0MYRNAOUHTWDJOLG","","null","<img src=""img/flower3.png"" style=""width:200px;border:14px solid red;"">","null","","","","","","","","",""
"","image-keyboard-response","330","164645","0.0-330.0","3N2BF7Y2VRGJS5UELSY1THV5SIJMHD","ALVNMQMD3Q3ZE","3THR0FZ95PF7SK0MYRNAOUHTWDJOLG","","496","img/flower4.png","74","496.7999999523163","1","0","2","1","1,0.333,0.333,0.333,1,0.333,0.333,0.333,1","1,0.333,0.333,0.333,1,0.333,0.333,0.333,1","1",""
"","html-keyboard-response","331","164947","0.0-331.0","3N2BF7Y2VRGJS5UELSY1THV5SIJMHD","ALVNMQMD3Q3ZE","3THR0FZ95PF7SK0MYRNAOUHTWDJOLG","","null","<img src=""img/flower4.png"" style=""width:200px;border:14px solid red;"">","null","","","","","","","","",""
"","image-keyboard-response","332","165329","0.0-332.0","3N2BF7Y2VRGJS5UELSY1THV5SIJMHD","ALVNMQMD3Q3ZE","3THR0FZ95PF7SK0MYRNAOUHTWDJOLG","","380.19999980926514","img/flower3.png","74","381.2999999523163","1","1","3","1","1,0.333,0.333,0.333,1,0.333,0.333,0.333,1","1,0.333,0.333,0.333,1,0.333,0.333,0.333,1","1",""
"","html-keyboard-response","333","165631","0.0-333.0","3N2BF7Y2VRGJS5UELSY1THV5SIJMHD","ALVNMQMD3Q3ZE","3THR0FZ95PF7SK0MYRNAOUHTWDJOLG","","null","<img src=""img/flower3.png"" style=""width:200px; border:14px solid green;"">","null","","","","","","","","",""
"","image-keyboard-response","334","166037","0.0-334.0","3N2BF7Y2VRGJS5UELSY1THV5SIJMHD","ALVNMQMD3Q3ZE","3THR0FZ95PF7SK0MYRNAOUHTWDJOLG","","405.40000009536743","img/flower5.png","74","406.2000000476837","1","1","1","1","1,0.333,0.333,0.333,1,0.333,0.333,0.333,1","1,0.333,0.333,0.333,1,0.333,0.333,0.333,1","1",""
"","html-keyboard-response","335","166339","0.0-335.0","3N2BF7Y2VRGJS5UELSY1THV5SIJMHD","ALVNMQMD3Q3ZE","3THR0FZ95PF7SK0MYRNAOUHTWDJOLG","","null","<img src=""img/flower5.png"" style=""width:200px; border:14px solid green;"">","null","","","","","","","","",""
"","image-keyboard-response","336","166728","0.0-336.0","3N2BF7Y2VRGJS5UELSY1THV5SIJMHD","ALVNMQMD3Q3ZE","3THR0FZ95PF7SK0MYRNAOUHTWDJOLG","","388.39999985694885","img/flower4.png","74","389","1","1","2","1","1,0.333,0.333,0.333,1,0.333,0.333,0.333,1","1,0.333,0.333,0.333,1,0.333,0.333,0.333,1","1",""
"","html-keyboard-response","337","167044","0.0-337.0","3N2BF7Y2VRGJS5UELSY1THV5SIJMHD","ALVNMQMD3Q3ZE","3THR0FZ95PF7SK0MYRNAOUHTWDJOLG","","null","<img src=""img/flower4.png"" style=""width:200px; border:14px solid green;"">","null","","","","","","","","",""
"","image-keyboard-response","338","167508","0.0-338.0","3N2BF7Y2VRGJS5UELSY1THV5SIJMHD","ALVNMQMD3Q3ZE","3THR0FZ95PF7SK0MYRNAOUHTWDJOLG","","463.2999999523163","img/flower4.png","74","463.89999985694885","1","0","2","1","1,0.333,0.333,0.333,1,0.333,0.333,0.333,1","1,0.333,0.333,0.333,1,0.333,0.333,0.333,1","1",""
"","html-keyboard-response","339","167810","0.0-339.0","3N2BF7Y2VRGJS5UELSY1THV5SIJMHD","ALVNMQMD3Q3ZE","3THR0FZ95PF7SK0MYRNAOUHTWDJOLG","","null","<img src=""img/flower4.png"" style=""width:200px;border:14px solid red;"">","null","","","","","","","","",""
"","image-keyboard-response","340","168284","0.0-340.0","3N2BF7Y2VRGJS5UELSY1THV5SIJMHD","ALVNMQMD3Q3ZE","3THR0FZ95PF7SK0MYRNAOUHTWDJOLG","","473.7000000476837","img/flower4.png","74","474.5","1","0","2","1","1,0.333,0.333,0.333,1,0.333,0.333,0.333,1","1,0.333,0.333,0.333,1,0.333,0.333,0.333,1","1",""
"","html-keyboard-response","341","168587","0.0-341.0","3N2BF7Y2VRGJS5UELSY1THV5SIJMHD","ALVNMQMD3Q3ZE","3THR0FZ95PF7SK0MYRNAOUHTWDJOLG","","null","<img src=""img/flower4.png"" style=""width:200px;border:14px solid red;"">","null","","","","","","","","",""
"","image-keyboard-response","342","168683","0.0-342.0","3N2BF7Y2VRGJS5UELSY1THV5SIJMHD","ALVNMQMD3Q3ZE","3THR0FZ95PF7SK0MYRNAOUHTWDJOLG","","95.40000009536743","img/flower4.png","75","96.39999985694885","2","1","2","1","1,0.333,0.333,0.333,1,0.333,0.333,0.333,1","1,0.333,0.333,0.333,1,0.333,0.333,0.333,1","1",""
"","html-keyboard-response","343","168985","0.0-343.0","3N2BF7Y2VRGJS5UELSY1THV5SIJMHD","ALVNMQMD3Q3ZE","3THR0FZ95PF7SK0MYRNAOUHTWDJOLG","","null","<img src=""img/flower4.png"" style=""width:200px; border:14px solid green;"">","null","","","","","","","","",""
"","image-keyboard-response","344","169160","0.0-344.0","3N2BF7Y2VRGJS5UELSY1THV5SIJMHD","ALVNMQMD3Q3ZE","3THR0FZ95PF7SK0MYRNAOUHTWDJOLG","","174.5","img/flower3.png","75","175.39999985694885","2","0","3","1","1,0.333,0.333,0.333,1,0.333,0.333,0.333,1","1,0.333,0.333,0.333,1,0.333,0.333,0.333,1","1",""
"","html-keyboard-response","345","169463","0.0-345.0","3N2BF7Y2VRGJS5UELSY1THV5SIJMHD","ALVNMQMD3Q3ZE","3THR0FZ95PF7SK0MYRNAOUHTWDJOLG","","null","<img src=""img/flower3.png"" style=""width:200px;border:14px solid red;"">","null","","","","","","","","",""
"","image-keyboard-response","346","169698","0.0-346.0","3N2BF7Y2VRGJS5UELSY1THV5SIJMHD","ALVNMQMD3Q3ZE","3THR0FZ95PF7SK0MYRNAOUHTWDJOLG","","233.59999990463257","img/flower3.png","74","235.20000004768372","1","0","3","1","1,0.333,0.333,0.333,1,0.333,0.333,0.333,1","1,0.333,0.333,0.333,1,0.333,0.333,0.333,1","1",""
"","html-keyboard-response","347","170000","0.0-347.0","3N2BF7Y2VRGJS5UELSY1THV5SIJMHD","ALVNMQMD3Q3ZE","3THR0FZ95PF7SK0MYRNAOUHTWDJOLG","","null","<img src=""img/flower3.png"" style=""width:200px;border:14px solid red;"">","null","","","","","","","","",""
"","image-keyboard-response","348","170122","0.0-348.0","3N2BF7Y2VRGJS5UELSY1THV5SIJMHD","ALVNMQMD3Q3ZE","3THR0FZ95PF7SK0MYRNAOUHTWDJOLG","","120.79999995231628","img/flower4.png","76","121.80000019073486","3","1","2","1","1,0.333,0.333,0.333,1,0.333,0.333,0.333,1","1,0.333,0.333,0.333,1,0.333,0.333,0.333,1","1",""
"","html-keyboard-response","349","170424","0.0-349.0","3N2BF7Y2VRGJS5UELSY1THV5SIJMHD","ALVNMQMD3Q3ZE","3THR0FZ95PF7SK0MYRNAOUHTWDJOLG","","null","<img src=""img/flower4.png"" style=""width:200px; border:14px solid green;"">","null","","","","","","","","",""
"","image-keyboard-response","350","170855","0.0-350.0","3N2BF7Y2VRGJS5UELSY1THV5SIJMHD","ALVNMQMD3Q3ZE","3THR0FZ95PF7SK0MYRNAOUHTWDJOLG","","429.10000014305115","img/flower3.png","74","430.09999990463257","1","0","3","1","1,0.333,0.333,0.333,1,0.333,0.333,0.333,1","1,0.333,0.333,0.333,1,0.333,0.333,0.333,1","1",""
"","html-keyboard-response","351","171165","0.0-351.0","3N2BF7Y2VRGJS5UELSY1THV5SIJMHD","ALVNMQMD3Q3ZE","3THR0FZ95PF7SK0MYRNAOUHTWDJOLG","","null","<img src=""img/flower3.png"" style=""width:200px;border:14px solid red;"">","null","","","","","","","","",""
"","image-keyboard-response","352","171486","0.0-352.0","3N2BF7Y2VRGJS5UELSY1THV5SIJMHD","ALVNMQMD3Q3ZE","3THR0FZ95PF7SK0MYRNAOUHTWDJOLG","","319.7999999523163","img/flower4.png","75","320.60000014305115","2","1","2","1","1,0.333,0.333,0.333,1,0.333,0.333,0.333,1","1,0.333,0.333,0.333,1,0.333,0.333,0.333,1","1",""
"","html-keyboard-response","353","171788","0.0-353.0","3N2BF7Y2VRGJS5UELSY1THV5SIJMHD","ALVNMQMD3Q3ZE","3THR0FZ95PF7SK0MYRNAOUHTWDJOLG","","null","<img src=""img/flower4.png"" style=""width:200px; border:14px solid green;"">","null","","","","","","","","",""
"","image-keyboard-response","354","172169","0.0-354.0","3N2BF7Y2VRGJS5UELSY1THV5SIJMHD","ALVNMQMD3Q3ZE","3THR0FZ95PF7SK0MYRNAOUHTWDJOLG","","380.10000014305115","img/flower5.png","75","381.40000009536743","2","0","1","1","1,0.333,0.333,0.333,1,0.333,0.333,0.333,1","1,0.333,0.333,0.333,1,0.333,0.333,0.333,1","1",""
"","html-keyboard-response","355","172471","0.0-355.0","3N2BF7Y2VRGJS5UELSY1THV5SIJMHD","ALVNMQMD3Q3ZE","3THR0FZ95PF7SK0MYRNAOUHTWDJOLG","","null","<img src=""img/flower5.png"" style=""width:200px;border:14px solid red;"">","null","","","","","","","","",""
"","image-keyboard-response","356","172736","0.0-356.0","3N2BF7Y2VRGJS5UELSY1THV5SIJMHD","ALVNMQMD3Q3ZE","3THR0FZ95PF7SK0MYRNAOUHTWDJOLG","","263.59999990463257","img/flower5.png","74","264.39999985694885","1","1","1","1","1,0.333,0.333,0.333,1,0.333,0.333,0.333,1","1,0.333,0.333,0.333,1,0.333,0.333,0.333,1","1",""
"","html-keyboard-response","357","173037","0.0-357.0","3N2BF7Y2VRGJS5UELSY1THV5SIJMHD","ALVNMQMD3Q3ZE","3THR0FZ95PF7SK0MYRNAOUHTWDJOLG","","null","<img src=""img/flower5.png"" style=""width:200px; border:14px solid green;"">","null","","","","","","","","",""
"","image-keyboard-response","358","173385","0.0-358.0","3N2BF7Y2VRGJS5UELSY1THV5SIJMHD","ALVNMQMD3Q3ZE","3THR0FZ95PF7SK0MYRNAOUHTWDJOLG","","347.2000000476837","img/flower4.png","74","348.09999990463257","1","0","2","1","1,0.333,0.333,0.333,1,0.333,0.333,0.333,1","1,0.333,0.333,0.333,1,0.333,0.333,0.333,1","1",""
"","html-keyboard-response","359","173687","0.0-359.0","3N2BF7Y2VRGJS5UELSY1THV5SIJMHD","ALVNMQMD3Q3ZE","3THR0FZ95PF7SK0MYRNAOUHTWDJOLG","","null","<img src=""img/flower4.png"" style=""width:200px;border:14px solid red;"">","null","","","","","","","","",""
"","image-keyboard-response","360","174189","0.0-360.0","3N2BF7Y2VRGJS5UELSY1THV5SIJMHD","ALVNMQMD3Q3ZE","3THR0FZ95PF7SK0MYRNAOUHTWDJOLG","","501.5","img/flower4.png","75","502.5","2","1","2","1","1,0.333,0.333,0.333,1,0.333,0.333,0.333,1","1,0.333,0.333,0.333,1,0.333,0.333,0.333,1","1",""
"","html-keyboard-response","361","174492","0.0-361.0","3N2BF7Y2VRGJS5UELSY1THV5SIJMHD","ALVNMQMD3Q3ZE","3THR0FZ95PF7SK0MYRNAOUHTWDJOLG","","null","<img src=""img/flower4.png"" style=""width:200px; border:14px solid green;"">","null","","","","","","","","",""
"","html-keyboard-response","362","177426","0.0-362.0","3N2BF7Y2VRGJS5UELSY1THV5SIJMHD","ALVNMQMD3Q3ZE","3THR0FZ95PF7SK0MYRNAOUHTWDJOLG","","","","","","","","","","","","",""
"","instructions","363","184770","0.0-363.0","3N2BF7Y2VRGJS5UELSY1THV5SIJMHD","ALVNMQMD3Q3ZE","3THR0FZ95PF7SK0MYRNAOUHTWDJOLG","[{""page_index"":0,""viewing_time"":7342.799999952316}]","7343.099999904633","","","","","","","","","","",""
"","survey-text","364","227804","0.0-364.0","3N2BF7Y2VRGJS5UELSY1THV5SIJMHD","ALVNMQMD3Q3ZE","3THR0FZ95PF7SK0MYRNAOUHTWDJOLG","","43024.799999952316","","","","","","","","","","","{""Q0"":""ALVNMQMD3Q3ZE""}"
