"rt","url","trial_type","trial_index","time_elapsed","internal_node_id","assignmentID","mturkID","hitID","success","view_history","stimulus","key_press","reactionTime","a","r","s","cond","reward_cond","reward_cond_actual","reward_matrix_idx","responses"
"6820.70000000298","consent.html","external-html","0","6949","0.0-0.0","34QN5IT0T0DTWGMETJHXI7VTLUS08W","ALYR5CI2SM2JC","32XN26MTXZ5MP383W6LZYTLBY7P0LI","","","","","","","","","","","","",""
"","","fullscreen","1","1088196","0.0-1.0","34QN5IT0T0DTWGMETJHXI7VTLUS08W","ALYR5CI2SM2JC","32XN26MTXZ5MP383W6LZYTLBY7P0LI","true","","","","","","","","","","","",""
"30191.79999999702","","instructions","2","1118390","0.0-2.0","34QN5IT0T0DTWGMETJHXI7VTLUS08W","ALYR5CI2SM2JC","32XN26MTXZ5MP383W6LZYTLBY7P0LI","","[{""page_index"":0,""viewing_time"":6519},{""page_index"":1,""viewing_time"":6077.100000008941},{""page_index"":2,""viewing_time"":4470.399999991059},{""page_index"":3,""viewing_time"":3176.6000000089407},{""page_index"":4,""viewing_time"":3837.199999988079},{""page_index"":5,""viewing_time"":4172.600000008941},{""page_index"":6,""viewing_time"":1937.7000000029802}]","","","","","","","","","","",""
"9447.89999999106","","instructions","3","1127839","0.0-3.0","34QN5IT0T0DTWGMETJHXI7VTLUS08W","ALYR5CI2SM2JC","32XN26MTXZ5MP383W6LZYTLBY7P0LI","","[{""page_index"":0,""viewing_time"":9447.5}]","","","","","","","","","","",""
"1254.7000000029802","","image-keyboard-response","4","1129098","0.0-4.0","34QN5IT0T0DTWGMETJHXI7VTLUS08W","ALYR5CI2SM2JC","32XN26MTXZ5MP383W6LZYTLBY7P0LI","","","img/flower6.png","76","1259.4000000059605","3","1","3","","","","",""
"null","","html-keyboard-response","5","1129417","0.0-5.0","34QN5IT0T0DTWGMETJHXI7VTLUS08W","ALYR5CI2SM2JC","32XN26MTXZ5MP383W6LZYTLBY7P0LI","","","<img src=""img/flower6.png"" style=""width:200px; border:14px solid green;"">","null","","","","","","","","",""
"627.7999999970198","","image-keyboard-response","6","1130049","0.0-6.0","34QN5IT0T0DTWGMETJHXI7VTLUS08W","ALYR5CI2SM2JC","32XN26MTXZ5MP383W6LZYTLBY7P0LI","","","img/flower6.png","76","630.4000000059605","3","1","3","","","","",""
"null","","html-keyboard-response","7","1130367","0.0-7.0","34QN5IT0T0DTWGMETJHXI7VTLUS08W","ALYR5CI2SM2JC","32XN26MTXZ5MP383W6LZYTLBY7P0LI","","","<img src=""img/flower6.png"" style=""width:200px; border:14px solid green;"">","null","","","","","","","","",""
"397.20000000298023","","image-keyboard-response","8","1130768","0.0-8.0","34QN5IT0T0DTWGMETJHXI7VTLUS08W","ALYR5CI2SM2JC","32XN26MTXZ5MP383W6LZYTLBY7P0LI","","","img/flower6.png","76","399.8999999910593","3","1","3","","","","",""
"null","","html-keyboard-response","9","1131073","0.0-9.0","34QN5IT0T0DTWGMETJHXI7VTLUS08W","ALYR5CI2SM2JC","32XN26MTXZ5MP383W6LZYTLBY7P0LI","","","<img src=""img/flower6.png"" style=""width:200px; border:14px solid green;"">","null","","","","","","","","",""
"1411.5999999940395","","image-keyboard-response","10","1132488","0.0-10.0","34QN5IT0T0DTWGMETJHXI7VTLUS08W","ALYR5CI2SM2JC","32XN26MTXZ5MP383W6LZYTLBY7P0LI","","","img/flower5.png","75","1413.5","2","1","2","","","","",""
"null","","html-keyboard-response","11","1132793","0.0-11.0","34QN5IT0T0DTWGMETJHXI7VTLUS08W","ALYR5CI2SM2JC","32XN26MTXZ5MP383W6LZYTLBY7P0LI","","","<img src=""img/flower5.png"" style=""width:200px; border:14px solid green;"">","null","","","","","","","","",""
"538.7999999970198","","image-keyboard-response","12","1133335","0.0-12.0","34QN5IT0T0DTWGMETJHXI7VTLUS08W","ALYR5CI2SM2JC","32XN26MTXZ5MP383W6LZYTLBY7P0LI","","","img/flower5.png","75","541.5","2","1","2","","","","",""
"null","","html-keyboard-response","13","1133644","0.0-13.0","34QN5IT0T0DTWGMETJHXI7VTLUS08W","ALYR5CI2SM2JC","32XN26MTXZ5MP383W6LZYTLBY7P0LI","","","<img src=""img/flower5.png"" style=""width:200px; border:14px solid green;"">","null","","","","","","","","",""
"631.2000000029802","","image-keyboard-response","14","1134280","0.0-14.0","34QN5IT0T0DTWGMETJHXI7VTLUS08W","ALYR5CI2SM2JC","32XN26MTXZ5MP383W6LZYTLBY7P0LI","","","img/flower6.png","76","634.5","3","0","3","","","","",""
"null","","html-keyboard-response","15","1134587","0.0-15.0","34QN5IT0T0DTWGMETJHXI7VTLUS08W","ALYR5CI2SM2JC","32XN26MTXZ5MP383W6LZYTLBY7P0LI","","","<img src=""img/flower6.png"" style=""width:200px;border:14px solid red;"">","null","","","","","","","","",""
"795.3000000119209","","image-keyboard-response","16","1135384","0.0-16.0","34QN5IT0T0DTWGMETJHXI7VTLUS08W","ALYR5CI2SM2JC","32XN26MTXZ5MP383W6LZYTLBY7P0LI","","","img/flower4.png","74","796.7000000029802","1","1","1","","","","",""
"null","","html-keyboard-response","17","1135693","0.0-17.0","34QN5IT0T0DTWGMETJHXI7VTLUS08W","ALYR5CI2SM2JC","32XN26MTXZ5MP383W6LZYTLBY7P0LI","","","<img src=""img/flower4.png"" style=""width:200px; border:14px solid green;"">","null","","","","","","","","",""
"376.5","","image-keyboard-response","18","1136072","0.0-18.0","34QN5IT0T0DTWGMETJHXI7VTLUS08W","ALYR5CI2SM2JC","32XN26MTXZ5MP383W6LZYTLBY7P0LI","","","img/flower4.png","74","379.1000000089407","1","0","1","","","","",""
"null","","html-keyboard-response","19","1136388","0.0-19.0","34QN5IT0T0DTWGMETJHXI7VTLUS08W","ALYR5CI2SM2JC","32XN26MTXZ5MP383W6LZYTLBY7P0LI","","","<img src=""img/flower4.png"" style=""width:200px;border:14px solid red;"">","null","","","","","","","","",""
"610","","image-keyboard-response","20","1137001","0.0-20.0","34QN5IT0T0DTWGMETJHXI7VTLUS08W","ALYR5CI2SM2JC","32XN26MTXZ5MP383W6LZYTLBY7P0LI","","","img/flower6.png","76","612.0999999940395","3","1","3","","","","",""
"null","","html-keyboard-response","21","1137312","0.0-21.0","34QN5IT0T0DTWGMETJHXI7VTLUS08W","ALYR5CI2SM2JC","32XN26MTXZ5MP383W6LZYTLBY7P0LI","","","<img src=""img/flower6.png"" style=""width:200px; border:14px solid green;"">","null","","","","","","","","",""
"929.5999999940395","","image-keyboard-response","22","1138244","0.0-22.0","34QN5IT0T0DTWGMETJHXI7VTLUS08W","ALYR5CI2SM2JC","32XN26MTXZ5MP383W6LZYTLBY7P0LI","","","img/flower5.png","75","931.6000000089407","2","0","2","","","","",""
"null","","html-keyboard-response","23","1138565","0.0-23.0","34QN5IT0T0DTWGMETJHXI7VTLUS08W","ALYR5CI2SM2JC","32XN26MTXZ5MP383W6LZYTLBY7P0LI","","","<img src=""img/flower5.png"" style=""width:200px;border:14px solid red;"">","null","","","","","","","","",""
"645.5999999940395","","image-keyboard-response","24","1139213","0.0-24.0","34QN5IT0T0DTWGMETJHXI7VTLUS08W","ALYR5CI2SM2JC","32XN26MTXZ5MP383W6LZYTLBY7P0LI","","","img/flower4.png","74","647.5","1","1","1","","","","",""
"null","","html-keyboard-response","25","1139515","0.0-25.0","34QN5IT0T0DTWGMETJHXI7VTLUS08W","ALYR5CI2SM2JC","32XN26MTXZ5MP383W6LZYTLBY7P0LI","","","<img src=""img/flower4.png"" style=""width:200px; border:14px solid green;"">","null","","","","","","","","",""
"631.2000000029802","","image-keyboard-response","26","1140149","0.0-26.0","34QN5IT0T0DTWGMETJHXI7VTLUS08W","ALYR5CI2SM2JC","32XN26MTXZ5MP383W6LZYTLBY7P0LI","","","img/flower6.png","76","633.3000000119209","3","1","3","","","","",""
"null","","html-keyboard-response","27","1140455","0.0-27.0","34QN5IT0T0DTWGMETJHXI7VTLUS08W","ALYR5CI2SM2JC","32XN26MTXZ5MP383W6LZYTLBY7P0LI","","","<img src=""img/flower6.png"" style=""width:200px; border:14px solid green;"">","null","","","","","","","","",""
"679.7000000029802","","image-keyboard-response","28","1141136","0.0-28.0","34QN5IT0T0DTWGMETJHXI7VTLUS08W","ALYR5CI2SM2JC","32XN26MTXZ5MP383W6LZYTLBY7P0LI","","","img/flower5.png","75","681.5","2","0","2","","","","",""
"null","","html-keyboard-response","29","1141455","0.0-29.0","34QN5IT0T0DTWGMETJHXI7VTLUS08W","ALYR5CI2SM2JC","32XN26MTXZ5MP383W6LZYTLBY7P0LI","","","<img src=""img/flower5.png"" style=""width:200px;border:14px solid red;"">","null","","","","","","","","",""
"611.5","","image-keyboard-response","30","1142069","0.0-30.0","34QN5IT0T0DTWGMETJHXI7VTLUS08W","ALYR5CI2SM2JC","32XN26MTXZ5MP383W6LZYTLBY7P0LI","","","img/flower6.png","76","613","3","1","3","","","","",""
"null","","html-keyboard-response","31","1142373","0.0-31.0","34QN5IT0T0DTWGMETJHXI7VTLUS08W","ALYR5CI2SM2JC","32XN26MTXZ5MP383W6LZYTLBY7P0LI","","","<img src=""img/flower6.png"" style=""width:200px; border:14px solid green;"">","null","","","","","","","","",""
"510","","image-keyboard-response","32","1142886","0.0-32.0","34QN5IT0T0DTWGMETJHXI7VTLUS08W","ALYR5CI2SM2JC","32XN26MTXZ5MP383W6LZYTLBY7P0LI","","","img/flower6.png","76","512.5","3","1","3","","","","",""
"null","","html-keyboard-response","33","1143192","0.0-33.0","34QN5IT0T0DTWGMETJHXI7VTLUS08W","ALYR5CI2SM2JC","32XN26MTXZ5MP383W6LZYTLBY7P0LI","","","<img src=""img/flower6.png"" style=""width:200px; border:14px solid green;"">","null","","","","","","","","",""
"683.5","","image-keyboard-response","34","1143878","0.0-34.0","34QN5IT0T0DTWGMETJHXI7VTLUS08W","ALYR5CI2SM2JC","32XN26MTXZ5MP383W6LZYTLBY7P0LI","","","img/flower5.png","75","685.8999999910593","2","1","2","","","","",""
"null","","html-keyboard-response","35","1144193","0.0-35.0","34QN5IT0T0DTWGMETJHXI7VTLUS08W","ALYR5CI2SM2JC","32XN26MTXZ5MP383W6LZYTLBY7P0LI","","","<img src=""img/flower5.png"" style=""width:200px; border:14px solid green;"">","null","","","","","","","","",""
"683.2999999970198","","image-keyboard-response","36","1144879","0.0-36.0","34QN5IT0T0DTWGMETJHXI7VTLUS08W","ALYR5CI2SM2JC","32XN26MTXZ5MP383W6LZYTLBY7P0LI","","","img/flower5.png","75","685.5","2","1","2","","","","",""
"null","","html-keyboard-response","37","1145192","0.0-37.0","34QN5IT0T0DTWGMETJHXI7VTLUS08W","ALYR5CI2SM2JC","32XN26MTXZ5MP383W6LZYTLBY7P0LI","","","<img src=""img/flower5.png"" style=""width:200px; border:14px solid green;"">","null","","","","","","","","",""
"532","","image-keyboard-response","38","1145727","0.0-38.0","34QN5IT0T0DTWGMETJHXI7VTLUS08W","ALYR5CI2SM2JC","32XN26MTXZ5MP383W6LZYTLBY7P0LI","","","img/flower4.png","74","534.2999999970198","1","0","1","","","","",""
"null","","html-keyboard-response","39","1146041","0.0-39.0","34QN5IT0T0DTWGMETJHXI7VTLUS08W","ALYR5CI2SM2JC","32XN26MTXZ5MP383W6LZYTLBY7P0LI","","","<img src=""img/flower4.png"" style=""width:200px;border:14px solid red;"">","null","","","","","","","","",""
"746.4000000059605","","image-keyboard-response","40","1146791","0.0-40.0","34QN5IT0T0DTWGMETJHXI7VTLUS08W","ALYR5CI2SM2JC","32XN26MTXZ5MP383W6LZYTLBY7P0LI","","","img/flower5.png","75","748.6000000089407","2","1","2","","","","",""
"null","","html-keyboard-response","41","1147111","0.0-41.0","34QN5IT0T0DTWGMETJHXI7VTLUS08W","ALYR5CI2SM2JC","32XN26MTXZ5MP383W6LZYTLBY7P0LI","","","<img src=""img/flower5.png"" style=""width:200px; border:14px solid green;"">","null","","","","","","","","",""
"555.9000000059605","","image-keyboard-response","42","1147670","0.0-42.0","34QN5IT0T0DTWGMETJHXI7VTLUS08W","ALYR5CI2SM2JC","32XN26MTXZ5MP383W6LZYTLBY7P0LI","","","img/flower4.png","74","558.3999999910593","1","1","1","","","","",""
"null","","html-keyboard-response","43","1147991","0.0-43.0","34QN5IT0T0DTWGMETJHXI7VTLUS08W","ALYR5CI2SM2JC","32XN26MTXZ5MP383W6LZYTLBY7P0LI","","","<img src=""img/flower4.png"" style=""width:200px; border:14px solid green;"">","null","","","","","","","","",""
"722.2999999970198","","image-keyboard-response","44","1148717","0.0-44.0","34QN5IT0T0DTWGMETJHXI7VTLUS08W","ALYR5CI2SM2JC","32XN26MTXZ5MP383W6LZYTLBY7P0LI","","","img/flower5.png","75","724.0999999940395","2","1","2","","","","",""
"null","","html-keyboard-response","45","1149032","0.0-45.0","34QN5IT0T0DTWGMETJHXI7VTLUS08W","ALYR5CI2SM2JC","32XN26MTXZ5MP383W6LZYTLBY7P0LI","","","<img src=""img/flower5.png"" style=""width:200px; border:14px solid green;"">","null","","","","","","","","",""
"636.1999999880791","","image-keyboard-response","46","1149671","0.0-46.0","34QN5IT0T0DTWGMETJHXI7VTLUS08W","ALYR5CI2SM2JC","32XN26MTXZ5MP383W6LZYTLBY7P0LI","","","img/flower4.png","74","638.5999999940395","1","1","1","","","","",""
"null","","html-keyboard-response","47","1149981","0.0-47.0","34QN5IT0T0DTWGMETJHXI7VTLUS08W","ALYR5CI2SM2JC","32XN26MTXZ5MP383W6LZYTLBY7P0LI","","","<img src=""img/flower4.png"" style=""width:200px; border:14px solid green;"">","null","","","","","","","","",""
"392.79999999701977","","image-keyboard-response","48","1150376","0.0-48.0","34QN5IT0T0DTWGMETJHXI7VTLUS08W","ALYR5CI2SM2JC","32XN26MTXZ5MP383W6LZYTLBY7P0LI","","","img/flower4.png","74","394.6000000089407","1","1","1","","","","",""
"null","","html-keyboard-response","49","1150691","0.0-49.0","34QN5IT0T0DTWGMETJHXI7VTLUS08W","ALYR5CI2SM2JC","32XN26MTXZ5MP383W6LZYTLBY7P0LI","","","<img src=""img/flower4.png"" style=""width:200px; border:14px solid green;"">","null","","","","","","","","",""
"289","","image-keyboard-response","50","1150984","0.0-50.0","34QN5IT0T0DTWGMETJHXI7VTLUS08W","ALYR5CI2SM2JC","32XN26MTXZ5MP383W6LZYTLBY7P0LI","","","img/flower4.png","74","291","1","0","1","","","","",""
"null","","html-keyboard-response","51","1151292","0.0-51.0","34QN5IT0T0DTWGMETJHXI7VTLUS08W","ALYR5CI2SM2JC","32XN26MTXZ5MP383W6LZYTLBY7P0LI","","","<img src=""img/flower4.png"" style=""width:200px;border:14px solid red;"">","null","","","","","","","","",""
"663.8000000119209","","image-keyboard-response","52","1151958","0.0-52.0","34QN5IT0T0DTWGMETJHXI7VTLUS08W","ALYR5CI2SM2JC","32XN26MTXZ5MP383W6LZYTLBY7P0LI","","","img/flower5.png","75","665.9000000059605","2","0","2","","","","",""
"null","","html-keyboard-response","53","1152273","0.0-53.0","34QN5IT0T0DTWGMETJHXI7VTLUS08W","ALYR5CI2SM2JC","32XN26MTXZ5MP383W6LZYTLBY7P0LI","","","<img src=""img/flower5.png"" style=""width:200px;border:14px solid red;"">","null","","","","","","","","",""
"467.6000000089407","","image-keyboard-response","54","1152744","0.0-54.0","34QN5IT0T0DTWGMETJHXI7VTLUS08W","ALYR5CI2SM2JC","32XN26MTXZ5MP383W6LZYTLBY7P0LI","","","img/flower5.png","75","470.20000000298023","2","1","2","","","","",""
"null","","html-keyboard-response","55","1153063","0.0-55.0","34QN5IT0T0DTWGMETJHXI7VTLUS08W","ALYR5CI2SM2JC","32XN26MTXZ5MP383W6LZYTLBY7P0LI","","","<img src=""img/flower5.png"" style=""width:200px; border:14px solid green;"">","null","","","","","","","","",""
"716","","image-keyboard-response","56","1153782","0.0-56.0","34QN5IT0T0DTWGMETJHXI7VTLUS08W","ALYR5CI2SM2JC","32XN26MTXZ5MP383W6LZYTLBY7P0LI","","","img/flower6.png","76","718.6999999880791","3","1","3","","","","",""
"null","","html-keyboard-response","57","1154101","0.0-57.0","34QN5IT0T0DTWGMETJHXI7VTLUS08W","ALYR5CI2SM2JC","32XN26MTXZ5MP383W6LZYTLBY7P0LI","","","<img src=""img/flower6.png"" style=""width:200px; border:14px solid green;"">","null","","","","","","","","",""
"607.0999999940395","","image-keyboard-response","58","1154711","0.0-58.0","34QN5IT0T0DTWGMETJHXI7VTLUS08W","ALYR5CI2SM2JC","32XN26MTXZ5MP383W6LZYTLBY7P0LI","","","img/flower4.png","74","609.6000000089407","1","1","1","","","","",""
"null","","html-keyboard-response","59","1155030","0.0-59.0","34QN5IT0T0DTWGMETJHXI7VTLUS08W","ALYR5CI2SM2JC","32XN26MTXZ5MP383W6LZYTLBY7P0LI","","","<img src=""img/flower4.png"" style=""width:200px; border:14px solid green;"">","null","","","","","","","","",""
"878.2999999970198","","image-keyboard-response","60","1155911","0.0-60.0","34QN5IT0T0DTWGMETJHXI7VTLUS08W","ALYR5CI2SM2JC","32XN26MTXZ5MP383W6LZYTLBY7P0LI","","","img/flower6.png","76","881.1000000089407","3","1","3","","","","",""
"null","","html-keyboard-response","61","1156217","0.0-61.0","34QN5IT0T0DTWGMETJHXI7VTLUS08W","ALYR5CI2SM2JC","32XN26MTXZ5MP383W6LZYTLBY7P0LI","","","<img src=""img/flower6.png"" style=""width:200px; border:14px solid green;"">","null","","","","","","","","",""
"595.5","","image-keyboard-response","62","1156815","0.0-62.0","34QN5IT0T0DTWGMETJHXI7VTLUS08W","ALYR5CI2SM2JC","32XN26MTXZ5MP383W6LZYTLBY7P0LI","","","img/flower4.png","74","597.8000000119209","1","1","1","","","","",""
"null","","html-keyboard-response","63","1157122","0.0-63.0","34QN5IT0T0DTWGMETJHXI7VTLUS08W","ALYR5CI2SM2JC","32XN26MTXZ5MP383W6LZYTLBY7P0LI","","","<img src=""img/flower4.png"" style=""width:200px; border:14px solid green;"">","null","","","","","","","","",""
"21578.79999999702","","instructions","64","1178703","0.0-64.0","34QN5IT0T0DTWGMETJHXI7VTLUS08W","ALYR5CI2SM2JC","32XN26MTXZ5MP383W6LZYTLBY7P0LI","","[{""page_index"":0,""viewing_time"":15576.20000000298},{""page_index"":1,""viewing_time"":6002.0999999940395}]","","","","","","","","","","",""
"903.1000000089407","","image-keyboard-response","65","1179608","0.0-65.0","34QN5IT0T0DTWGMETJHXI7VTLUS08W","ALYR5CI2SM2JC","32XN26MTXZ5MP383W6LZYTLBY7P0LI","","","img/flower6.png","76","905.5999999940395","3","1","3","","","","",""
"null","","html-keyboard-response","66","1179926","0.0-66.0","34QN5IT0T0DTWGMETJHXI7VTLUS08W","ALYR5CI2SM2JC","32XN26MTXZ5MP383W6LZYTLBY7P0LI","","","<img src=""img/flower6.png"" style=""width:200px; border:14px solid green;"">","null","","","","","","","","",""
"629.2000000029802","","image-keyboard-response","67","1180558","0.0-67.0","34QN5IT0T0DTWGMETJHXI7VTLUS08W","ALYR5CI2SM2JC","32XN26MTXZ5MP383W6LZYTLBY7P0LI","","","img/flower5.png","75","631.5","2","0","2","","","","",""
"null","","html-keyboard-response","68","1180869","0.0-68.0","34QN5IT0T0DTWGMETJHXI7VTLUS08W","ALYR5CI2SM2JC","32XN26MTXZ5MP383W6LZYTLBY7P0LI","","","<img src=""img/flower5.png"" style=""width:200px;border:14px solid red;"">","null","","","","","","","","",""
"766.6000000089407","","image-keyboard-response","69","1181639","0.0-69.0","34QN5IT0T0DTWGMETJHXI7VTLUS08W","ALYR5CI2SM2JC","32XN26MTXZ5MP383W6LZYTLBY7P0LI","","","img/flower4.png","74","769","1","0","1","","","","",""
"null","","html-keyboard-response","70","1181946","0.0-70.0","34QN5IT0T0DTWGMETJHXI7VTLUS08W","ALYR5CI2SM2JC","32XN26MTXZ5MP383W6LZYTLBY7P0LI","","","<img src=""img/flower4.png"" style=""width:200px;border:14px solid red;"">","null","","","","","","","","",""
"546.5","","image-keyboard-response","71","1182495","0.0-71.0","34QN5IT0T0DTWGMETJHXI7VTLUS08W","ALYR5CI2SM2JC","32XN26MTXZ5MP383W6LZYTLBY7P0LI","","","img/flower5.png","75","548.8999999910593","2","1","2","","","","",""
"null","","html-keyboard-response","72","1182805","0.0-72.0","34QN5IT0T0DTWGMETJHXI7VTLUS08W","ALYR5CI2SM2JC","32XN26MTXZ5MP383W6LZYTLBY7P0LI","","","<img src=""img/flower5.png"" style=""width:200px; border:14px solid green;"">","null","","","","","","","","",""
"455.29999999701977","","image-keyboard-response","73","1183264","0.0-73.0","34QN5IT0T0DTWGMETJHXI7VTLUS08W","ALYR5CI2SM2JC","32XN26MTXZ5MP383W6LZYTLBY7P0LI","","","img/flower4.png","74","457.90000000596046","1","1","1","","","","",""
"null","","html-keyboard-response","74","1183569","0.0-74.0","34QN5IT0T0DTWGMETJHXI7VTLUS08W","ALYR5CI2SM2JC","32XN26MTXZ5MP383W6LZYTLBY7P0LI","","","<img src=""img/flower4.png"" style=""width:200px; border:14px solid green;"">","null","","","","","","","","",""
"609.7999999970198","","image-keyboard-response","75","1184183","0.0-75.0","34QN5IT0T0DTWGMETJHXI7VTLUS08W","ALYR5CI2SM2JC","32XN26MTXZ5MP383W6LZYTLBY7P0LI","","","img/flower6.png","76","612.1000000089407","3","1","3","","","","",""
"null","","html-keyboard-response","76","1184498","0.0-76.0","34QN5IT0T0DTWGMETJHXI7VTLUS08W","ALYR5CI2SM2JC","32XN26MTXZ5MP383W6LZYTLBY7P0LI","","","<img src=""img/flower6.png"" style=""width:200px; border:14px solid green;"">","null","","","","","","","","",""
"562.7000000029802","","image-keyboard-response","77","1185064","0.0-77.0","34QN5IT0T0DTWGMETJHXI7VTLUS08W","ALYR5CI2SM2JC","32XN26MTXZ5MP383W6LZYTLBY7P0LI","","","img/flower4.png","74","565.7999999970198","1","1","1","","","","",""
"null","","html-keyboard-response","78","1185380","0.0-78.0","34QN5IT0T0DTWGMETJHXI7VTLUS08W","ALYR5CI2SM2JC","32XN26MTXZ5MP383W6LZYTLBY7P0LI","","","<img src=""img/flower4.png"" style=""width:200px; border:14px solid green;"">","null","","","","","","","","",""
"480.6000000089407","","image-keyboard-response","79","1185863","0.0-79.0","34QN5IT0T0DTWGMETJHXI7VTLUS08W","ALYR5CI2SM2JC","32XN26MTXZ5MP383W6LZYTLBY7P0LI","","","img/flower4.png","74","483.09999999403954","1","1","1","","","","",""
"null","","html-keyboard-response","80","1186177","0.0-80.0","34QN5IT0T0DTWGMETJHXI7VTLUS08W","ALYR5CI2SM2JC","32XN26MTXZ5MP383W6LZYTLBY7P0LI","","","<img src=""img/flower4.png"" style=""width:200px; border:14px solid green;"">","null","","","","","","","","",""
"570.2999999970198","","image-keyboard-response","81","1186751","0.0-81.0","34QN5IT0T0DTWGMETJHXI7VTLUS08W","ALYR5CI2SM2JC","32XN26MTXZ5MP383W6LZYTLBY7P0LI","","","img/flower6.png","76","573.2999999970198","3","1","3","","","","",""
"null","","html-keyboard-response","82","1187067","0.0-82.0","34QN5IT0T0DTWGMETJHXI7VTLUS08W","ALYR5CI2SM2JC","32XN26MTXZ5MP383W6LZYTLBY7P0LI","","","<img src=""img/flower6.png"" style=""width:200px; border:14px solid green;"">","null","","","","","","","","",""
"384.5","","image-keyboard-response","83","1187455","0.0-83.0","34QN5IT0T0DTWGMETJHXI7VTLUS08W","ALYR5CI2SM2JC","32XN26MTXZ5MP383W6LZYTLBY7P0LI","","","img/flower6.png","76","386.90000000596046","3","0","3","","","","",""
"null","","html-keyboard-response","84","1187769","0.0-84.0","34QN5IT0T0DTWGMETJHXI7VTLUS08W","ALYR5CI2SM2JC","32XN26MTXZ5MP383W6LZYTLBY7P0LI","","","<img src=""img/flower6.png"" style=""width:200px;border:14px solid red;"">","null","","","","","","","","",""
"539.7000000029802","","image-keyboard-response","85","1188312","0.0-85.0","34QN5IT0T0DTWGMETJHXI7VTLUS08W","ALYR5CI2SM2JC","32XN26MTXZ5MP383W6LZYTLBY7P0LI","","","img/flower5.png","75","542.2000000029802","2","1","2","","","","",""
"null","","html-keyboard-response","86","1188629","0.0-86.0","34QN5IT0T0DTWGMETJHXI7VTLUS08W","ALYR5CI2SM2JC","32XN26MTXZ5MP383W6LZYTLBY7P0LI","","","<img src=""img/flower5.png"" style=""width:200px; border:14px solid green;"">","null","","","","","","","","",""
"307.80000001192093","","image-keyboard-response","87","1188941","0.0-87.0","34QN5IT0T0DTWGMETJHXI7VTLUS08W","ALYR5CI2SM2JC","32XN26MTXZ5MP383W6LZYTLBY7P0LI","","","img/flower5.png","75","309.80000001192093","2","1","2","","","","",""
"null","","html-keyboard-response","88","1189259","0.0-88.0","34QN5IT0T0DTWGMETJHXI7VTLUS08W","ALYR5CI2SM2JC","32XN26MTXZ5MP383W6LZYTLBY7P0LI","","","<img src=""img/flower5.png"" style=""width:200px; border:14px solid green;"">","null","","","","","","","","",""
"393.80000001192093","","image-keyboard-response","89","1189656","0.0-89.0","34QN5IT0T0DTWGMETJHXI7VTLUS08W","ALYR5CI2SM2JC","32XN26MTXZ5MP383W6LZYTLBY7P0LI","","","img/flower5.png","75","396.40000000596046","2","1","2","","","","",""
"null","","html-keyboard-response","90","1189968","0.0-90.0","34QN5IT0T0DTWGMETJHXI7VTLUS08W","ALYR5CI2SM2JC","32XN26MTXZ5MP383W6LZYTLBY7P0LI","","","<img src=""img/flower5.png"" style=""width:200px; border:14px solid green;"">","null","","","","","","","","",""
"451.79999999701977","","image-keyboard-response","91","1190423","0.0-91.0","34QN5IT0T0DTWGMETJHXI7VTLUS08W","ALYR5CI2SM2JC","32XN26MTXZ5MP383W6LZYTLBY7P0LI","","","img/flower4.png","74","454","1","1","1","","","","",""
"null","","html-keyboard-response","92","1190739","0.0-92.0","34QN5IT0T0DTWGMETJHXI7VTLUS08W","ALYR5CI2SM2JC","32XN26MTXZ5MP383W6LZYTLBY7P0LI","","","<img src=""img/flower4.png"" style=""width:200px; border:14px solid green;"">","null","","","","","","","","",""
"888.8000000119209","","image-keyboard-response","93","1191631","0.0-93.0","34QN5IT0T0DTWGMETJHXI7VTLUS08W","ALYR5CI2SM2JC","32XN26MTXZ5MP383W6LZYTLBY7P0LI","","","img/flower5.png","75","891.2999999970198","2","1","2","","","","",""
"null","","html-keyboard-response","94","1191938","0.0-94.0","34QN5IT0T0DTWGMETJHXI7VTLUS08W","ALYR5CI2SM2JC","32XN26MTXZ5MP383W6LZYTLBY7P0LI","","","<img src=""img/flower5.png"" style=""width:200px; border:14px solid green;"">","null","","","","","","","","",""
"290.20000000298023","","image-keyboard-response","95","1192231","0.0-95.0","34QN5IT0T0DTWGMETJHXI7VTLUS08W","ALYR5CI2SM2JC","32XN26MTXZ5MP383W6LZYTLBY7P0LI","","","img/flower4.png","75","292.29999999701977","2","0","1","","","","",""
"null","","html-keyboard-response","96","1192536","0.0-96.0","34QN5IT0T0DTWGMETJHXI7VTLUS08W","ALYR5CI2SM2JC","32XN26MTXZ5MP383W6LZYTLBY7P0LI","","","<img src=""img/flower4.png"" style=""width:200px;border:14px solid red;"">","null","","","","","","","","",""
"957.5999999940395","","image-keyboard-response","97","1193496","0.0-97.0","34QN5IT0T0DTWGMETJHXI7VTLUS08W","ALYR5CI2SM2JC","32XN26MTXZ5MP383W6LZYTLBY7P0LI","","","img/flower4.png","75","960","2","0","1","","","","",""
"null","","html-keyboard-response","98","1193808","0.0-98.0","34QN5IT0T0DTWGMETJHXI7VTLUS08W","ALYR5CI2SM2JC","32XN26MTXZ5MP383W6LZYTLBY7P0LI","","","<img src=""img/flower4.png"" style=""width:200px;border:14px solid red;"">","null","","","","","","","","",""
"556.8999999910593","","image-keyboard-response","99","1194367","0.0-99.0","34QN5IT0T0DTWGMETJHXI7VTLUS08W","ALYR5CI2SM2JC","32XN26MTXZ5MP383W6LZYTLBY7P0LI","","","img/flower6.png","76","559.1000000089407","3","1","3","","","","",""
"null","","html-keyboard-response","100","1194676","0.0-100.0","34QN5IT0T0DTWGMETJHXI7VTLUS08W","ALYR5CI2SM2JC","32XN26MTXZ5MP383W6LZYTLBY7P0LI","","","<img src=""img/flower6.png"" style=""width:200px; border:14px solid green;"">","null","","","","","","","","",""
"336.20000000298023","","image-keyboard-response","101","1195016","0.0-101.0","34QN5IT0T0DTWGMETJHXI7VTLUS08W","ALYR5CI2SM2JC","32XN26MTXZ5MP383W6LZYTLBY7P0LI","","","img/flower6.png","76","338.80000001192093","3","1","3","","","","",""
"null","","html-keyboard-response","102","1195324","0.0-102.0","34QN5IT0T0DTWGMETJHXI7VTLUS08W","ALYR5CI2SM2JC","32XN26MTXZ5MP383W6LZYTLBY7P0LI","","","<img src=""img/flower6.png"" style=""width:200px; border:14px solid green;"">","null","","","","","","","","",""
"386.1000000089407","","image-keyboard-response","103","1195712","0.0-103.0","34QN5IT0T0DTWGMETJHXI7VTLUS08W","ALYR5CI2SM2JC","32XN26MTXZ5MP383W6LZYTLBY7P0LI","","","img/flower6.png","76","387.8999999910593","3","0","3","","","","",""
"null","","html-keyboard-response","104","1196042","0.0-104.0","34QN5IT0T0DTWGMETJHXI7VTLUS08W","ALYR5CI2SM2JC","32XN26MTXZ5MP383W6LZYTLBY7P0LI","","","<img src=""img/flower6.png"" style=""width:200px;border:14px solid red;"">","null","","","","","","","","",""
"480.79999999701977","","image-keyboard-response","105","1196526","0.0-105.0","34QN5IT0T0DTWGMETJHXI7VTLUS08W","ALYR5CI2SM2JC","32XN26MTXZ5MP383W6LZYTLBY7P0LI","","","img/flower4.png","74","482.90000000596046","1","1","1","","","","",""
"null","","html-keyboard-response","106","1196840","0.0-106.0","34QN5IT0T0DTWGMETJHXI7VTLUS08W","ALYR5CI2SM2JC","32XN26MTXZ5MP383W6LZYTLBY7P0LI","","","<img src=""img/flower4.png"" style=""width:200px; border:14px solid green;"">","null","","","","","","","","",""
"419.09999999403954","","image-keyboard-response","107","1197262","0.0-107.0","34QN5IT0T0DTWGMETJHXI7VTLUS08W","ALYR5CI2SM2JC","32XN26MTXZ5MP383W6LZYTLBY7P0LI","","","img/flower5.png","75","421.1000000089407","2","1","2","","","","",""
"null","","html-keyboard-response","108","1197579","0.0-108.0","34QN5IT0T0DTWGMETJHXI7VTLUS08W","ALYR5CI2SM2JC","32XN26MTXZ5MP383W6LZYTLBY7P0LI","","","<img src=""img/flower5.png"" style=""width:200px; border:14px solid green;"">","null","","","","","","","","",""
"544.0999999940395","","image-keyboard-response","109","1198126","0.0-109.0","34QN5IT0T0DTWGMETJHXI7VTLUS08W","ALYR5CI2SM2JC","32XN26MTXZ5MP383W6LZYTLBY7P0LI","","","img/flower6.png","76","546.3999999910593","3","1","3","","","","",""
"null","","html-keyboard-response","110","1198432","0.0-110.0","34QN5IT0T0DTWGMETJHXI7VTLUS08W","ALYR5CI2SM2JC","32XN26MTXZ5MP383W6LZYTLBY7P0LI","","","<img src=""img/flower6.png"" style=""width:200px; border:14px solid green;"">","null","","","","","","","","",""
"340","","image-keyboard-response","111","1198775","0.0-111.0","34QN5IT0T0DTWGMETJHXI7VTLUS08W","ALYR5CI2SM2JC","32XN26MTXZ5MP383W6LZYTLBY7P0LI","","","img/flower6.png","76","342.20000000298023","3","1","3","","","","",""
"null","","html-keyboard-response","112","1199087","0.0-112.0","34QN5IT0T0DTWGMETJHXI7VTLUS08W","ALYR5CI2SM2JC","32XN26MTXZ5MP383W6LZYTLBY7P0LI","","","<img src=""img/flower6.png"" style=""width:200px; border:14px solid green;"">","null","","","","","","","","",""
"394.70000000298023","","image-keyboard-response","113","1199485","0.0-113.0","34QN5IT0T0DTWGMETJHXI7VTLUS08W","ALYR5CI2SM2JC","32XN26MTXZ5MP383W6LZYTLBY7P0LI","","","img/flower6.png","76","396.70000000298023","3","1","3","","","","",""
"null","","html-keyboard-response","114","1199805","0.0-114.0","34QN5IT0T0DTWGMETJHXI7VTLUS08W","ALYR5CI2SM2JC","32XN26MTXZ5MP383W6LZYTLBY7P0LI","","","<img src=""img/flower6.png"" style=""width:200px; border:14px solid green;"">","null","","","","","","","","",""
"998.7999999970198","","image-keyboard-response","115","1200807","0.0-115.0","34QN5IT0T0DTWGMETJHXI7VTLUS08W","ALYR5CI2SM2JC","32XN26MTXZ5MP383W6LZYTLBY7P0LI","","","img/flower5.png","75","1001.1999999880791","2","1","2","","","","",""
"null","","html-keyboard-response","116","1201118","0.0-116.0","34QN5IT0T0DTWGMETJHXI7VTLUS08W","ALYR5CI2SM2JC","32XN26MTXZ5MP383W6LZYTLBY7P0LI","","","<img src=""img/flower5.png"" style=""width:200px; border:14px solid green;"">","null","","","","","","","","",""
"509.80000001192093","","image-keyboard-response","117","1201630","0.0-117.0","34QN5IT0T0DTWGMETJHXI7VTLUS08W","ALYR5CI2SM2JC","32XN26MTXZ5MP383W6LZYTLBY7P0LI","","","img/flower4.png","74","511.70000000298023","1","0","1","","","","",""
"null","","html-keyboard-response","118","1201963","0.0-118.0","34QN5IT0T0DTWGMETJHXI7VTLUS08W","ALYR5CI2SM2JC","32XN26MTXZ5MP383W6LZYTLBY7P0LI","","","<img src=""img/flower4.png"" style=""width:200px;border:14px solid red;"">","null","","","","","","","","",""
"360.70000000298023","","image-keyboard-response","119","1202327","0.0-119.0","34QN5IT0T0DTWGMETJHXI7VTLUS08W","ALYR5CI2SM2JC","32XN26MTXZ5MP383W6LZYTLBY7P0LI","","","img/flower4.png","74","363.09999999403954","1","1","1","","","","",""
"null","","html-keyboard-response","120","1202631","0.0-120.0","34QN5IT0T0DTWGMETJHXI7VTLUS08W","ALYR5CI2SM2JC","32XN26MTXZ5MP383W6LZYTLBY7P0LI","","","<img src=""img/flower4.png"" style=""width:200px; border:14px solid green;"">","null","","","","","","","","",""
"491.5","","image-keyboard-response","121","1203126","0.0-121.0","34QN5IT0T0DTWGMETJHXI7VTLUS08W","ALYR5CI2SM2JC","32XN26MTXZ5MP383W6LZYTLBY7P0LI","","","img/flower5.png","76","494.19999998807907","3","1","2","","","","",""
"null","","html-keyboard-response","122","1203431","0.0-122.0","34QN5IT0T0DTWGMETJHXI7VTLUS08W","ALYR5CI2SM2JC","32XN26MTXZ5MP383W6LZYTLBY7P0LI","","","<img src=""img/flower5.png"" style=""width:200px; border:14px solid green;"">","null","","","","","","","","",""
"494","","image-keyboard-response","123","1203927","0.0-123.0","34QN5IT0T0DTWGMETJHXI7VTLUS08W","ALYR5CI2SM2JC","32XN26MTXZ5MP383W6LZYTLBY7P0LI","","","img/flower5.png","75","496.1000000089407","2","0","2","","","","",""
"null","","html-keyboard-response","124","1204231","0.0-124.0","34QN5IT0T0DTWGMETJHXI7VTLUS08W","ALYR5CI2SM2JC","32XN26MTXZ5MP383W6LZYTLBY7P0LI","","","<img src=""img/flower5.png"" style=""width:200px;border:14px solid red;"">","null","","","","","","","","",""
"2198.2999999970198","","instructions","125","1206431","0.0-125.0","34QN5IT0T0DTWGMETJHXI7VTLUS08W","ALYR5CI2SM2JC","32XN26MTXZ5MP383W6LZYTLBY7P0LI","","[{""page_index"":0,""viewing_time"":2197.8999999910593}]","","","","","","","","","","",""
"1149.5999999940395","","image-keyboard-response","126","1207582","0.0-126.0","34QN5IT0T0DTWGMETJHXI7VTLUS08W","ALYR5CI2SM2JC","32XN26MTXZ5MP383W6LZYTLBY7P0LI","","","img/flower1.png","74","1151.8999999910593","1","0","2","1","1,0.333,0.333,0.333,1,0.333,0.333,0.333,1","1,0.333,0.333,0.333,1,0.333,0.333,0.333,1","1",""
"null","","html-keyboard-response","127","1207902","0.0-127.0","34QN5IT0T0DTWGMETJHXI7VTLUS08W","ALYR5CI2SM2JC","32XN26MTXZ5MP383W6LZYTLBY7P0LI","","","<img src=""img/flower1.png"" style=""width:200px;border:14px solid red;"">","null","","","","","","","","",""
"949.3999999910593","","image-keyboard-response","128","1208854","0.0-128.0","34QN5IT0T0DTWGMETJHXI7VTLUS08W","ALYR5CI2SM2JC","32XN26MTXZ5MP383W6LZYTLBY7P0LI","","","img/flower3.png","74","951.9000000059605","1","1","1","1","1,0.333,0.333,0.333,1,0.333,0.333,0.333,1","1,0.333,0.333,0.333,1,0.333,0.333,0.333,1","1",""
"null","","html-keyboard-response","129","1209173","0.0-129.0","34QN5IT0T0DTWGMETJHXI7VTLUS08W","ALYR5CI2SM2JC","32XN26MTXZ5MP383W6LZYTLBY7P0LI","","","<img src=""img/flower3.png"" style=""width:200px; border:14px solid green;"">","null","","","","","","","","",""
"476.59999999403954","","image-keyboard-response","130","1209653","0.0-130.0","34QN5IT0T0DTWGMETJHXI7VTLUS08W","ALYR5CI2SM2JC","32XN26MTXZ5MP383W6LZYTLBY7P0LI","","","img/flower3.png","74","478.59999999403954","1","1","1","1","1,0.333,0.333,0.333,1,0.333,0.333,0.333,1","1,0.333,0.333,0.333,1,0.333,0.333,0.333,1","1",""
"null","","html-keyboard-response","131","1209970","0.0-131.0","34QN5IT0T0DTWGMETJHXI7VTLUS08W","ALYR5CI2SM2JC","32XN26MTXZ5MP383W6LZYTLBY7P0LI","","","<img src=""img/flower3.png"" style=""width:200px; border:14px solid green;"">","null","","","","","","","","",""
"896.5999999940395","","image-keyboard-response","132","1210870","0.0-132.0","34QN5IT0T0DTWGMETJHXI7VTLUS08W","ALYR5CI2SM2JC","32XN26MTXZ5MP383W6LZYTLBY7P0LI","","","img/flower2.png","75","899.4000000059605","2","1","3","1","1,0.333,0.333,0.333,1,0.333,0.333,0.333,1","1,0.333,0.333,0.333,1,0.333,0.333,0.333,1","1",""
"null","","html-keyboard-response","133","1211179","0.0-133.0","34QN5IT0T0DTWGMETJHXI7VTLUS08W","ALYR5CI2SM2JC","32XN26MTXZ5MP383W6LZYTLBY7P0LI","","","<img src=""img/flower2.png"" style=""width:200px; border:14px solid green;"">","null","","","","","","","","",""
"654.2999999970198","","image-keyboard-response","134","1211837","0.0-134.0","34QN5IT0T0DTWGMETJHXI7VTLUS08W","ALYR5CI2SM2JC","32XN26MTXZ5MP383W6LZYTLBY7P0LI","","","img/flower1.png","76","656.3000000119209","3","1","2","1","1,0.333,0.333,0.333,1,0.333,0.333,0.333,1","1,0.333,0.333,0.333,1,0.333,0.333,0.333,1","1",""
"null","","html-keyboard-response","135","1212147","0.0-135.0","34QN5IT0T0DTWGMETJHXI7VTLUS08W","ALYR5CI2SM2JC","32XN26MTXZ5MP383W6LZYTLBY7P0LI","","","<img src=""img/flower1.png"" style=""width:200px; border:14px solid green;"">","null","","","","","","","","",""
"584.5","","image-keyboard-response","136","1212735","0.0-136.0","34QN5IT0T0DTWGMETJHXI7VTLUS08W","ALYR5CI2SM2JC","32XN26MTXZ5MP383W6LZYTLBY7P0LI","","","img/flower2.png","75","586.7999999970198","2","0","3","1","1,0.333,0.333,0.333,1,0.333,0.333,0.333,1","1,0.333,0.333,0.333,1,0.333,0.333,0.333,1","1",""
"null","","html-keyboard-response","137","1213042","0.0-137.0","34QN5IT0T0DTWGMETJHXI7VTLUS08W","ALYR5CI2SM2JC","32XN26MTXZ5MP383W6LZYTLBY7P0LI","","","<img src=""img/flower2.png"" style=""width:200px;border:14px solid red;"">","null","","","","","","","","",""
"879.5999999940395","","image-keyboard-response","138","1213925","0.0-138.0","34QN5IT0T0DTWGMETJHXI7VTLUS08W","ALYR5CI2SM2JC","32XN26MTXZ5MP383W6LZYTLBY7P0LI","","","img/flower1.png","74","882.2999999970198","1","1","2","1","1,0.333,0.333,0.333,1,0.333,0.333,0.333,1","1,0.333,0.333,0.333,1,0.333,0.333,0.333,1","1",""
"null","","html-keyboard-response","139","1214233","0.0-139.0","34QN5IT0T0DTWGMETJHXI7VTLUS08W","ALYR5CI2SM2JC","32XN26MTXZ5MP383W6LZYTLBY7P0LI","","","<img src=""img/flower1.png"" style=""width:200px; border:14px solid green;"">","null","","","","","","","","",""
"787","","image-keyboard-response","140","1215023","0.0-140.0","34QN5IT0T0DTWGMETJHXI7VTLUS08W","ALYR5CI2SM2JC","32XN26MTXZ5MP383W6LZYTLBY7P0LI","","","img/flower2.png","75","789.2000000029802","2","0","3","1","1,0.333,0.333,0.333,1,0.333,0.333,0.333,1","1,0.333,0.333,0.333,1,0.333,0.333,0.333,1","1",""
"null","","html-keyboard-response","141","1215339","0.0-141.0","34QN5IT0T0DTWGMETJHXI7VTLUS08W","ALYR5CI2SM2JC","32XN26MTXZ5MP383W6LZYTLBY7P0LI","","","<img src=""img/flower2.png"" style=""width:200px;border:14px solid red;"">","null","","","","","","","","",""
"833.5","","image-keyboard-response","142","1216175","0.0-142.0","34QN5IT0T0DTWGMETJHXI7VTLUS08W","ALYR5CI2SM2JC","32XN26MTXZ5MP383W6LZYTLBY7P0LI","","","img/flower2.png","76","837.8999999910593","3","1","3","1","1,0.333,0.333,0.333,1,0.333,0.333,0.333,1","1,0.333,0.333,0.333,1,0.333,0.333,0.333,1","1",""
"null","","html-keyboard-response","143","1216488","0.0-143.0","34QN5IT0T0DTWGMETJHXI7VTLUS08W","ALYR5CI2SM2JC","32XN26MTXZ5MP383W6LZYTLBY7P0LI","","","<img src=""img/flower2.png"" style=""width:200px; border:14px solid green;"">","null","","","","","","","","",""
"1212","","image-keyboard-response","144","1217703","0.0-144.0","34QN5IT0T0DTWGMETJHXI7VTLUS08W","ALYR5CI2SM2JC","32XN26MTXZ5MP383W6LZYTLBY7P0LI","","","img/flower3.png","74","1214.2999999970198","1","1","1","1","1,0.333,0.333,0.333,1,0.333,0.333,0.333,1","1,0.333,0.333,0.333,1,0.333,0.333,0.333,1","1",""
"null","","html-keyboard-response","145","1218011","0.0-145.0","34QN5IT0T0DTWGMETJHXI7VTLUS08W","ALYR5CI2SM2JC","32XN26MTXZ5MP383W6LZYTLBY7P0LI","","","<img src=""img/flower3.png"" style=""width:200px; border:14px solid green;"">","null","","","","","","","","",""
"401","","image-keyboard-response","146","1218415","0.0-146.0","34QN5IT0T0DTWGMETJHXI7VTLUS08W","ALYR5CI2SM2JC","32XN26MTXZ5MP383W6LZYTLBY7P0LI","","","img/flower3.png","74","403.8999999910593","1","1","1","1","1,0.333,0.333,0.333,1,0.333,0.333,0.333,1","1,0.333,0.333,0.333,1,0.333,0.333,0.333,1","1",""
"null","","html-keyboard-response","147","1218731","0.0-147.0","34QN5IT0T0DTWGMETJHXI7VTLUS08W","ALYR5CI2SM2JC","32XN26MTXZ5MP383W6LZYTLBY7P0LI","","","<img src=""img/flower3.png"" style=""width:200px; border:14px solid green;"">","null","","","","","","","","",""
"1693.800000011921","","image-keyboard-response","148","1220428","0.0-148.0","34QN5IT0T0DTWGMETJHXI7VTLUS08W","ALYR5CI2SM2JC","32XN26MTXZ5MP383W6LZYTLBY7P0LI","","","img/flower2.png","76","1695.7000000029802","3","1","3","1","1,0.333,0.333,0.333,1,0.333,0.333,0.333,1","1,0.333,0.333,0.333,1,0.333,0.333,0.333,1","1",""
"null","","html-keyboard-response","149","1220740","0.0-149.0","34QN5IT0T0DTWGMETJHXI7VTLUS08W","ALYR5CI2SM2JC","32XN26MTXZ5MP383W6LZYTLBY7P0LI","","","<img src=""img/flower2.png"" style=""width:200px; border:14px solid green;"">","null","","","","","","","","",""
"318.5","","image-keyboard-response","150","1221063","0.0-150.0","34QN5IT0T0DTWGMETJHXI7VTLUS08W","ALYR5CI2SM2JC","32XN26MTXZ5MP383W6LZYTLBY7P0LI","","","img/flower2.png","76","321","3","1","3","1","1,0.333,0.333,0.333,1,0.333,0.333,0.333,1","1,0.333,0.333,0.333,1,0.333,0.333,0.333,1","1",""
"null","","html-keyboard-response","151","1221378","0.0-151.0","34QN5IT0T0DTWGMETJHXI7VTLUS08W","ALYR5CI2SM2JC","32XN26MTXZ5MP383W6LZYTLBY7P0LI","","","<img src=""img/flower2.png"" style=""width:200px; border:14px solid green;"">","null","","","","","","","","",""
"802.0999999940395","","image-keyboard-response","152","1222183","0.0-152.0","34QN5IT0T0DTWGMETJHXI7VTLUS08W","ALYR5CI2SM2JC","32XN26MTXZ5MP383W6LZYTLBY7P0LI","","","img/flower1.png","75","804.8999999910593","2","1","2","1","1,0.333,0.333,0.333,1,0.333,0.333,0.333,1","1,0.333,0.333,0.333,1,0.333,0.333,0.333,1","1",""
"null","","html-keyboard-response","153","1222503","0.0-153.0","34QN5IT0T0DTWGMETJHXI7VTLUS08W","ALYR5CI2SM2JC","32XN26MTXZ5MP383W6LZYTLBY7P0LI","","","<img src=""img/flower1.png"" style=""width:200px; border:14px solid green;"">","null","","","","","","","","",""
"772.7000000029802","","image-keyboard-response","154","1223278","0.0-154.0","34QN5IT0T0DTWGMETJHXI7VTLUS08W","ALYR5CI2SM2JC","32XN26MTXZ5MP383W6LZYTLBY7P0LI","","","img/flower3.png","74","774.9000000059605","1","1","1","1","1,0.333,0.333,0.333,1,0.333,0.333,0.333,1","1,0.333,0.333,0.333,1,0.333,0.333,0.333,1","1",""
"null","","html-keyboard-response","155","1223590","0.0-155.0","34QN5IT0T0DTWGMETJHXI7VTLUS08W","ALYR5CI2SM2JC","32XN26MTXZ5MP383W6LZYTLBY7P0LI","","","<img src=""img/flower3.png"" style=""width:200px; border:14px solid green;"">","null","","","","","","","","",""
"739.4000000059605","","image-keyboard-response","156","1224333","0.0-156.0","34QN5IT0T0DTWGMETJHXI7VTLUS08W","ALYR5CI2SM2JC","32XN26MTXZ5MP383W6LZYTLBY7P0LI","","","img/flower1.png","75","741.2000000029802","2","1","2","1","1,0.333,0.333,0.333,1,0.333,0.333,0.333,1","1,0.333,0.333,0.333,1,0.333,0.333,0.333,1","1",""
"null","","html-keyboard-response","157","1224637","0.0-157.0","34QN5IT0T0DTWGMETJHXI7VTLUS08W","ALYR5CI2SM2JC","32XN26MTXZ5MP383W6LZYTLBY7P0LI","","","<img src=""img/flower1.png"" style=""width:200px; border:14px solid green;"">","null","","","","","","","","",""
"509.90000000596046","","image-keyboard-response","158","1225150","0.0-158.0","34QN5IT0T0DTWGMETJHXI7VTLUS08W","ALYR5CI2SM2JC","32XN26MTXZ5MP383W6LZYTLBY7P0LI","","","img/flower2.png","76","512.0999999940395","3","1","3","1","1,0.333,0.333,0.333,1,0.333,0.333,0.333,1","1,0.333,0.333,0.333,1,0.333,0.333,0.333,1","1",""
"null","","html-keyboard-response","159","1225459","0.0-159.0","34QN5IT0T0DTWGMETJHXI7VTLUS08W","ALYR5CI2SM2JC","32XN26MTXZ5MP383W6LZYTLBY7P0LI","","","<img src=""img/flower2.png"" style=""width:200px; border:14px solid green;"">","null","","","","","","","","",""
"591.8999999910593","","image-keyboard-response","160","1226054","0.0-160.0","34QN5IT0T0DTWGMETJHXI7VTLUS08W","ALYR5CI2SM2JC","32XN26MTXZ5MP383W6LZYTLBY7P0LI","","","img/flower3.png","74","594.2000000029802","1","1","1","1","1,0.333,0.333,0.333,1,0.333,0.333,0.333,1","1,0.333,0.333,0.333,1,0.333,0.333,0.333,1","1",""
"null","","html-keyboard-response","161","1226361","0.0-161.0","34QN5IT0T0DTWGMETJHXI7VTLUS08W","ALYR5CI2SM2JC","32XN26MTXZ5MP383W6LZYTLBY7P0LI","","","<img src=""img/flower3.png"" style=""width:200px; border:14px solid green;"">","null","","","","","","","","",""
"1177.9000000059605","","image-keyboard-response","162","1227543","0.0-162.0","34QN5IT0T0DTWGMETJHXI7VTLUS08W","ALYR5CI2SM2JC","32XN26MTXZ5MP383W6LZYTLBY7P0LI","","","img/flower2.png","76","1181","3","1","3","1","1,0.333,0.333,0.333,1,0.333,0.333,0.333,1","1,0.333,0.333,0.333,1,0.333,0.333,0.333,1","1",""
"null","","html-keyboard-response","163","1227860","0.0-163.0","34QN5IT0T0DTWGMETJHXI7VTLUS08W","ALYR5CI2SM2JC","32XN26MTXZ5MP383W6LZYTLBY7P0LI","","","<img src=""img/flower2.png"" style=""width:200px; border:14px solid green;"">","null","","","","","","","","",""
"669.0999999940395","","image-keyboard-response","164","1228532","0.0-164.0","34QN5IT0T0DTWGMETJHXI7VTLUS08W","ALYR5CI2SM2JC","32XN26MTXZ5MP383W6LZYTLBY7P0LI","","","img/flower3.png","74","671","1","1","1","1","1,0.333,0.333,0.333,1,0.333,0.333,0.333,1","1,0.333,0.333,0.333,1,0.333,0.333,0.333,1","1",""
"null","","html-keyboard-response","165","1228845","0.0-165.0","34QN5IT0T0DTWGMETJHXI7VTLUS08W","ALYR5CI2SM2JC","32XN26MTXZ5MP383W6LZYTLBY7P0LI","","","<img src=""img/flower3.png"" style=""width:200px; border:14px solid green;"">","null","","","","","","","","",""
"510.29999999701977","","image-keyboard-response","166","1229359","0.0-166.0","34QN5IT0T0DTWGMETJHXI7VTLUS08W","ALYR5CI2SM2JC","32XN26MTXZ5MP383W6LZYTLBY7P0LI","","","img/flower2.png","76","512.6999999880791","3","1","3","1","1,0.333,0.333,0.333,1,0.333,0.333,0.333,1","1,0.333,0.333,0.333,1,0.333,0.333,0.333,1","1",""
"null","","html-keyboard-response","167","1229674","0.0-167.0","34QN5IT0T0DTWGMETJHXI7VTLUS08W","ALYR5CI2SM2JC","32XN26MTXZ5MP383W6LZYTLBY7P0LI","","","<img src=""img/flower2.png"" style=""width:200px; border:14px solid green;"">","null","","","","","","","","",""
"640","","image-keyboard-response","168","1230317","0.0-168.0","34QN5IT0T0DTWGMETJHXI7VTLUS08W","ALYR5CI2SM2JC","32XN26MTXZ5MP383W6LZYTLBY7P0LI","","","img/flower1.png","75","642","2","1","2","1","1,0.333,0.333,0.333,1,0.333,0.333,0.333,1","1,0.333,0.333,0.333,1,0.333,0.333,0.333,1","1",""
"null","","html-keyboard-response","169","1230633","0.0-169.0","34QN5IT0T0DTWGMETJHXI7VTLUS08W","ALYR5CI2SM2JC","32XN26MTXZ5MP383W6LZYTLBY7P0LI","","","<img src=""img/flower1.png"" style=""width:200px; border:14px solid green;"">","null","","","","","","","","",""
"447.80000001192093","","image-keyboard-response","170","1231084","0.0-170.0","34QN5IT0T0DTWGMETJHXI7VTLUS08W","ALYR5CI2SM2JC","32XN26MTXZ5MP383W6LZYTLBY7P0LI","","","img/flower1.png","75","449.79999999701977","2","1","2","1","1,0.333,0.333,0.333,1,0.333,0.333,0.333,1","1,0.333,0.333,0.333,1,0.333,0.333,0.333,1","1",""
"null","","html-keyboard-response","171","1231402","0.0-171.0","34QN5IT0T0DTWGMETJHXI7VTLUS08W","ALYR5CI2SM2JC","32XN26MTXZ5MP383W6LZYTLBY7P0LI","","","<img src=""img/flower1.png"" style=""width:200px; border:14px solid green;"">","null","","","","","","","","",""
"537.2000000029802","","image-keyboard-response","172","1231943","0.0-172.0","34QN5IT0T0DTWGMETJHXI7VTLUS08W","ALYR5CI2SM2JC","32XN26MTXZ5MP383W6LZYTLBY7P0LI","","","img/flower3.png","74","539.8000000119209","1","1","1","1","1,0.333,0.333,0.333,1,0.333,0.333,0.333,1","1,0.333,0.333,0.333,1,0.333,0.333,0.333,1","1",""
"null","","html-keyboard-response","173","1232257","0.0-173.0","34QN5IT0T0DTWGMETJHXI7VTLUS08W","ALYR5CI2SM2JC","32XN26MTXZ5MP383W6LZYTLBY7P0LI","","","<img src=""img/flower3.png"" style=""width:200px; border:14px solid green;"">","null","","","","","","","","",""
"474.8999999910593","","image-keyboard-response","174","1232734","0.0-174.0","34QN5IT0T0DTWGMETJHXI7VTLUS08W","ALYR5CI2SM2JC","32XN26MTXZ5MP383W6LZYTLBY7P0LI","","","img/flower2.png","76","477","3","1","3","1","1,0.333,0.333,0.333,1,0.333,0.333,0.333,1","1,0.333,0.333,0.333,1,0.333,0.333,0.333,1","1",""
"null","","html-keyboard-response","175","1233046","0.0-175.0","34QN5IT0T0DTWGMETJHXI7VTLUS08W","ALYR5CI2SM2JC","32XN26MTXZ5MP383W6LZYTLBY7P0LI","","","<img src=""img/flower2.png"" style=""width:200px; border:14px solid green;"">","null","","","","","","","","",""
"661.4000000059605","","image-keyboard-response","176","1233710","0.0-176.0","34QN5IT0T0DTWGMETJHXI7VTLUS08W","ALYR5CI2SM2JC","32XN26MTXZ5MP383W6LZYTLBY7P0LI","","","img/flower1.png","75","663.5","2","1","2","1","1,0.333,0.333,0.333,1,0.333,0.333,0.333,1","1,0.333,0.333,0.333,1,0.333,0.333,0.333,1","1",""
"null","","html-keyboard-response","177","1234025","0.0-177.0","34QN5IT0T0DTWGMETJHXI7VTLUS08W","ALYR5CI2SM2JC","32XN26MTXZ5MP383W6LZYTLBY7P0LI","","","<img src=""img/flower1.png"" style=""width:200px; border:14px solid green;"">","null","","","","","","","","",""
"416.6000000089407","","image-keyboard-response","178","1234444","0.0-178.0","34QN5IT0T0DTWGMETJHXI7VTLUS08W","ALYR5CI2SM2JC","32XN26MTXZ5MP383W6LZYTLBY7P0LI","","","img/flower1.png","75","418.6000000089407","2","1","2","1","1,0.333,0.333,0.333,1,0.333,0.333,0.333,1","1,0.333,0.333,0.333,1,0.333,0.333,0.333,1","1",""
"null","","html-keyboard-response","179","1234748","0.0-179.0","34QN5IT0T0DTWGMETJHXI7VTLUS08W","ALYR5CI2SM2JC","32XN26MTXZ5MP383W6LZYTLBY7P0LI","","","<img src=""img/flower1.png"" style=""width:200px; border:14px solid green;"">","null","","","","","","","","",""
"368.70000000298023","","image-keyboard-response","180","1235120","0.0-180.0","34QN5IT0T0DTWGMETJHXI7VTLUS08W","ALYR5CI2SM2JC","32XN26MTXZ5MP383W6LZYTLBY7P0LI","","","img/flower1.png","75","370.90000000596046","2","1","2","1","1,0.333,0.333,0.333,1,0.333,0.333,0.333,1","1,0.333,0.333,0.333,1,0.333,0.333,0.333,1","1",""
"null","","html-keyboard-response","181","1235425","0.0-181.0","34QN5IT0T0DTWGMETJHXI7VTLUS08W","ALYR5CI2SM2JC","32XN26MTXZ5MP383W6LZYTLBY7P0LI","","","<img src=""img/flower1.png"" style=""width:200px; border:14px solid green;"">","null","","","","","","","","",""
"483","","image-keyboard-response","182","1235911","0.0-182.0","34QN5IT0T0DTWGMETJHXI7VTLUS08W","ALYR5CI2SM2JC","32XN26MTXZ5MP383W6LZYTLBY7P0LI","","","img/flower2.png","76","485.40000000596046","3","1","3","1","1,0.333,0.333,0.333,1,0.333,0.333,0.333,1","1,0.333,0.333,0.333,1,0.333,0.333,0.333,1","1",""
"null","","html-keyboard-response","183","1236228","0.0-183.0","34QN5IT0T0DTWGMETJHXI7VTLUS08W","ALYR5CI2SM2JC","32XN26MTXZ5MP383W6LZYTLBY7P0LI","","","<img src=""img/flower2.png"" style=""width:200px; border:14px solid green;"">","null","","","","","","","","",""
"385.20000000298023","","image-keyboard-response","184","1236616","0.0-184.0","34QN5IT0T0DTWGMETJHXI7VTLUS08W","ALYR5CI2SM2JC","32XN26MTXZ5MP383W6LZYTLBY7P0LI","","","img/flower2.png","76","387.5","3","1","3","1","1,0.333,0.333,0.333,1,0.333,0.333,0.333,1","1,0.333,0.333,0.333,1,0.333,0.333,0.333,1","1",""
"null","","html-keyboard-response","185","1236933","0.0-185.0","34QN5IT0T0DTWGMETJHXI7VTLUS08W","ALYR5CI2SM2JC","32XN26MTXZ5MP383W6LZYTLBY7P0LI","","","<img src=""img/flower2.png"" style=""width:200px; border:14px solid green;"">","null","","","","","","","","",""
"463.09999999403954","","image-keyboard-response","186","1237399","0.0-186.0","34QN5IT0T0DTWGMETJHXI7VTLUS08W","ALYR5CI2SM2JC","32XN26MTXZ5MP383W6LZYTLBY7P0LI","","","img/flower3.png","74","465.5","1","1","1","1","1,0.333,0.333,0.333,1,0.333,0.333,0.333,1","1,0.333,0.333,0.333,1,0.333,0.333,0.333,1","1",""
"null","","html-keyboard-response","187","1237705","0.0-187.0","34QN5IT0T0DTWGMETJHXI7VTLUS08W","ALYR5CI2SM2JC","32XN26MTXZ5MP383W6LZYTLBY7P0LI","","","<img src=""img/flower3.png"" style=""width:200px; border:14px solid green;"">","null","","","","","","","","",""
"442.90000000596046","","image-keyboard-response","188","1238151","0.0-188.0","34QN5IT0T0DTWGMETJHXI7VTLUS08W","ALYR5CI2SM2JC","32XN26MTXZ5MP383W6LZYTLBY7P0LI","","","img/flower3.png","74","445","1","1","1","1","1,0.333,0.333,0.333,1,0.333,0.333,0.333,1","1,0.333,0.333,0.333,1,0.333,0.333,0.333,1","1",""
"null","","html-keyboard-response","189","1238460","0.0-189.0","34QN5IT0T0DTWGMETJHXI7VTLUS08W","ALYR5CI2SM2JC","32XN26MTXZ5MP383W6LZYTLBY7P0LI","","","<img src=""img/flower3.png"" style=""width:200px; border:14px solid green;"">","null","","","","","","","","",""
"424.6000000089407","","image-keyboard-response","190","1238888","0.0-190.0","34QN5IT0T0DTWGMETJHXI7VTLUS08W","ALYR5CI2SM2JC","32XN26MTXZ5MP383W6LZYTLBY7P0LI","","","img/flower3.png","74","426.90000000596046","1","1","1","1","1,0.333,0.333,0.333,1,0.333,0.333,0.333,1","1,0.333,0.333,0.333,1,0.333,0.333,0.333,1","1",""
"null","","html-keyboard-response","191","1239196","0.0-191.0","34QN5IT0T0DTWGMETJHXI7VTLUS08W","ALYR5CI2SM2JC","32XN26MTXZ5MP383W6LZYTLBY7P0LI","","","<img src=""img/flower3.png"" style=""width:200px; border:14px solid green;"">","null","","","","","","","","",""
"369.20000000298023","","image-keyboard-response","192","1239568","0.0-192.0","34QN5IT0T0DTWGMETJHXI7VTLUS08W","ALYR5CI2SM2JC","32XN26MTXZ5MP383W6LZYTLBY7P0LI","","","img/flower3.png","74","371.79999999701977","1","1","1","1","1,0.333,0.333,0.333,1,0.333,0.333,0.333,1","1,0.333,0.333,0.333,1,0.333,0.333,0.333,1","1",""
"null","","html-keyboard-response","193","1239874","0.0-193.0","34QN5IT0T0DTWGMETJHXI7VTLUS08W","ALYR5CI2SM2JC","32XN26MTXZ5MP383W6LZYTLBY7P0LI","","","<img src=""img/flower3.png"" style=""width:200px; border:14px solid green;"">","null","","","","","","","","",""
"377.69999998807907","","image-keyboard-response","194","1240255","0.0-194.0","34QN5IT0T0DTWGMETJHXI7VTLUS08W","ALYR5CI2SM2JC","32XN26MTXZ5MP383W6LZYTLBY7P0LI","","","img/flower3.png","74","380.20000000298023","1","1","1","1","1,0.333,0.333,0.333,1,0.333,0.333,0.333,1","1,0.333,0.333,0.333,1,0.333,0.333,0.333,1","1",""
"null","","html-keyboard-response","195","1240562","0.0-195.0","34QN5IT0T0DTWGMETJHXI7VTLUS08W","ALYR5CI2SM2JC","32XN26MTXZ5MP383W6LZYTLBY7P0LI","","","<img src=""img/flower3.png"" style=""width:200px; border:14px solid green;"">","null","","","","","","","","",""
"575.7999999970198","","image-keyboard-response","196","1241141","0.0-196.0","34QN5IT0T0DTWGMETJHXI7VTLUS08W","ALYR5CI2SM2JC","32XN26MTXZ5MP383W6LZYTLBY7P0LI","","","img/flower2.png","76","577.7000000029802","3","1","3","1","1,0.333,0.333,0.333,1,0.333,0.333,0.333,1","1,0.333,0.333,0.333,1,0.333,0.333,0.333,1","1",""
"null","","html-keyboard-response","197","1241455","0.0-197.0","34QN5IT0T0DTWGMETJHXI7VTLUS08W","ALYR5CI2SM2JC","32XN26MTXZ5MP383W6LZYTLBY7P0LI","","","<img src=""img/flower2.png"" style=""width:200px; border:14px solid green;"">","null","","","","","","","","",""
"539.5","","image-keyboard-response","198","1242000","0.0-198.0","34QN5IT0T0DTWGMETJHXI7VTLUS08W","ALYR5CI2SM2JC","32XN26MTXZ5MP383W6LZYTLBY7P0LI","","","img/flower1.png","75","543.2000000029802","2","1","2","1","1,0.333,0.333,0.333,1,0.333,0.333,0.333,1","1,0.333,0.333,0.333,1,0.333,0.333,0.333,1","1",""
"null","","html-keyboard-response","199","1242310","0.0-199.0","34QN5IT0T0DTWGMETJHXI7VTLUS08W","ALYR5CI2SM2JC","32XN26MTXZ5MP383W6LZYTLBY7P0LI","","","<img src=""img/flower1.png"" style=""width:200px; border:14px solid green;"">","null","","","","","","","","",""
"525.2999999970198","","image-keyboard-response","200","1242838","0.0-200.0","34QN5IT0T0DTWGMETJHXI7VTLUS08W","ALYR5CI2SM2JC","32XN26MTXZ5MP383W6LZYTLBY7P0LI","","","img/flower2.png","76","527.8999999910593","3","1","3","1","1,0.333,0.333,0.333,1,0.333,0.333,0.333,1","1,0.333,0.333,0.333,1,0.333,0.333,0.333,1","1",""
"null","","html-keyboard-response","201","1243147","0.0-201.0","34QN5IT0T0DTWGMETJHXI7VTLUS08W","ALYR5CI2SM2JC","32XN26MTXZ5MP383W6LZYTLBY7P0LI","","","<img src=""img/flower2.png"" style=""width:200px; border:14px solid green;"">","null","","","","","","","","",""
"866.4000000059605","","image-keyboard-response","202","1244016","0.0-202.0","34QN5IT0T0DTWGMETJHXI7VTLUS08W","ALYR5CI2SM2JC","32XN26MTXZ5MP383W6LZYTLBY7P0LI","","","img/flower1.png","75","868.4000000059605","2","1","2","1","1,0.333,0.333,0.333,1,0.333,0.333,0.333,1","1,0.333,0.333,0.333,1,0.333,0.333,0.333,1","1",""
"null","","html-keyboard-response","203","1244328","0.0-203.0","34QN5IT0T0DTWGMETJHXI7VTLUS08W","ALYR5CI2SM2JC","32XN26MTXZ5MP383W6LZYTLBY7P0LI","","","<img src=""img/flower1.png"" style=""width:200px; border:14px solid green;"">","null","","","","","","","","",""
"420.09999999403954","","image-keyboard-response","204","1244752","0.0-204.0","34QN5IT0T0DTWGMETJHXI7VTLUS08W","ALYR5CI2SM2JC","32XN26MTXZ5MP383W6LZYTLBY7P0LI","","","img/flower1.png","75","422.70000000298023","2","1","2","1","1,0.333,0.333,0.333,1,0.333,0.333,0.333,1","1,0.333,0.333,0.333,1,0.333,0.333,0.333,1","1",""
"null","","html-keyboard-response","205","1245064","0.0-205.0","34QN5IT0T0DTWGMETJHXI7VTLUS08W","ALYR5CI2SM2JC","32XN26MTXZ5MP383W6LZYTLBY7P0LI","","","<img src=""img/flower1.png"" style=""width:200px; border:14px solid green;"">","null","","","","","","","","",""
"476","","image-keyboard-response","206","1245544","0.0-206.0","34QN5IT0T0DTWGMETJHXI7VTLUS08W","ALYR5CI2SM2JC","32XN26MTXZ5MP383W6LZYTLBY7P0LI","","","img/flower2.png","74","479.09999999403954","1","0","3","1","1,0.333,0.333,0.333,1,0.333,0.333,0.333,1","1,0.333,0.333,0.333,1,0.333,0.333,0.333,1","1",""
"null","","html-keyboard-response","207","1245856","0.0-207.0","34QN5IT0T0DTWGMETJHXI7VTLUS08W","ALYR5CI2SM2JC","32XN26MTXZ5MP383W6LZYTLBY7P0LI","","","<img src=""img/flower2.png"" style=""width:200px;border:14px solid red;"">","null","","","","","","","","",""
"644.2000000029802","","image-keyboard-response","208","1246503","0.0-208.0","34QN5IT0T0DTWGMETJHXI7VTLUS08W","ALYR5CI2SM2JC","32XN26MTXZ5MP383W6LZYTLBY7P0LI","","","img/flower3.png","74","646.2000000029802","1","1","1","1","1,0.333,0.333,0.333,1,0.333,0.333,0.333,1","1,0.333,0.333,0.333,1,0.333,0.333,0.333,1","1",""
"null","","html-keyboard-response","209","1246814","0.0-209.0","34QN5IT0T0DTWGMETJHXI7VTLUS08W","ALYR5CI2SM2JC","32XN26MTXZ5MP383W6LZYTLBY7P0LI","","","<img src=""img/flower3.png"" style=""width:200px; border:14px solid green;"">","null","","","","","","","","",""
"437.79999999701977","","image-keyboard-response","210","1247254","0.0-210.0","34QN5IT0T0DTWGMETJHXI7VTLUS08W","ALYR5CI2SM2JC","32XN26MTXZ5MP383W6LZYTLBY7P0LI","","","img/flower2.png","76","439.79999999701977","3","1","3","1","1,0.333,0.333,0.333,1,0.333,0.333,0.333,1","1,0.333,0.333,0.333,1,0.333,0.333,0.333,1","1",""
"null","","html-keyboard-response","211","1247561","0.0-211.0","34QN5IT0T0DTWGMETJHXI7VTLUS08W","ALYR5CI2SM2JC","32XN26MTXZ5MP383W6LZYTLBY7P0LI","","","<img src=""img/flower2.png"" style=""width:200px; border:14px solid green;"">","null","","","","","","","","",""
"352.3999999910593","","image-keyboard-response","212","1247917","0.0-212.0","34QN5IT0T0DTWGMETJHXI7VTLUS08W","ALYR5CI2SM2JC","32XN26MTXZ5MP383W6LZYTLBY7P0LI","","","img/flower2.png","76","354.30000001192093","3","1","3","1","1,0.333,0.333,0.333,1,0.333,0.333,0.333,1","1,0.333,0.333,0.333,1,0.333,0.333,0.333,1","1",""
"null","","html-keyboard-response","213","1248233","0.0-213.0","34QN5IT0T0DTWGMETJHXI7VTLUS08W","ALYR5CI2SM2JC","32XN26MTXZ5MP383W6LZYTLBY7P0LI","","","<img src=""img/flower2.png"" style=""width:200px; border:14px solid green;"">","null","","","","","","","","",""
"978.9000000059605","","image-keyboard-response","214","1249215","0.0-214.0","34QN5IT0T0DTWGMETJHXI7VTLUS08W","ALYR5CI2SM2JC","32XN26MTXZ5MP383W6LZYTLBY7P0LI","","","img/flower3.png","74","981.2999999970198","1","1","1","1","1,0.333,0.333,0.333,1,0.333,0.333,0.333,1","1,0.333,0.333,0.333,1,0.333,0.333,0.333,1","1",""
"null","","html-keyboard-response","215","1249533","0.0-215.0","34QN5IT0T0DTWGMETJHXI7VTLUS08W","ALYR5CI2SM2JC","32XN26MTXZ5MP383W6LZYTLBY7P0LI","","","<img src=""img/flower3.png"" style=""width:200px; border:14px solid green;"">","null","","","","","","","","",""
"605","","image-keyboard-response","216","1250141","0.0-216.0","34QN5IT0T0DTWGMETJHXI7VTLUS08W","ALYR5CI2SM2JC","32XN26MTXZ5MP383W6LZYTLBY7P0LI","","","img/flower1.png","75","606.7999999970198","2","1","2","1","1,0.333,0.333,0.333,1,0.333,0.333,0.333,1","1,0.333,0.333,0.333,1,0.333,0.333,0.333,1","1",""
"null","","html-keyboard-response","217","1250449","0.0-217.0","34QN5IT0T0DTWGMETJHXI7VTLUS08W","ALYR5CI2SM2JC","32XN26MTXZ5MP383W6LZYTLBY7P0LI","","","<img src=""img/flower1.png"" style=""width:200px; border:14px solid green;"">","null","","","","","","","","",""
"370.09999999403954","","image-keyboard-response","218","1250822","0.0-218.0","34QN5IT0T0DTWGMETJHXI7VTLUS08W","ALYR5CI2SM2JC","32XN26MTXZ5MP383W6LZYTLBY7P0LI","","","img/flower1.png","75","372.70000000298023","2","1","2","1","1,0.333,0.333,0.333,1,0.333,0.333,0.333,1","1,0.333,0.333,0.333,1,0.333,0.333,0.333,1","1",""
"null","","html-keyboard-response","219","1251126","0.0-219.0","34QN5IT0T0DTWGMETJHXI7VTLUS08W","ALYR5CI2SM2JC","32XN26MTXZ5MP383W6LZYTLBY7P0LI","","","<img src=""img/flower1.png"" style=""width:200px; border:14px solid green;"">","null","","","","","","","","",""
"1105.5999999940395","","image-keyboard-response","220","1252236","0.0-220.0","34QN5IT0T0DTWGMETJHXI7VTLUS08W","ALYR5CI2SM2JC","32XN26MTXZ5MP383W6LZYTLBY7P0LI","","","img/flower3.png","74","1108.0999999940395","1","1","1","1","1,0.333,0.333,0.333,1,0.333,0.333,0.333,1","1,0.333,0.333,0.333,1,0.333,0.333,0.333,1","1",""
"null","","html-keyboard-response","221","1252541","0.0-221.0","34QN5IT0T0DTWGMETJHXI7VTLUS08W","ALYR5CI2SM2JC","32XN26MTXZ5MP383W6LZYTLBY7P0LI","","","<img src=""img/flower3.png"" style=""width:200px; border:14px solid green;"">","null","","","","","","","","",""
"758.2000000029802","","image-keyboard-response","222","1253303","0.0-222.0","34QN5IT0T0DTWGMETJHXI7VTLUS08W","ALYR5CI2SM2JC","32XN26MTXZ5MP383W6LZYTLBY7P0LI","","","img/flower1.png","75","760.5999999940395","2","1","2","1","1,0.333,0.333,0.333,1,0.333,0.333,0.333,1","1,0.333,0.333,0.333,1,0.333,0.333,0.333,1","1",""
"null","","html-keyboard-response","223","1253609","0.0-223.0","34QN5IT0T0DTWGMETJHXI7VTLUS08W","ALYR5CI2SM2JC","32XN26MTXZ5MP383W6LZYTLBY7P0LI","","","<img src=""img/flower1.png"" style=""width:200px; border:14px solid green;"">","null","","","","","","","","",""
"322.1000000089407","","image-keyboard-response","224","1253935","0.0-224.0","34QN5IT0T0DTWGMETJHXI7VTLUS08W","ALYR5CI2SM2JC","32XN26MTXZ5MP383W6LZYTLBY7P0LI","","","img/flower1.png","75","324.5","2","1","2","1","1,0.333,0.333,0.333,1,0.333,0.333,0.333,1","1,0.333,0.333,0.333,1,0.333,0.333,0.333,1","1",""
"null","","html-keyboard-response","225","1254252","0.0-225.0","34QN5IT0T0DTWGMETJHXI7VTLUS08W","ALYR5CI2SM2JC","32XN26MTXZ5MP383W6LZYTLBY7P0LI","","","<img src=""img/flower1.png"" style=""width:200px; border:14px solid green;"">","null","","","","","","","","",""
"297","","image-keyboard-response","226","1254553","0.0-226.0","34QN5IT0T0DTWGMETJHXI7VTLUS08W","ALYR5CI2SM2JC","32XN26MTXZ5MP383W6LZYTLBY7P0LI","","","img/flower1.png","75","299","2","1","2","1","1,0.333,0.333,0.333,1,0.333,0.333,0.333,1","1,0.333,0.333,0.333,1,0.333,0.333,0.333,1","1",""
"null","","html-keyboard-response","227","1254871","0.0-227.0","34QN5IT0T0DTWGMETJHXI7VTLUS08W","ALYR5CI2SM2JC","32XN26MTXZ5MP383W6LZYTLBY7P0LI","","","<img src=""img/flower1.png"" style=""width:200px; border:14px solid green;"">","null","","","","","","","","",""
"333.70000000298023","","image-keyboard-response","228","1255207","0.0-228.0","34QN5IT0T0DTWGMETJHXI7VTLUS08W","ALYR5CI2SM2JC","32XN26MTXZ5MP383W6LZYTLBY7P0LI","","","img/flower1.png","75","336","2","1","2","1","1,0.333,0.333,0.333,1,0.333,0.333,0.333,1","1,0.333,0.333,0.333,1,0.333,0.333,0.333,1","1",""
"null","","html-keyboard-response","229","1255523","0.0-229.0","34QN5IT0T0DTWGMETJHXI7VTLUS08W","ALYR5CI2SM2JC","32XN26MTXZ5MP383W6LZYTLBY7P0LI","","","<img src=""img/flower1.png"" style=""width:200px; border:14px solid green;"">","null","","","","","","","","",""
"728.0999999940395","","image-keyboard-response","230","1256254","0.0-230.0","34QN5IT0T0DTWGMETJHXI7VTLUS08W","ALYR5CI2SM2JC","32XN26MTXZ5MP383W6LZYTLBY7P0LI","","","img/flower3.png","74","730.1999999880791","1","1","1","1","1,0.333,0.333,0.333,1,0.333,0.333,0.333,1","1,0.333,0.333,0.333,1,0.333,0.333,0.333,1","1",""
"null","","html-keyboard-response","231","1256587","0.0-231.0","34QN5IT0T0DTWGMETJHXI7VTLUS08W","ALYR5CI2SM2JC","32XN26MTXZ5MP383W6LZYTLBY7P0LI","","","<img src=""img/flower3.png"" style=""width:200px; border:14px solid green;"">","null","","","","","","","","",""
"486.5","","image-keyboard-response","232","1257076","0.0-232.0","34QN5IT0T0DTWGMETJHXI7VTLUS08W","ALYR5CI2SM2JC","32XN26MTXZ5MP383W6LZYTLBY7P0LI","","","img/flower2.png","76","488.09999999403954","3","1","3","1","1,0.333,0.333,0.333,1,0.333,0.333,0.333,1","1,0.333,0.333,0.333,1,0.333,0.333,0.333,1","1",""
"null","","html-keyboard-response","233","1257392","0.0-233.0","34QN5IT0T0DTWGMETJHXI7VTLUS08W","ALYR5CI2SM2JC","32XN26MTXZ5MP383W6LZYTLBY7P0LI","","","<img src=""img/flower2.png"" style=""width:200px; border:14px solid green;"">","null","","","","","","","","",""
"777.1000000089407","","image-keyboard-response","234","1258172","0.0-234.0","34QN5IT0T0DTWGMETJHXI7VTLUS08W","ALYR5CI2SM2JC","32XN26MTXZ5MP383W6LZYTLBY7P0LI","","","img/flower3.png","74","778.7000000029802","1","1","1","1","1,0.333,0.333,0.333,1,0.333,0.333,0.333,1","1,0.333,0.333,0.333,1,0.333,0.333,0.333,1","1",""
"null","","html-keyboard-response","235","1258484","0.0-235.0","34QN5IT0T0DTWGMETJHXI7VTLUS08W","ALYR5CI2SM2JC","32XN26MTXZ5MP383W6LZYTLBY7P0LI","","","<img src=""img/flower3.png"" style=""width:200px; border:14px solid green;"">","null","","","","","","","","",""
"366.29999999701977","","image-keyboard-response","236","1258852","0.0-236.0","34QN5IT0T0DTWGMETJHXI7VTLUS08W","ALYR5CI2SM2JC","32XN26MTXZ5MP383W6LZYTLBY7P0LI","","","img/flower3.png","74","367.40000000596046","1","1","1","1","1,0.333,0.333,0.333,1,0.333,0.333,0.333,1","1,0.333,0.333,0.333,1,0.333,0.333,0.333,1","1",""
"null","","html-keyboard-response","237","1259157","0.0-237.0","34QN5IT0T0DTWGMETJHXI7VTLUS08W","ALYR5CI2SM2JC","32XN26MTXZ5MP383W6LZYTLBY7P0LI","","","<img src=""img/flower3.png"" style=""width:200px; border:14px solid green;"">","null","","","","","","","","",""
"1464.3999999910593","","image-keyboard-response","238","1260623","0.0-238.0","34QN5IT0T0DTWGMETJHXI7VTLUS08W","ALYR5CI2SM2JC","32XN26MTXZ5MP383W6LZYTLBY7P0LI","","","img/flower2.png","76","1465.6000000089407","3","1","3","1","1,0.333,0.333,0.333,1,0.333,0.333,0.333,1","1,0.333,0.333,0.333,1,0.333,0.333,0.333,1","1",""
"null","","html-keyboard-response","239","1260936","0.0-239.0","34QN5IT0T0DTWGMETJHXI7VTLUS08W","ALYR5CI2SM2JC","32XN26MTXZ5MP383W6LZYTLBY7P0LI","","","<img src=""img/flower2.png"" style=""width:200px; border:14px solid green;"">","null","","","","","","","","",""
"627.5","","image-keyboard-response","240","1261566","0.0-240.0","34QN5IT0T0DTWGMETJHXI7VTLUS08W","ALYR5CI2SM2JC","32XN26MTXZ5MP383W6LZYTLBY7P0LI","","","img/flower3.png","74","630.0999999940395","1","1","1","1","1,0.333,0.333,0.333,1,0.333,0.333,0.333,1","1,0.333,0.333,0.333,1,0.333,0.333,0.333,1","1",""
"null","","html-keyboard-response","241","1261879","0.0-241.0","34QN5IT0T0DTWGMETJHXI7VTLUS08W","ALYR5CI2SM2JC","32XN26MTXZ5MP383W6LZYTLBY7P0LI","","","<img src=""img/flower3.png"" style=""width:200px; border:14px solid green;"">","null","","","","","","","","",""
"498.59999999403954","","image-keyboard-response","242","1262380","0.0-242.0","34QN5IT0T0DTWGMETJHXI7VTLUS08W","ALYR5CI2SM2JC","32XN26MTXZ5MP383W6LZYTLBY7P0LI","","","img/flower3.png","74","500.29999999701977","1","1","1","1","1,0.333,0.333,0.333,1,0.333,0.333,0.333,1","1,0.333,0.333,0.333,1,0.333,0.333,0.333,1","1",""
"null","","html-keyboard-response","243","1262690","0.0-243.0","34QN5IT0T0DTWGMETJHXI7VTLUS08W","ALYR5CI2SM2JC","32XN26MTXZ5MP383W6LZYTLBY7P0LI","","","<img src=""img/flower3.png"" style=""width:200px; border:14px solid green;"">","null","","","","","","","","",""
"552","","image-keyboard-response","244","1263245","0.0-244.0","34QN5IT0T0DTWGMETJHXI7VTLUS08W","ALYR5CI2SM2JC","32XN26MTXZ5MP383W6LZYTLBY7P0LI","","","img/flower2.png","76","553.8999999910593","3","1","3","1","1,0.333,0.333,0.333,1,0.333,0.333,0.333,1","1,0.333,0.333,0.333,1,0.333,0.333,0.333,1","1",""
"null","","html-keyboard-response","245","1263560","0.0-245.0","34QN5IT0T0DTWGMETJHXI7VTLUS08W","ALYR5CI2SM2JC","32XN26MTXZ5MP383W6LZYTLBY7P0LI","","","<img src=""img/flower2.png"" style=""width:200px; border:14px solid green;"">","null","","","","","","","","",""
"355.79999999701977","","image-keyboard-response","246","1263919","0.0-246.0","34QN5IT0T0DTWGMETJHXI7VTLUS08W","ALYR5CI2SM2JC","32XN26MTXZ5MP383W6LZYTLBY7P0LI","","","img/flower2.png","76","358.19999998807907","3","1","3","1","1,0.333,0.333,0.333,1,0.333,0.333,0.333,1","1,0.333,0.333,0.333,1,0.333,0.333,0.333,1","1",""
"null","","html-keyboard-response","247","1264233","0.0-247.0","34QN5IT0T0DTWGMETJHXI7VTLUS08W","ALYR5CI2SM2JC","32XN26MTXZ5MP383W6LZYTLBY7P0LI","","","<img src=""img/flower2.png"" style=""width:200px; border:14px solid green;"">","null","","","","","","","","",""
"715.3999999910593","","image-keyboard-response","248","1264951","0.0-248.0","34QN5IT0T0DTWGMETJHXI7VTLUS08W","ALYR5CI2SM2JC","32XN26MTXZ5MP383W6LZYTLBY7P0LI","","","img/flower3.png","74","717.5","1","1","1","1","1,0.333,0.333,0.333,1,0.333,0.333,0.333,1","1,0.333,0.333,0.333,1,0.333,0.333,0.333,1","1",""
"null","","html-keyboard-response","249","1265264","0.0-249.0","34QN5IT0T0DTWGMETJHXI7VTLUS08W","ALYR5CI2SM2JC","32XN26MTXZ5MP383W6LZYTLBY7P0LI","","","<img src=""img/flower3.png"" style=""width:200px; border:14px solid green;"">","null","","","","","","","","",""
"589.5","","image-keyboard-response","250","1265856","0.0-250.0","34QN5IT0T0DTWGMETJHXI7VTLUS08W","ALYR5CI2SM2JC","32XN26MTXZ5MP383W6LZYTLBY7P0LI","","","img/flower2.png","76","591.7999999970198","3","1","3","1","1,0.333,0.333,0.333,1,0.333,0.333,0.333,1","1,0.333,0.333,0.333,1,0.333,0.333,0.333,1","1",""
"null","","html-keyboard-response","251","1266165","0.0-251.0","34QN5IT0T0DTWGMETJHXI7VTLUS08W","ALYR5CI2SM2JC","32XN26MTXZ5MP383W6LZYTLBY7P0LI","","","<img src=""img/flower2.png"" style=""width:200px; border:14px solid green;"">","null","","","","","","","","",""
"526.2999999970198","","image-keyboard-response","252","1266694","0.0-252.0","34QN5IT0T0DTWGMETJHXI7VTLUS08W","ALYR5CI2SM2JC","32XN26MTXZ5MP383W6LZYTLBY7P0LI","","","img/flower3.png","74","528.5999999940395","1","1","1","1","1,0.333,0.333,0.333,1,0.333,0.333,0.333,1","1,0.333,0.333,0.333,1,0.333,0.333,0.333,1","1",""
"null","","html-keyboard-response","253","1267004","0.0-253.0","34QN5IT0T0DTWGMETJHXI7VTLUS08W","ALYR5CI2SM2JC","32XN26MTXZ5MP383W6LZYTLBY7P0LI","","","<img src=""img/flower3.png"" style=""width:200px; border:14px solid green;"">","null","","","","","","","","",""
"375.70000000298023","","image-keyboard-response","254","1267383","0.0-254.0","34QN5IT0T0DTWGMETJHXI7VTLUS08W","ALYR5CI2SM2JC","32XN26MTXZ5MP383W6LZYTLBY7P0LI","","","img/flower3.png","74","378.29999999701977","1","1","1","1","1,0.333,0.333,0.333,1,0.333,0.333,0.333,1","1,0.333,0.333,0.333,1,0.333,0.333,0.333,1","1",""
"null","","html-keyboard-response","255","1267703","0.0-255.0","34QN5IT0T0DTWGMETJHXI7VTLUS08W","ALYR5CI2SM2JC","32XN26MTXZ5MP383W6LZYTLBY7P0LI","","","<img src=""img/flower3.png"" style=""width:200px; border:14px solid green;"">","null","","","","","","","","",""
"692.2000000029802","","image-keyboard-response","256","1268398","0.0-256.0","34QN5IT0T0DTWGMETJHXI7VTLUS08W","ALYR5CI2SM2JC","32XN26MTXZ5MP383W6LZYTLBY7P0LI","","","img/flower1.png","75","694.2000000029802","2","1","2","1","1,0.333,0.333,0.333,1,0.333,0.333,0.333,1","1,0.333,0.333,0.333,1,0.333,0.333,0.333,1","1",""
"null","","html-keyboard-response","257","1268705","0.0-257.0","34QN5IT0T0DTWGMETJHXI7VTLUS08W","ALYR5CI2SM2JC","32XN26MTXZ5MP383W6LZYTLBY7P0LI","","","<img src=""img/flower1.png"" style=""width:200px; border:14px solid green;"">","null","","","","","","","","",""
"491.5","","image-keyboard-response","258","1269199","0.0-258.0","34QN5IT0T0DTWGMETJHXI7VTLUS08W","ALYR5CI2SM2JC","32XN26MTXZ5MP383W6LZYTLBY7P0LI","","","img/flower2.png","76","493.90000000596046","3","1","3","1","1,0.333,0.333,0.333,1,0.333,0.333,0.333,1","1,0.333,0.333,0.333,1,0.333,0.333,0.333,1","1",""
"null","","html-keyboard-response","259","1269516","0.0-259.0","34QN5IT0T0DTWGMETJHXI7VTLUS08W","ALYR5CI2SM2JC","32XN26MTXZ5MP383W6LZYTLBY7P0LI","","","<img src=""img/flower2.png"" style=""width:200px; border:14px solid green;"">","null","","","","","","","","",""
"502.6000000089407","","image-keyboard-response","260","1270022","0.0-260.0","34QN5IT0T0DTWGMETJHXI7VTLUS08W","ALYR5CI2SM2JC","32XN26MTXZ5MP383W6LZYTLBY7P0LI","","","img/flower1.png","74","504.3999999910593","1","0","2","1","1,0.333,0.333,0.333,1,0.333,0.333,0.333,1","1,0.333,0.333,0.333,1,0.333,0.333,0.333,1","1",""
"null","","html-keyboard-response","261","1270338","0.0-261.0","34QN5IT0T0DTWGMETJHXI7VTLUS08W","ALYR5CI2SM2JC","32XN26MTXZ5MP383W6LZYTLBY7P0LI","","","<img src=""img/flower1.png"" style=""width:200px;border:14px solid red;"">","null","","","","","","","","",""
"649.0999999940395","","image-keyboard-response","262","1270991","0.0-262.0","34QN5IT0T0DTWGMETJHXI7VTLUS08W","ALYR5CI2SM2JC","32XN26MTXZ5MP383W6LZYTLBY7P0LI","","","img/flower2.png","76","652.6999999880791","3","1","3","1","1,0.333,0.333,0.333,1,0.333,0.333,0.333,1","1,0.333,0.333,0.333,1,0.333,0.333,0.333,1","1",""
"null","","html-keyboard-response","263","1271311","0.0-263.0","34QN5IT0T0DTWGMETJHXI7VTLUS08W","ALYR5CI2SM2JC","32XN26MTXZ5MP383W6LZYTLBY7P0LI","","","<img src=""img/flower2.png"" style=""width:200px; border:14px solid green;"">","null","","","","","","","","",""
"341.59999999403954","","image-keyboard-response","264","1271656","0.0-264.0","34QN5IT0T0DTWGMETJHXI7VTLUS08W","ALYR5CI2SM2JC","32XN26MTXZ5MP383W6LZYTLBY7P0LI","","","img/flower2.png","76","343.79999999701977","3","1","3","1","1,0.333,0.333,0.333,1,0.333,0.333,0.333,1","1,0.333,0.333,0.333,1,0.333,0.333,0.333,1","1",""
"null","","html-keyboard-response","265","1271961","0.0-265.0","34QN5IT0T0DTWGMETJHXI7VTLUS08W","ALYR5CI2SM2JC","32XN26MTXZ5MP383W6LZYTLBY7P0LI","","","<img src=""img/flower2.png"" style=""width:200px; border:14px solid green;"">","null","","","","","","","","",""
"361.79999999701977","","image-keyboard-response","266","1272326","0.0-266.0","34QN5IT0T0DTWGMETJHXI7VTLUS08W","ALYR5CI2SM2JC","32XN26MTXZ5MP383W6LZYTLBY7P0LI","","","img/flower1.png","75","363.79999999701977","2","1","2","1","1,0.333,0.333,0.333,1,0.333,0.333,0.333,1","1,0.333,0.333,0.333,1,0.333,0.333,0.333,1","1",""
"null","","html-keyboard-response","267","1272648","0.0-267.0","34QN5IT0T0DTWGMETJHXI7VTLUS08W","ALYR5CI2SM2JC","32XN26MTXZ5MP383W6LZYTLBY7P0LI","","","<img src=""img/flower1.png"" style=""width:200px; border:14px solid green;"">","null","","","","","","","","",""
"346.40000000596046","","image-keyboard-response","268","1272997","0.0-268.0","34QN5IT0T0DTWGMETJHXI7VTLUS08W","ALYR5CI2SM2JC","32XN26MTXZ5MP383W6LZYTLBY7P0LI","","","img/flower1.png","75","348.5","2","1","2","1","1,0.333,0.333,0.333,1,0.333,0.333,0.333,1","1,0.333,0.333,0.333,1,0.333,0.333,0.333,1","1",""
"null","","html-keyboard-response","269","1273301","0.0-269.0","34QN5IT0T0DTWGMETJHXI7VTLUS08W","ALYR5CI2SM2JC","32XN26MTXZ5MP383W6LZYTLBY7P0LI","","","<img src=""img/flower1.png"" style=""width:200px; border:14px solid green;"">","null","","","","","","","","",""
"423.8999999910593","","image-keyboard-response","270","1273728","0.0-270.0","34QN5IT0T0DTWGMETJHXI7VTLUS08W","ALYR5CI2SM2JC","32XN26MTXZ5MP383W6LZYTLBY7P0LI","","","img/flower2.png","76","426.20000000298023","3","1","3","1","1,0.333,0.333,0.333,1,0.333,0.333,0.333,1","1,0.333,0.333,0.333,1,0.333,0.333,0.333,1","1",""
"null","","html-keyboard-response","271","1274047","0.0-271.0","34QN5IT0T0DTWGMETJHXI7VTLUS08W","ALYR5CI2SM2JC","32XN26MTXZ5MP383W6LZYTLBY7P0LI","","","<img src=""img/flower2.png"" style=""width:200px; border:14px solid green;"">","null","","","","","","","","",""
"541.4000000059605","","image-keyboard-response","272","1274592","0.0-272.0","34QN5IT0T0DTWGMETJHXI7VTLUS08W","ALYR5CI2SM2JC","32XN26MTXZ5MP383W6LZYTLBY7P0LI","","","img/flower3.png","74","544","1","1","1","1","1,0.333,0.333,0.333,1,0.333,0.333,0.333,1","1,0.333,0.333,0.333,1,0.333,0.333,0.333,1","1",""
"null","","html-keyboard-response","273","1274908","0.0-273.0","34QN5IT0T0DTWGMETJHXI7VTLUS08W","ALYR5CI2SM2JC","32XN26MTXZ5MP383W6LZYTLBY7P0LI","","","<img src=""img/flower3.png"" style=""width:200px; border:14px solid green;"">","null","","","","","","","","",""
"488.29999999701977","","image-keyboard-response","274","1275400","0.0-274.0","34QN5IT0T0DTWGMETJHXI7VTLUS08W","ALYR5CI2SM2JC","32XN26MTXZ5MP383W6LZYTLBY7P0LI","","","img/flower2.png","75","490.59999999403954","2","0","3","1","1,0.333,0.333,0.333,1,0.333,0.333,0.333,1","1,0.333,0.333,0.333,1,0.333,0.333,0.333,1","1",""
"null","","html-keyboard-response","275","1275733","0.0-275.0","34QN5IT0T0DTWGMETJHXI7VTLUS08W","ALYR5CI2SM2JC","32XN26MTXZ5MP383W6LZYTLBY7P0LI","","","<img src=""img/flower2.png"" style=""width:200px;border:14px solid red;"">","null","","","","","","","","",""
"279.40000000596046","","image-keyboard-response","276","1276016","0.0-276.0","34QN5IT0T0DTWGMETJHXI7VTLUS08W","ALYR5CI2SM2JC","32XN26MTXZ5MP383W6LZYTLBY7P0LI","","","img/flower1.png","76","281.8999999910593","3","0","2","1","1,0.333,0.333,0.333,1,0.333,0.333,0.333,1","1,0.333,0.333,0.333,1,0.333,0.333,0.333,1","1",""
"null","","html-keyboard-response","277","1276322","0.0-277.0","34QN5IT0T0DTWGMETJHXI7VTLUS08W","ALYR5CI2SM2JC","32XN26MTXZ5MP383W6LZYTLBY7P0LI","","","<img src=""img/flower1.png"" style=""width:200px;border:14px solid red;"">","null","","","","","","","","",""
"553.6000000089407","","image-keyboard-response","278","1276880","0.0-278.0","34QN5IT0T0DTWGMETJHXI7VTLUS08W","ALYR5CI2SM2JC","32XN26MTXZ5MP383W6LZYTLBY7P0LI","","","img/flower2.png","76","556.8000000119209","3","1","3","1","1,0.333,0.333,0.333,1,0.333,0.333,0.333,1","1,0.333,0.333,0.333,1,0.333,0.333,0.333,1","1",""
"null","","html-keyboard-response","279","1277193","0.0-279.0","34QN5IT0T0DTWGMETJHXI7VTLUS08W","ALYR5CI2SM2JC","32XN26MTXZ5MP383W6LZYTLBY7P0LI","","","<img src=""img/flower2.png"" style=""width:200px; border:14px solid green;"">","null","","","","","","","","",""
"644.2000000029802","","image-keyboard-response","280","1277840","0.0-280.0","34QN5IT0T0DTWGMETJHXI7VTLUS08W","ALYR5CI2SM2JC","32XN26MTXZ5MP383W6LZYTLBY7P0LI","","","img/flower3.png","74","646.8000000119209","1","1","1","1","1,0.333,0.333,0.333,1,0.333,0.333,0.333,1","1,0.333,0.333,0.333,1,0.333,0.333,0.333,1","1",""
"null","","html-keyboard-response","281","1278153","0.0-281.0","34QN5IT0T0DTWGMETJHXI7VTLUS08W","ALYR5CI2SM2JC","32XN26MTXZ5MP383W6LZYTLBY7P0LI","","","<img src=""img/flower3.png"" style=""width:200px; border:14px solid green;"">","null","","","","","","","","",""
"547.3000000119209","","image-keyboard-response","282","1278704","0.0-282.0","34QN5IT0T0DTWGMETJHXI7VTLUS08W","ALYR5CI2SM2JC","32XN26MTXZ5MP383W6LZYTLBY7P0LI","","","img/flower2.png","76","549.9000000059605","3","1","3","1","1,0.333,0.333,0.333,1,0.333,0.333,0.333,1","1,0.333,0.333,0.333,1,0.333,0.333,0.333,1","1",""
"null","","html-keyboard-response","283","1279012","0.0-283.0","34QN5IT0T0DTWGMETJHXI7VTLUS08W","ALYR5CI2SM2JC","32XN26MTXZ5MP383W6LZYTLBY7P0LI","","","<img src=""img/flower2.png"" style=""width:200px; border:14px solid green;"">","null","","","","","","","","",""
"544.0999999940395","","image-keyboard-response","284","1279560","0.0-284.0","34QN5IT0T0DTWGMETJHXI7VTLUS08W","ALYR5CI2SM2JC","32XN26MTXZ5MP383W6LZYTLBY7P0LI","","","img/flower1.png","75","546.5","2","1","2","1","1,0.333,0.333,0.333,1,0.333,0.333,0.333,1","1,0.333,0.333,0.333,1,0.333,0.333,0.333,1","1",""
"null","","html-keyboard-response","285","1279868","0.0-285.0","34QN5IT0T0DTWGMETJHXI7VTLUS08W","ALYR5CI2SM2JC","32XN26MTXZ5MP383W6LZYTLBY7P0LI","","","<img src=""img/flower1.png"" style=""width:200px; border:14px solid green;"">","null","","","","","","","","",""
"361.70000000298023","","image-keyboard-response","286","1280232","0.0-286.0","34QN5IT0T0DTWGMETJHXI7VTLUS08W","ALYR5CI2SM2JC","32XN26MTXZ5MP383W6LZYTLBY7P0LI","","","img/flower1.png","75","363.59999999403954","2","1","2","1","1,0.333,0.333,0.333,1,0.333,0.333,0.333,1","1,0.333,0.333,0.333,1,0.333,0.333,0.333,1","1",""
"null","","html-keyboard-response","287","1280539","0.0-287.0","34QN5IT0T0DTWGMETJHXI7VTLUS08W","ALYR5CI2SM2JC","32XN26MTXZ5MP383W6LZYTLBY7P0LI","","","<img src=""img/flower1.png"" style=""width:200px; border:14px solid green;"">","null","","","","","","","","",""
"681.5999999940395","","image-keyboard-response","288","1281224","0.0-288.0","34QN5IT0T0DTWGMETJHXI7VTLUS08W","ALYR5CI2SM2JC","32XN26MTXZ5MP383W6LZYTLBY7P0LI","","","img/flower3.png","74","684.3999999910593","1","1","1","1","1,0.333,0.333,0.333,1,0.333,0.333,0.333,1","1,0.333,0.333,0.333,1,0.333,0.333,0.333,1","1",""
"null","","html-keyboard-response","289","1281542","0.0-289.0","34QN5IT0T0DTWGMETJHXI7VTLUS08W","ALYR5CI2SM2JC","32XN26MTXZ5MP383W6LZYTLBY7P0LI","","","<img src=""img/flower3.png"" style=""width:200px; border:14px solid green;"">","null","","","","","","","","",""
"294.79999999701977","","image-keyboard-response","290","1281840","0.0-290.0","34QN5IT0T0DTWGMETJHXI7VTLUS08W","ALYR5CI2SM2JC","32XN26MTXZ5MP383W6LZYTLBY7P0LI","","","img/flower3.png","74","297","1","1","1","1","1,0.333,0.333,0.333,1,0.333,0.333,0.333,1","1,0.333,0.333,0.333,1,0.333,0.333,0.333,1","1",""
"null","","html-keyboard-response","291","1282161","0.0-291.0","34QN5IT0T0DTWGMETJHXI7VTLUS08W","ALYR5CI2SM2JC","32XN26MTXZ5MP383W6LZYTLBY7P0LI","","","<img src=""img/flower3.png"" style=""width:200px; border:14px solid green;"">","null","","","","","","","","",""
"571.2999999970198","","image-keyboard-response","292","1282735","0.0-292.0","34QN5IT0T0DTWGMETJHXI7VTLUS08W","ALYR5CI2SM2JC","32XN26MTXZ5MP383W6LZYTLBY7P0LI","","","img/flower1.png","75","573.5","2","1","2","1","1,0.333,0.333,0.333,1,0.333,0.333,0.333,1","1,0.333,0.333,0.333,1,0.333,0.333,0.333,1","1",""
"null","","html-keyboard-response","293","1283041","0.0-293.0","34QN5IT0T0DTWGMETJHXI7VTLUS08W","ALYR5CI2SM2JC","32XN26MTXZ5MP383W6LZYTLBY7P0LI","","","<img src=""img/flower1.png"" style=""width:200px; border:14px solid green;"">","null","","","","","","","","",""
"471.79999999701977","","image-keyboard-response","294","1283516","0.0-294.0","34QN5IT0T0DTWGMETJHXI7VTLUS08W","ALYR5CI2SM2JC","32XN26MTXZ5MP383W6LZYTLBY7P0LI","","","img/flower3.png","76","473.69999998807907","3","0","1","1","1,0.333,0.333,0.333,1,0.333,0.333,0.333,1","1,0.333,0.333,0.333,1,0.333,0.333,0.333,1","1",""
"null","","html-keyboard-response","295","1283829","0.0-295.0","34QN5IT0T0DTWGMETJHXI7VTLUS08W","ALYR5CI2SM2JC","32XN26MTXZ5MP383W6LZYTLBY7P0LI","","","<img src=""img/flower3.png"" style=""width:200px;border:14px solid red;"">","null","","","","","","","","",""
"502.40000000596046","","image-keyboard-response","296","1284335","0.0-296.0","34QN5IT0T0DTWGMETJHXI7VTLUS08W","ALYR5CI2SM2JC","32XN26MTXZ5MP383W6LZYTLBY7P0LI","","","img/flower2.png","76","505.30000001192093","3","1","3","1","1,0.333,0.333,0.333,1,0.333,0.333,0.333,1","1,0.333,0.333,0.333,1,0.333,0.333,0.333,1","1",""
"null","","html-keyboard-response","297","1284649","0.0-297.0","34QN5IT0T0DTWGMETJHXI7VTLUS08W","ALYR5CI2SM2JC","32XN26MTXZ5MP383W6LZYTLBY7P0LI","","","<img src=""img/flower2.png"" style=""width:200px; border:14px solid green;"">","null","","","","","","","","",""
"667.4000000059605","","image-keyboard-response","298","1285319","0.0-298.0","34QN5IT0T0DTWGMETJHXI7VTLUS08W","ALYR5CI2SM2JC","32XN26MTXZ5MP383W6LZYTLBY7P0LI","","","img/flower1.png","75","670.1000000089407","2","1","2","1","1,0.333,0.333,0.333,1,0.333,0.333,0.333,1","1,0.333,0.333,0.333,1,0.333,0.333,0.333,1","1",""
"null","","html-keyboard-response","299","1285637","0.0-299.0","34QN5IT0T0DTWGMETJHXI7VTLUS08W","ALYR5CI2SM2JC","32XN26MTXZ5MP383W6LZYTLBY7P0LI","","","<img src=""img/flower1.png"" style=""width:200px; border:14px solid green;"">","null","","","","","","","","",""
"400.40000000596046","","image-keyboard-response","300","1286040","0.0-300.0","34QN5IT0T0DTWGMETJHXI7VTLUS08W","ALYR5CI2SM2JC","32XN26MTXZ5MP383W6LZYTLBY7P0LI","","","img/flower1.png","75","402.70000000298023","2","1","2","1","1,0.333,0.333,0.333,1,0.333,0.333,0.333,1","1,0.333,0.333,0.333,1,0.333,0.333,0.333,1","1",""
"null","","html-keyboard-response","301","1286347","0.0-301.0","34QN5IT0T0DTWGMETJHXI7VTLUS08W","ALYR5CI2SM2JC","32XN26MTXZ5MP383W6LZYTLBY7P0LI","","","<img src=""img/flower1.png"" style=""width:200px; border:14px solid green;"">","null","","","","","","","","",""
"432.69999998807907","","image-keyboard-response","302","1286784","0.0-302.0","34QN5IT0T0DTWGMETJHXI7VTLUS08W","ALYR5CI2SM2JC","32XN26MTXZ5MP383W6LZYTLBY7P0LI","","","img/flower3.png","74","435.19999998807907","1","1","1","1","1,0.333,0.333,0.333,1,0.333,0.333,0.333,1","1,0.333,0.333,0.333,1,0.333,0.333,0.333,1","1",""
"null","","html-keyboard-response","303","1287091","0.0-303.0","34QN5IT0T0DTWGMETJHXI7VTLUS08W","ALYR5CI2SM2JC","32XN26MTXZ5MP383W6LZYTLBY7P0LI","","","<img src=""img/flower3.png"" style=""width:200px; border:14px solid green;"">","null","","","","","","","","",""
"537.5999999940395","","image-keyboard-response","304","1287632","0.0-304.0","34QN5IT0T0DTWGMETJHXI7VTLUS08W","ALYR5CI2SM2JC","32XN26MTXZ5MP383W6LZYTLBY7P0LI","","","img/flower1.png","75","540.2999999970198","2","1","2","1","1,0.333,0.333,0.333,1,0.333,0.333,0.333,1","1,0.333,0.333,0.333,1,0.333,0.333,0.333,1","1",""
"null","","html-keyboard-response","305","1287944","0.0-305.0","34QN5IT0T0DTWGMETJHXI7VTLUS08W","ALYR5CI2SM2JC","32XN26MTXZ5MP383W6LZYTLBY7P0LI","","","<img src=""img/flower1.png"" style=""width:200px; border:14px solid green;"">","null","","","","","","","","",""
"","","html-keyboard-response","306","1291315","0.0-306.0","34QN5IT0T0DTWGMETJHXI7VTLUS08W","ALYR5CI2SM2JC","32XN26MTXZ5MP383W6LZYTLBY7P0LI","","","","","","","","","","","","",""
"1074.699999988079","","image-keyboard-response","307","1292392","0.0-307.0","34QN5IT0T0DTWGMETJHXI7VTLUS08W","ALYR5CI2SM2JC","32XN26MTXZ5MP383W6LZYTLBY7P0LI","","","img/flower4.png","74","1076.5999999940395","1","0","1","2","1,0,0,1,1,0,1,0,1","0,1,0,0,1,1,1,1,0","3",""
"null","","html-keyboard-response","308","1292708","0.0-308.0","34QN5IT0T0DTWGMETJHXI7VTLUS08W","ALYR5CI2SM2JC","32XN26MTXZ5MP383W6LZYTLBY7P0LI","","","<img src=""img/flower4.png"" style=""width:200px;border:14px solid red;"">","null","","","","","","","","",""
"998","","image-keyboard-response","309","1293709","0.0-309.0","34QN5IT0T0DTWGMETJHXI7VTLUS08W","ALYR5CI2SM2JC","32XN26MTXZ5MP383W6LZYTLBY7P0LI","","","img/flower5.png","74","1000.3000000119209","1","1","3","2","1,0,0,1,1,0,1,0,1","0,1,0,0,1,1,1,1,0","3",""
"null","","html-keyboard-response","310","1294021","0.0-310.0","34QN5IT0T0DTWGMETJHXI7VTLUS08W","ALYR5CI2SM2JC","32XN26MTXZ5MP383W6LZYTLBY7P0LI","","","<img src=""img/flower5.png"" style=""width:200px; border:14px solid green;"">","null","","","","","","","","",""
"913.6000000089407","","image-keyboard-response","311","1294936","0.0-311.0","34QN5IT0T0DTWGMETJHXI7VTLUS08W","ALYR5CI2SM2JC","32XN26MTXZ5MP383W6LZYTLBY7P0LI","","","img/flower4.png","75","915.4000000059605","2","1","1","2","1,0,0,1,1,0,1,0,1","0,1,0,0,1,1,1,1,0","3",""
"null","","html-keyboard-response","312","1295251","0.0-312.0","34QN5IT0T0DTWGMETJHXI7VTLUS08W","ALYR5CI2SM2JC","32XN26MTXZ5MP383W6LZYTLBY7P0LI","","","<img src=""img/flower4.png"" style=""width:200px; border:14px solid green;"">","null","","","","","","","","",""
"753.0999999940395","","image-keyboard-response","313","1296008","0.0-313.0","34QN5IT0T0DTWGMETJHXI7VTLUS08W","ALYR5CI2SM2JC","32XN26MTXZ5MP383W6LZYTLBY7P0LI","","","img/flower5.png","74","755.8999999910593","1","1","3","2","1,0,0,1,1,0,1,0,1","0,1,0,0,1,1,1,1,0","3",""
"null","","html-keyboard-response","314","1296321","0.0-314.0","34QN5IT0T0DTWGMETJHXI7VTLUS08W","ALYR5CI2SM2JC","32XN26MTXZ5MP383W6LZYTLBY7P0LI","","","<img src=""img/flower5.png"" style=""width:200px; border:14px solid green;"">","null","","","","","","","","",""
"595.9000000059605","","image-keyboard-response","315","1296920","0.0-315.0","34QN5IT0T0DTWGMETJHXI7VTLUS08W","ALYR5CI2SM2JC","32XN26MTXZ5MP383W6LZYTLBY7P0LI","","","img/flower4.png","75","598.5","2","1","1","2","1,0,0,1,1,0,1,0,1","0,1,0,0,1,1,1,1,0","3",""
"null","","html-keyboard-response","316","1297229","0.0-316.0","34QN5IT0T0DTWGMETJHXI7VTLUS08W","ALYR5CI2SM2JC","32XN26MTXZ5MP383W6LZYTLBY7P0LI","","","<img src=""img/flower4.png"" style=""width:200px; border:14px solid green;"">","null","","","","","","","","",""
"559","","image-keyboard-response","317","1297791","0.0-317.0","34QN5IT0T0DTWGMETJHXI7VTLUS08W","ALYR5CI2SM2JC","32XN26MTXZ5MP383W6LZYTLBY7P0LI","","","img/flower5.png","74","561.3999999910593","1","1","3","2","1,0,0,1,1,0,1,0,1","0,1,0,0,1,1,1,1,0","3",""
"null","","html-keyboard-response","318","1298103","0.0-318.0","34QN5IT0T0DTWGMETJHXI7VTLUS08W","ALYR5CI2SM2JC","32XN26MTXZ5MP383W6LZYTLBY7P0LI","","","<img src=""img/flower5.png"" style=""width:200px; border:14px solid green;"">","null","","","","","","","","",""
"781.2999999970198","","image-keyboard-response","319","1298887","0.0-319.0","34QN5IT0T0DTWGMETJHXI7VTLUS08W","ALYR5CI2SM2JC","32XN26MTXZ5MP383W6LZYTLBY7P0LI","","","img/flower6.png","76","783.5","3","1","2","2","1,0,0,1,1,0,1,0,1","0,1,0,0,1,1,1,1,0","3",""
"null","","html-keyboard-response","320","1299197","0.0-320.0","34QN5IT0T0DTWGMETJHXI7VTLUS08W","ALYR5CI2SM2JC","32XN26MTXZ5MP383W6LZYTLBY7P0LI","","","<img src=""img/flower6.png"" style=""width:200px; border:14px solid green;"">","null","","","","","","","","",""
"840.6000000089407","","image-keyboard-response","321","1300041","0.0-321.0","34QN5IT0T0DTWGMETJHXI7VTLUS08W","ALYR5CI2SM2JC","32XN26MTXZ5MP383W6LZYTLBY7P0LI","","","img/flower4.png","75","843.0999999940395","2","1","1","2","1,0,0,1,1,0,1,0,1","0,1,0,0,1,1,1,1,0","3",""
"null","","html-keyboard-response","322","1300348","0.0-322.0","34QN5IT0T0DTWGMETJHXI7VTLUS08W","ALYR5CI2SM2JC","32XN26MTXZ5MP383W6LZYTLBY7P0LI","","","<img src=""img/flower4.png"" style=""width:200px; border:14px solid green;"">","null","","","","","","","","",""
"489.8999999910593","","image-keyboard-response","323","1300841","0.0-323.0","34QN5IT0T0DTWGMETJHXI7VTLUS08W","ALYR5CI2SM2JC","32XN26MTXZ5MP383W6LZYTLBY7P0LI","","","img/flower5.png","74","492.1000000089407","1","1","3","2","1,0,0,1,1,0,1,0,1","0,1,0,0,1,1,1,1,0","3",""
"null","","html-keyboard-response","324","1301148","0.0-324.0","34QN5IT0T0DTWGMETJHXI7VTLUS08W","ALYR5CI2SM2JC","32XN26MTXZ5MP383W6LZYTLBY7P0LI","","","<img src=""img/flower5.png"" style=""width:200px; border:14px solid green;"">","null","","","","","","","","",""
"601.2000000029802","","image-keyboard-response","325","1301752","0.0-325.0","34QN5IT0T0DTWGMETJHXI7VTLUS08W","ALYR5CI2SM2JC","32XN26MTXZ5MP383W6LZYTLBY7P0LI","","","img/flower4.png","75","603.7999999970198","2","1","1","2","1,0,0,1,1,0,1,0,1","0,1,0,0,1,1,1,1,0","3",""
"null","","html-keyboard-response","326","1302058","0.0-326.0","34QN5IT0T0DTWGMETJHXI7VTLUS08W","ALYR5CI2SM2JC","32XN26MTXZ5MP383W6LZYTLBY7P0LI","","","<img src=""img/flower4.png"" style=""width:200px; border:14px solid green;"">","null","","","","","","","","",""
"753.0999999940395","","image-keyboard-response","327","1302813","0.0-327.0","34QN5IT0T0DTWGMETJHXI7VTLUS08W","ALYR5CI2SM2JC","32XN26MTXZ5MP383W6LZYTLBY7P0LI","","","img/flower5.png","74","754.7999999970198","1","1","3","2","1,0,0,1,1,0,1,0,1","0,1,0,0,1,1,1,1,0","3",""
"null","","html-keyboard-response","328","1303123","0.0-328.0","34QN5IT0T0DTWGMETJHXI7VTLUS08W","ALYR5CI2SM2JC","32XN26MTXZ5MP383W6LZYTLBY7P0LI","","","<img src=""img/flower5.png"" style=""width:200px; border:14px solid green;"">","null","","","","","","","","",""
"576","","image-keyboard-response","329","1303701","0.0-329.0","34QN5IT0T0DTWGMETJHXI7VTLUS08W","ALYR5CI2SM2JC","32XN26MTXZ5MP383W6LZYTLBY7P0LI","","","img/flower6.png","76","577.5","3","1","2","2","1,0,0,1,1,0,1,0,1","0,1,0,0,1,1,1,1,0","3",""
"null","","html-keyboard-response","330","1304004","0.0-330.0","34QN5IT0T0DTWGMETJHXI7VTLUS08W","ALYR5CI2SM2JC","32XN26MTXZ5MP383W6LZYTLBY7P0LI","","","<img src=""img/flower6.png"" style=""width:200px; border:14px solid green;"">","null","","","","","","","","",""
"409.70000000298023","","image-keyboard-response","331","1304417","0.0-331.0","34QN5IT0T0DTWGMETJHXI7VTLUS08W","ALYR5CI2SM2JC","32XN26MTXZ5MP383W6LZYTLBY7P0LI","","","img/flower6.png","76","411.79999999701977","3","1","2","2","1,0,0,1,1,0,1,0,1","0,1,0,0,1,1,1,1,0","3",""
"null","","html-keyboard-response","332","1304720","0.0-332.0","34QN5IT0T0DTWGMETJHXI7VTLUS08W","ALYR5CI2SM2JC","32XN26MTXZ5MP383W6LZYTLBY7P0LI","","","<img src=""img/flower6.png"" style=""width:200px; border:14px solid green;"">","null","","","","","","","","",""
"389.20000000298023","","image-keyboard-response","333","1305112","0.0-333.0","34QN5IT0T0DTWGMETJHXI7VTLUS08W","ALYR5CI2SM2JC","32XN26MTXZ5MP383W6LZYTLBY7P0LI","","","img/flower6.png","76","391.90000000596046","3","1","2","2","1,0,0,1,1,0,1,0,1","0,1,0,0,1,1,1,1,0","3",""
"null","","html-keyboard-response","334","1305428","0.0-334.0","34QN5IT0T0DTWGMETJHXI7VTLUS08W","ALYR5CI2SM2JC","32XN26MTXZ5MP383W6LZYTLBY7P0LI","","","<img src=""img/flower6.png"" style=""width:200px; border:14px solid green;"">","null","","","","","","","","",""
"743.9000000059605","","image-keyboard-response","335","1306175","0.0-335.0","34QN5IT0T0DTWGMETJHXI7VTLUS08W","ALYR5CI2SM2JC","32XN26MTXZ5MP383W6LZYTLBY7P0LI","","","img/flower5.png","74","746","1","1","3","2","1,0,0,1,1,0,1,0,1","0,1,0,0,1,1,1,1,0","3",""
"null","","html-keyboard-response","336","1306492","0.0-336.0","34QN5IT0T0DTWGMETJHXI7VTLUS08W","ALYR5CI2SM2JC","32XN26MTXZ5MP383W6LZYTLBY7P0LI","","","<img src=""img/flower5.png"" style=""width:200px; border:14px solid green;"">","null","","","","","","","","",""
"336.30000001192093","","image-keyboard-response","337","1306831","0.0-337.0","34QN5IT0T0DTWGMETJHXI7VTLUS08W","ALYR5CI2SM2JC","32XN26MTXZ5MP383W6LZYTLBY7P0LI","","","img/flower5.png","74","339.29999999701977","1","1","3","2","1,0,0,1,1,0,1,0,1","0,1,0,0,1,1,1,1,0","3",""
"null","","html-keyboard-response","338","1307150","0.0-338.0","34QN5IT0T0DTWGMETJHXI7VTLUS08W","ALYR5CI2SM2JC","32XN26MTXZ5MP383W6LZYTLBY7P0LI","","","<img src=""img/flower5.png"" style=""width:200px; border:14px solid green;"">","null","","","","","","","","",""
"582.3999999910593","","image-keyboard-response","339","1307735","0.0-339.0","34QN5IT0T0DTWGMETJHXI7VTLUS08W","ALYR5CI2SM2JC","32XN26MTXZ5MP383W6LZYTLBY7P0LI","","","img/flower6.png","76","584.5999999940395","3","1","2","2","1,0,0,1,1,0,1,0,1","0,1,0,0,1,1,1,1,0","3",""
"null","","html-keyboard-response","340","1308050","0.0-340.0","34QN5IT0T0DTWGMETJHXI7VTLUS08W","ALYR5CI2SM2JC","32XN26MTXZ5MP383W6LZYTLBY7P0LI","","","<img src=""img/flower6.png"" style=""width:200px; border:14px solid green;"">","null","","","","","","","","",""
"649.2999999970198","","image-keyboard-response","341","1308703","0.0-341.0","34QN5IT0T0DTWGMETJHXI7VTLUS08W","ALYR5CI2SM2JC","32XN26MTXZ5MP383W6LZYTLBY7P0LI","","","img/flower5.png","74","652.1000000089407","1","1","3","2","1,0,0,1,1,0,1,0,1","0,1,0,0,1,1,1,1,0","3",""
"null","","html-keyboard-response","342","1309023","0.0-342.0","34QN5IT0T0DTWGMETJHXI7VTLUS08W","ALYR5CI2SM2JC","32XN26MTXZ5MP383W6LZYTLBY7P0LI","","","<img src=""img/flower5.png"" style=""width:200px; border:14px solid green;"">","null","","","","","","","","",""
"501.20000000298023","","image-keyboard-response","343","1309527","0.0-343.0","34QN5IT0T0DTWGMETJHXI7VTLUS08W","ALYR5CI2SM2JC","32XN26MTXZ5MP383W6LZYTLBY7P0LI","","","img/flower4.png","75","503.6000000089407","2","1","1","2","1,0,0,1,1,0,1,0,1","0,1,0,0,1,1,1,1,0","3",""
"null","","html-keyboard-response","344","1309836","0.0-344.0","34QN5IT0T0DTWGMETJHXI7VTLUS08W","ALYR5CI2SM2JC","32XN26MTXZ5MP383W6LZYTLBY7P0LI","","","<img src=""img/flower4.png"" style=""width:200px; border:14px solid green;"">","null","","","","","","","","",""
"521.4000000059605","","image-keyboard-response","345","1310360","0.0-345.0","34QN5IT0T0DTWGMETJHXI7VTLUS08W","ALYR5CI2SM2JC","32XN26MTXZ5MP383W6LZYTLBY7P0LI","","","img/flower6.png","76","523.7999999970198","3","1","2","2","1,0,0,1,1,0,1,0,1","0,1,0,0,1,1,1,1,0","3",""
"null","","html-keyboard-response","346","1310667","0.0-346.0","34QN5IT0T0DTWGMETJHXI7VTLUS08W","ALYR5CI2SM2JC","32XN26MTXZ5MP383W6LZYTLBY7P0LI","","","<img src=""img/flower6.png"" style=""width:200px; border:14px solid green;"">","null","","","","","","","","",""
"576.4000000059605","","image-keyboard-response","347","1311247","0.0-347.0","34QN5IT0T0DTWGMETJHXI7VTLUS08W","ALYR5CI2SM2JC","32XN26MTXZ5MP383W6LZYTLBY7P0LI","","","img/flower4.png","75","578.9000000059605","2","1","1","2","1,0,0,1,1,0,1,0,1","0,1,0,0,1,1,1,1,0","3",""
"null","","html-keyboard-response","348","1311553","0.0-348.0","34QN5IT0T0DTWGMETJHXI7VTLUS08W","ALYR5CI2SM2JC","32XN26MTXZ5MP383W6LZYTLBY7P0LI","","","<img src=""img/flower4.png"" style=""width:200px; border:14px solid green;"">","null","","","","","","","","",""
"771.7000000029802","","image-keyboard-response","349","1312327","0.0-349.0","34QN5IT0T0DTWGMETJHXI7VTLUS08W","ALYR5CI2SM2JC","32XN26MTXZ5MP383W6LZYTLBY7P0LI","","","img/flower6.png","76","774.0999999940395","3","1","2","2","1,0,0,1,1,0,1,0,1","0,1,0,0,1,1,1,1,0","3",""
"null","","html-keyboard-response","350","1312639","0.0-350.0","34QN5IT0T0DTWGMETJHXI7VTLUS08W","ALYR5CI2SM2JC","32XN26MTXZ5MP383W6LZYTLBY7P0LI","","","<img src=""img/flower6.png"" style=""width:200px; border:14px solid green;"">","null","","","","","","","","",""
"525.7000000029802","","image-keyboard-response","351","1313167","0.0-351.0","34QN5IT0T0DTWGMETJHXI7VTLUS08W","ALYR5CI2SM2JC","32XN26MTXZ5MP383W6LZYTLBY7P0LI","","","img/flower4.png","75","528.2999999970198","2","1","1","2","1,0,0,1,1,0,1,0,1","0,1,0,0,1,1,1,1,0","3",""
"null","","html-keyboard-response","352","1313482","0.0-352.0","34QN5IT0T0DTWGMETJHXI7VTLUS08W","ALYR5CI2SM2JC","32XN26MTXZ5MP383W6LZYTLBY7P0LI","","","<img src=""img/flower4.png"" style=""width:200px; border:14px solid green;"">","null","","","","","","","","",""
"601.6000000089407","","image-keyboard-response","353","1314087","0.0-353.0","34QN5IT0T0DTWGMETJHXI7VTLUS08W","ALYR5CI2SM2JC","32XN26MTXZ5MP383W6LZYTLBY7P0LI","","","img/flower6.png","76","604.1000000089407","3","1","2","2","1,0,0,1,1,0,1,0,1","0,1,0,0,1,1,1,1,0","3",""
"null","","html-keyboard-response","354","1314402","0.0-354.0","34QN5IT0T0DTWGMETJHXI7VTLUS08W","ALYR5CI2SM2JC","32XN26MTXZ5MP383W6LZYTLBY7P0LI","","","<img src=""img/flower6.png"" style=""width:200px; border:14px solid green;"">","null","","","","","","","","",""
"365.29999999701977","","image-keyboard-response","355","1314771","0.0-355.0","34QN5IT0T0DTWGMETJHXI7VTLUS08W","ALYR5CI2SM2JC","32XN26MTXZ5MP383W6LZYTLBY7P0LI","","","img/flower6.png","76","367.20000000298023","3","1","2","2","1,0,0,1,1,0,1,0,1","0,1,0,0,1,1,1,1,0","3",""
"null","","html-keyboard-response","356","1315081","0.0-356.0","34QN5IT0T0DTWGMETJHXI7VTLUS08W","ALYR5CI2SM2JC","32XN26MTXZ5MP383W6LZYTLBY7P0LI","","","<img src=""img/flower6.png"" style=""width:200px; border:14px solid green;"">","null","","","","","","","","",""
"354.59999999403954","","image-keyboard-response","357","1315439","0.0-357.0","34QN5IT0T0DTWGMETJHXI7VTLUS08W","ALYR5CI2SM2JC","32XN26MTXZ5MP383W6LZYTLBY7P0LI","","","img/flower6.png","76","356.8999999910593","3","1","2","2","1,0,0,1,1,0,1,0,1","0,1,0,0,1,1,1,1,0","3",""
"null","","html-keyboard-response","358","1315749","0.0-358.0","34QN5IT0T0DTWGMETJHXI7VTLUS08W","ALYR5CI2SM2JC","32XN26MTXZ5MP383W6LZYTLBY7P0LI","","","<img src=""img/flower6.png"" style=""width:200px; border:14px solid green;"">","null","","","","","","","","",""
"359.8999999910593","","image-keyboard-response","359","1316112","0.0-359.0","34QN5IT0T0DTWGMETJHXI7VTLUS08W","ALYR5CI2SM2JC","32XN26MTXZ5MP383W6LZYTLBY7P0LI","","","img/flower6.png","76","362.90000000596046","3","1","2","2","1,0,0,1,1,0,1,0,1","0,1,0,0,1,1,1,1,0","3",""
"null","","html-keyboard-response","360","1316429","0.0-360.0","34QN5IT0T0DTWGMETJHXI7VTLUS08W","ALYR5CI2SM2JC","32XN26MTXZ5MP383W6LZYTLBY7P0LI","","","<img src=""img/flower6.png"" style=""width:200px; border:14px solid green;"">","null","","","","","","","","",""
"734","","image-keyboard-response","361","1317165","0.0-361.0","34QN5IT0T0DTWGMETJHXI7VTLUS08W","ALYR5CI2SM2JC","32XN26MTXZ5MP383W6LZYTLBY7P0LI","","","img/flower5.png","74","735.5","1","1","3","2","1,0,0,1,1,0,1,0,1","0,1,0,0,1,1,1,1,0","3",""
"null","","html-keyboard-response","362","1317471","0.0-362.0","34QN5IT0T0DTWGMETJHXI7VTLUS08W","ALYR5CI2SM2JC","32XN26MTXZ5MP383W6LZYTLBY7P0LI","","","<img src=""img/flower5.png"" style=""width:200px; border:14px solid green;"">","null","","","","","","","","",""
"598.6000000089407","","image-keyboard-response","363","1318072","0.0-363.0","34QN5IT0T0DTWGMETJHXI7VTLUS08W","ALYR5CI2SM2JC","32XN26MTXZ5MP383W6LZYTLBY7P0LI","","","img/flower4.png","75","600.7000000029802","2","1","1","2","1,0,0,1,1,0,1,0,1","0,1,0,0,1,1,1,1,0","3",""
"null","","html-keyboard-response","364","1318391","0.0-364.0","34QN5IT0T0DTWGMETJHXI7VTLUS08W","ALYR5CI2SM2JC","32XN26MTXZ5MP383W6LZYTLBY7P0LI","","","<img src=""img/flower4.png"" style=""width:200px; border:14px solid green;"">","null","","","","","","","","",""
"499.79999999701977","","image-keyboard-response","365","1318893","0.0-365.0","34QN5IT0T0DTWGMETJHXI7VTLUS08W","ALYR5CI2SM2JC","32XN26MTXZ5MP383W6LZYTLBY7P0LI","","","img/flower6.png","76","501.70000000298023","3","1","2","2","1,0,0,1,1,0,1,0,1","0,1,0,0,1,1,1,1,0","3",""
"null","","html-keyboard-response","366","1319196","0.0-366.0","34QN5IT0T0DTWGMETJHXI7VTLUS08W","ALYR5CI2SM2JC","32XN26MTXZ5MP383W6LZYTLBY7P0LI","","","<img src=""img/flower6.png"" style=""width:200px; border:14px solid green;"">","null","","","","","","","","",""
"343.59999999403954","","image-keyboard-response","367","1319541","0.0-367.0","34QN5IT0T0DTWGMETJHXI7VTLUS08W","ALYR5CI2SM2JC","32XN26MTXZ5MP383W6LZYTLBY7P0LI","","","img/flower6.png","76","344.80000001192093","3","1","2","2","1,0,0,1,1,0,1,0,1","0,1,0,0,1,1,1,1,0","3",""
