"success","trial_type","trial_index","time_elapsed","internal_node_id","assignmentID","mturkID","hitID","view_history","rt","stimulus","key_press","reactionTime","a","r","s","cond","reward_cond","reward_cond_actual","reward_matrix_idx","responses"
"true","fullscreen","0","3519","0.0-0.0","340UGXU9DZN7NEU7ZJ6RZS38DEWUVS","AM2KK02JXXW48","36U4VBVNQOZD8NFWZXWF9CIHKRIURB","","","","","","","","","","","","",""
"","instructions","1","38891","0.0-1.0","340UGXU9DZN7NEU7ZJ6RZS38DEWUVS","AM2KK02JXXW48","36U4VBVNQOZD8NFWZXWF9CIHKRIURB","[{""page_index"":0,""viewing_time"":9178},{""page_index"":1,""viewing_time"":2407},{""page_index"":2,""viewing_time"":3313},{""page_index"":3,""viewing_time"":6112},{""page_index"":4,""viewing_time"":6233},{""page_index"":5,""viewing_time"":2306},{""page_index"":6,""viewing_time"":2708},{""page_index"":7,""viewing_time"":3112}]","35370","","","","","","","","","","",""
"","image-keyboard-response","2","39561","0.0-2.0","340UGXU9DZN7NEU7ZJ6RZS38DEWUVS","AM2KK02JXXW48","36U4VBVNQOZD8NFWZXWF9CIHKRIURB","","668","img/flower3.png","74","669","1","1","3","1","1,0.333,0.333,0.333,1,0.333,0.333,0.333,1","1,0.333,0.333,0.333,1,0.333,0.333,0.333,1","1",""
"","html-keyboard-response","3","39863","0.0-3.0","340UGXU9DZN7NEU7ZJ6RZS38DEWUVS","AM2KK02JXXW48","36U4VBVNQOZD8NFWZXWF9CIHKRIURB","","null","<img src=""img/flower3.png"" style=""width:200px; border:14px solid green;"">","null","","","","","","","","",""
"","image-keyboard-response","4","40865","0.0-4.0","340UGXU9DZN7NEU7ZJ6RZS38DEWUVS","AM2KK02JXXW48","36U4VBVNQOZD8NFWZXWF9CIHKRIURB","","1000","img/flower4.png","75","1002","2","0","1","1","1,0.333,0.333,0.333,1,0.333,0.333,0.333,1","1,0.333,0.333,0.333,1,0.333,0.333,0.333,1","1",""
"","html-keyboard-response","5","41166","0.0-5.0","340UGXU9DZN7NEU7ZJ6RZS38DEWUVS","AM2KK02JXXW48","36U4VBVNQOZD8NFWZXWF9CIHKRIURB","","null","<img src=""img/flower4.png"" style=""width:200px;border:14px solid red;"">","null","","","","","","","","",""
"","image-keyboard-response","6","42073","0.0-6.0","340UGXU9DZN7NEU7ZJ6RZS38DEWUVS","AM2KK02JXXW48","36U4VBVNQOZD8NFWZXWF9CIHKRIURB","","905","img/flower4.png","74","907","1","1","1","1","1,0.333,0.333,0.333,1,0.333,0.333,0.333,1","1,0.333,0.333,0.333,1,0.333,0.333,0.333,1","1",""
"","html-keyboard-response","7","42383","0.0-7.0","340UGXU9DZN7NEU7ZJ6RZS38DEWUVS","AM2KK02JXXW48","36U4VBVNQOZD8NFWZXWF9CIHKRIURB","","null","<img src=""img/flower4.png"" style=""width:200px; border:14px solid green;"">","null","","","","","","","","",""
"","image-keyboard-response","8","42825","0.0-8.0","340UGXU9DZN7NEU7ZJ6RZS38DEWUVS","AM2KK02JXXW48","36U4VBVNQOZD8NFWZXWF9CIHKRIURB","","440","img/flower4.png","74","442","1","1","1","1","1,0.333,0.333,0.333,1,0.333,0.333,0.333,1","1,0.333,0.333,0.333,1,0.333,0.333,0.333,1","1",""
"","html-keyboard-response","9","43126","0.0-9.0","340UGXU9DZN7NEU7ZJ6RZS38DEWUVS","AM2KK02JXXW48","36U4VBVNQOZD8NFWZXWF9CIHKRIURB","","null","<img src=""img/flower4.png"" style=""width:200px; border:14px solid green;"">","null","","","","","","","","",""
"","image-keyboard-response","10","43921","0.0-10.0","340UGXU9DZN7NEU7ZJ6RZS38DEWUVS","AM2KK02JXXW48","36U4VBVNQOZD8NFWZXWF9CIHKRIURB","","793","img/flower1.png","74","795","1","0","2","1","1,0.333,0.333,0.333,1,0.333,0.333,0.333,1","1,0.333,0.333,0.333,1,0.333,0.333,0.333,1","1",""
"","html-keyboard-response","11","44221","0.0-11.0","340UGXU9DZN7NEU7ZJ6RZS38DEWUVS","AM2KK02JXXW48","36U4VBVNQOZD8NFWZXWF9CIHKRIURB","","null","<img src=""img/flower1.png"" style=""width:200px;border:14px solid red;"">","null","","","","","","","","",""
"","image-keyboard-response","12","44825","0.0-12.0","340UGXU9DZN7NEU7ZJ6RZS38DEWUVS","AM2KK02JXXW48","36U4VBVNQOZD8NFWZXWF9CIHKRIURB","","602","img/flower3.png","74","604","1","1","3","1","1,0.333,0.333,0.333,1,0.333,0.333,0.333,1","1,0.333,0.333,0.333,1,0.333,0.333,0.333,1","1",""
"","html-keyboard-response","13","45126","0.0-13.0","340UGXU9DZN7NEU7ZJ6RZS38DEWUVS","AM2KK02JXXW48","36U4VBVNQOZD8NFWZXWF9CIHKRIURB","","null","<img src=""img/flower3.png"" style=""width:200px; border:14px solid green;"">","null","","","","","","","","",""
"","image-keyboard-response","14","45737","0.0-14.0","340UGXU9DZN7NEU7ZJ6RZS38DEWUVS","AM2KK02JXXW48","36U4VBVNQOZD8NFWZXWF9CIHKRIURB","","610","img/flower1.png","74","611","1","1","2","1","1,0.333,0.333,0.333,1,0.333,0.333,0.333,1","1,0.333,0.333,0.333,1,0.333,0.333,0.333,1","1",""
"","html-keyboard-response","15","46039","0.0-15.0","340UGXU9DZN7NEU7ZJ6RZS38DEWUVS","AM2KK02JXXW48","36U4VBVNQOZD8NFWZXWF9CIHKRIURB","","null","<img src=""img/flower1.png"" style=""width:200px; border:14px solid green;"">","null","","","","","","","","",""
"","image-keyboard-response","16","46417","0.0-16.0","340UGXU9DZN7NEU7ZJ6RZS38DEWUVS","AM2KK02JXXW48","36U4VBVNQOZD8NFWZXWF9CIHKRIURB","","377","img/flower1.png","74","378","1","0","2","1","1,0.333,0.333,0.333,1,0.333,0.333,0.333,1","1,0.333,0.333,0.333,1,0.333,0.333,0.333,1","1",""
"","html-keyboard-response","17","46718","0.0-17.0","340UGXU9DZN7NEU7ZJ6RZS38DEWUVS","AM2KK02JXXW48","36U4VBVNQOZD8NFWZXWF9CIHKRIURB","","null","<img src=""img/flower1.png"" style=""width:200px;border:14px solid red;"">","null","","","","","","","","",""
"","image-keyboard-response","18","47257","0.0-18.0","340UGXU9DZN7NEU7ZJ6RZS38DEWUVS","AM2KK02JXXW48","36U4VBVNQOZD8NFWZXWF9CIHKRIURB","","538","img/flower3.png","74","539","1","0","3","1","1,0.333,0.333,0.333,1,0.333,0.333,0.333,1","1,0.333,0.333,0.333,1,0.333,0.333,0.333,1","1",""
"","html-keyboard-response","19","47559","0.0-19.0","340UGXU9DZN7NEU7ZJ6RZS38DEWUVS","AM2KK02JXXW48","36U4VBVNQOZD8NFWZXWF9CIHKRIURB","","null","<img src=""img/flower3.png"" style=""width:200px;border:14px solid red;"">","null","","","","","","","","",""
"","image-keyboard-response","20","48065","0.0-20.0","340UGXU9DZN7NEU7ZJ6RZS38DEWUVS","AM2KK02JXXW48","36U4VBVNQOZD8NFWZXWF9CIHKRIURB","","505","img/flower1.png","74","506","1","0","2","1","1,0.333,0.333,0.333,1,0.333,0.333,0.333,1","1,0.333,0.333,0.333,1,0.333,0.333,0.333,1","1",""
"","html-keyboard-response","21","48366","0.0-21.0","340UGXU9DZN7NEU7ZJ6RZS38DEWUVS","AM2KK02JXXW48","36U4VBVNQOZD8NFWZXWF9CIHKRIURB","","null","<img src=""img/flower1.png"" style=""width:200px;border:14px solid red;"">","null","","","","","","","","",""
"","image-keyboard-response","22","48769","0.0-22.0","340UGXU9DZN7NEU7ZJ6RZS38DEWUVS","AM2KK02JXXW48","36U4VBVNQOZD8NFWZXWF9CIHKRIURB","","402","img/flower3.png","74","403","1","1","3","1","1,0.333,0.333,0.333,1,0.333,0.333,0.333,1","1,0.333,0.333,0.333,1,0.333,0.333,0.333,1","1",""
"","html-keyboard-response","23","49070","0.0-23.0","340UGXU9DZN7NEU7ZJ6RZS38DEWUVS","AM2KK02JXXW48","36U4VBVNQOZD8NFWZXWF9CIHKRIURB","","null","<img src=""img/flower3.png"" style=""width:200px; border:14px solid green;"">","null","","","","","","","","",""
"","image-keyboard-response","24","49817","0.0-24.0","340UGXU9DZN7NEU7ZJ6RZS38DEWUVS","AM2KK02JXXW48","36U4VBVNQOZD8NFWZXWF9CIHKRIURB","","746","img/flower3.png","75","747","2","1","3","1","1,0.333,0.333,0.333,1,0.333,0.333,0.333,1","1,0.333,0.333,0.333,1,0.333,0.333,0.333,1","1",""
"","html-keyboard-response","25","50119","0.0-25.0","340UGXU9DZN7NEU7ZJ6RZS38DEWUVS","AM2KK02JXXW48","36U4VBVNQOZD8NFWZXWF9CIHKRIURB","","null","<img src=""img/flower3.png"" style=""width:200px; border:14px solid green;"">","null","","","","","","","","",""
"","image-keyboard-response","26","51001","0.0-26.0","340UGXU9DZN7NEU7ZJ6RZS38DEWUVS","AM2KK02JXXW48","36U4VBVNQOZD8NFWZXWF9CIHKRIURB","","881","img/flower4.png","76","882","3","0","1","1","1,0.333,0.333,0.333,1,0.333,0.333,0.333,1","1,0.333,0.333,0.333,1,0.333,0.333,0.333,1","1",""
"","html-keyboard-response","27","51302","0.0-27.0","340UGXU9DZN7NEU7ZJ6RZS38DEWUVS","AM2KK02JXXW48","36U4VBVNQOZD8NFWZXWF9CIHKRIURB","","null","<img src=""img/flower4.png"" style=""width:200px;border:14px solid red;"">","null","","","","","","","","",""
"","image-keyboard-response","28","52001","0.0-28.0","340UGXU9DZN7NEU7ZJ6RZS38DEWUVS","AM2KK02JXXW48","36U4VBVNQOZD8NFWZXWF9CIHKRIURB","","698","img/flower3.png","75","699","2","0","3","1","1,0.333,0.333,0.333,1,0.333,0.333,0.333,1","1,0.333,0.333,0.333,1,0.333,0.333,0.333,1","1",""
"","html-keyboard-response","29","52303","0.0-29.0","340UGXU9DZN7NEU7ZJ6RZS38DEWUVS","AM2KK02JXXW48","36U4VBVNQOZD8NFWZXWF9CIHKRIURB","","null","<img src=""img/flower3.png"" style=""width:200px;border:14px solid red;"">","null","","","","","","","","",""
"","image-keyboard-response","30","52801","0.0-30.0","340UGXU9DZN7NEU7ZJ6RZS38DEWUVS","AM2KK02JXXW48","36U4VBVNQOZD8NFWZXWF9CIHKRIURB","","497","img/flower1.png","76","498","3","0","2","1","1,0.333,0.333,0.333,1,0.333,0.333,0.333,1","1,0.333,0.333,0.333,1,0.333,0.333,0.333,1","1",""
"","html-keyboard-response","31","53101","0.0-31.0","340UGXU9DZN7NEU7ZJ6RZS38DEWUVS","AM2KK02JXXW48","36U4VBVNQOZD8NFWZXWF9CIHKRIURB","","null","<img src=""img/flower1.png"" style=""width:200px;border:14px solid red;"">","null","","","","","","","","",""
"","image-keyboard-response","32","54001","0.0-32.0","340UGXU9DZN7NEU7ZJ6RZS38DEWUVS","AM2KK02JXXW48","36U4VBVNQOZD8NFWZXWF9CIHKRIURB","","899","img/flower4.png","76","900","3","0","1","1","1,0.333,0.333,0.333,1,0.333,0.333,0.333,1","1,0.333,0.333,0.333,1,0.333,0.333,0.333,1","1",""
"","html-keyboard-response","33","54306","0.0-33.0","340UGXU9DZN7NEU7ZJ6RZS38DEWUVS","AM2KK02JXXW48","36U4VBVNQOZD8NFWZXWF9CIHKRIURB","","null","<img src=""img/flower4.png"" style=""width:200px;border:14px solid red;"">","null","","","","","","","","",""
"","image-keyboard-response","34","54733","0.0-34.0","340UGXU9DZN7NEU7ZJ6RZS38DEWUVS","AM2KK02JXXW48","36U4VBVNQOZD8NFWZXWF9CIHKRIURB","","426","img/flower3.png","76","427","3","1","3","1","1,0.333,0.333,0.333,1,0.333,0.333,0.333,1","1,0.333,0.333,0.333,1,0.333,0.333,0.333,1","1",""
"","html-keyboard-response","35","55034","0.0-35.0","340UGXU9DZN7NEU7ZJ6RZS38DEWUVS","AM2KK02JXXW48","36U4VBVNQOZD8NFWZXWF9CIHKRIURB","","null","<img src=""img/flower3.png"" style=""width:200px; border:14px solid green;"">","null","","","","","","","","",""
"","image-keyboard-response","36","55565","0.0-36.0","340UGXU9DZN7NEU7ZJ6RZS38DEWUVS","AM2KK02JXXW48","36U4VBVNQOZD8NFWZXWF9CIHKRIURB","","530","img/flower1.png","76","531","3","0","2","1","1,0.333,0.333,0.333,1,0.333,0.333,0.333,1","1,0.333,0.333,0.333,1,0.333,0.333,0.333,1","1",""
"","html-keyboard-response","37","55866","0.0-37.0","340UGXU9DZN7NEU7ZJ6RZS38DEWUVS","AM2KK02JXXW48","36U4VBVNQOZD8NFWZXWF9CIHKRIURB","","null","<img src=""img/flower1.png"" style=""width:200px;border:14px solid red;"">","null","","","","","","","","",""
"","image-keyboard-response","38","56285","0.0-38.0","340UGXU9DZN7NEU7ZJ6RZS38DEWUVS","AM2KK02JXXW48","36U4VBVNQOZD8NFWZXWF9CIHKRIURB","","418","img/flower3.png","76","419","3","1","3","1","1,0.333,0.333,0.333,1,0.333,0.333,0.333,1","1,0.333,0.333,0.333,1,0.333,0.333,0.333,1","1",""
"","html-keyboard-response","39","56586","0.0-39.0","340UGXU9DZN7NEU7ZJ6RZS38DEWUVS","AM2KK02JXXW48","36U4VBVNQOZD8NFWZXWF9CIHKRIURB","","null","<img src=""img/flower3.png"" style=""width:200px; border:14px solid green;"">","null","","","","","","","","",""
"","image-keyboard-response","40","57485","0.0-40.0","340UGXU9DZN7NEU7ZJ6RZS38DEWUVS","AM2KK02JXXW48","36U4VBVNQOZD8NFWZXWF9CIHKRIURB","","898","img/flower4.png","76","899","3","1","1","1","1,0.333,0.333,0.333,1,0.333,0.333,0.333,1","1,0.333,0.333,0.333,1,0.333,0.333,0.333,1","1",""
"","html-keyboard-response","41","57786","0.0-41.0","340UGXU9DZN7NEU7ZJ6RZS38DEWUVS","AM2KK02JXXW48","36U4VBVNQOZD8NFWZXWF9CIHKRIURB","","null","<img src=""img/flower4.png"" style=""width:200px; border:14px solid green;"">","null","","","","","","","","",""
"","image-keyboard-response","42","58437","0.0-42.0","340UGXU9DZN7NEU7ZJ6RZS38DEWUVS","AM2KK02JXXW48","36U4VBVNQOZD8NFWZXWF9CIHKRIURB","","650","img/flower3.png","76","651","3","1","3","1","1,0.333,0.333,0.333,1,0.333,0.333,0.333,1","1,0.333,0.333,0.333,1,0.333,0.333,0.333,1","1",""
"","html-keyboard-response","43","58738","0.0-43.0","340UGXU9DZN7NEU7ZJ6RZS38DEWUVS","AM2KK02JXXW48","36U4VBVNQOZD8NFWZXWF9CIHKRIURB","","null","<img src=""img/flower3.png"" style=""width:200px; border:14px solid green;"">","null","","","","","","","","",""
"","image-keyboard-response","44","59325","0.0-44.0","340UGXU9DZN7NEU7ZJ6RZS38DEWUVS","AM2KK02JXXW48","36U4VBVNQOZD8NFWZXWF9CIHKRIURB","","586","img/flower4.png","76","587","3","0","1","1","1,0.333,0.333,0.333,1,0.333,0.333,0.333,1","1,0.333,0.333,0.333,1,0.333,0.333,0.333,1","1",""
"","html-keyboard-response","45","59626","0.0-45.0","340UGXU9DZN7NEU7ZJ6RZS38DEWUVS","AM2KK02JXXW48","36U4VBVNQOZD8NFWZXWF9CIHKRIURB","","null","<img src=""img/flower4.png"" style=""width:200px;border:14px solid red;"">","null","","","","","","","","",""
"","image-keyboard-response","46","60621","0.0-46.0","340UGXU9DZN7NEU7ZJ6RZS38DEWUVS","AM2KK02JXXW48","36U4VBVNQOZD8NFWZXWF9CIHKRIURB","","994","img/flower1.png","76","995","3","1","2","1","1,0.333,0.333,0.333,1,0.333,0.333,0.333,1","1,0.333,0.333,0.333,1,0.333,0.333,0.333,1","1",""
"","html-keyboard-response","47","60923","0.0-47.0","340UGXU9DZN7NEU7ZJ6RZS38DEWUVS","AM2KK02JXXW48","36U4VBVNQOZD8NFWZXWF9CIHKRIURB","","null","<img src=""img/flower1.png"" style=""width:200px; border:14px solid green;"">","null","","","","","","","","",""
"","image-keyboard-response","48","61477","0.0-48.0","340UGXU9DZN7NEU7ZJ6RZS38DEWUVS","AM2KK02JXXW48","36U4VBVNQOZD8NFWZXWF9CIHKRIURB","","553","img/flower4.png","76","554","3","0","1","1","1,0.333,0.333,0.333,1,0.333,0.333,0.333,1","1,0.333,0.333,0.333,1,0.333,0.333,0.333,1","1",""
"","html-keyboard-response","49","61779","0.0-49.0","340UGXU9DZN7NEU7ZJ6RZS38DEWUVS","AM2KK02JXXW48","36U4VBVNQOZD8NFWZXWF9CIHKRIURB","","null","<img src=""img/flower4.png"" style=""width:200px;border:14px solid red;"">","null","","","","","","","","",""
"","image-keyboard-response","50","62314","0.0-50.0","340UGXU9DZN7NEU7ZJ6RZS38DEWUVS","AM2KK02JXXW48","36U4VBVNQOZD8NFWZXWF9CIHKRIURB","","533","img/flower1.png","76","535","3","0","2","1","1,0.333,0.333,0.333,1,0.333,0.333,0.333,1","1,0.333,0.333,0.333,1,0.333,0.333,0.333,1","1",""
"","html-keyboard-response","51","62617","0.0-51.0","340UGXU9DZN7NEU7ZJ6RZS38DEWUVS","AM2KK02JXXW48","36U4VBVNQOZD8NFWZXWF9CIHKRIURB","","null","<img src=""img/flower1.png"" style=""width:200px;border:14px solid red;"">","null","","","","","","","","",""
"","image-keyboard-response","52","63005","0.0-52.0","340UGXU9DZN7NEU7ZJ6RZS38DEWUVS","AM2KK02JXXW48","36U4VBVNQOZD8NFWZXWF9CIHKRIURB","","387","img/flower3.png","76","388","3","1","3","1","1,0.333,0.333,0.333,1,0.333,0.333,0.333,1","1,0.333,0.333,0.333,1,0.333,0.333,0.333,1","1",""
"","html-keyboard-response","53","63307","0.0-53.0","340UGXU9DZN7NEU7ZJ6RZS38DEWUVS","AM2KK02JXXW48","36U4VBVNQOZD8NFWZXWF9CIHKRIURB","","null","<img src=""img/flower3.png"" style=""width:200px; border:14px solid green;"">","null","","","","","","","","",""
"","image-keyboard-response","54","63717","0.0-54.0","340UGXU9DZN7NEU7ZJ6RZS38DEWUVS","AM2KK02JXXW48","36U4VBVNQOZD8NFWZXWF9CIHKRIURB","","408","img/flower4.png","76","410","3","0","1","1","1,0.333,0.333,0.333,1,0.333,0.333,0.333,1","1,0.333,0.333,0.333,1,0.333,0.333,0.333,1","1",""
"","html-keyboard-response","55","64018","0.0-55.0","340UGXU9DZN7NEU7ZJ6RZS38DEWUVS","AM2KK02JXXW48","36U4VBVNQOZD8NFWZXWF9CIHKRIURB","","null","<img src=""img/flower4.png"" style=""width:200px;border:14px solid red;"">","null","","","","","","","","",""
"","image-keyboard-response","56","64485","0.0-56.0","340UGXU9DZN7NEU7ZJ6RZS38DEWUVS","AM2KK02JXXW48","36U4VBVNQOZD8NFWZXWF9CIHKRIURB","","466","img/flower4.png","75","467","2","0","1","1","1,0.333,0.333,0.333,1,0.333,0.333,0.333,1","1,0.333,0.333,0.333,1,0.333,0.333,0.333,1","1",""
"","html-keyboard-response","57","64786","0.0-57.0","340UGXU9DZN7NEU7ZJ6RZS38DEWUVS","AM2KK02JXXW48","36U4VBVNQOZD8NFWZXWF9CIHKRIURB","","null","<img src=""img/flower4.png"" style=""width:200px;border:14px solid red;"">","null","","","","","","","","",""
"","image-keyboard-response","58","65045","0.0-58.0","340UGXU9DZN7NEU7ZJ6RZS38DEWUVS","AM2KK02JXXW48","36U4VBVNQOZD8NFWZXWF9CIHKRIURB","","258","img/flower1.png","75","259","2","1","2","1","1,0.333,0.333,0.333,1,0.333,0.333,0.333,1","1,0.333,0.333,0.333,1,0.333,0.333,0.333,1","1",""
"","html-keyboard-response","59","65346","0.0-59.0","340UGXU9DZN7NEU7ZJ6RZS38DEWUVS","AM2KK02JXXW48","36U4VBVNQOZD8NFWZXWF9CIHKRIURB","","null","<img src=""img/flower1.png"" style=""width:200px; border:14px solid green;"">","null","","","","","","","","",""
"","image-keyboard-response","60","65597","0.0-60.0","340UGXU9DZN7NEU7ZJ6RZS38DEWUVS","AM2KK02JXXW48","36U4VBVNQOZD8NFWZXWF9CIHKRIURB","","250","img/flower3.png","75","251","2","0","3","1","1,0.333,0.333,0.333,1,0.333,0.333,0.333,1","1,0.333,0.333,0.333,1,0.333,0.333,0.333,1","1",""
"","html-keyboard-response","61","65900","0.0-61.0","340UGXU9DZN7NEU7ZJ6RZS38DEWUVS","AM2KK02JXXW48","36U4VBVNQOZD8NFWZXWF9CIHKRIURB","","null","<img src=""img/flower3.png"" style=""width:200px;border:14px solid red;"">","null","","","","","","","","",""
"","image-keyboard-response","62","66133","0.0-62.0","340UGXU9DZN7NEU7ZJ6RZS38DEWUVS","AM2KK02JXXW48","36U4VBVNQOZD8NFWZXWF9CIHKRIURB","","232","img/flower4.png","75","232","2","0","1","1","1,0.333,0.333,0.333,1,0.333,0.333,0.333,1","1,0.333,0.333,0.333,1,0.333,0.333,0.333,1","1",""
"","html-keyboard-response","63","66434","0.0-63.0","340UGXU9DZN7NEU7ZJ6RZS38DEWUVS","AM2KK02JXXW48","36U4VBVNQOZD8NFWZXWF9CIHKRIURB","","null","<img src=""img/flower4.png"" style=""width:200px;border:14px solid red;"">","null","","","","","","","","",""
"","image-keyboard-response","64","66725","0.0-64.0","340UGXU9DZN7NEU7ZJ6RZS38DEWUVS","AM2KK02JXXW48","36U4VBVNQOZD8NFWZXWF9CIHKRIURB","","290","img/flower3.png","75","291","2","1","3","1","1,0.333,0.333,0.333,1,0.333,0.333,0.333,1","1,0.333,0.333,0.333,1,0.333,0.333,0.333,1","1",""
"","html-keyboard-response","65","67026","0.0-65.0","340UGXU9DZN7NEU7ZJ6RZS38DEWUVS","AM2KK02JXXW48","36U4VBVNQOZD8NFWZXWF9CIHKRIURB","","null","<img src=""img/flower3.png"" style=""width:200px; border:14px solid green;"">","null","","","","","","","","",""
"","image-keyboard-response","66","67237","0.0-66.0","340UGXU9DZN7NEU7ZJ6RZS38DEWUVS","AM2KK02JXXW48","36U4VBVNQOZD8NFWZXWF9CIHKRIURB","","210","img/flower3.png","75","211","2","0","3","1","1,0.333,0.333,0.333,1,0.333,0.333,0.333,1","1,0.333,0.333,0.333,1,0.333,0.333,0.333,1","1",""
"","html-keyboard-response","67","67539","0.0-67.0","340UGXU9DZN7NEU7ZJ6RZS38DEWUVS","AM2KK02JXXW48","36U4VBVNQOZD8NFWZXWF9CIHKRIURB","","null","<img src=""img/flower3.png"" style=""width:200px;border:14px solid red;"">","null","","","","","","","","",""
"","image-keyboard-response","68","67781","0.0-68.0","340UGXU9DZN7NEU7ZJ6RZS38DEWUVS","AM2KK02JXXW48","36U4VBVNQOZD8NFWZXWF9CIHKRIURB","","241","img/flower1.png","75","242","2","1","2","1","1,0.333,0.333,0.333,1,0.333,0.333,0.333,1","1,0.333,0.333,0.333,1,0.333,0.333,0.333,1","1",""
"","html-keyboard-response","69","68083","0.0-69.0","340UGXU9DZN7NEU7ZJ6RZS38DEWUVS","AM2KK02JXXW48","36U4VBVNQOZD8NFWZXWF9CIHKRIURB","","null","<img src=""img/flower1.png"" style=""width:200px; border:14px solid green;"">","null","","","","","","","","",""
"","image-keyboard-response","70","68573","0.0-70.0","340UGXU9DZN7NEU7ZJ6RZS38DEWUVS","AM2KK02JXXW48","36U4VBVNQOZD8NFWZXWF9CIHKRIURB","","489","img/flower3.png","75","490","2","0","3","1","1,0.333,0.333,0.333,1,0.333,0.333,0.333,1","1,0.333,0.333,0.333,1,0.333,0.333,0.333,1","1",""
"","html-keyboard-response","71","68874","0.0-71.0","340UGXU9DZN7NEU7ZJ6RZS38DEWUVS","AM2KK02JXXW48","36U4VBVNQOZD8NFWZXWF9CIHKRIURB","","null","<img src=""img/flower3.png"" style=""width:200px;border:14px solid red;"">","null","","","","","","","","",""
"","image-keyboard-response","72","69117","0.0-72.0","340UGXU9DZN7NEU7ZJ6RZS38DEWUVS","AM2KK02JXXW48","36U4VBVNQOZD8NFWZXWF9CIHKRIURB","","242","img/flower4.png","74","243","1","1","1","1","1,0.333,0.333,0.333,1,0.333,0.333,0.333,1","1,0.333,0.333,0.333,1,0.333,0.333,0.333,1","1",""
"","html-keyboard-response","73","69418","0.0-73.0","340UGXU9DZN7NEU7ZJ6RZS38DEWUVS","AM2KK02JXXW48","36U4VBVNQOZD8NFWZXWF9CIHKRIURB","","null","<img src=""img/flower4.png"" style=""width:200px; border:14px solid green;"">","null","","","","","","","","",""
"","image-keyboard-response","74","69629","0.0-74.0","340UGXU9DZN7NEU7ZJ6RZS38DEWUVS","AM2KK02JXXW48","36U4VBVNQOZD8NFWZXWF9CIHKRIURB","","210","img/flower4.png","74","211","1","1","1","1","1,0.333,0.333,0.333,1,0.333,0.333,0.333,1","1,0.333,0.333,0.333,1,0.333,0.333,0.333,1","1",""
"","html-keyboard-response","75","69930","0.0-75.0","340UGXU9DZN7NEU7ZJ6RZS38DEWUVS","AM2KK02JXXW48","36U4VBVNQOZD8NFWZXWF9CIHKRIURB","","null","<img src=""img/flower4.png"" style=""width:200px; border:14px solid green;"">","null","","","","","","","","",""
"","image-keyboard-response","76","70141","0.0-76.0","340UGXU9DZN7NEU7ZJ6RZS38DEWUVS","AM2KK02JXXW48","36U4VBVNQOZD8NFWZXWF9CIHKRIURB","","210","img/flower1.png","74","211","1","0","2","1","1,0.333,0.333,0.333,1,0.333,0.333,0.333,1","1,0.333,0.333,0.333,1,0.333,0.333,0.333,1","1",""
"","html-keyboard-response","77","70449","0.0-77.0","340UGXU9DZN7NEU7ZJ6RZS38DEWUVS","AM2KK02JXXW48","36U4VBVNQOZD8NFWZXWF9CIHKRIURB","","null","<img src=""img/flower1.png"" style=""width:200px;border:14px solid red;"">","null","","","","","","","","",""
"","image-keyboard-response","78","70629","0.0-78.0","340UGXU9DZN7NEU7ZJ6RZS38DEWUVS","AM2KK02JXXW48","36U4VBVNQOZD8NFWZXWF9CIHKRIURB","","179","img/flower3.png","74","180","1","0","3","1","1,0.333,0.333,0.333,1,0.333,0.333,0.333,1","1,0.333,0.333,0.333,1,0.333,0.333,0.333,1","1",""
"","html-keyboard-response","79","70931","0.0-79.0","340UGXU9DZN7NEU7ZJ6RZS38DEWUVS","AM2KK02JXXW48","36U4VBVNQOZD8NFWZXWF9CIHKRIURB","","null","<img src=""img/flower3.png"" style=""width:200px;border:14px solid red;"">","null","","","","","","","","",""
"","image-keyboard-response","80","71173","0.0-80.0","340UGXU9DZN7NEU7ZJ6RZS38DEWUVS","AM2KK02JXXW48","36U4VBVNQOZD8NFWZXWF9CIHKRIURB","","241","img/flower4.png","74","242","1","1","1","1","1,0.333,0.333,0.333,1,0.333,0.333,0.333,1","1,0.333,0.333,0.333,1,0.333,0.333,0.333,1","1",""
"","html-keyboard-response","81","71475","0.0-81.0","340UGXU9DZN7NEU7ZJ6RZS38DEWUVS","AM2KK02JXXW48","36U4VBVNQOZD8NFWZXWF9CIHKRIURB","","null","<img src=""img/flower4.png"" style=""width:200px; border:14px solid green;"">","null","","","","","","","","",""
"","image-keyboard-response","82","71981","0.0-82.0","340UGXU9DZN7NEU7ZJ6RZS38DEWUVS","AM2KK02JXXW48","36U4VBVNQOZD8NFWZXWF9CIHKRIURB","","505","img/flower4.png","74","507","1","1","1","1","1,0.333,0.333,0.333,1,0.333,0.333,0.333,1","1,0.333,0.333,0.333,1,0.333,0.333,0.333,1","1",""
"","html-keyboard-response","83","72282","0.0-83.0","340UGXU9DZN7NEU7ZJ6RZS38DEWUVS","AM2KK02JXXW48","36U4VBVNQOZD8NFWZXWF9CIHKRIURB","","null","<img src=""img/flower4.png"" style=""width:200px; border:14px solid green;"">","null","","","","","","","","",""
"","image-keyboard-response","84","72557","0.0-84.0","340UGXU9DZN7NEU7ZJ6RZS38DEWUVS","AM2KK02JXXW48","36U4VBVNQOZD8NFWZXWF9CIHKRIURB","","274","img/flower3.png","74","275","1","0","3","1","1,0.333,0.333,0.333,1,0.333,0.333,0.333,1","1,0.333,0.333,0.333,1,0.333,0.333,0.333,1","1",""
"","html-keyboard-response","85","72858","0.0-85.0","340UGXU9DZN7NEU7ZJ6RZS38DEWUVS","AM2KK02JXXW48","36U4VBVNQOZD8NFWZXWF9CIHKRIURB","","null","<img src=""img/flower3.png"" style=""width:200px;border:14px solid red;"">","null","","","","","","","","",""
"","image-keyboard-response","86","73093","0.0-86.0","340UGXU9DZN7NEU7ZJ6RZS38DEWUVS","AM2KK02JXXW48","36U4VBVNQOZD8NFWZXWF9CIHKRIURB","","234","img/flower1.png","74","235","1","0","2","1","1,0.333,0.333,0.333,1,0.333,0.333,0.333,1","1,0.333,0.333,0.333,1,0.333,0.333,0.333,1","1",""
"","html-keyboard-response","87","73394","0.0-87.0","340UGXU9DZN7NEU7ZJ6RZS38DEWUVS","AM2KK02JXXW48","36U4VBVNQOZD8NFWZXWF9CIHKRIURB","","null","<img src=""img/flower1.png"" style=""width:200px;border:14px solid red;"">","null","","","","","","","","",""
"","image-keyboard-response","88","73630","0.0-88.0","340UGXU9DZN7NEU7ZJ6RZS38DEWUVS","AM2KK02JXXW48","36U4VBVNQOZD8NFWZXWF9CIHKRIURB","","235","img/flower3.png","74","236","1","0","3","1","1,0.333,0.333,0.333,1,0.333,0.333,0.333,1","1,0.333,0.333,0.333,1,0.333,0.333,0.333,1","1",""
"","html-keyboard-response","89","73931","0.0-89.0","340UGXU9DZN7NEU7ZJ6RZS38DEWUVS","AM2KK02JXXW48","36U4VBVNQOZD8NFWZXWF9CIHKRIURB","","null","<img src=""img/flower3.png"" style=""width:200px;border:14px solid red;"">","null","","","","","","","","",""
"","image-keyboard-response","90","74142","0.0-90.0","340UGXU9DZN7NEU7ZJ6RZS38DEWUVS","AM2KK02JXXW48","36U4VBVNQOZD8NFWZXWF9CIHKRIURB","","209","img/flower3.png","74","211","1","0","3","1","1,0.333,0.333,0.333,1,0.333,0.333,0.333,1","1,0.333,0.333,0.333,1,0.333,0.333,0.333,1","1",""
"","html-keyboard-response","91","74443","0.0-91.0","340UGXU9DZN7NEU7ZJ6RZS38DEWUVS","AM2KK02JXXW48","36U4VBVNQOZD8NFWZXWF9CIHKRIURB","","null","<img src=""img/flower3.png"" style=""width:200px;border:14px solid red;"">","null","","","","","","","","",""
"","image-keyboard-response","92","74581","0.0-92.0","340UGXU9DZN7NEU7ZJ6RZS38DEWUVS","AM2KK02JXXW48","36U4VBVNQOZD8NFWZXWF9CIHKRIURB","","137","img/flower3.png","75","138","2","0","3","1","1,0.333,0.333,0.333,1,0.333,0.333,0.333,1","1,0.333,0.333,0.333,1,0.333,0.333,0.333,1","1",""
"","html-keyboard-response","93","74883","0.0-93.0","340UGXU9DZN7NEU7ZJ6RZS38DEWUVS","AM2KK02JXXW48","36U4VBVNQOZD8NFWZXWF9CIHKRIURB","","null","<img src=""img/flower3.png"" style=""width:200px;border:14px solid red;"">","null","","","","","","","","",""
"","image-keyboard-response","94","75093","0.0-94.0","340UGXU9DZN7NEU7ZJ6RZS38DEWUVS","AM2KK02JXXW48","36U4VBVNQOZD8NFWZXWF9CIHKRIURB","","209","img/flower3.png","75","210","2","0","3","1","1,0.333,0.333,0.333,1,0.333,0.333,0.333,1","1,0.333,0.333,0.333,1,0.333,0.333,0.333,1","1",""
"","html-keyboard-response","95","75394","0.0-95.0","340UGXU9DZN7NEU7ZJ6RZS38DEWUVS","AM2KK02JXXW48","36U4VBVNQOZD8NFWZXWF9CIHKRIURB","","null","<img src=""img/flower3.png"" style=""width:200px;border:14px solid red;"">","null","","","","","","","","",""
"","image-keyboard-response","96","75573","0.0-96.0","340UGXU9DZN7NEU7ZJ6RZS38DEWUVS","AM2KK02JXXW48","36U4VBVNQOZD8NFWZXWF9CIHKRIURB","","178","img/flower4.png","75","179","2","0","1","1","1,0.333,0.333,0.333,1,0.333,0.333,0.333,1","1,0.333,0.333,0.333,1,0.333,0.333,0.333,1","1",""
"","html-keyboard-response","97","75874","0.0-97.0","340UGXU9DZN7NEU7ZJ6RZS38DEWUVS","AM2KK02JXXW48","36U4VBVNQOZD8NFWZXWF9CIHKRIURB","","null","<img src=""img/flower4.png"" style=""width:200px;border:14px solid red;"">","null","","","","","","","","",""
"","image-keyboard-response","98","76205","0.0-98.0","340UGXU9DZN7NEU7ZJ6RZS38DEWUVS","AM2KK02JXXW48","36U4VBVNQOZD8NFWZXWF9CIHKRIURB","","330","img/flower3.png","76","331","3","1","3","1","1,0.333,0.333,0.333,1,0.333,0.333,0.333,1","1,0.333,0.333,0.333,1,0.333,0.333,0.333,1","1",""
"","html-keyboard-response","99","76506","0.0-99.0","340UGXU9DZN7NEU7ZJ6RZS38DEWUVS","AM2KK02JXXW48","36U4VBVNQOZD8NFWZXWF9CIHKRIURB","","null","<img src=""img/flower3.png"" style=""width:200px; border:14px solid green;"">","null","","","","","","","","",""
"","image-keyboard-response","100","76717","0.0-100.0","340UGXU9DZN7NEU7ZJ6RZS38DEWUVS","AM2KK02JXXW48","36U4VBVNQOZD8NFWZXWF9CIHKRIURB","","210","img/flower1.png","76","211","3","0","2","1","1,0.333,0.333,0.333,1,0.333,0.333,0.333,1","1,0.333,0.333,0.333,1,0.333,0.333,0.333,1","1",""
"","html-keyboard-response","101","77019","0.0-101.0","340UGXU9DZN7NEU7ZJ6RZS38DEWUVS","AM2KK02JXXW48","36U4VBVNQOZD8NFWZXWF9CIHKRIURB","","null","<img src=""img/flower1.png"" style=""width:200px;border:14px solid red;"">","null","","","","","","","","",""
"","image-keyboard-response","102","77214","0.0-102.0","340UGXU9DZN7NEU7ZJ6RZS38DEWUVS","AM2KK02JXXW48","36U4VBVNQOZD8NFWZXWF9CIHKRIURB","","194","img/flower1.png","76","195","3","0","2","1","1,0.333,0.333,0.333,1,0.333,0.333,0.333,1","1,0.333,0.333,0.333,1,0.333,0.333,0.333,1","1",""
"","html-keyboard-response","103","77517","0.0-103.0","340UGXU9DZN7NEU7ZJ6RZS38DEWUVS","AM2KK02JXXW48","36U4VBVNQOZD8NFWZXWF9CIHKRIURB","","null","<img src=""img/flower1.png"" style=""width:200px;border:14px solid red;"">","null","","","","","","","","",""
"","image-keyboard-response","104","77621","0.0-104.0","340UGXU9DZN7NEU7ZJ6RZS38DEWUVS","AM2KK02JXXW48","36U4VBVNQOZD8NFWZXWF9CIHKRIURB","","104","img/flower1.png","75","104","2","1","2","1","1,0.333,0.333,0.333,1,0.333,0.333,0.333,1","1,0.333,0.333,0.333,1,0.333,0.333,0.333,1","1",""
"","html-keyboard-response","105","77923","0.0-105.0","340UGXU9DZN7NEU7ZJ6RZS38DEWUVS","AM2KK02JXXW48","36U4VBVNQOZD8NFWZXWF9CIHKRIURB","","null","<img src=""img/flower1.png"" style=""width:200px; border:14px solid green;"">","null","","","","","","","","",""
"","image-keyboard-response","106","78053","0.0-106.0","340UGXU9DZN7NEU7ZJ6RZS38DEWUVS","AM2KK02JXXW48","36U4VBVNQOZD8NFWZXWF9CIHKRIURB","","128","img/flower4.png","76","129","3","0","1","1","1,0.333,0.333,0.333,1,0.333,0.333,0.333,1","1,0.333,0.333,0.333,1,0.333,0.333,0.333,1","1",""
"","html-keyboard-response","107","78355","0.0-107.0","340UGXU9DZN7NEU7ZJ6RZS38DEWUVS","AM2KK02JXXW48","36U4VBVNQOZD8NFWZXWF9CIHKRIURB","","null","<img src=""img/flower4.png"" style=""width:200px;border:14px solid red;"">","null","","","","","","","","",""
"","image-keyboard-response","108","78477","0.0-108.0","340UGXU9DZN7NEU7ZJ6RZS38DEWUVS","AM2KK02JXXW48","36U4VBVNQOZD8NFWZXWF9CIHKRIURB","","121","img/flower3.png","75","122","2","0","3","1","1,0.333,0.333,0.333,1,0.333,0.333,0.333,1","1,0.333,0.333,0.333,1,0.333,0.333,0.333,1","1",""
"","html-keyboard-response","109","78778","0.0-109.0","340UGXU9DZN7NEU7ZJ6RZS38DEWUVS","AM2KK02JXXW48","36U4VBVNQOZD8NFWZXWF9CIHKRIURB","","null","<img src=""img/flower3.png"" style=""width:200px;border:14px solid red;"">","null","","","","","","","","",""
"","image-keyboard-response","110","78909","0.0-110.0","340UGXU9DZN7NEU7ZJ6RZS38DEWUVS","AM2KK02JXXW48","36U4VBVNQOZD8NFWZXWF9CIHKRIURB","","130","img/flower3.png","76","131","3","1","3","1","1,0.333,0.333,0.333,1,0.333,0.333,0.333,1","1,0.333,0.333,0.333,1,0.333,0.333,0.333,1","1",""
"","html-keyboard-response","111","79210","0.0-111.0","340UGXU9DZN7NEU7ZJ6RZS38DEWUVS","AM2KK02JXXW48","36U4VBVNQOZD8NFWZXWF9CIHKRIURB","","null","<img src=""img/flower3.png"" style=""width:200px; border:14px solid green;"">","null","","","","","","","","",""
"","image-keyboard-response","112","79349","0.0-112.0","340UGXU9DZN7NEU7ZJ6RZS38DEWUVS","AM2KK02JXXW48","36U4VBVNQOZD8NFWZXWF9CIHKRIURB","","138","img/flower1.png","75","139","2","1","2","1","1,0.333,0.333,0.333,1,0.333,0.333,0.333,1","1,0.333,0.333,0.333,1,0.333,0.333,0.333,1","1",""
"","html-keyboard-response","113","79650","0.0-113.0","340UGXU9DZN7NEU7ZJ6RZS38DEWUVS","AM2KK02JXXW48","36U4VBVNQOZD8NFWZXWF9CIHKRIURB","","null","<img src=""img/flower1.png"" style=""width:200px; border:14px solid green;"">","null","","","","","","","","",""
"","image-keyboard-response","114","79797","0.0-114.0","340UGXU9DZN7NEU7ZJ6RZS38DEWUVS","AM2KK02JXXW48","36U4VBVNQOZD8NFWZXWF9CIHKRIURB","","146","img/flower4.png","76","147","3","1","1","1","1,0.333,0.333,0.333,1,0.333,0.333,0.333,1","1,0.333,0.333,0.333,1,0.333,0.333,0.333,1","1",""
"","html-keyboard-response","115","80098","0.0-115.0","340UGXU9DZN7NEU7ZJ6RZS38DEWUVS","AM2KK02JXXW48","36U4VBVNQOZD8NFWZXWF9CIHKRIURB","","null","<img src=""img/flower4.png"" style=""width:200px; border:14px solid green;"">","null","","","","","","","","",""
"","image-keyboard-response","116","80237","0.0-116.0","340UGXU9DZN7NEU7ZJ6RZS38DEWUVS","AM2KK02JXXW48","36U4VBVNQOZD8NFWZXWF9CIHKRIURB","","138","img/flower3.png","75","139","2","0","3","1","1,0.333,0.333,0.333,1,0.333,0.333,0.333,1","1,0.333,0.333,0.333,1,0.333,0.333,0.333,1","1",""
"","html-keyboard-response","117","80539","0.0-117.0","340UGXU9DZN7NEU7ZJ6RZS38DEWUVS","AM2KK02JXXW48","36U4VBVNQOZD8NFWZXWF9CIHKRIURB","","null","<img src=""img/flower3.png"" style=""width:200px;border:14px solid red;"">","null","","","","","","","","",""
"","image-keyboard-response","118","80701","0.0-118.0","340UGXU9DZN7NEU7ZJ6RZS38DEWUVS","AM2KK02JXXW48","36U4VBVNQOZD8NFWZXWF9CIHKRIURB","","161","img/flower4.png","76","162","3","1","1","1","1,0.333,0.333,0.333,1,0.333,0.333,0.333,1","1,0.333,0.333,0.333,1,0.333,0.333,0.333,1","1",""
"","html-keyboard-response","119","81003","0.0-119.0","340UGXU9DZN7NEU7ZJ6RZS38DEWUVS","AM2KK02JXXW48","36U4VBVNQOZD8NFWZXWF9CIHKRIURB","","null","<img src=""img/flower4.png"" style=""width:200px; border:14px solid green;"">","null","","","","","","","","",""
"","image-keyboard-response","120","81133","0.0-120.0","340UGXU9DZN7NEU7ZJ6RZS38DEWUVS","AM2KK02JXXW48","36U4VBVNQOZD8NFWZXWF9CIHKRIURB","","129","img/flower4.png","75","130","2","1","1","1","1,0.333,0.333,0.333,1,0.333,0.333,0.333,1","1,0.333,0.333,0.333,1,0.333,0.333,0.333,1","1",""
"","html-keyboard-response","121","81434","0.0-121.0","340UGXU9DZN7NEU7ZJ6RZS38DEWUVS","AM2KK02JXXW48","36U4VBVNQOZD8NFWZXWF9CIHKRIURB","","null","<img src=""img/flower4.png"" style=""width:200px; border:14px solid green;"">","null","","","","","","","","",""
"","image-keyboard-response","122","81541","0.0-122.0","340UGXU9DZN7NEU7ZJ6RZS38DEWUVS","AM2KK02JXXW48","36U4VBVNQOZD8NFWZXWF9CIHKRIURB","","106","img/flower4.png","76","107","3","0","1","1","1,0.333,0.333,0.333,1,0.333,0.333,0.333,1","1,0.333,0.333,0.333,1,0.333,0.333,0.333,1","1",""
"","html-keyboard-response","123","81842","0.0-123.0","340UGXU9DZN7NEU7ZJ6RZS38DEWUVS","AM2KK02JXXW48","36U4VBVNQOZD8NFWZXWF9CIHKRIURB","","null","<img src=""img/flower4.png"" style=""width:200px;border:14px solid red;"">","null","","","","","","","","",""
"","image-keyboard-response","124","81933","0.0-124.0","340UGXU9DZN7NEU7ZJ6RZS38DEWUVS","AM2KK02JXXW48","36U4VBVNQOZD8NFWZXWF9CIHKRIURB","","90","img/flower3.png","75","91","2","0","3","1","1,0.333,0.333,0.333,1,0.333,0.333,0.333,1","1,0.333,0.333,0.333,1,0.333,0.333,0.333,1","1",""
"","html-keyboard-response","125","82234","0.0-125.0","340UGXU9DZN7NEU7ZJ6RZS38DEWUVS","AM2KK02JXXW48","36U4VBVNQOZD8NFWZXWF9CIHKRIURB","","null","<img src=""img/flower3.png"" style=""width:200px;border:14px solid red;"">","null","","","","","","","","",""
"","image-keyboard-response","126","82341","0.0-126.0","340UGXU9DZN7NEU7ZJ6RZS38DEWUVS","AM2KK02JXXW48","36U4VBVNQOZD8NFWZXWF9CIHKRIURB","","106","img/flower1.png","76","107","3","1","2","1","1,0.333,0.333,0.333,1,0.333,0.333,0.333,1","1,0.333,0.333,0.333,1,0.333,0.333,0.333,1","1",""
"","html-keyboard-response","127","82644","0.0-127.0","340UGXU9DZN7NEU7ZJ6RZS38DEWUVS","AM2KK02JXXW48","36U4VBVNQOZD8NFWZXWF9CIHKRIURB","","null","<img src=""img/flower1.png"" style=""width:200px; border:14px solid green;"">","null","","","","","","","","",""
"","image-keyboard-response","128","82765","0.0-128.0","340UGXU9DZN7NEU7ZJ6RZS38DEWUVS","AM2KK02JXXW48","36U4VBVNQOZD8NFWZXWF9CIHKRIURB","","120","img/flower3.png","75","121","2","0","3","1","1,0.333,0.333,0.333,1,0.333,0.333,0.333,1","1,0.333,0.333,0.333,1,0.333,0.333,0.333,1","1",""
"","html-keyboard-response","129","83067","0.0-129.0","340UGXU9DZN7NEU7ZJ6RZS38DEWUVS","AM2KK02JXXW48","36U4VBVNQOZD8NFWZXWF9CIHKRIURB","","null","<img src=""img/flower3.png"" style=""width:200px;border:14px solid red;"">","null","","","","","","","","",""
"","image-keyboard-response","130","83165","0.0-130.0","340UGXU9DZN7NEU7ZJ6RZS38DEWUVS","AM2KK02JXXW48","36U4VBVNQOZD8NFWZXWF9CIHKRIURB","","97","img/flower4.png","76","98","3","0","1","1","1,0.333,0.333,0.333,1,0.333,0.333,0.333,1","1,0.333,0.333,0.333,1,0.333,0.333,0.333,1","1",""
"","html-keyboard-response","131","83466","0.0-131.0","340UGXU9DZN7NEU7ZJ6RZS38DEWUVS","AM2KK02JXXW48","36U4VBVNQOZD8NFWZXWF9CIHKRIURB","","null","<img src=""img/flower4.png"" style=""width:200px;border:14px solid red;"">","null","","","","","","","","",""
"","image-keyboard-response","132","83542","0.0-132.0","340UGXU9DZN7NEU7ZJ6RZS38DEWUVS","AM2KK02JXXW48","36U4VBVNQOZD8NFWZXWF9CIHKRIURB","","74","img/flower1.png","75","76","2","1","2","1","1,0.333,0.333,0.333,1,0.333,0.333,0.333,1","1,0.333,0.333,0.333,1,0.333,0.333,0.333,1","1",""
"","html-keyboard-response","133","83843","0.0-133.0","340UGXU9DZN7NEU7ZJ6RZS38DEWUVS","AM2KK02JXXW48","36U4VBVNQOZD8NFWZXWF9CIHKRIURB","","null","<img src=""img/flower1.png"" style=""width:200px; border:14px solid green;"">","null","","","","","","","","",""
"","image-keyboard-response","134","83885","0.0-134.0","340UGXU9DZN7NEU7ZJ6RZS38DEWUVS","AM2KK02JXXW48","36U4VBVNQOZD8NFWZXWF9CIHKRIURB","","41","img/flower4.png","76","42","3","0","1","1","1,0.333,0.333,0.333,1,0.333,0.333,0.333,1","1,0.333,0.333,0.333,1,0.333,0.333,0.333,1","1",""
"","html-keyboard-response","135","84187","0.0-135.0","340UGXU9DZN7NEU7ZJ6RZS38DEWUVS","AM2KK02JXXW48","36U4VBVNQOZD8NFWZXWF9CIHKRIURB","","null","<img src=""img/flower4.png"" style=""width:200px;border:14px solid red;"">","null","","","","","","","","",""
"","image-keyboard-response","136","84221","0.0-136.0","340UGXU9DZN7NEU7ZJ6RZS38DEWUVS","AM2KK02JXXW48","36U4VBVNQOZD8NFWZXWF9CIHKRIURB","","33","img/flower4.png","75","34","2","0","1","1","1,0.333,0.333,0.333,1,0.333,0.333,0.333,1","1,0.333,0.333,0.333,1,0.333,0.333,0.333,1","1",""
"","html-keyboard-response","137","84524","0.0-137.0","340UGXU9DZN7NEU7ZJ6RZS38DEWUVS","AM2KK02JXXW48","36U4VBVNQOZD8NFWZXWF9CIHKRIURB","","null","<img src=""img/flower4.png"" style=""width:200px;border:14px solid red;"">","null","","","","","","","","",""
"","image-keyboard-response","138","84597","0.0-138.0","340UGXU9DZN7NEU7ZJ6RZS38DEWUVS","AM2KK02JXXW48","36U4VBVNQOZD8NFWZXWF9CIHKRIURB","","72","img/flower1.png","76","73","3","1","2","1","1,0.333,0.333,0.333,1,0.333,0.333,0.333,1","1,0.333,0.333,0.333,1,0.333,0.333,0.333,1","1",""
"","html-keyboard-response","139","84898","0.0-139.0","340UGXU9DZN7NEU7ZJ6RZS38DEWUVS","AM2KK02JXXW48","36U4VBVNQOZD8NFWZXWF9CIHKRIURB","","null","<img src=""img/flower1.png"" style=""width:200px; border:14px solid green;"">","null","","","","","","","","",""
"","image-keyboard-response","140","84989","0.0-140.0","340UGXU9DZN7NEU7ZJ6RZS38DEWUVS","AM2KK02JXXW48","36U4VBVNQOZD8NFWZXWF9CIHKRIURB","","90","img/flower1.png","75","91","2","1","2","1","1,0.333,0.333,0.333,1,0.333,0.333,0.333,1","1,0.333,0.333,0.333,1,0.333,0.333,0.333,1","1",""
"","html-keyboard-response","141","85291","0.0-141.0","340UGXU9DZN7NEU7ZJ6RZS38DEWUVS","AM2KK02JXXW48","36U4VBVNQOZD8NFWZXWF9CIHKRIURB","","null","<img src=""img/flower1.png"" style=""width:200px; border:14px solid green;"">","null","","","","","","","","",""
"","image-keyboard-response","142","85365","0.0-142.0","340UGXU9DZN7NEU7ZJ6RZS38DEWUVS","AM2KK02JXXW48","36U4VBVNQOZD8NFWZXWF9CIHKRIURB","","73","img/flower4.png","76","74","3","0","1","1","1,0.333,0.333,0.333,1,0.333,0.333,0.333,1","1,0.333,0.333,0.333,1,0.333,0.333,0.333,1","1",""
"","html-keyboard-response","143","85666","0.0-143.0","340UGXU9DZN7NEU7ZJ6RZS38DEWUVS","AM2KK02JXXW48","36U4VBVNQOZD8NFWZXWF9CIHKRIURB","","null","<img src=""img/flower4.png"" style=""width:200px;border:14px solid red;"">","null","","","","","","","","",""
"","image-keyboard-response","144","85741","0.0-144.0","340UGXU9DZN7NEU7ZJ6RZS38DEWUVS","AM2KK02JXXW48","36U4VBVNQOZD8NFWZXWF9CIHKRIURB","","74","img/flower1.png","75","75","2","1","2","1","1,0.333,0.333,0.333,1,0.333,0.333,0.333,1","1,0.333,0.333,0.333,1,0.333,0.333,0.333,1","1",""
"","html-keyboard-response","145","86042","0.0-145.0","340UGXU9DZN7NEU7ZJ6RZS38DEWUVS","AM2KK02JXXW48","36U4VBVNQOZD8NFWZXWF9CIHKRIURB","","null","<img src=""img/flower1.png"" style=""width:200px; border:14px solid green;"">","null","","","","","","","","",""
"","image-keyboard-response","146","86101","0.0-146.0","340UGXU9DZN7NEU7ZJ6RZS38DEWUVS","AM2KK02JXXW48","36U4VBVNQOZD8NFWZXWF9CIHKRIURB","","58","img/flower3.png","75","59","2","0","3","1","1,0.333,0.333,0.333,1,0.333,0.333,0.333,1","1,0.333,0.333,0.333,1,0.333,0.333,0.333,1","1",""
"","html-keyboard-response","147","86403","0.0-147.0","340UGXU9DZN7NEU7ZJ6RZS38DEWUVS","AM2KK02JXXW48","36U4VBVNQOZD8NFWZXWF9CIHKRIURB","","null","<img src=""img/flower3.png"" style=""width:200px;border:14px solid red;"">","null","","","","","","","","",""
"","image-keyboard-response","148","86477","0.0-148.0","340UGXU9DZN7NEU7ZJ6RZS38DEWUVS","AM2KK02JXXW48","36U4VBVNQOZD8NFWZXWF9CIHKRIURB","","73","img/flower1.png","75","74","2","1","2","1","1,0.333,0.333,0.333,1,0.333,0.333,0.333,1","1,0.333,0.333,0.333,1,0.333,0.333,0.333,1","1",""
"","html-keyboard-response","149","86778","0.0-149.0","340UGXU9DZN7NEU7ZJ6RZS38DEWUVS","AM2KK02JXXW48","36U4VBVNQOZD8NFWZXWF9CIHKRIURB","","null","<img src=""img/flower1.png"" style=""width:200px; border:14px solid green;"">","null","","","","","","","","",""
"","image-keyboard-response","150","86845","0.0-150.0","340UGXU9DZN7NEU7ZJ6RZS38DEWUVS","AM2KK02JXXW48","36U4VBVNQOZD8NFWZXWF9CIHKRIURB","","66","img/flower3.png","75","67","2","0","3","1","1,0.333,0.333,0.333,1,0.333,0.333,0.333,1","1,0.333,0.333,0.333,1,0.333,0.333,0.333,1","1",""
"","html-keyboard-response","151","87146","0.0-151.0","340UGXU9DZN7NEU7ZJ6RZS38DEWUVS","AM2KK02JXXW48","36U4VBVNQOZD8NFWZXWF9CIHKRIURB","","null","<img src=""img/flower3.png"" style=""width:200px;border:14px solid red;"">","null","","","","","","","","",""
"","image-keyboard-response","152","87197","0.0-152.0","340UGXU9DZN7NEU7ZJ6RZS38DEWUVS","AM2KK02JXXW48","36U4VBVNQOZD8NFWZXWF9CIHKRIURB","","50","img/flower3.png","75","51","2","0","3","1","1,0.333,0.333,0.333,1,0.333,0.333,0.333,1","1,0.333,0.333,0.333,1,0.333,0.333,0.333,1","1",""
"","html-keyboard-response","153","87499","0.0-153.0","340UGXU9DZN7NEU7ZJ6RZS38DEWUVS","AM2KK02JXXW48","36U4VBVNQOZD8NFWZXWF9CIHKRIURB","","null","<img src=""img/flower3.png"" style=""width:200px;border:14px solid red;"">","null","","","","","","","","",""
"","image-keyboard-response","154","87557","0.0-154.0","340UGXU9DZN7NEU7ZJ6RZS38DEWUVS","AM2KK02JXXW48","36U4VBVNQOZD8NFWZXWF9CIHKRIURB","","56","img/flower1.png","75","58","2","1","2","1","1,0.333,0.333,0.333,1,0.333,0.333,0.333,1","1,0.333,0.333,0.333,1,0.333,0.333,0.333,1","1",""
"","html-keyboard-response","155","87857","0.0-155.0","340UGXU9DZN7NEU7ZJ6RZS38DEWUVS","AM2KK02JXXW48","36U4VBVNQOZD8NFWZXWF9CIHKRIURB","","null","<img src=""img/flower1.png"" style=""width:200px; border:14px solid green;"">","null","","","","","","","","",""
"","image-keyboard-response","156","87949","0.0-156.0","340UGXU9DZN7NEU7ZJ6RZS38DEWUVS","AM2KK02JXXW48","36U4VBVNQOZD8NFWZXWF9CIHKRIURB","","91","img/flower4.png","75","92","2","0","1","1","1,0.333,0.333,0.333,1,0.333,0.333,0.333,1","1,0.333,0.333,0.333,1,0.333,0.333,0.333,1","1",""
"","html-keyboard-response","157","88250","0.0-157.0","340UGXU9DZN7NEU7ZJ6RZS38DEWUVS","AM2KK02JXXW48","36U4VBVNQOZD8NFWZXWF9CIHKRIURB","","null","<img src=""img/flower4.png"" style=""width:200px;border:14px solid red;"">","null","","","","","","","","",""
"","image-keyboard-response","158","88302","0.0-158.0","340UGXU9DZN7NEU7ZJ6RZS38DEWUVS","AM2KK02JXXW48","36U4VBVNQOZD8NFWZXWF9CIHKRIURB","","50","img/flower1.png","75","52","2","1","2","1","1,0.333,0.333,0.333,1,0.333,0.333,0.333,1","1,0.333,0.333,0.333,1,0.333,0.333,0.333,1","1",""
"","html-keyboard-response","159","88603","0.0-159.0","340UGXU9DZN7NEU7ZJ6RZS38DEWUVS","AM2KK02JXXW48","36U4VBVNQOZD8NFWZXWF9CIHKRIURB","","null","<img src=""img/flower1.png"" style=""width:200px; border:14px solid green;"">","null","","","","","","","","",""
"","image-keyboard-response","160","88677","0.0-160.0","340UGXU9DZN7NEU7ZJ6RZS38DEWUVS","AM2KK02JXXW48","36U4VBVNQOZD8NFWZXWF9CIHKRIURB","","73","img/flower1.png","75","74","2","1","2","1","1,0.333,0.333,0.333,1,0.333,0.333,0.333,1","1,0.333,0.333,0.333,1,0.333,0.333,0.333,1","1",""
"","html-keyboard-response","161","88978","0.0-161.0","340UGXU9DZN7NEU7ZJ6RZS38DEWUVS","AM2KK02JXXW48","36U4VBVNQOZD8NFWZXWF9CIHKRIURB","","null","<img src=""img/flower1.png"" style=""width:200px; border:14px solid green;"">","null","","","","","","","","",""
"","image-keyboard-response","162","89005","0.0-162.0","340UGXU9DZN7NEU7ZJ6RZS38DEWUVS","AM2KK02JXXW48","36U4VBVNQOZD8NFWZXWF9CIHKRIURB","","26","img/flower1.png","75","27","2","1","2","1","1,0.333,0.333,0.333,1,0.333,0.333,0.333,1","1,0.333,0.333,0.333,1,0.333,0.333,0.333,1","1",""
"","html-keyboard-response","163","89306","0.0-163.0","340UGXU9DZN7NEU7ZJ6RZS38DEWUVS","AM2KK02JXXW48","36U4VBVNQOZD8NFWZXWF9CIHKRIURB","","null","<img src=""img/flower1.png"" style=""width:200px; border:14px solid green;"">","null","","","","","","","","",""
"","image-keyboard-response","164","89349","0.0-164.0","340UGXU9DZN7NEU7ZJ6RZS38DEWUVS","AM2KK02JXXW48","36U4VBVNQOZD8NFWZXWF9CIHKRIURB","","42","img/flower4.png","75","43","2","0","1","1","1,0.333,0.333,0.333,1,0.333,0.333,0.333,1","1,0.333,0.333,0.333,1,0.333,0.333,0.333,1","1",""
"","html-keyboard-response","165","89650","0.0-165.0","340UGXU9DZN7NEU7ZJ6RZS38DEWUVS","AM2KK02JXXW48","36U4VBVNQOZD8NFWZXWF9CIHKRIURB","","null","<img src=""img/flower4.png"" style=""width:200px;border:14px solid red;"">","null","","","","","","","","",""
"","image-keyboard-response","166","89701","0.0-166.0","340UGXU9DZN7NEU7ZJ6RZS38DEWUVS","AM2KK02JXXW48","36U4VBVNQOZD8NFWZXWF9CIHKRIURB","","50","img/flower1.png","75","51","2","1","2","1","1,0.333,0.333,0.333,1,0.333,0.333,0.333,1","1,0.333,0.333,0.333,1,0.333,0.333,0.333,1","1",""
"","html-keyboard-response","167","90003","0.0-167.0","340UGXU9DZN7NEU7ZJ6RZS38DEWUVS","AM2KK02JXXW48","36U4VBVNQOZD8NFWZXWF9CIHKRIURB","","null","<img src=""img/flower1.png"" style=""width:200px; border:14px solid green;"">","null","","","","","","","","",""
"","image-keyboard-response","168","90029","0.0-168.0","340UGXU9DZN7NEU7ZJ6RZS38DEWUVS","AM2KK02JXXW48","36U4VBVNQOZD8NFWZXWF9CIHKRIURB","","25","img/flower1.png","75","26","2","1","2","1","1,0.333,0.333,0.333,1,0.333,0.333,0.333,1","1,0.333,0.333,0.333,1,0.333,0.333,0.333,1","1",""
"","html-keyboard-response","169","90331","0.0-169.0","340UGXU9DZN7NEU7ZJ6RZS38DEWUVS","AM2KK02JXXW48","36U4VBVNQOZD8NFWZXWF9CIHKRIURB","","null","<img src=""img/flower1.png"" style=""width:200px; border:14px solid green;"">","null","","","","","","","","",""
"","image-keyboard-response","170","90685","0.0-170.0","340UGXU9DZN7NEU7ZJ6RZS38DEWUVS","AM2KK02JXXW48","36U4VBVNQOZD8NFWZXWF9CIHKRIURB","","354","img/flower1.png","75","354","2","1","2","1","1,0.333,0.333,0.333,1,0.333,0.333,0.333,1","1,0.333,0.333,0.333,1,0.333,0.333,0.333,1","1",""
"","html-keyboard-response","171","90986","0.0-171.0","340UGXU9DZN7NEU7ZJ6RZS38DEWUVS","AM2KK02JXXW48","36U4VBVNQOZD8NFWZXWF9CIHKRIURB","","null","<img src=""img/flower1.png"" style=""width:200px; border:14px solid green;"">","null","","","","","","","","",""
"","image-keyboard-response","172","91101","0.0-172.0","340UGXU9DZN7NEU7ZJ6RZS38DEWUVS","AM2KK02JXXW48","36U4VBVNQOZD8NFWZXWF9CIHKRIURB","","114","img/flower1.png","75","115","2","1","2","1","1,0.333,0.333,0.333,1,0.333,0.333,0.333,1","1,0.333,0.333,0.333,1,0.333,0.333,0.333,1","1",""
"","html-keyboard-response","173","91403","0.0-173.0","340UGXU9DZN7NEU7ZJ6RZS38DEWUVS","AM2KK02JXXW48","36U4VBVNQOZD8NFWZXWF9CIHKRIURB","","null","<img src=""img/flower1.png"" style=""width:200px; border:14px solid green;"">","null","","","","","","","","",""
"","image-keyboard-response","174","91613","0.0-174.0","340UGXU9DZN7NEU7ZJ6RZS38DEWUVS","AM2KK02JXXW48","36U4VBVNQOZD8NFWZXWF9CIHKRIURB","","209","img/flower3.png","75","210","2","0","3","1","1,0.333,0.333,0.333,1,0.333,0.333,0.333,1","1,0.333,0.333,0.333,1,0.333,0.333,0.333,1","1",""
"","html-keyboard-response","175","91914","0.0-175.0","340UGXU9DZN7NEU7ZJ6RZS38DEWUVS","AM2KK02JXXW48","36U4VBVNQOZD8NFWZXWF9CIHKRIURB","","null","<img src=""img/flower3.png"" style=""width:200px;border:14px solid red;"">","null","","","","","","","","",""
"","image-keyboard-response","176","92749","0.0-176.0","340UGXU9DZN7NEU7ZJ6RZS38DEWUVS","AM2KK02JXXW48","36U4VBVNQOZD8NFWZXWF9CIHKRIURB","","834","img/flower4.png","76","835","3","0","1","1","1,0.333,0.333,0.333,1,0.333,0.333,0.333,1","1,0.333,0.333,0.333,1,0.333,0.333,0.333,1","1",""
"","html-keyboard-response","177","93050","0.0-177.0","340UGXU9DZN7NEU7ZJ6RZS38DEWUVS","AM2KK02JXXW48","36U4VBVNQOZD8NFWZXWF9CIHKRIURB","","null","<img src=""img/flower4.png"" style=""width:200px;border:14px solid red;"">","null","","","","","","","","",""
"","image-keyboard-response","178","93405","0.0-178.0","340UGXU9DZN7NEU7ZJ6RZS38DEWUVS","AM2KK02JXXW48","36U4VBVNQOZD8NFWZXWF9CIHKRIURB","","354","img/flower4.png","76","355","3","1","1","1","1,0.333,0.333,0.333,1,0.333,0.333,0.333,1","1,0.333,0.333,0.333,1,0.333,0.333,0.333,1","1",""
"","html-keyboard-response","179","93733","0.0-179.0","340UGXU9DZN7NEU7ZJ6RZS38DEWUVS","AM2KK02JXXW48","36U4VBVNQOZD8NFWZXWF9CIHKRIURB","","null","<img src=""img/flower4.png"" style=""width:200px; border:14px solid green;"">","null","","","","","","","","",""
"","image-keyboard-response","180","94109","0.0-180.0","340UGXU9DZN7NEU7ZJ6RZS38DEWUVS","AM2KK02JXXW48","36U4VBVNQOZD8NFWZXWF9CIHKRIURB","","375","img/flower4.png","76","376","3","0","1","1","1,0.333,0.333,0.333,1,0.333,0.333,0.333,1","1,0.333,0.333,0.333,1,0.333,0.333,0.333,1","1",""
"","html-keyboard-response","181","94415","0.0-181.0","340UGXU9DZN7NEU7ZJ6RZS38DEWUVS","AM2KK02JXXW48","36U4VBVNQOZD8NFWZXWF9CIHKRIURB","","null","<img src=""img/flower4.png"" style=""width:200px;border:14px solid red;"">","null","","","","","","","","",""
"","html-keyboard-response","182","97279","0.0-182.0","340UGXU9DZN7NEU7ZJ6RZS38DEWUVS","AM2KK02JXXW48","36U4VBVNQOZD8NFWZXWF9CIHKRIURB","","","","","","","","","","","","",""
"","image-keyboard-response","183","98414","0.0-183.0","340UGXU9DZN7NEU7ZJ6RZS38DEWUVS","AM2KK02JXXW48","36U4VBVNQOZD8NFWZXWF9CIHKRIURB","","1133","img/flower6.png","74","1135","1","0","3","2","1,0,0,1,1,0,1,0,1","0,0,1,1,0,1,0,1,1","2",""
"","html-keyboard-response","184","98714","0.0-184.0","340UGXU9DZN7NEU7ZJ6RZS38DEWUVS","AM2KK02JXXW48","36U4VBVNQOZD8NFWZXWF9CIHKRIURB","","null","<img src=""img/flower6.png"" style=""width:200px;border:14px solid red;"">","null","","","","","","","","",""
"","image-keyboard-response","185","99293","0.0-185.0","340UGXU9DZN7NEU7ZJ6RZS38DEWUVS","AM2KK02JXXW48","36U4VBVNQOZD8NFWZXWF9CIHKRIURB","","578","img/flower6.png","75","579","2","1","3","2","1,0,0,1,1,0,1,0,1","0,0,1,1,0,1,0,1,1","2",""
"","html-keyboard-response","186","99598","0.0-186.0","340UGXU9DZN7NEU7ZJ6RZS38DEWUVS","AM2KK02JXXW48","36U4VBVNQOZD8NFWZXWF9CIHKRIURB","","null","<img src=""img/flower6.png"" style=""width:200px; border:14px solid green;"">","null","","","","","","","","",""
"","image-keyboard-response","187","100639","0.0-187.0","340UGXU9DZN7NEU7ZJ6RZS38DEWUVS","AM2KK02JXXW48","36U4VBVNQOZD8NFWZXWF9CIHKRIURB","","1040","img/flower5.png","74","1041","1","1","2","2","1,0,0,1,1,0,1,0,1","0,0,1,1,0,1,0,1,1","2",""
"","html-keyboard-response","188","100941","0.0-188.0","340UGXU9DZN7NEU7ZJ6RZS38DEWUVS","AM2KK02JXXW48","36U4VBVNQOZD8NFWZXWF9CIHKRIURB","","null","<img src=""img/flower5.png"" style=""width:200px; border:14px solid green;"">","null","","","","","","","","",""
"","image-keyboard-response","189","101429","0.0-189.0","340UGXU9DZN7NEU7ZJ6RZS38DEWUVS","AM2KK02JXXW48","36U4VBVNQOZD8NFWZXWF9CIHKRIURB","","487","img/flower5.png","74","488","1","1","2","2","1,0,0,1,1,0,1,0,1","0,0,1,1,0,1,0,1,1","2",""
"","html-keyboard-response","190","101731","0.0-190.0","340UGXU9DZN7NEU7ZJ6RZS38DEWUVS","AM2KK02JXXW48","36U4VBVNQOZD8NFWZXWF9CIHKRIURB","","null","<img src=""img/flower5.png"" style=""width:200px; border:14px solid green;"">","null","","","","","","","","",""
"","image-keyboard-response","191","102461","0.0-191.0","340UGXU9DZN7NEU7ZJ6RZS38DEWUVS","AM2KK02JXXW48","36U4VBVNQOZD8NFWZXWF9CIHKRIURB","","729","img/flower6.png","75","730","2","1","3","2","1,0,0,1,1,0,1,0,1","0,0,1,1,0,1,0,1,1","2",""
"","html-keyboard-response","192","102786","0.0-192.0","340UGXU9DZN7NEU7ZJ6RZS38DEWUVS","AM2KK02JXXW48","36U4VBVNQOZD8NFWZXWF9CIHKRIURB","","null","<img src=""img/flower6.png"" style=""width:200px; border:14px solid green;"">","null","","","","","","","","",""
"","image-keyboard-response","193","103149","0.0-193.0","340UGXU9DZN7NEU7ZJ6RZS38DEWUVS","AM2KK02JXXW48","36U4VBVNQOZD8NFWZXWF9CIHKRIURB","","363","img/flower6.png","75","363","2","1","3","2","1,0,0,1,1,0,1,0,1","0,0,1,1,0,1,0,1,1","2",""
"","html-keyboard-response","194","103451","0.0-194.0","340UGXU9DZN7NEU7ZJ6RZS38DEWUVS","AM2KK02JXXW48","36U4VBVNQOZD8NFWZXWF9CIHKRIURB","","null","<img src=""img/flower6.png"" style=""width:200px; border:14px solid green;"">","null","","","","","","","","",""
"","image-keyboard-response","195","103965","0.0-195.0","340UGXU9DZN7NEU7ZJ6RZS38DEWUVS","AM2KK02JXXW48","36U4VBVNQOZD8NFWZXWF9CIHKRIURB","","513","img/flower5.png","74","514","1","1","2","2","1,0,0,1,1,0,1,0,1","0,0,1,1,0,1,0,1,1","2",""
"","html-keyboard-response","196","104267","0.0-196.0","340UGXU9DZN7NEU7ZJ6RZS38DEWUVS","AM2KK02JXXW48","36U4VBVNQOZD8NFWZXWF9CIHKRIURB","","null","<img src=""img/flower5.png"" style=""width:200px; border:14px solid green;"">","null","","","","","","","","",""
"","image-keyboard-response","197","104613","0.0-197.0","340UGXU9DZN7NEU7ZJ6RZS38DEWUVS","AM2KK02JXXW48","36U4VBVNQOZD8NFWZXWF9CIHKRIURB","","345","img/flower5.png","74","346","1","1","2","2","1,0,0,1,1,0,1,0,1","0,0,1,1,0,1,0,1,1","2",""
"","html-keyboard-response","198","104915","0.0-198.0","340UGXU9DZN7NEU7ZJ6RZS38DEWUVS","AM2KK02JXXW48","36U4VBVNQOZD8NFWZXWF9CIHKRIURB","","null","<img src=""img/flower5.png"" style=""width:200px; border:14px solid green;"">","null","","","","","","","","",""
"","image-keyboard-response","199","105237","0.0-199.0","340UGXU9DZN7NEU7ZJ6RZS38DEWUVS","AM2KK02JXXW48","36U4VBVNQOZD8NFWZXWF9CIHKRIURB","","321","img/flower5.png","74","322","1","1","2","2","1,0,0,1,1,0,1,0,1","0,0,1,1,0,1,0,1,1","2",""
"","html-keyboard-response","200","105539","0.0-200.0","340UGXU9DZN7NEU7ZJ6RZS38DEWUVS","AM2KK02JXXW48","36U4VBVNQOZD8NFWZXWF9CIHKRIURB","","null","<img src=""img/flower5.png"" style=""width:200px; border:14px solid green;"">","null","","","","","","","","",""
"","image-keyboard-response","201","106349","0.0-201.0","340UGXU9DZN7NEU7ZJ6RZS38DEWUVS","AM2KK02JXXW48","36U4VBVNQOZD8NFWZXWF9CIHKRIURB","","809","img/flower2.png","76","810","3","1","1","2","1,0,0,1,1,0,1,0,1","0,0,1,1,0,1,0,1,1","2",""
"","html-keyboard-response","202","106651","0.0-202.0","340UGXU9DZN7NEU7ZJ6RZS38DEWUVS","AM2KK02JXXW48","36U4VBVNQOZD8NFWZXWF9CIHKRIURB","","null","<img src=""img/flower2.png"" style=""width:200px; border:14px solid green;"">","null","","","","","","","","",""
"","image-keyboard-response","203","108117","0.0-203.0","340UGXU9DZN7NEU7ZJ6RZS38DEWUVS","AM2KK02JXXW48","36U4VBVNQOZD8NFWZXWF9CIHKRIURB","","1465","img/flower5.png","74","1466","1","1","2","2","1,0,0,1,1,0,1,0,1","0,0,1,1,0,1,0,1,1","2",""
"","html-keyboard-response","204","108418","0.0-204.0","340UGXU9DZN7NEU7ZJ6RZS38DEWUVS","AM2KK02JXXW48","36U4VBVNQOZD8NFWZXWF9CIHKRIURB","","null","<img src=""img/flower5.png"" style=""width:200px; border:14px solid green;"">","null","","","","","","","","",""
"","image-keyboard-response","205","108773","0.0-205.0","340UGXU9DZN7NEU7ZJ6RZS38DEWUVS","AM2KK02JXXW48","36U4VBVNQOZD8NFWZXWF9CIHKRIURB","","354","img/flower5.png","74","355","1","1","2","2","1,0,0,1,1,0,1,0,1","0,0,1,1,0,1,0,1,1","2",""
"","html-keyboard-response","206","109075","0.0-206.0","340UGXU9DZN7NEU7ZJ6RZS38DEWUVS","AM2KK02JXXW48","36U4VBVNQOZD8NFWZXWF9CIHKRIURB","","null","<img src=""img/flower5.png"" style=""width:200px; border:14px solid green;"">","null","","","","","","","","",""
"","image-keyboard-response","207","109413","0.0-207.0","340UGXU9DZN7NEU7ZJ6RZS38DEWUVS","AM2KK02JXXW48","36U4VBVNQOZD8NFWZXWF9CIHKRIURB","","337","img/flower5.png","74","338","1","1","2","2","1,0,0,1,1,0,1,0,1","0,0,1,1,0,1,0,1,1","2",""
"","html-keyboard-response","208","109714","0.0-208.0","340UGXU9DZN7NEU7ZJ6RZS38DEWUVS","AM2KK02JXXW48","36U4VBVNQOZD8NFWZXWF9CIHKRIURB","","null","<img src=""img/flower5.png"" style=""width:200px; border:14px solid green;"">","null","","","","","","","","",""
"","image-keyboard-response","209","110605","0.0-209.0","340UGXU9DZN7NEU7ZJ6RZS38DEWUVS","AM2KK02JXXW48","36U4VBVNQOZD8NFWZXWF9CIHKRIURB","","890","img/flower6.png","75","890","2","1","3","2","1,0,0,1,1,0,1,0,1","0,0,1,1,0,1,0,1,1","2",""
"","html-keyboard-response","210","110906","0.0-210.0","340UGXU9DZN7NEU7ZJ6RZS38DEWUVS","AM2KK02JXXW48","36U4VBVNQOZD8NFWZXWF9CIHKRIURB","","null","<img src=""img/flower6.png"" style=""width:200px; border:14px solid green;"">","null","","","","","","","","",""
"","image-keyboard-response","211","111261","0.0-211.0","340UGXU9DZN7NEU7ZJ6RZS38DEWUVS","AM2KK02JXXW48","36U4VBVNQOZD8NFWZXWF9CIHKRIURB","","354","img/flower6.png","75","355","2","1","3","2","1,0,0,1,1,0,1,0,1","0,0,1,1,0,1,0,1,1","2",""
"","html-keyboard-response","212","111563","0.0-212.0","340UGXU9DZN7NEU7ZJ6RZS38DEWUVS","AM2KK02JXXW48","36U4VBVNQOZD8NFWZXWF9CIHKRIURB","","null","<img src=""img/flower6.png"" style=""width:200px; border:14px solid green;"">","null","","","","","","","","",""
"","image-keyboard-response","213","112581","0.0-213.0","340UGXU9DZN7NEU7ZJ6RZS38DEWUVS","AM2KK02JXXW48","36U4VBVNQOZD8NFWZXWF9CIHKRIURB","","1017","img/flower2.png","76","1018","3","1","1","2","1,0,0,1,1,0,1,0,1","0,0,1,1,0,1,0,1,1","2",""
"","html-keyboard-response","214","112883","0.0-214.0","340UGXU9DZN7NEU7ZJ6RZS38DEWUVS","AM2KK02JXXW48","36U4VBVNQOZD8NFWZXWF9CIHKRIURB","","null","<img src=""img/flower2.png"" style=""width:200px; border:14px solid green;"">","null","","","","","","","","",""
"","image-keyboard-response","215","113253","0.0-215.0","340UGXU9DZN7NEU7ZJ6RZS38DEWUVS","AM2KK02JXXW48","36U4VBVNQOZD8NFWZXWF9CIHKRIURB","","369","img/flower2.png","76","370","3","1","1","2","1,0,0,1,1,0,1,0,1","0,0,1,1,0,1,0,1,1","2",""
"","html-keyboard-response","216","113555","0.0-216.0","340UGXU9DZN7NEU7ZJ6RZS38DEWUVS","AM2KK02JXXW48","36U4VBVNQOZD8NFWZXWF9CIHKRIURB","","null","<img src=""img/flower2.png"" style=""width:200px; border:14px solid green;"">","null","","","","","","","","",""
"","image-keyboard-response","217","114448","0.0-217.0","340UGXU9DZN7NEU7ZJ6RZS38DEWUVS","AM2KK02JXXW48","36U4VBVNQOZD8NFWZXWF9CIHKRIURB","","889","img/flower5.png","75","890","2","0","2","2","1,0,0,1,1,0,1,0,1","0,0,1,1,0,1,0,1,1","2",""
"","html-keyboard-response","218","114749","0.0-218.0","340UGXU9DZN7NEU7ZJ6RZS38DEWUVS","AM2KK02JXXW48","36U4VBVNQOZD8NFWZXWF9CIHKRIURB","","null","<img src=""img/flower5.png"" style=""width:200px;border:14px solid red;"">","null","","","","","","","","",""
"","image-keyboard-response","219","115496","0.0-219.0","340UGXU9DZN7NEU7ZJ6RZS38DEWUVS","AM2KK02JXXW48","36U4VBVNQOZD8NFWZXWF9CIHKRIURB","","746","img/flower6.png","75","747","2","1","3","2","1,0,0,1,1,0,1,0,1","0,0,1,1,0,1,0,1,1","2",""
"","html-keyboard-response","220","115798","0.0-220.0","340UGXU9DZN7NEU7ZJ6RZS38DEWUVS","AM2KK02JXXW48","36U4VBVNQOZD8NFWZXWF9CIHKRIURB","","null","<img src=""img/flower6.png"" style=""width:200px; border:14px solid green;"">","null","","","","","","","","",""
"","image-keyboard-response","221","116872","0.0-221.0","340UGXU9DZN7NEU7ZJ6RZS38DEWUVS","AM2KK02JXXW48","36U4VBVNQOZD8NFWZXWF9CIHKRIURB","","1073","img/flower2.png","76","1074","3","1","1","2","1,0,0,1,1,0,1,0,1","0,0,1,1,0,1,0,1,1","2",""
"","html-keyboard-response","222","117174","0.0-222.0","340UGXU9DZN7NEU7ZJ6RZS38DEWUVS","AM2KK02JXXW48","36U4VBVNQOZD8NFWZXWF9CIHKRIURB","","null","<img src=""img/flower2.png"" style=""width:200px; border:14px solid green;"">","null","","","","","","","","",""
"","image-keyboard-response","223","117968","0.0-223.0","340UGXU9DZN7NEU7ZJ6RZS38DEWUVS","AM2KK02JXXW48","36U4VBVNQOZD8NFWZXWF9CIHKRIURB","","793","img/flower5.png","74","794","1","1","2","2","1,0,0,1,1,0,1,0,1","0,0,1,1,0,1,0,1,1","2",""
"","html-keyboard-response","224","118269","0.0-224.0","340UGXU9DZN7NEU7ZJ6RZS38DEWUVS","AM2KK02JXXW48","36U4VBVNQOZD8NFWZXWF9CIHKRIURB","","null","<img src=""img/flower5.png"" style=""width:200px; border:14px solid green;"">","null","","","","","","","","",""
"","image-keyboard-response","225","118608","0.0-225.0","340UGXU9DZN7NEU7ZJ6RZS38DEWUVS","AM2KK02JXXW48","36U4VBVNQOZD8NFWZXWF9CIHKRIURB","","338","img/flower5.png","74","339","1","1","2","2","1,0,0,1,1,0,1,0,1","0,0,1,1,0,1,0,1,1","2",""
"","html-keyboard-response","226","118909","0.0-226.0","340UGXU9DZN7NEU7ZJ6RZS38DEWUVS","AM2KK02JXXW48","36U4VBVNQOZD8NFWZXWF9CIHKRIURB","","null","<img src=""img/flower5.png"" style=""width:200px; border:14px solid green;"">","null","","","","","","","","",""
"","image-keyboard-response","227","119944","0.0-227.0","340UGXU9DZN7NEU7ZJ6RZS38DEWUVS","AM2KK02JXXW48","36U4VBVNQOZD8NFWZXWF9CIHKRIURB","","1034","img/flower6.png","75","1035","2","1","3","2","1,0,0,1,1,0,1,0,1","0,0,1,1,0,1,0,1,1","2",""
"","html-keyboard-response","228","120246","0.0-228.0","340UGXU9DZN7NEU7ZJ6RZS38DEWUVS","AM2KK02JXXW48","36U4VBVNQOZD8NFWZXWF9CIHKRIURB","","null","<img src=""img/flower6.png"" style=""width:200px; border:14px solid green;"">","null","","","","","","","","",""
"","image-keyboard-response","229","121032","0.0-229.0","340UGXU9DZN7NEU7ZJ6RZS38DEWUVS","AM2KK02JXXW48","36U4VBVNQOZD8NFWZXWF9CIHKRIURB","","785","img/flower5.png","74","786","1","1","2","2","1,0,0,1,1,0,1,0,1","0,0,1,1,0,1,0,1,1","2",""
"","html-keyboard-response","230","121334","0.0-230.0","340UGXU9DZN7NEU7ZJ6RZS38DEWUVS","AM2KK02JXXW48","36U4VBVNQOZD8NFWZXWF9CIHKRIURB","","null","<img src=""img/flower5.png"" style=""width:200px; border:14px solid green;"">","null","","","","","","","","",""
"","image-keyboard-response","231","121984","0.0-231.0","340UGXU9DZN7NEU7ZJ6RZS38DEWUVS","AM2KK02JXXW48","36U4VBVNQOZD8NFWZXWF9CIHKRIURB","","649","img/flower2.png","76","650","3","1","1","2","1,0,0,1,1,0,1,0,1","0,0,1,1,0,1,0,1,1","2",""
"","html-keyboard-response","232","122308","0.0-232.0","340UGXU9DZN7NEU7ZJ6RZS38DEWUVS","AM2KK02JXXW48","36U4VBVNQOZD8NFWZXWF9CIHKRIURB","","null","<img src=""img/flower2.png"" style=""width:200px; border:14px solid green;"">","null","","","","","","","","",""
"","image-keyboard-response","233","123576","0.0-233.0","340UGXU9DZN7NEU7ZJ6RZS38DEWUVS","AM2KK02JXXW48","36U4VBVNQOZD8NFWZXWF9CIHKRIURB","","1267","img/flower6.png","75","1268","2","1","3","2","1,0,0,1,1,0,1,0,1","0,0,1,1,0,1,0,1,1","2",""
"","html-keyboard-response","234","123878","0.0-234.0","340UGXU9DZN7NEU7ZJ6RZS38DEWUVS","AM2KK02JXXW48","36U4VBVNQOZD8NFWZXWF9CIHKRIURB","","null","<img src=""img/flower6.png"" style=""width:200px; border:14px solid green;"">","null","","","","","","","","",""
"","image-keyboard-response","235","124640","0.0-235.0","340UGXU9DZN7NEU7ZJ6RZS38DEWUVS","AM2KK02JXXW48","36U4VBVNQOZD8NFWZXWF9CIHKRIURB","","761","img/flower5.png","74","762","1","1","2","2","1,0,0,1,1,0,1,0,1","0,0,1,1,0,1,0,1,1","2",""
"","html-keyboard-response","236","124942","0.0-236.0","340UGXU9DZN7NEU7ZJ6RZS38DEWUVS","AM2KK02JXXW48","36U4VBVNQOZD8NFWZXWF9CIHKRIURB","","null","<img src=""img/flower5.png"" style=""width:200px; border:14px solid green;"">","null","","","","","","","","",""
"","image-keyboard-response","237","125636","0.0-237.0","340UGXU9DZN7NEU7ZJ6RZS38DEWUVS","AM2KK02JXXW48","36U4VBVNQOZD8NFWZXWF9CIHKRIURB","","693","img/flower2.png","76","694","3","1","1","2","1,0,0,1,1,0,1,0,1","0,0,1,1,0,1,0,1,1","2",""
"","html-keyboard-response","238","125938","0.0-238.0","340UGXU9DZN7NEU7ZJ6RZS38DEWUVS","AM2KK02JXXW48","36U4VBVNQOZD8NFWZXWF9CIHKRIURB","","null","<img src=""img/flower2.png"" style=""width:200px; border:14px solid green;"">","null","","","","","","","","",""
"","image-keyboard-response","239","127712","0.0-239.0","340UGXU9DZN7NEU7ZJ6RZS38DEWUVS","AM2KK02JXXW48","36U4VBVNQOZD8NFWZXWF9CIHKRIURB","","1773","img/flower5.png","74","1774","1","1","2","2","1,0,0,1,1,0,1,0,1","0,0,1,1,0,1,0,1,1","2",""
"","html-keyboard-response","240","128014","0.0-240.0","340UGXU9DZN7NEU7ZJ6RZS38DEWUVS","AM2KK02JXXW48","36U4VBVNQOZD8NFWZXWF9CIHKRIURB","","null","<img src=""img/flower5.png"" style=""width:200px; border:14px solid green;"">","null","","","","","","","","",""
"","image-keyboard-response","241","128672","0.0-241.0","340UGXU9DZN7NEU7ZJ6RZS38DEWUVS","AM2KK02JXXW48","36U4VBVNQOZD8NFWZXWF9CIHKRIURB","","657","img/flower2.png","76","658","3","1","1","2","1,0,0,1,1,0,1,0,1","0,0,1,1,0,1,0,1,1","2",""
"","html-keyboard-response","242","128974","0.0-242.0","340UGXU9DZN7NEU7ZJ6RZS38DEWUVS","AM2KK02JXXW48","36U4VBVNQOZD8NFWZXWF9CIHKRIURB","","null","<img src=""img/flower2.png"" style=""width:200px; border:14px solid green;"">","null","","","","","","","","",""
"","image-keyboard-response","243","129416","0.0-243.0","340UGXU9DZN7NEU7ZJ6RZS38DEWUVS","AM2KK02JXXW48","36U4VBVNQOZD8NFWZXWF9CIHKRIURB","","441","img/flower2.png","76","442","3","1","1","2","1,0,0,1,1,0,1,0,1","0,0,1,1,0,1,0,1,1","2",""
"","html-keyboard-response","244","129718","0.0-244.0","340UGXU9DZN7NEU7ZJ6RZS38DEWUVS","AM2KK02JXXW48","36U4VBVNQOZD8NFWZXWF9CIHKRIURB","","null","<img src=""img/flower2.png"" style=""width:200px; border:14px solid green;"">","null","","","","","","","","",""
"","image-keyboard-response","245","130272","0.0-245.0","340UGXU9DZN7NEU7ZJ6RZS38DEWUVS","AM2KK02JXXW48","36U4VBVNQOZD8NFWZXWF9CIHKRIURB","","553","img/flower6.png","75","555","2","1","3","2","1,0,0,1,1,0,1,0,1","0,0,1,1,0,1,0,1,1","2",""
"","html-keyboard-response","246","130574","0.0-246.0","340UGXU9DZN7NEU7ZJ6RZS38DEWUVS","AM2KK02JXXW48","36U4VBVNQOZD8NFWZXWF9CIHKRIURB","","null","<img src=""img/flower6.png"" style=""width:200px; border:14px solid green;"">","null","","","","","","","","",""
"","image-keyboard-response","247","131592","0.0-247.0","340UGXU9DZN7NEU7ZJ6RZS38DEWUVS","AM2KK02JXXW48","36U4VBVNQOZD8NFWZXWF9CIHKRIURB","","1017","img/flower2.png","76","1018","3","1","1","2","1,0,0,1,1,0,1,0,1","0,0,1,1,0,1,0,1,1","2",""
"","html-keyboard-response","248","131893","0.0-248.0","340UGXU9DZN7NEU7ZJ6RZS38DEWUVS","AM2KK02JXXW48","36U4VBVNQOZD8NFWZXWF9CIHKRIURB","","null","<img src=""img/flower2.png"" style=""width:200px; border:14px solid green;"">","null","","","","","","","","",""
"","image-keyboard-response","249","132504","0.0-249.0","340UGXU9DZN7NEU7ZJ6RZS38DEWUVS","AM2KK02JXXW48","36U4VBVNQOZD8NFWZXWF9CIHKRIURB","","610","img/flower6.png","75","611","2","1","3","2","1,0,0,1,1,0,1,0,1","0,0,1,1,0,1,0,1,1","2",""
"","html-keyboard-response","250","132806","0.0-250.0","340UGXU9DZN7NEU7ZJ6RZS38DEWUVS","AM2KK02JXXW48","36U4VBVNQOZD8NFWZXWF9CIHKRIURB","","null","<img src=""img/flower6.png"" style=""width:200px; border:14px solid green;"">","null","","","","","","","","",""
"","image-keyboard-response","251","133536","0.0-251.0","340UGXU9DZN7NEU7ZJ6RZS38DEWUVS","AM2KK02JXXW48","36U4VBVNQOZD8NFWZXWF9CIHKRIURB","","729","img/flower2.png","76","730","3","1","1","2","1,0,0,1,1,0,1,0,1","0,0,1,1,0,1,0,1,1","2",""
"","html-keyboard-response","252","133838","0.0-252.0","340UGXU9DZN7NEU7ZJ6RZS38DEWUVS","AM2KK02JXXW48","36U4VBVNQOZD8NFWZXWF9CIHKRIURB","","null","<img src=""img/flower2.png"" style=""width:200px; border:14px solid green;"">","null","","","","","","","","",""
"","image-keyboard-response","253","134216","0.0-253.0","340UGXU9DZN7NEU7ZJ6RZS38DEWUVS","AM2KK02JXXW48","36U4VBVNQOZD8NFWZXWF9CIHKRIURB","","377","img/flower2.png","76","378","3","1","1","2","1,0,0,1,1,0,1,0,1","0,0,1,1,0,1,0,1,1","2",""
"","html-keyboard-response","254","134517","0.0-254.0","340UGXU9DZN7NEU7ZJ6RZS38DEWUVS","AM2KK02JXXW48","36U4VBVNQOZD8NFWZXWF9CIHKRIURB","","null","<img src=""img/flower2.png"" style=""width:200px; border:14px solid green;"">","null","","","","","","","","",""
"","image-keyboard-response","255","134886","0.0-255.0","340UGXU9DZN7NEU7ZJ6RZS38DEWUVS","AM2KK02JXXW48","36U4VBVNQOZD8NFWZXWF9CIHKRIURB","","368","img/flower2.png","76","369","3","1","1","2","1,0,0,1,1,0,1,0,1","0,0,1,1,0,1,0,1,1","2",""
"","html-keyboard-response","256","135188","0.0-256.0","340UGXU9DZN7NEU7ZJ6RZS38DEWUVS","AM2KK02JXXW48","36U4VBVNQOZD8NFWZXWF9CIHKRIURB","","null","<img src=""img/flower2.png"" style=""width:200px; border:14px solid green;"">","null","","","","","","","","",""
"","image-keyboard-response","257","135840","0.0-257.0","340UGXU9DZN7NEU7ZJ6RZS38DEWUVS","AM2KK02JXXW48","36U4VBVNQOZD8NFWZXWF9CIHKRIURB","","651","img/flower6.png","75","652","2","1","3","2","1,0,0,1,1,0,1,0,1","0,0,1,1,0,1,0,1,1","2",""
"","html-keyboard-response","258","136142","0.0-258.0","340UGXU9DZN7NEU7ZJ6RZS38DEWUVS","AM2KK02JXXW48","36U4VBVNQOZD8NFWZXWF9CIHKRIURB","","null","<img src=""img/flower6.png"" style=""width:200px; border:14px solid green;"">","null","","","","","","","","",""
"","image-keyboard-response","259","137152","0.0-259.0","340UGXU9DZN7NEU7ZJ6RZS38DEWUVS","AM2KK02JXXW48","36U4VBVNQOZD8NFWZXWF9CIHKRIURB","","1009","img/flower5.png","74","1010","1","1","2","2","1,0,0,1,1,0,1,0,1","0,0,1,1,0,1,0,1,1","2",""
"","html-keyboard-response","260","137454","0.0-260.0","340UGXU9DZN7NEU7ZJ6RZS38DEWUVS","AM2KK02JXXW48","36U4VBVNQOZD8NFWZXWF9CIHKRIURB","","null","<img src=""img/flower5.png"" style=""width:200px; border:14px solid green;"">","null","","","","","","","","",""
"","image-keyboard-response","261","138096","0.0-261.0","340UGXU9DZN7NEU7ZJ6RZS38DEWUVS","AM2KK02JXXW48","36U4VBVNQOZD8NFWZXWF9CIHKRIURB","","641","img/flower6.png","75","642","2","1","3","2","1,0,0,1,1,0,1,0,1","0,0,1,1,0,1,0,1,1","2",""
"","html-keyboard-response","262","138397","0.0-262.0","340UGXU9DZN7NEU7ZJ6RZS38DEWUVS","AM2KK02JXXW48","36U4VBVNQOZD8NFWZXWF9CIHKRIURB","","null","<img src=""img/flower6.png"" style=""width:200px; border:14px solid green;"">","null","","","","","","","","",""
"","image-keyboard-response","263","138984","0.0-263.0","340UGXU9DZN7NEU7ZJ6RZS38DEWUVS","AM2KK02JXXW48","36U4VBVNQOZD8NFWZXWF9CIHKRIURB","","586","img/flower5.png","74","587","1","1","2","2","1,0,0,1,1,0,1,0,1","0,0,1,1,0,1,0,1,1","2",""
"","html-keyboard-response","264","139286","0.0-264.0","340UGXU9DZN7NEU7ZJ6RZS38DEWUVS","AM2KK02JXXW48","36U4VBVNQOZD8NFWZXWF9CIHKRIURB","","null","<img src=""img/flower5.png"" style=""width:200px; border:14px solid green;"">","null","","","","","","","","",""
"","image-keyboard-response","265","140024","0.0-265.0","340UGXU9DZN7NEU7ZJ6RZS38DEWUVS","AM2KK02JXXW48","36U4VBVNQOZD8NFWZXWF9CIHKRIURB","","737","img/flower2.png","76","738","3","1","1","2","1,0,0,1,1,0,1,0,1","0,0,1,1,0,1,0,1,1","2",""
"","html-keyboard-response","266","140326","0.0-266.0","340UGXU9DZN7NEU7ZJ6RZS38DEWUVS","AM2KK02JXXW48","36U4VBVNQOZD8NFWZXWF9CIHKRIURB","","null","<img src=""img/flower2.png"" style=""width:200px; border:14px solid green;"">","null","","","","","","","","",""
"","image-keyboard-response","267","141272","0.0-267.0","340UGXU9DZN7NEU7ZJ6RZS38DEWUVS","AM2KK02JXXW48","36U4VBVNQOZD8NFWZXWF9CIHKRIURB","","945","img/flower6.png","75","946","2","1","3","2","1,0,0,1,1,0,1,0,1","0,0,1,1,0,1,0,1,1","2",""
"","html-keyboard-response","268","141573","0.0-268.0","340UGXU9DZN7NEU7ZJ6RZS38DEWUVS","AM2KK02JXXW48","36U4VBVNQOZD8NFWZXWF9CIHKRIURB","","null","<img src=""img/flower6.png"" style=""width:200px; border:14px solid green;"">","null","","","","","","","","",""
"","image-keyboard-response","269","142536","0.0-269.0","340UGXU9DZN7NEU7ZJ6RZS38DEWUVS","AM2KK02JXXW48","36U4VBVNQOZD8NFWZXWF9CIHKRIURB","","962","img/flower2.png","76","963","3","1","1","2","1,0,0,1,1,0,1,0,1","0,0,1,1,0,1,0,1,1","2",""
"","html-keyboard-response","270","142838","0.0-270.0","340UGXU9DZN7NEU7ZJ6RZS38DEWUVS","AM2KK02JXXW48","36U4VBVNQOZD8NFWZXWF9CIHKRIURB","","null","<img src=""img/flower2.png"" style=""width:200px; border:14px solid green;"">","null","","","","","","","","",""
"","image-keyboard-response","271","143841","0.0-271.0","340UGXU9DZN7NEU7ZJ6RZS38DEWUVS","AM2KK02JXXW48","36U4VBVNQOZD8NFWZXWF9CIHKRIURB","","1002","img/flower5.png","74","1003","1","1","2","2","1,0,0,1,1,0,1,0,1","0,0,1,1,0,1,0,1,1","2",""
"","html-keyboard-response","272","144143","0.0-272.0","340UGXU9DZN7NEU7ZJ6RZS38DEWUVS","AM2KK02JXXW48","36U4VBVNQOZD8NFWZXWF9CIHKRIURB","","null","<img src=""img/flower5.png"" style=""width:200px; border:14px solid green;"">","null","","","","","","","","",""
"","image-keyboard-response","273","144536","0.0-273.0","340UGXU9DZN7NEU7ZJ6RZS38DEWUVS","AM2KK02JXXW48","36U4VBVNQOZD8NFWZXWF9CIHKRIURB","","392","img/flower5.png","74","393","1","1","2","2","1,0,0,1,1,0,1,0,1","0,0,1,1,0,1,0,1,1","2",""
"","html-keyboard-response","274","144837","0.0-274.0","340UGXU9DZN7NEU7ZJ6RZS38DEWUVS","AM2KK02JXXW48","36U4VBVNQOZD8NFWZXWF9CIHKRIURB","","null","<img src=""img/flower5.png"" style=""width:200px; border:14px solid green;"">","null","","","","","","","","",""
"","image-keyboard-response","275","145728","0.0-275.0","340UGXU9DZN7NEU7ZJ6RZS38DEWUVS","AM2KK02JXXW48","36U4VBVNQOZD8NFWZXWF9CIHKRIURB","","890","img/flower2.png","76","891","3","1","1","2","1,0,0,1,1,0,1,0,1","0,0,1,1,0,1,0,1,1","2",""
"","html-keyboard-response","276","146029","0.0-276.0","340UGXU9DZN7NEU7ZJ6RZS38DEWUVS","AM2KK02JXXW48","36U4VBVNQOZD8NFWZXWF9CIHKRIURB","","null","<img src=""img/flower2.png"" style=""width:200px; border:14px solid green;"">","null","","","","","","","","",""
"","image-keyboard-response","277","146576","0.0-277.0","340UGXU9DZN7NEU7ZJ6RZS38DEWUVS","AM2KK02JXXW48","36U4VBVNQOZD8NFWZXWF9CIHKRIURB","","546","img/flower6.png","75","547","2","1","3","2","1,0,0,1,1,0,1,0,1","0,0,1,1,0,1,0,1,1","2",""
"","html-keyboard-response","278","146877","0.0-278.0","340UGXU9DZN7NEU7ZJ6RZS38DEWUVS","AM2KK02JXXW48","36U4VBVNQOZD8NFWZXWF9CIHKRIURB","","null","<img src=""img/flower6.png"" style=""width:200px; border:14px solid green;"">","null","","","","","","","","",""
"","image-keyboard-response","279","147256","0.0-279.0","340UGXU9DZN7NEU7ZJ6RZS38DEWUVS","AM2KK02JXXW48","36U4VBVNQOZD8NFWZXWF9CIHKRIURB","","378","img/flower6.png","75","379","2","1","3","2","1,0,0,1,1,0,1,0,1","0,0,1,1,0,1,0,1,1","2",""
"","html-keyboard-response","280","147557","0.0-280.0","340UGXU9DZN7NEU7ZJ6RZS38DEWUVS","AM2KK02JXXW48","36U4VBVNQOZD8NFWZXWF9CIHKRIURB","","null","<img src=""img/flower6.png"" style=""width:200px; border:14px solid green;"">","null","","","","","","","","",""
"","image-keyboard-response","281","148072","0.0-281.0","340UGXU9DZN7NEU7ZJ6RZS38DEWUVS","AM2KK02JXXW48","36U4VBVNQOZD8NFWZXWF9CIHKRIURB","","514","img/flower5.png","74","515","1","1","2","2","1,0,0,1,1,0,1,0,1","0,0,1,1,0,1,0,1,1","2",""
"","html-keyboard-response","282","148374","0.0-282.0","340UGXU9DZN7NEU7ZJ6RZS38DEWUVS","AM2KK02JXXW48","36U4VBVNQOZD8NFWZXWF9CIHKRIURB","","null","<img src=""img/flower5.png"" style=""width:200px; border:14px solid green;"">","null","","","","","","","","",""
"","image-keyboard-response","283","148736","0.0-283.0","340UGXU9DZN7NEU7ZJ6RZS38DEWUVS","AM2KK02JXXW48","36U4VBVNQOZD8NFWZXWF9CIHKRIURB","","361","img/flower5.png","74","362","1","1","2","2","1,0,0,1,1,0,1,0,1","0,0,1,1,0,1,0,1,1","2",""
"","html-keyboard-response","284","149038","0.0-284.0","340UGXU9DZN7NEU7ZJ6RZS38DEWUVS","AM2KK02JXXW48","36U4VBVNQOZD8NFWZXWF9CIHKRIURB","","null","<img src=""img/flower5.png"" style=""width:200px; border:14px solid green;"">","null","","","","","","","","",""
"","image-keyboard-response","285","149672","0.0-285.0","340UGXU9DZN7NEU7ZJ6RZS38DEWUVS","AM2KK02JXXW48","36U4VBVNQOZD8NFWZXWF9CIHKRIURB","","633","img/flower2.png","76","634","3","1","1","2","1,0,0,1,1,0,1,0,1","0,0,1,1,0,1,0,1,1","2",""
"","html-keyboard-response","286","149976","0.0-286.0","340UGXU9DZN7NEU7ZJ6RZS38DEWUVS","AM2KK02JXXW48","36U4VBVNQOZD8NFWZXWF9CIHKRIURB","","null","<img src=""img/flower2.png"" style=""width:200px; border:14px solid green;"">","null","","","","","","","","",""
"","image-keyboard-response","287","150392","0.0-287.0","340UGXU9DZN7NEU7ZJ6RZS38DEWUVS","AM2KK02JXXW48","36U4VBVNQOZD8NFWZXWF9CIHKRIURB","","415","img/flower2.png","76","416","3","1","1","2","1,0,0,1,1,0,1,0,1","0,0,1,1,0,1,0,1,1","2",""
"","html-keyboard-response","288","150694","0.0-288.0","340UGXU9DZN7NEU7ZJ6RZS38DEWUVS","AM2KK02JXXW48","36U4VBVNQOZD8NFWZXWF9CIHKRIURB","","null","<img src=""img/flower2.png"" style=""width:200px; border:14px solid green;"">","null","","","","","","","","",""
"","image-keyboard-response","289","151361","0.0-289.0","340UGXU9DZN7NEU7ZJ6RZS38DEWUVS","AM2KK02JXXW48","36U4VBVNQOZD8NFWZXWF9CIHKRIURB","","665","img/flower6.png","75","667","2","1","3","2","1,0,0,1,1,0,1,0,1","0,0,1,1,0,1,0,1,1","2",""
"","html-keyboard-response","290","151661","0.0-290.0","340UGXU9DZN7NEU7ZJ6RZS38DEWUVS","AM2KK02JXXW48","36U4VBVNQOZD8NFWZXWF9CIHKRIURB","","null","<img src=""img/flower6.png"" style=""width:200px; border:14px solid green;"">","null","","","","","","","","",""
"","image-keyboard-response","291","152272","0.0-291.0","340UGXU9DZN7NEU7ZJ6RZS38DEWUVS","AM2KK02JXXW48","36U4VBVNQOZD8NFWZXWF9CIHKRIURB","","610","img/flower5.png","74","611","1","1","2","2","1,0,0,1,1,0,1,0,1","0,0,1,1,0,1,0,1,1","2",""
"","html-keyboard-response","292","152574","0.0-292.0","340UGXU9DZN7NEU7ZJ6RZS38DEWUVS","AM2KK02JXXW48","36U4VBVNQOZD8NFWZXWF9CIHKRIURB","","null","<img src=""img/flower5.png"" style=""width:200px; border:14px solid green;"">","null","","","","","","","","",""
"","image-keyboard-response","293","153184","0.0-293.0","340UGXU9DZN7NEU7ZJ6RZS38DEWUVS","AM2KK02JXXW48","36U4VBVNQOZD8NFWZXWF9CIHKRIURB","","609","img/flower6.png","75","610","2","1","3","2","1,0,0,1,1,0,1,0,1","0,0,1,1,0,1,0,1,1","2",""
"","html-keyboard-response","294","153486","0.0-294.0","340UGXU9DZN7NEU7ZJ6RZS38DEWUVS","AM2KK02JXXW48","36U4VBVNQOZD8NFWZXWF9CIHKRIURB","","null","<img src=""img/flower6.png"" style=""width:200px; border:14px solid green;"">","null","","","","","","","","",""
"","image-keyboard-response","295","153880","0.0-295.0","340UGXU9DZN7NEU7ZJ6RZS38DEWUVS","AM2KK02JXXW48","36U4VBVNQOZD8NFWZXWF9CIHKRIURB","","393","img/flower6.png","75","394","2","1","3","2","1,0,0,1,1,0,1,0,1","0,0,1,1,0,1,0,1,1","2",""
"","html-keyboard-response","296","154247","0.0-296.0","340UGXU9DZN7NEU7ZJ6RZS38DEWUVS","AM2KK02JXXW48","36U4VBVNQOZD8NFWZXWF9CIHKRIURB","","null","<img src=""img/flower6.png"" style=""width:200px; border:14px solid green;"">","null","","","","","","","","",""
"","image-keyboard-response","297","154666","0.0-297.0","340UGXU9DZN7NEU7ZJ6RZS38DEWUVS","AM2KK02JXXW48","36U4VBVNQOZD8NFWZXWF9CIHKRIURB","","418","img/flower6.png","75","419","2","1","3","2","1,0,0,1,1,0,1,0,1","0,0,1,1,0,1,0,1,1","2",""
"","html-keyboard-response","298","154967","0.0-298.0","340UGXU9DZN7NEU7ZJ6RZS38DEWUVS","AM2KK02JXXW48","36U4VBVNQOZD8NFWZXWF9CIHKRIURB","","null","<img src=""img/flower6.png"" style=""width:200px; border:14px solid green;"">","null","","","","","","","","",""
"","image-keyboard-response","299","155344","0.0-299.0","340UGXU9DZN7NEU7ZJ6RZS38DEWUVS","AM2KK02JXXW48","36U4VBVNQOZD8NFWZXWF9CIHKRIURB","","376","img/flower6.png","75","377","2","1","3","2","1,0,0,1,1,0,1,0,1","0,0,1,1,0,1,0,1,1","2",""
"","html-keyboard-response","300","155646","0.0-300.0","340UGXU9DZN7NEU7ZJ6RZS38DEWUVS","AM2KK02JXXW48","36U4VBVNQOZD8NFWZXWF9CIHKRIURB","","null","<img src=""img/flower6.png"" style=""width:200px; border:14px solid green;"">","null","","","","","","","","",""
"","image-keyboard-response","301","156608","0.0-301.0","340UGXU9DZN7NEU7ZJ6RZS38DEWUVS","AM2KK02JXXW48","36U4VBVNQOZD8NFWZXWF9CIHKRIURB","","961","img/flower2.png","76","962","3","1","1","2","1,0,0,1,1,0,1,0,1","0,0,1,1,0,1,0,1,1","2",""
"","html-keyboard-response","302","156909","0.0-302.0","340UGXU9DZN7NEU7ZJ6RZS38DEWUVS","AM2KK02JXXW48","36U4VBVNQOZD8NFWZXWF9CIHKRIURB","","null","<img src=""img/flower2.png"" style=""width:200px; border:14px solid green;"">","null","","","","","","","","",""
"","image-keyboard-response","303","157488","0.0-303.0","340UGXU9DZN7NEU7ZJ6RZS38DEWUVS","AM2KK02JXXW48","36U4VBVNQOZD8NFWZXWF9CIHKRIURB","","578","img/flower5.png","74","579","1","1","2","2","1,0,0,1,1,0,1,0,1","0,0,1,1,0,1,0,1,1","2",""
"","html-keyboard-response","304","157790","0.0-304.0","340UGXU9DZN7NEU7ZJ6RZS38DEWUVS","AM2KK02JXXW48","36U4VBVNQOZD8NFWZXWF9CIHKRIURB","","null","<img src=""img/flower5.png"" style=""width:200px; border:14px solid green;"">","null","","","","","","","","",""
"","image-keyboard-response","305","158320","0.0-305.0","340UGXU9DZN7NEU7ZJ6RZS38DEWUVS","AM2KK02JXXW48","36U4VBVNQOZD8NFWZXWF9CIHKRIURB","","529","img/flower5.png","74","530","1","1","2","2","1,0,0,1,1,0,1,0,1","0,0,1,1,0,1,0,1,1","2",""
"","html-keyboard-response","306","158622","0.0-306.0","340UGXU9DZN7NEU7ZJ6RZS38DEWUVS","AM2KK02JXXW48","36U4VBVNQOZD8NFWZXWF9CIHKRIURB","","null","<img src=""img/flower5.png"" style=""width:200px; border:14px solid green;"">","null","","","","","","","","",""
"","image-keyboard-response","307","159240","0.0-307.0","340UGXU9DZN7NEU7ZJ6RZS38DEWUVS","AM2KK02JXXW48","36U4VBVNQOZD8NFWZXWF9CIHKRIURB","","617","img/flower2.png","76","618","3","1","1","2","1,0,0,1,1,0,1,0,1","0,0,1,1,0,1,0,1,1","2",""
"","html-keyboard-response","308","159541","0.0-308.0","340UGXU9DZN7NEU7ZJ6RZS38DEWUVS","AM2KK02JXXW48","36U4VBVNQOZD8NFWZXWF9CIHKRIURB","","null","<img src=""img/flower2.png"" style=""width:200px; border:14px solid green;"">","null","","","","","","","","",""
"","image-keyboard-response","309","160064","0.0-309.0","340UGXU9DZN7NEU7ZJ6RZS38DEWUVS","AM2KK02JXXW48","36U4VBVNQOZD8NFWZXWF9CIHKRIURB","","522","img/flower6.png","75","523","2","1","3","2","1,0,0,1,1,0,1,0,1","0,0,1,1,0,1,0,1,1","2",""
"","html-keyboard-response","310","160366","0.0-310.0","340UGXU9DZN7NEU7ZJ6RZS38DEWUVS","AM2KK02JXXW48","36U4VBVNQOZD8NFWZXWF9CIHKRIURB","","null","<img src=""img/flower6.png"" style=""width:200px; border:14px solid green;"">","null","","","","","","","","",""
"","image-keyboard-response","311","160896","0.0-311.0","340UGXU9DZN7NEU7ZJ6RZS38DEWUVS","AM2KK02JXXW48","36U4VBVNQOZD8NFWZXWF9CIHKRIURB","","529","img/flower5.png","74","531","1","1","2","2","1,0,0,1,1,0,1,0,1","0,0,1,1,0,1,0,1,1","2",""
"","html-keyboard-response","312","161199","0.0-312.0","340UGXU9DZN7NEU7ZJ6RZS38DEWUVS","AM2KK02JXXW48","36U4VBVNQOZD8NFWZXWF9CIHKRIURB","","null","<img src=""img/flower5.png"" style=""width:200px; border:14px solid green;"">","null","","","","","","","","",""
"","image-keyboard-response","313","161753","0.0-313.0","340UGXU9DZN7NEU7ZJ6RZS38DEWUVS","AM2KK02JXXW48","36U4VBVNQOZD8NFWZXWF9CIHKRIURB","","552","img/flower6.png","75","554","2","1","3","2","1,0,0,1,1,0,1,0,1","0,0,1,1,0,1,0,1,1","2",""
"","html-keyboard-response","314","162053","0.0-314.0","340UGXU9DZN7NEU7ZJ6RZS38DEWUVS","AM2KK02JXXW48","36U4VBVNQOZD8NFWZXWF9CIHKRIURB","","null","<img src=""img/flower6.png"" style=""width:200px; border:14px solid green;"">","null","","","","","","","","",""
"","image-keyboard-response","315","162720","0.0-315.0","340UGXU9DZN7NEU7ZJ6RZS38DEWUVS","AM2KK02JXXW48","36U4VBVNQOZD8NFWZXWF9CIHKRIURB","","666","img/flower5.png","74","667","1","1","2","2","1,0,0,1,1,0,1,0,1","0,0,1,1,0,1,0,1,1","2",""
"","html-keyboard-response","316","163022","0.0-316.0","340UGXU9DZN7NEU7ZJ6RZS38DEWUVS","AM2KK02JXXW48","36U4VBVNQOZD8NFWZXWF9CIHKRIURB","","null","<img src=""img/flower5.png"" style=""width:200px; border:14px solid green;"">","null","","","","","","","","",""
"","image-keyboard-response","317","163560","0.0-317.0","340UGXU9DZN7NEU7ZJ6RZS38DEWUVS","AM2KK02JXXW48","36U4VBVNQOZD8NFWZXWF9CIHKRIURB","","537","img/flower2.png","76","538","3","1","1","2","1,0,0,1,1,0,1,0,1","0,0,1,1,0,1,0,1,1","2",""
"","html-keyboard-response","318","163861","0.0-318.0","340UGXU9DZN7NEU7ZJ6RZS38DEWUVS","AM2KK02JXXW48","36U4VBVNQOZD8NFWZXWF9CIHKRIURB","","null","<img src=""img/flower2.png"" style=""width:200px; border:14px solid green;"">","null","","","","","","","","",""
"","image-keyboard-response","319","164288","0.0-319.0","340UGXU9DZN7NEU7ZJ6RZS38DEWUVS","AM2KK02JXXW48","36U4VBVNQOZD8NFWZXWF9CIHKRIURB","","426","img/flower2.png","76","427","3","1","1","2","1,0,0,1,1,0,1,0,1","0,0,1,1,0,1,0,1,1","2",""
"","html-keyboard-response","320","164589","0.0-320.0","340UGXU9DZN7NEU7ZJ6RZS38DEWUVS","AM2KK02JXXW48","36U4VBVNQOZD8NFWZXWF9CIHKRIURB","","null","<img src=""img/flower2.png"" style=""width:200px; border:14px solid green;"">","null","","","","","","","","",""
"","image-keyboard-response","321","165008","0.0-321.0","340UGXU9DZN7NEU7ZJ6RZS38DEWUVS","AM2KK02JXXW48","36U4VBVNQOZD8NFWZXWF9CIHKRIURB","","418","img/flower2.png","76","419","3","1","1","2","1,0,0,1,1,0,1,0,1","0,0,1,1,0,1,0,1,1","2",""
"","html-keyboard-response","322","165309","0.0-322.0","340UGXU9DZN7NEU7ZJ6RZS38DEWUVS","AM2KK02JXXW48","36U4VBVNQOZD8NFWZXWF9CIHKRIURB","","null","<img src=""img/flower2.png"" style=""width:200px; border:14px solid green;"">","null","","","","","","","","",""
"","image-keyboard-response","323","165712","0.0-323.0","340UGXU9DZN7NEU7ZJ6RZS38DEWUVS","AM2KK02JXXW48","36U4VBVNQOZD8NFWZXWF9CIHKRIURB","","402","img/flower2.png","76","403","3","1","1","2","1,0,0,1,1,0,1,0,1","0,0,1,1,0,1,0,1,1","2",""
"","html-keyboard-response","324","166013","0.0-324.0","340UGXU9DZN7NEU7ZJ6RZS38DEWUVS","AM2KK02JXXW48","36U4VBVNQOZD8NFWZXWF9CIHKRIURB","","null","<img src=""img/flower2.png"" style=""width:200px; border:14px solid green;"">","null","","","","","","","","",""
"","image-keyboard-response","325","167240","0.0-325.0","340UGXU9DZN7NEU7ZJ6RZS38DEWUVS","AM2KK02JXXW48","36U4VBVNQOZD8NFWZXWF9CIHKRIURB","","1226","img/flower5.png","74","1227","1","1","2","2","1,0,0,1,1,0,1,0,1","0,0,1,1,0,1,0,1,1","2",""
"","html-keyboard-response","326","167542","0.0-326.0","340UGXU9DZN7NEU7ZJ6RZS38DEWUVS","AM2KK02JXXW48","36U4VBVNQOZD8NFWZXWF9CIHKRIURB","","null","<img src=""img/flower5.png"" style=""width:200px; border:14px solid green;"">","null","","","","","","","","",""
"","image-keyboard-response","327","168144","0.0-327.0","340UGXU9DZN7NEU7ZJ6RZS38DEWUVS","AM2KK02JXXW48","36U4VBVNQOZD8NFWZXWF9CIHKRIURB","","601","img/flower6.png","75","602","2","1","3","2","1,0,0,1,1,0,1,0,1","0,0,1,1,0,1,0,1,1","2",""
"","html-keyboard-response","328","168446","0.0-328.0","340UGXU9DZN7NEU7ZJ6RZS38DEWUVS","AM2KK02JXXW48","36U4VBVNQOZD8NFWZXWF9CIHKRIURB","","null","<img src=""img/flower6.png"" style=""width:200px; border:14px solid green;"">","null","","","","","","","","",""
"","image-keyboard-response","329","168904","0.0-329.0","340UGXU9DZN7NEU7ZJ6RZS38DEWUVS","AM2KK02JXXW48","36U4VBVNQOZD8NFWZXWF9CIHKRIURB","","457","img/flower6.png","75","458","2","1","3","2","1,0,0,1,1,0,1,0,1","0,0,1,1,0,1,0,1,1","2",""
"","html-keyboard-response","330","169206","0.0-330.0","340UGXU9DZN7NEU7ZJ6RZS38DEWUVS","AM2KK02JXXW48","36U4VBVNQOZD8NFWZXWF9CIHKRIURB","","null","<img src=""img/flower6.png"" style=""width:200px; border:14px solid green;"">","null","","","","","","","","",""
"","image-keyboard-response","331","169816","0.0-331.0","340UGXU9DZN7NEU7ZJ6RZS38DEWUVS","AM2KK02JXXW48","36U4VBVNQOZD8NFWZXWF9CIHKRIURB","","609","img/flower2.png","76","610","3","1","1","2","1,0,0,1,1,0,1,0,1","0,0,1,1,0,1,0,1,1","2",""
"","html-keyboard-response","332","170123","0.0-332.0","340UGXU9DZN7NEU7ZJ6RZS38DEWUVS","AM2KK02JXXW48","36U4VBVNQOZD8NFWZXWF9CIHKRIURB","","null","<img src=""img/flower2.png"" style=""width:200px; border:14px solid green;"">","null","","","","","","","","",""
"","image-keyboard-response","333","170880","0.0-333.0","340UGXU9DZN7NEU7ZJ6RZS38DEWUVS","AM2KK02JXXW48","36U4VBVNQOZD8NFWZXWF9CIHKRIURB","","756","img/flower6.png","75","756","2","1","3","2","1,0,0,1,1,0,1,0,1","0,0,1,1,0,1,0,1,1","2",""
"","html-keyboard-response","334","171182","0.0-334.0","340UGXU9DZN7NEU7ZJ6RZS38DEWUVS","AM2KK02JXXW48","36U4VBVNQOZD8NFWZXWF9CIHKRIURB","","null","<img src=""img/flower6.png"" style=""width:200px; border:14px solid green;"">","null","","","","","","","","",""
"","image-keyboard-response","335","172040","0.0-335.0","340UGXU9DZN7NEU7ZJ6RZS38DEWUVS","AM2KK02JXXW48","36U4VBVNQOZD8NFWZXWF9CIHKRIURB","","857","img/flower5.png","74","859","1","1","2","2","1,0,0,1,1,0,1,0,1","0,0,1,1,0,1,0,1,1","2",""
"","html-keyboard-response","336","172342","0.0-336.0","340UGXU9DZN7NEU7ZJ6RZS38DEWUVS","AM2KK02JXXW48","36U4VBVNQOZD8NFWZXWF9CIHKRIURB","","null","<img src=""img/flower5.png"" style=""width:200px; border:14px solid green;"">","null","","","","","","","","",""
"","image-keyboard-response","337","173104","0.0-337.0","340UGXU9DZN7NEU7ZJ6RZS38DEWUVS","AM2KK02JXXW48","36U4VBVNQOZD8NFWZXWF9CIHKRIURB","","761","img/flower6.png","75","762","2","1","3","2","1,0,0,1,1,0,1,0,1","0,0,1,1,0,1,0,1,1","2",""
"","html-keyboard-response","338","173406","0.0-338.0","340UGXU9DZN7NEU7ZJ6RZS38DEWUVS","AM2KK02JXXW48","36U4VBVNQOZD8NFWZXWF9CIHKRIURB","","null","<img src=""img/flower6.png"" style=""width:200px; border:14px solid green;"">","null","","","","","","","","",""
"","image-keyboard-response","339","174080","0.0-339.0","340UGXU9DZN7NEU7ZJ6RZS38DEWUVS","AM2KK02JXXW48","36U4VBVNQOZD8NFWZXWF9CIHKRIURB","","673","img/flower5.png","74","674","1","1","2","2","1,0,0,1,1,0,1,0,1","0,0,1,1,0,1,0,1,1","2",""
"","html-keyboard-response","340","174382","0.0-340.0","340UGXU9DZN7NEU7ZJ6RZS38DEWUVS","AM2KK02JXXW48","36U4VBVNQOZD8NFWZXWF9CIHKRIURB","","null","<img src=""img/flower5.png"" style=""width:200px; border:14px solid green;"">","null","","","","","","","","",""
"","image-keyboard-response","341","174939","0.0-341.0","340UGXU9DZN7NEU7ZJ6RZS38DEWUVS","AM2KK02JXXW48","36U4VBVNQOZD8NFWZXWF9CIHKRIURB","","553","img/flower6.png","75","554","2","1","3","2","1,0,0,1,1,0,1,0,1","0,0,1,1,0,1,0,1,1","2",""
"","html-keyboard-response","342","175240","0.0-342.0","340UGXU9DZN7NEU7ZJ6RZS38DEWUVS","AM2KK02JXXW48","36U4VBVNQOZD8NFWZXWF9CIHKRIURB","","null","<img src=""img/flower6.png"" style=""width:200px; border:14px solid green;"">","null","","","","","","","","",""
"","image-keyboard-response","343","175755","0.0-343.0","340UGXU9DZN7NEU7ZJ6RZS38DEWUVS","AM2KK02JXXW48","36U4VBVNQOZD8NFWZXWF9CIHKRIURB","","514","img/flower2.png","76","515","3","1","1","2","1,0,0,1,1,0,1,0,1","0,0,1,1,0,1,0,1,1","2",""
"","html-keyboard-response","344","176056","0.0-344.0","340UGXU9DZN7NEU7ZJ6RZS38DEWUVS","AM2KK02JXXW48","36U4VBVNQOZD8NFWZXWF9CIHKRIURB","","null","<img src=""img/flower2.png"" style=""width:200px; border:14px solid green;"">","null","","","","","","","","",""
"","image-keyboard-response","345","176595","0.0-345.0","340UGXU9DZN7NEU7ZJ6RZS38DEWUVS","AM2KK02JXXW48","36U4VBVNQOZD8NFWZXWF9CIHKRIURB","","538","img/flower6.png","75","539","2","1","3","2","1,0,0,1,1,0,1,0,1","0,0,1,1,0,1,0,1,1","2",""
"","html-keyboard-response","346","176896","0.0-346.0","340UGXU9DZN7NEU7ZJ6RZS38DEWUVS","AM2KK02JXXW48","36U4VBVNQOZD8NFWZXWF9CIHKRIURB","","null","<img src=""img/flower6.png"" style=""width:200px; border:14px solid green;"">","null","","","","","","","","",""
"","image-keyboard-response","347","177404","0.0-347.0","340UGXU9DZN7NEU7ZJ6RZS38DEWUVS","AM2KK02JXXW48","36U4VBVNQOZD8NFWZXWF9CIHKRIURB","","506","img/flower5.png","74","509","1","1","2","2","1,0,0,1,1,0,1,0,1","0,0,1,1,0,1,0,1,1","2",""
"","html-keyboard-response","348","177708","0.0-348.0","340UGXU9DZN7NEU7ZJ6RZS38DEWUVS","AM2KK02JXXW48","36U4VBVNQOZD8NFWZXWF9CIHKRIURB","","null","<img src=""img/flower5.png"" style=""width:200px; border:14px solid green;"">","null","","","","","","","","",""
"","image-keyboard-response","349","178123","0.0-349.0","340UGXU9DZN7NEU7ZJ6RZS38DEWUVS","AM2KK02JXXW48","36U4VBVNQOZD8NFWZXWF9CIHKRIURB","","414","img/flower5.png","74","415","1","1","2","2","1,0,0,1,1,0,1,0,1","0,0,1,1,0,1,0,1,1","2",""
"","html-keyboard-response","350","178425","0.0-350.0","340UGXU9DZN7NEU7ZJ6RZS38DEWUVS","AM2KK02JXXW48","36U4VBVNQOZD8NFWZXWF9CIHKRIURB","","null","<img src=""img/flower5.png"" style=""width:200px; border:14px solid green;"">","null","","","","","","","","",""
"","image-keyboard-response","351","178931","0.0-351.0","340UGXU9DZN7NEU7ZJ6RZS38DEWUVS","AM2KK02JXXW48","36U4VBVNQOZD8NFWZXWF9CIHKRIURB","","505","img/flower2.png","75","506","2","0","1","2","1,0,0,1,1,0,1,0,1","0,0,1,1,0,1,0,1,1","2",""
"","html-keyboard-response","352","179233","0.0-352.0","340UGXU9DZN7NEU7ZJ6RZS38DEWUVS","AM2KK02JXXW48","36U4VBVNQOZD8NFWZXWF9CIHKRIURB","","null","<img src=""img/flower2.png"" style=""width:200px;border:14px solid red;"">","null","","","","","","","","",""
"","image-keyboard-response","353","179739","0.0-353.0","340UGXU9DZN7NEU7ZJ6RZS38DEWUVS","AM2KK02JXXW48","36U4VBVNQOZD8NFWZXWF9CIHKRIURB","","505","img/flower2.png","76","506","3","1","1","2","1,0,0,1,1,0,1,0,1","0,0,1,1,0,1,0,1,1","2",""
"","html-keyboard-response","354","180040","0.0-354.0","340UGXU9DZN7NEU7ZJ6RZS38DEWUVS","AM2KK02JXXW48","36U4VBVNQOZD8NFWZXWF9CIHKRIURB","","null","<img src=""img/flower2.png"" style=""width:200px; border:14px solid green;"">","null","","","","","","","","",""
"","image-keyboard-response","355","180467","0.0-355.0","340UGXU9DZN7NEU7ZJ6RZS38DEWUVS","AM2KK02JXXW48","36U4VBVNQOZD8NFWZXWF9CIHKRIURB","","426","img/flower2.png","76","427","3","1","1","2","1,0,0,1,1,0,1,0,1","0,0,1,1,0,1,0,1,1","2",""
"","html-keyboard-response","356","180769","0.0-356.0","340UGXU9DZN7NEU7ZJ6RZS38DEWUVS","AM2KK02JXXW48","36U4VBVNQOZD8NFWZXWF9CIHKRIURB","","null","<img src=""img/flower2.png"" style=""width:200px; border:14px solid green;"">","null","","","","","","","","",""
"","image-keyboard-response","357","181307","0.0-357.0","340UGXU9DZN7NEU7ZJ6RZS38DEWUVS","AM2KK02JXXW48","36U4VBVNQOZD8NFWZXWF9CIHKRIURB","","537","img/flower6.png","75","538","2","1","3","2","1,0,0,1,1,0,1,0,1","0,0,1,1,0,1,0,1,1","2",""
"","html-keyboard-response","358","181609","0.0-358.0","340UGXU9DZN7NEU7ZJ6RZS38DEWUVS","AM2KK02JXXW48","36U4VBVNQOZD8NFWZXWF9CIHKRIURB","","null","<img src=""img/flower6.png"" style=""width:200px; border:14px solid green;"">","null","","","","","","","","",""
"","image-keyboard-response","359","182188","0.0-359.0","340UGXU9DZN7NEU7ZJ6RZS38DEWUVS","AM2KK02JXXW48","36U4VBVNQOZD8NFWZXWF9CIHKRIURB","","577","img/flower2.png","76","579","3","1","1","2","1,0,0,1,1,0,1,0,1","0,0,1,1,0,1,0,1,1","2",""
"","html-keyboard-response","360","182489","0.0-360.0","340UGXU9DZN7NEU7ZJ6RZS38DEWUVS","AM2KK02JXXW48","36U4VBVNQOZD8NFWZXWF9CIHKRIURB","","null","<img src=""img/flower2.png"" style=""width:200px; border:14px solid green;"">","null","","","","","","","","",""
"","image-keyboard-response","361","182883","0.0-361.0","340UGXU9DZN7NEU7ZJ6RZS38DEWUVS","AM2KK02JXXW48","36U4VBVNQOZD8NFWZXWF9CIHKRIURB","","393","img/flower2.png","76","394","3","1","1","2","1,0,0,1,1,0,1,0,1","0,0,1,1,0,1,0,1,1","2",""
"","html-keyboard-response","362","183185","0.0-362.0","340UGXU9DZN7NEU7ZJ6RZS38DEWUVS","AM2KK02JXXW48","36U4VBVNQOZD8NFWZXWF9CIHKRIURB","","null","<img src=""img/flower2.png"" style=""width:200px; border:14px solid green;"">","null","","","","","","","","",""
"","instructions","363","187005","0.0-363.0","340UGXU9DZN7NEU7ZJ6RZS38DEWUVS","AM2KK02JXXW48","36U4VBVNQOZD8NFWZXWF9CIHKRIURB","[{""page_index"":0,""viewing_time"":3820}]","3820","","","","","","","","","","",""
"","survey-text","364","191412","0.0-364.0","340UGXU9DZN7NEU7ZJ6RZS38DEWUVS","AM2KK02JXXW48","36U4VBVNQOZD8NFWZXWF9CIHKRIURB","","4386","","","","","","","","","","","{""Q0"":""AM2KK02JXXW48""}"
