"rt","url","trial_type","trial_index","time_elapsed","internal_node_id","assignmentID","mturkID","hitID","success","view_history","stimulus","key_press","reactionTime","a","r","s","reward_cond","responses"
"3381.4000000059605","consent.html","external-html","0","3433","0.0-0.0","3WQQ9FUS6BGUG3PORZEM2ORC9GD8BB","AMHUDJ44HF1ZH","3WPCIUYH1AU470H2HRBLZRFBM3CTDN","","","","","","","","","",""
"","","fullscreen","1","7703","0.0-1.0","3WQQ9FUS6BGUG3PORZEM2ORC9GD8BB","AMHUDJ44HF1ZH","3WPCIUYH1AU470H2HRBLZRFBM3CTDN","true","","","","","","","","",""
"236540","","instructions","2","244244","0.0-2.0","3WQQ9FUS6BGUG3PORZEM2ORC9GD8BB","AMHUDJ44HF1ZH","3WPCIUYH1AU470H2HRBLZRFBM3CTDN","","[{""page_index"":0,""viewing_time"":33079},{""page_index"":1,""viewing_time"":12589.700000017881},{""page_index"":2,""viewing_time"":142557.19999998808},{""page_index"":3,""viewing_time"":14009.59999999404},{""page_index"":4,""viewing_time"":8536.40000000596},{""page_index"":5,""viewing_time"":19492.90000000596},{""page_index"":6,""viewing_time"":6274.799999982119}]","","","","","","","",""
"44954.30000001192","","instructions","3","289199","0.0-3.0","3WQQ9FUS6BGUG3PORZEM2ORC9GD8BB","AMHUDJ44HF1ZH","3WPCIUYH1AU470H2HRBLZRFBM3CTDN","","[{""page_index"":0,""viewing_time"":44954.19999998808}]","","","","","","","",""
"2392.5999999940395","","image-keyboard-response","4","291592","0.0-4.0","3WQQ9FUS6BGUG3PORZEM2ORC9GD8BB","AMHUDJ44HF1ZH","3WPCIUYH1AU470H2HRBLZRFBM3CTDN","","","img/flower6.png","76","2393.2000000178814","3","1","3","",""
"null","","html-keyboard-response","5","291900","0.0-5.0","3WQQ9FUS6BGUG3PORZEM2ORC9GD8BB","AMHUDJ44HF1ZH","3WPCIUYH1AU470H2HRBLZRFBM3CTDN","","","<img src=""img/flower6.png"" style=""width:200px; border:14px solid green;"">","null","","","","","",""
"4337.5","","image-keyboard-response","6","296238","0.0-6.0","3WQQ9FUS6BGUG3PORZEM2ORC9GD8BB","AMHUDJ44HF1ZH","3WPCIUYH1AU470H2HRBLZRFBM3CTDN","","","img/flower4.png","74","4338.100000023842","1","1","1","",""
"null","","html-keyboard-response","7","296547","0.0-7.0","3WQQ9FUS6BGUG3PORZEM2ORC9GD8BB","AMHUDJ44HF1ZH","3WPCIUYH1AU470H2HRBLZRFBM3CTDN","","","<img src=""img/flower4.png"" style=""width:200px; border:14px solid green;"">","null","","","","","",""
"1046","","image-keyboard-response","8","297594","0.0-8.0","3WQQ9FUS6BGUG3PORZEM2ORC9GD8BB","AMHUDJ44HF1ZH","3WPCIUYH1AU470H2HRBLZRFBM3CTDN","","","img/flower4.png","74","1046.6000000238419","1","0","1","",""
"null","","html-keyboard-response","9","297898","0.0-9.0","3WQQ9FUS6BGUG3PORZEM2ORC9GD8BB","AMHUDJ44HF1ZH","3WPCIUYH1AU470H2HRBLZRFBM3CTDN","","","<img src=""img/flower4.png"" style=""width:200px;border:14px solid red;"">","null","","","","","",""
"2730","","image-keyboard-response","10","300629","0.0-10.0","3WQQ9FUS6BGUG3PORZEM2ORC9GD8BB","AMHUDJ44HF1ZH","3WPCIUYH1AU470H2HRBLZRFBM3CTDN","","","img/flower4.png","74","2730.600000023842","1","1","1","",""
"null","","html-keyboard-response","11","300930","0.0-11.0","3WQQ9FUS6BGUG3PORZEM2ORC9GD8BB","AMHUDJ44HF1ZH","3WPCIUYH1AU470H2HRBLZRFBM3CTDN","","","<img src=""img/flower4.png"" style=""width:200px; border:14px solid green;"">","null","","","","","",""
"1821.2000000178814","","image-keyboard-response","12","302752","0.0-12.0","3WQQ9FUS6BGUG3PORZEM2ORC9GD8BB","AMHUDJ44HF1ZH","3WPCIUYH1AU470H2HRBLZRFBM3CTDN","","","img/flower6.png","76","1821.699999988079","3","1","3","",""
"null","","html-keyboard-response","13","303064","0.0-13.0","3WQQ9FUS6BGUG3PORZEM2ORC9GD8BB","AMHUDJ44HF1ZH","3WPCIUYH1AU470H2HRBLZRFBM3CTDN","","","<img src=""img/flower6.png"" style=""width:200px; border:14px solid green;"">","null","","","","","",""
"617.7000000178814","","image-keyboard-response","14","303682","0.0-14.0","3WQQ9FUS6BGUG3PORZEM2ORC9GD8BB","AMHUDJ44HF1ZH","3WPCIUYH1AU470H2HRBLZRFBM3CTDN","","","img/flower6.png","76","618.2000000178814","3","1","3","",""
"null","","html-keyboard-response","15","303996","0.0-15.0","3WQQ9FUS6BGUG3PORZEM2ORC9GD8BB","AMHUDJ44HF1ZH","3WPCIUYH1AU470H2HRBLZRFBM3CTDN","","","<img src=""img/flower6.png"" style=""width:200px; border:14px solid green;"">","null","","","","","",""
"441.09999999403954","","image-keyboard-response","16","304438","0.0-16.0","3WQQ9FUS6BGUG3PORZEM2ORC9GD8BB","AMHUDJ44HF1ZH","3WPCIUYH1AU470H2HRBLZRFBM3CTDN","","","img/flower6.png","76","441.59999999403954","3","1","3","",""
"null","","html-keyboard-response","17","304750","0.0-17.0","3WQQ9FUS6BGUG3PORZEM2ORC9GD8BB","AMHUDJ44HF1ZH","3WPCIUYH1AU470H2HRBLZRFBM3CTDN","","","<img src=""img/flower6.png"" style=""width:200px; border:14px solid green;"">","null","","","","","",""
"341.09999999403954","","image-keyboard-response","18","305092","0.0-18.0","3WQQ9FUS6BGUG3PORZEM2ORC9GD8BB","AMHUDJ44HF1ZH","3WPCIUYH1AU470H2HRBLZRFBM3CTDN","","","img/flower6.png","76","341.59999999403954","3","0","3","",""
"null","","html-keyboard-response","19","305396","0.0-19.0","3WQQ9FUS6BGUG3PORZEM2ORC9GD8BB","AMHUDJ44HF1ZH","3WPCIUYH1AU470H2HRBLZRFBM3CTDN","","","<img src=""img/flower6.png"" style=""width:200px;border:14px solid red;"">","null","","","","","",""
"1347.2999999821186","","image-keyboard-response","20","306744","0.0-20.0","3WQQ9FUS6BGUG3PORZEM2ORC9GD8BB","AMHUDJ44HF1ZH","3WPCIUYH1AU470H2HRBLZRFBM3CTDN","","","img/flower4.png","74","1347.699999988079","1","1","1","",""
"null","","html-keyboard-response","21","307049","0.0-21.0","3WQQ9FUS6BGUG3PORZEM2ORC9GD8BB","AMHUDJ44HF1ZH","3WPCIUYH1AU470H2HRBLZRFBM3CTDN","","","<img src=""img/flower4.png"" style=""width:200px; border:14px solid green;"">","null","","","","","",""
"753.0999999940395","","image-keyboard-response","22","307803","0.0-22.0","3WQQ9FUS6BGUG3PORZEM2ORC9GD8BB","AMHUDJ44HF1ZH","3WPCIUYH1AU470H2HRBLZRFBM3CTDN","","","img/flower5.png","75","753.7000000178814","2","0","2","",""
"null","","html-keyboard-response","23","308115","0.0-23.0","3WQQ9FUS6BGUG3PORZEM2ORC9GD8BB","AMHUDJ44HF1ZH","3WPCIUYH1AU470H2HRBLZRFBM3CTDN","","","<img src=""img/flower5.png"" style=""width:200px;border:14px solid red;"">","null","","","","","",""
"647.7999999821186","","image-keyboard-response","24","308763","0.0-24.0","3WQQ9FUS6BGUG3PORZEM2ORC9GD8BB","AMHUDJ44HF1ZH","3WPCIUYH1AU470H2HRBLZRFBM3CTDN","","","img/flower4.png","74","648.4000000059605","1","1","1","",""
"null","","html-keyboard-response","25","309065","0.0-25.0","3WQQ9FUS6BGUG3PORZEM2ORC9GD8BB","AMHUDJ44HF1ZH","3WPCIUYH1AU470H2HRBLZRFBM3CTDN","","","<img src=""img/flower4.png"" style=""width:200px; border:14px solid green;"">","null","","","","","",""
"713.3999999761581","","image-keyboard-response","26","309779","0.0-26.0","3WQQ9FUS6BGUG3PORZEM2ORC9GD8BB","AMHUDJ44HF1ZH","3WPCIUYH1AU470H2HRBLZRFBM3CTDN","","","img/flower5.png","75","713.9000000059605","2","0","2","",""
"null","","html-keyboard-response","27","310096","0.0-27.0","3WQQ9FUS6BGUG3PORZEM2ORC9GD8BB","AMHUDJ44HF1ZH","3WPCIUYH1AU470H2HRBLZRFBM3CTDN","","","<img src=""img/flower5.png"" style=""width:200px;border:14px solid red;"">","null","","","","","",""
"680.7000000178814","","image-keyboard-response","28","310777","0.0-28.0","3WQQ9FUS6BGUG3PORZEM2ORC9GD8BB","AMHUDJ44HF1ZH","3WPCIUYH1AU470H2HRBLZRFBM3CTDN","","","img/flower5.png","75","681.1999999880791","2","1","2","",""
"null","","html-keyboard-response","29","311080","0.0-29.0","3WQQ9FUS6BGUG3PORZEM2ORC9GD8BB","AMHUDJ44HF1ZH","3WPCIUYH1AU470H2HRBLZRFBM3CTDN","","","<img src=""img/flower5.png"" style=""width:200px; border:14px solid green;"">","null","","","","","",""
"779.3000000119209","","image-keyboard-response","30","311860","0.0-30.0","3WQQ9FUS6BGUG3PORZEM2ORC9GD8BB","AMHUDJ44HF1ZH","3WPCIUYH1AU470H2HRBLZRFBM3CTDN","","","img/flower6.png","76","779.8000000119209","3","1","3","",""
"null","","html-keyboard-response","31","312164","0.0-31.0","3WQQ9FUS6BGUG3PORZEM2ORC9GD8BB","AMHUDJ44HF1ZH","3WPCIUYH1AU470H2HRBLZRFBM3CTDN","","","<img src=""img/flower6.png"" style=""width:200px; border:14px solid green;"">","null","","","","","",""
"353.5","","image-keyboard-response","32","312518","0.0-32.0","3WQQ9FUS6BGUG3PORZEM2ORC9GD8BB","AMHUDJ44HF1ZH","3WPCIUYH1AU470H2HRBLZRFBM3CTDN","","","img/flower6.png","76","354","3","1","3","",""
"null","","html-keyboard-response","33","312829","0.0-33.0","3WQQ9FUS6BGUG3PORZEM2ORC9GD8BB","AMHUDJ44HF1ZH","3WPCIUYH1AU470H2HRBLZRFBM3CTDN","","","<img src=""img/flower6.png"" style=""width:200px; border:14px solid green;"">","null","","","","","",""
"1227.4000000059605","","image-keyboard-response","34","314057","0.0-34.0","3WQQ9FUS6BGUG3PORZEM2ORC9GD8BB","AMHUDJ44HF1ZH","3WPCIUYH1AU470H2HRBLZRFBM3CTDN","","","img/flower4.png","74","1228","1","1","1","",""
"null","","html-keyboard-response","35","314366","0.0-35.0","3WQQ9FUS6BGUG3PORZEM2ORC9GD8BB","AMHUDJ44HF1ZH","3WPCIUYH1AU470H2HRBLZRFBM3CTDN","","","<img src=""img/flower4.png"" style=""width:200px; border:14px solid green;"">","null","","","","","",""
"752.1999999880791","","image-keyboard-response","36","315119","0.0-36.0","3WQQ9FUS6BGUG3PORZEM2ORC9GD8BB","AMHUDJ44HF1ZH","3WPCIUYH1AU470H2HRBLZRFBM3CTDN","","","img/flower5.png","75","752.8000000119209","2","1","2","",""
"null","","html-keyboard-response","37","315430","0.0-37.0","3WQQ9FUS6BGUG3PORZEM2ORC9GD8BB","AMHUDJ44HF1ZH","3WPCIUYH1AU470H2HRBLZRFBM3CTDN","","","<img src=""img/flower5.png"" style=""width:200px; border:14px solid green;"">","null","","","","","",""
"721.6999999880791","","image-keyboard-response","38","316153","0.0-38.0","3WQQ9FUS6BGUG3PORZEM2ORC9GD8BB","AMHUDJ44HF1ZH","3WPCIUYH1AU470H2HRBLZRFBM3CTDN","","","img/flower6.png","76","722.2000000178814","3","1","3","",""
"null","","html-keyboard-response","39","316464","0.0-39.0","3WQQ9FUS6BGUG3PORZEM2ORC9GD8BB","AMHUDJ44HF1ZH","3WPCIUYH1AU470H2HRBLZRFBM3CTDN","","","<img src=""img/flower6.png"" style=""width:200px; border:14px solid green;"">","null","","","","","",""
"765.0999999940395","","image-keyboard-response","40","317230","0.0-40.0","3WQQ9FUS6BGUG3PORZEM2ORC9GD8BB","AMHUDJ44HF1ZH","3WPCIUYH1AU470H2HRBLZRFBM3CTDN","","","img/flower5.png","75","765.5","2","1","2","",""
"null","","html-keyboard-response","41","317533","0.0-41.0","3WQQ9FUS6BGUG3PORZEM2ORC9GD8BB","AMHUDJ44HF1ZH","3WPCIUYH1AU470H2HRBLZRFBM3CTDN","","","<img src=""img/flower5.png"" style=""width:200px; border:14px solid green;"">","null","","","","","",""
"645","","image-keyboard-response","42","318179","0.0-42.0","3WQQ9FUS6BGUG3PORZEM2ORC9GD8BB","AMHUDJ44HF1ZH","3WPCIUYH1AU470H2HRBLZRFBM3CTDN","","","img/flower4.png","74","645.5","1","1","1","",""
"null","","html-keyboard-response","43","318483","0.0-43.0","3WQQ9FUS6BGUG3PORZEM2ORC9GD8BB","AMHUDJ44HF1ZH","3WPCIUYH1AU470H2HRBLZRFBM3CTDN","","","<img src=""img/flower4.png"" style=""width:200px; border:14px solid green;"">","null","","","","","",""
"2532.5","","image-keyboard-response","44","321016","0.0-44.0","3WQQ9FUS6BGUG3PORZEM2ORC9GD8BB","AMHUDJ44HF1ZH","3WPCIUYH1AU470H2HRBLZRFBM3CTDN","","","img/flower5.png","75","2533","2","1","2","",""
"null","","html-keyboard-response","45","321331","0.0-45.0","3WQQ9FUS6BGUG3PORZEM2ORC9GD8BB","AMHUDJ44HF1ZH","3WPCIUYH1AU470H2HRBLZRFBM3CTDN","","","<img src=""img/flower5.png"" style=""width:200px; border:14px solid green;"">","null","","","","","",""
"621.7999999821186","","image-keyboard-response","46","321954","0.0-46.0","3WQQ9FUS6BGUG3PORZEM2ORC9GD8BB","AMHUDJ44HF1ZH","3WPCIUYH1AU470H2HRBLZRFBM3CTDN","","","img/flower5.png","75","622.2999999821186","2","1","2","",""
"null","","html-keyboard-response","47","322265","0.0-47.0","3WQQ9FUS6BGUG3PORZEM2ORC9GD8BB","AMHUDJ44HF1ZH","3WPCIUYH1AU470H2HRBLZRFBM3CTDN","","","<img src=""img/flower5.png"" style=""width:200px; border:14px solid green;"">","null","","","","","",""
"711.6999999880791","","image-keyboard-response","48","322978","0.0-48.0","3WQQ9FUS6BGUG3PORZEM2ORC9GD8BB","AMHUDJ44HF1ZH","3WPCIUYH1AU470H2HRBLZRFBM3CTDN","","","img/flower6.png","76","712.1999999880791","3","1","3","",""
"null","","html-keyboard-response","49","323282","0.0-49.0","3WQQ9FUS6BGUG3PORZEM2ORC9GD8BB","AMHUDJ44HF1ZH","3WPCIUYH1AU470H2HRBLZRFBM3CTDN","","","<img src=""img/flower6.png"" style=""width:200px; border:14px solid green;"">","null","","","","","",""
"556.5","","image-keyboard-response","50","323839","0.0-50.0","3WQQ9FUS6BGUG3PORZEM2ORC9GD8BB","AMHUDJ44HF1ZH","3WPCIUYH1AU470H2HRBLZRFBM3CTDN","","","img/flower5.png","75","556.9000000059605","2","1","2","",""
"null","","html-keyboard-response","51","324148","0.0-51.0","3WQQ9FUS6BGUG3PORZEM2ORC9GD8BB","AMHUDJ44HF1ZH","3WPCIUYH1AU470H2HRBLZRFBM3CTDN","","","<img src=""img/flower5.png"" style=""width:200px; border:14px solid green;"">","null","","","","","",""
"772.5","","image-keyboard-response","52","324921","0.0-52.0","3WQQ9FUS6BGUG3PORZEM2ORC9GD8BB","AMHUDJ44HF1ZH","3WPCIUYH1AU470H2HRBLZRFBM3CTDN","","","img/flower4.png","74","773","1","1","1","",""
"null","","html-keyboard-response","53","325233","0.0-53.0","3WQQ9FUS6BGUG3PORZEM2ORC9GD8BB","AMHUDJ44HF1ZH","3WPCIUYH1AU470H2HRBLZRFBM3CTDN","","","<img src=""img/flower4.png"" style=""width:200px; border:14px solid green;"">","null","","","","","",""
"899.6999999880791","","image-keyboard-response","54","326133","0.0-54.0","3WQQ9FUS6BGUG3PORZEM2ORC9GD8BB","AMHUDJ44HF1ZH","3WPCIUYH1AU470H2HRBLZRFBM3CTDN","","","img/flower5.png","75","900.1999999880791","2","0","2","",""
"null","","html-keyboard-response","55","326447","0.0-55.0","3WQQ9FUS6BGUG3PORZEM2ORC9GD8BB","AMHUDJ44HF1ZH","3WPCIUYH1AU470H2HRBLZRFBM3CTDN","","","<img src=""img/flower5.png"" style=""width:200px;border:14px solid red;"">","null","","","","","",""
"890.6999999880791","","image-keyboard-response","56","327339","0.0-56.0","3WQQ9FUS6BGUG3PORZEM2ORC9GD8BB","AMHUDJ44HF1ZH","3WPCIUYH1AU470H2HRBLZRFBM3CTDN","","","img/flower4.png","74","891.2999999821186","1","1","1","",""
"null","","html-keyboard-response","57","327647","0.0-57.0","3WQQ9FUS6BGUG3PORZEM2ORC9GD8BB","AMHUDJ44HF1ZH","3WPCIUYH1AU470H2HRBLZRFBM3CTDN","","","<img src=""img/flower4.png"" style=""width:200px; border:14px solid green;"">","null","","","","","",""
"623.3999999761581","","image-keyboard-response","58","328271","0.0-58.0","3WQQ9FUS6BGUG3PORZEM2ORC9GD8BB","AMHUDJ44HF1ZH","3WPCIUYH1AU470H2HRBLZRFBM3CTDN","","","img/flower6.png","76","624","3","1","3","",""
"null","","html-keyboard-response","59","328581","0.0-59.0","3WQQ9FUS6BGUG3PORZEM2ORC9GD8BB","AMHUDJ44HF1ZH","3WPCIUYH1AU470H2HRBLZRFBM3CTDN","","","<img src=""img/flower6.png"" style=""width:200px; border:14px solid green;"">","null","","","","","",""
"737.9000000059605","","image-keyboard-response","60","329320","0.0-60.0","3WQQ9FUS6BGUG3PORZEM2ORC9GD8BB","AMHUDJ44HF1ZH","3WPCIUYH1AU470H2HRBLZRFBM3CTDN","","","img/flower5.png","75","738.5","2","1","2","",""
"null","","html-keyboard-response","61","329631","0.0-61.0","3WQQ9FUS6BGUG3PORZEM2ORC9GD8BB","AMHUDJ44HF1ZH","3WPCIUYH1AU470H2HRBLZRFBM3CTDN","","","<img src=""img/flower5.png"" style=""width:200px; border:14px solid green;"">","null","","","","","",""
"736.9000000059605","","image-keyboard-response","62","330368","0.0-62.0","3WQQ9FUS6BGUG3PORZEM2ORC9GD8BB","AMHUDJ44HF1ZH","3WPCIUYH1AU470H2HRBLZRFBM3CTDN","","","img/flower4.png","74","737.2999999821186","1","1","1","",""
"null","","html-keyboard-response","63","330681","0.0-63.0","3WQQ9FUS6BGUG3PORZEM2ORC9GD8BB","AMHUDJ44HF1ZH","3WPCIUYH1AU470H2HRBLZRFBM3CTDN","","","<img src=""img/flower4.png"" style=""width:200px; border:14px solid green;"">","null","","","","","",""
"11017.699999988079","","instructions","64","341699","0.0-64.0","3WQQ9FUS6BGUG3PORZEM2ORC9GD8BB","AMHUDJ44HF1ZH","3WPCIUYH1AU470H2HRBLZRFBM3CTDN","","[{""page_index"":0,""viewing_time"":5461.4000000059605},{""page_index"":1,""viewing_time"":5556.199999988079}]","","","","","","","",""
"1992.199999988079","","image-keyboard-response","65","343692","0.0-65.0","3WQQ9FUS6BGUG3PORZEM2ORC9GD8BB","AMHUDJ44HF1ZH","3WPCIUYH1AU470H2HRBLZRFBM3CTDN","","","img/flower6.png","76","1992.699999988079","3","1","3","",""
"null","","html-keyboard-response","66","343996","0.0-66.0","3WQQ9FUS6BGUG3PORZEM2ORC9GD8BB","AMHUDJ44HF1ZH","3WPCIUYH1AU470H2HRBLZRFBM3CTDN","","","<img src=""img/flower6.png"" style=""width:200px; border:14px solid green;"">","null","","","","","",""
"867.3000000119209","","image-keyboard-response","67","344864","0.0-67.0","3WQQ9FUS6BGUG3PORZEM2ORC9GD8BB","AMHUDJ44HF1ZH","3WPCIUYH1AU470H2HRBLZRFBM3CTDN","","","img/flower5.png","75","867.6999999880791","2","1","2","",""
"null","","html-keyboard-response","68","345166","0.0-68.0","3WQQ9FUS6BGUG3PORZEM2ORC9GD8BB","AMHUDJ44HF1ZH","3WPCIUYH1AU470H2HRBLZRFBM3CTDN","","","<img src=""img/flower5.png"" style=""width:200px; border:14px solid green;"">","null","","","","","",""
"555","","image-keyboard-response","69","345721","0.0-69.0","3WQQ9FUS6BGUG3PORZEM2ORC9GD8BB","AMHUDJ44HF1ZH","3WPCIUYH1AU470H2HRBLZRFBM3CTDN","","","img/flower5.png","75","555.5","2","1","2","",""
"null","","html-keyboard-response","70","346030","0.0-70.0","3WQQ9FUS6BGUG3PORZEM2ORC9GD8BB","AMHUDJ44HF1ZH","3WPCIUYH1AU470H2HRBLZRFBM3CTDN","","","<img src=""img/flower5.png"" style=""width:200px; border:14px solid green;"">","null","","","","","",""
"427","","image-keyboard-response","71","346458","0.0-71.0","3WQQ9FUS6BGUG3PORZEM2ORC9GD8BB","AMHUDJ44HF1ZH","3WPCIUYH1AU470H2HRBLZRFBM3CTDN","","","img/flower5.png","75","427.5","2","1","2","",""
"null","","html-keyboard-response","72","346764","0.0-72.0","3WQQ9FUS6BGUG3PORZEM2ORC9GD8BB","AMHUDJ44HF1ZH","3WPCIUYH1AU470H2HRBLZRFBM3CTDN","","","<img src=""img/flower5.png"" style=""width:200px; border:14px solid green;"">","null","","","","","",""
"432.09999999403954","","image-keyboard-response","73","347197","0.0-73.0","3WQQ9FUS6BGUG3PORZEM2ORC9GD8BB","AMHUDJ44HF1ZH","3WPCIUYH1AU470H2HRBLZRFBM3CTDN","","","img/flower5.png","75","432.69999998807907","2","1","2","",""
"null","","html-keyboard-response","74","347499","0.0-74.0","3WQQ9FUS6BGUG3PORZEM2ORC9GD8BB","AMHUDJ44HF1ZH","3WPCIUYH1AU470H2HRBLZRFBM3CTDN","","","<img src=""img/flower5.png"" style=""width:200px; border:14px solid green;"">","null","","","","","",""
"1597.9000000059605","","image-keyboard-response","75","349098","0.0-75.0","3WQQ9FUS6BGUG3PORZEM2ORC9GD8BB","AMHUDJ44HF1ZH","3WPCIUYH1AU470H2HRBLZRFBM3CTDN","","","img/flower5.png","75","1598.300000011921","2","1","2","",""
"null","","html-keyboard-response","76","349415","0.0-76.0","3WQQ9FUS6BGUG3PORZEM2ORC9GD8BB","AMHUDJ44HF1ZH","3WPCIUYH1AU470H2HRBLZRFBM3CTDN","","","<img src=""img/flower5.png"" style=""width:200px; border:14px solid green;"">","null","","","","","",""
"1457.5","","image-keyboard-response","77","350873","0.0-77.0","3WQQ9FUS6BGUG3PORZEM2ORC9GD8BB","AMHUDJ44HF1ZH","3WPCIUYH1AU470H2HRBLZRFBM3CTDN","","","img/flower6.png","76","1458","3","1","3","",""
"null","","html-keyboard-response","78","351183","0.0-78.0","3WQQ9FUS6BGUG3PORZEM2ORC9GD8BB","AMHUDJ44HF1ZH","3WPCIUYH1AU470H2HRBLZRFBM3CTDN","","","<img src=""img/flower6.png"" style=""width:200px; border:14px solid green;"">","null","","","","","",""
"381.59999999403954","","image-keyboard-response","79","351565","0.0-79.0","3WQQ9FUS6BGUG3PORZEM2ORC9GD8BB","AMHUDJ44HF1ZH","3WPCIUYH1AU470H2HRBLZRFBM3CTDN","","","img/flower6.png","76","382.09999999403954","3","1","3","",""
"null","","html-keyboard-response","80","351869","0.0-80.0","3WQQ9FUS6BGUG3PORZEM2ORC9GD8BB","AMHUDJ44HF1ZH","3WPCIUYH1AU470H2HRBLZRFBM3CTDN","","","<img src=""img/flower6.png"" style=""width:200px; border:14px solid green;"">","null","","","","","",""
"340.30000001192093","","image-keyboard-response","81","352210","0.0-81.0","3WQQ9FUS6BGUG3PORZEM2ORC9GD8BB","AMHUDJ44HF1ZH","3WPCIUYH1AU470H2HRBLZRFBM3CTDN","","","img/flower6.png","76","340.90000000596046","3","1","3","",""
"null","","html-keyboard-response","82","352515","0.0-82.0","3WQQ9FUS6BGUG3PORZEM2ORC9GD8BB","AMHUDJ44HF1ZH","3WPCIUYH1AU470H2HRBLZRFBM3CTDN","","","<img src=""img/flower6.png"" style=""width:200px; border:14px solid green;"">","null","","","","","",""
"835.5999999940395","","image-keyboard-response","83","353351","0.0-83.0","3WQQ9FUS6BGUG3PORZEM2ORC9GD8BB","AMHUDJ44HF1ZH","3WPCIUYH1AU470H2HRBLZRFBM3CTDN","","","img/flower4.png","74","836.1999999880791","1","0","1","",""
"null","","html-keyboard-response","84","353667","0.0-84.0","3WQQ9FUS6BGUG3PORZEM2ORC9GD8BB","AMHUDJ44HF1ZH","3WPCIUYH1AU470H2HRBLZRFBM3CTDN","","","<img src=""img/flower4.png"" style=""width:200px;border:14px solid red;"">","null","","","","","",""
"723.1999999880791","","image-keyboard-response","85","354390","0.0-85.0","3WQQ9FUS6BGUG3PORZEM2ORC9GD8BB","AMHUDJ44HF1ZH","3WPCIUYH1AU470H2HRBLZRFBM3CTDN","","","img/flower5.png","75","723.5999999940395","2","1","2","",""
"null","","html-keyboard-response","86","354699","0.0-86.0","3WQQ9FUS6BGUG3PORZEM2ORC9GD8BB","AMHUDJ44HF1ZH","3WPCIUYH1AU470H2HRBLZRFBM3CTDN","","","<img src=""img/flower5.png"" style=""width:200px; border:14px solid green;"">","null","","","","","",""
"660.5","","image-keyboard-response","87","355360","0.0-87.0","3WQQ9FUS6BGUG3PORZEM2ORC9GD8BB","AMHUDJ44HF1ZH","3WPCIUYH1AU470H2HRBLZRFBM3CTDN","","","img/flower4.png","74","660.7999999821186","1","0","1","",""
"null","","html-keyboard-response","88","355663","0.0-88.0","3WQQ9FUS6BGUG3PORZEM2ORC9GD8BB","AMHUDJ44HF1ZH","3WPCIUYH1AU470H2HRBLZRFBM3CTDN","","","<img src=""img/flower4.png"" style=""width:200px;border:14px solid red;"">","null","","","","","",""
"417.40000000596046","","image-keyboard-response","89","356081","0.0-89.0","3WQQ9FUS6BGUG3PORZEM2ORC9GD8BB","AMHUDJ44HF1ZH","3WPCIUYH1AU470H2HRBLZRFBM3CTDN","","","img/flower4.png","74","417.90000000596046","1","1","1","",""
"null","","html-keyboard-response","90","356382","0.0-90.0","3WQQ9FUS6BGUG3PORZEM2ORC9GD8BB","AMHUDJ44HF1ZH","3WPCIUYH1AU470H2HRBLZRFBM3CTDN","","","<img src=""img/flower4.png"" style=""width:200px; border:14px solid green;"">","null","","","","","",""
"350.7000000178814","","image-keyboard-response","91","356734","0.0-91.0","3WQQ9FUS6BGUG3PORZEM2ORC9GD8BB","AMHUDJ44HF1ZH","3WPCIUYH1AU470H2HRBLZRFBM3CTDN","","","img/flower4.png","74","351.2999999821186","1","0","1","",""
"null","","html-keyboard-response","92","357047","0.0-92.0","3WQQ9FUS6BGUG3PORZEM2ORC9GD8BB","AMHUDJ44HF1ZH","3WPCIUYH1AU470H2HRBLZRFBM3CTDN","","","<img src=""img/flower4.png"" style=""width:200px;border:14px solid red;"">","null","","","","","",""
"537.9000000059605","","image-keyboard-response","93","357586","0.0-93.0","3WQQ9FUS6BGUG3PORZEM2ORC9GD8BB","AMHUDJ44HF1ZH","3WPCIUYH1AU470H2HRBLZRFBM3CTDN","","","img/flower5.png","75","538.4000000059605","2","0","2","",""
"null","","html-keyboard-response","94","357900","0.0-94.0","3WQQ9FUS6BGUG3PORZEM2ORC9GD8BB","AMHUDJ44HF1ZH","3WPCIUYH1AU470H2HRBLZRFBM3CTDN","","","<img src=""img/flower5.png"" style=""width:200px;border:14px solid red;"">","null","","","","","",""
"750.3000000119209","","image-keyboard-response","95","358651","0.0-95.0","3WQQ9FUS6BGUG3PORZEM2ORC9GD8BB","AMHUDJ44HF1ZH","3WPCIUYH1AU470H2HRBLZRFBM3CTDN","","","img/flower6.png","76","750.9000000059605","3","1","3","",""
"null","","html-keyboard-response","96","358963","0.0-96.0","3WQQ9FUS6BGUG3PORZEM2ORC9GD8BB","AMHUDJ44HF1ZH","3WPCIUYH1AU470H2HRBLZRFBM3CTDN","","","<img src=""img/flower6.png"" style=""width:200px; border:14px solid green;"">","null","","","","","",""
"465.90000000596046","","image-keyboard-response","97","359430","0.0-97.0","3WQQ9FUS6BGUG3PORZEM2ORC9GD8BB","AMHUDJ44HF1ZH","3WPCIUYH1AU470H2HRBLZRFBM3CTDN","","","img/flower6.png","76","466.5","3","1","3","",""
"null","","html-keyboard-response","98","359743","0.0-98.0","3WQQ9FUS6BGUG3PORZEM2ORC9GD8BB","AMHUDJ44HF1ZH","3WPCIUYH1AU470H2HRBLZRFBM3CTDN","","","<img src=""img/flower6.png"" style=""width:200px; border:14px solid green;"">","null","","","","","",""
"468","","image-keyboard-response","99","360212","0.0-99.0","3WQQ9FUS6BGUG3PORZEM2ORC9GD8BB","AMHUDJ44HF1ZH","3WPCIUYH1AU470H2HRBLZRFBM3CTDN","","","img/flower6.png","76","468.2999999821186","3","1","3","",""
"null","","html-keyboard-response","100","360514","0.0-100.0","3WQQ9FUS6BGUG3PORZEM2ORC9GD8BB","AMHUDJ44HF1ZH","3WPCIUYH1AU470H2HRBLZRFBM3CTDN","","","<img src=""img/flower6.png"" style=""width:200px; border:14px solid green;"">","null","","","","","",""
"1315.7999999821186","","image-keyboard-response","101","361830","0.0-101.0","3WQQ9FUS6BGUG3PORZEM2ORC9GD8BB","AMHUDJ44HF1ZH","3WPCIUYH1AU470H2HRBLZRFBM3CTDN","","","img/flower4.png","74","1316.300000011921","1","1","1","",""
"null","","html-keyboard-response","102","362147","0.0-102.0","3WQQ9FUS6BGUG3PORZEM2ORC9GD8BB","AMHUDJ44HF1ZH","3WPCIUYH1AU470H2HRBLZRFBM3CTDN","","","<img src=""img/flower4.png"" style=""width:200px; border:14px solid green;"">","null","","","","","",""
"992.0999999940395","","image-keyboard-response","103","363140","0.0-103.0","3WQQ9FUS6BGUG3PORZEM2ORC9GD8BB","AMHUDJ44HF1ZH","3WPCIUYH1AU470H2HRBLZRFBM3CTDN","","","img/flower5.png","75","992.5999999940395","2","1","2","",""
"null","","html-keyboard-response","104","363448","0.0-104.0","3WQQ9FUS6BGUG3PORZEM2ORC9GD8BB","AMHUDJ44HF1ZH","3WPCIUYH1AU470H2HRBLZRFBM3CTDN","","","<img src=""img/flower5.png"" style=""width:200px; border:14px solid green;"">","null","","","","","",""
"890.3000000119209","","image-keyboard-response","105","364339","0.0-105.0","3WQQ9FUS6BGUG3PORZEM2ORC9GD8BB","AMHUDJ44HF1ZH","3WPCIUYH1AU470H2HRBLZRFBM3CTDN","","","img/flower6.png","76","890.8999999761581","3","1","3","",""
"null","","html-keyboard-response","106","364650","0.0-106.0","3WQQ9FUS6BGUG3PORZEM2ORC9GD8BB","AMHUDJ44HF1ZH","3WPCIUYH1AU470H2HRBLZRFBM3CTDN","","","<img src=""img/flower6.png"" style=""width:200px; border:14px solid green;"">","null","","","","","",""
"948.5","","image-keyboard-response","107","365599","0.0-107.0","3WQQ9FUS6BGUG3PORZEM2ORC9GD8BB","AMHUDJ44HF1ZH","3WPCIUYH1AU470H2HRBLZRFBM3CTDN","","","img/flower4.png","74","949.0999999940395","1","0","1","",""
"null","","html-keyboard-response","108","365901","0.0-108.0","3WQQ9FUS6BGUG3PORZEM2ORC9GD8BB","AMHUDJ44HF1ZH","3WPCIUYH1AU470H2HRBLZRFBM3CTDN","","","<img src=""img/flower4.png"" style=""width:200px;border:14px solid red;"">","null","","","","","",""
"444.2000000178814","","image-keyboard-response","109","366345","0.0-109.0","3WQQ9FUS6BGUG3PORZEM2ORC9GD8BB","AMHUDJ44HF1ZH","3WPCIUYH1AU470H2HRBLZRFBM3CTDN","","","img/flower4.png","74","444.59999999403954","1","1","1","",""
"null","","html-keyboard-response","110","366649","0.0-110.0","3WQQ9FUS6BGUG3PORZEM2ORC9GD8BB","AMHUDJ44HF1ZH","3WPCIUYH1AU470H2HRBLZRFBM3CTDN","","","<img src=""img/flower4.png"" style=""width:200px; border:14px solid green;"">","null","","","","","",""
"821.1000000238419","","image-keyboard-response","111","367470","0.0-111.0","3WQQ9FUS6BGUG3PORZEM2ORC9GD8BB","AMHUDJ44HF1ZH","3WPCIUYH1AU470H2HRBLZRFBM3CTDN","","","img/flower6.png","76","821.6999999880791","3","0","3","",""
"null","","html-keyboard-response","112","367774","0.0-112.0","3WQQ9FUS6BGUG3PORZEM2ORC9GD8BB","AMHUDJ44HF1ZH","3WPCIUYH1AU470H2HRBLZRFBM3CTDN","","","<img src=""img/flower6.png"" style=""width:200px;border:14px solid red;"">","null","","","","","",""
"355.19999998807907","","image-keyboard-response","113","368130","0.0-113.0","3WQQ9FUS6BGUG3PORZEM2ORC9GD8BB","AMHUDJ44HF1ZH","3WPCIUYH1AU470H2HRBLZRFBM3CTDN","","","img/flower6.png","76","355.7000000178814","3","0","3","",""
"null","","html-keyboard-response","114","368434","0.0-114.0","3WQQ9FUS6BGUG3PORZEM2ORC9GD8BB","AMHUDJ44HF1ZH","3WPCIUYH1AU470H2HRBLZRFBM3CTDN","","","<img src=""img/flower6.png"" style=""width:200px;border:14px solid red;"">","null","","","","","",""
"1443.199999988079","","image-keyboard-response","115","369878","0.0-115.0","3WQQ9FUS6BGUG3PORZEM2ORC9GD8BB","AMHUDJ44HF1ZH","3WPCIUYH1AU470H2HRBLZRFBM3CTDN","","","img/flower4.png","74","1443.7999999821186","1","1","1","",""
"null","","html-keyboard-response","116","370181","0.0-116.0","3WQQ9FUS6BGUG3PORZEM2ORC9GD8BB","AMHUDJ44HF1ZH","3WPCIUYH1AU470H2HRBLZRFBM3CTDN","","","<img src=""img/flower4.png"" style=""width:200px; border:14px solid green;"">","null","","","","","",""
"576.6000000238419","","image-keyboard-response","117","370758","0.0-117.0","3WQQ9FUS6BGUG3PORZEM2ORC9GD8BB","AMHUDJ44HF1ZH","3WPCIUYH1AU470H2HRBLZRFBM3CTDN","","","img/flower4.png","74","577.0999999940395","1","1","1","",""
"null","","html-keyboard-response","118","371065","0.0-118.0","3WQQ9FUS6BGUG3PORZEM2ORC9GD8BB","AMHUDJ44HF1ZH","3WPCIUYH1AU470H2HRBLZRFBM3CTDN","","","<img src=""img/flower4.png"" style=""width:200px; border:14px solid green;"">","null","","","","","",""
"753.5","","image-keyboard-response","119","371819","0.0-119.0","3WQQ9FUS6BGUG3PORZEM2ORC9GD8BB","AMHUDJ44HF1ZH","3WPCIUYH1AU470H2HRBLZRFBM3CTDN","","","img/flower5.png","75","754","2","1","2","",""
"null","","html-keyboard-response","120","372132","0.0-120.0","3WQQ9FUS6BGUG3PORZEM2ORC9GD8BB","AMHUDJ44HF1ZH","3WPCIUYH1AU470H2HRBLZRFBM3CTDN","","","<img src=""img/flower5.png"" style=""width:200px; border:14px solid green;"">","null","","","","","",""
"333.69999998807907","","image-keyboard-response","121","372466","0.0-121.0","3WQQ9FUS6BGUG3PORZEM2ORC9GD8BB","AMHUDJ44HF1ZH","3WPCIUYH1AU470H2HRBLZRFBM3CTDN","","","img/flower5.png","75","334.2999999821186","2","1","2","",""
"null","","html-keyboard-response","122","372782","0.0-122.0","3WQQ9FUS6BGUG3PORZEM2ORC9GD8BB","AMHUDJ44HF1ZH","3WPCIUYH1AU470H2HRBLZRFBM3CTDN","","","<img src=""img/flower5.png"" style=""width:200px; border:14px solid green;"">","null","","","","","",""
"863.7999999821186","","image-keyboard-response","123","373647","0.0-123.0","3WQQ9FUS6BGUG3PORZEM2ORC9GD8BB","AMHUDJ44HF1ZH","3WPCIUYH1AU470H2HRBLZRFBM3CTDN","","","img/flower4.png","74","864.5","1","1","1","",""
"null","","html-keyboard-response","124","373963","0.0-124.0","3WQQ9FUS6BGUG3PORZEM2ORC9GD8BB","AMHUDJ44HF1ZH","3WPCIUYH1AU470H2HRBLZRFBM3CTDN","","","<img src=""img/flower4.png"" style=""width:200px; border:14px solid green;"">","null","","","","","",""
"5707.700000017881","","instructions","125","379671","0.0-125.0","3WQQ9FUS6BGUG3PORZEM2ORC9GD8BB","AMHUDJ44HF1ZH","3WPCIUYH1AU470H2HRBLZRFBM3CTDN","","[{""page_index"":0,""viewing_time"":5707.700000017881}]","","","","","","","",""
"3724.7000000178814","","image-keyboard-response","126","383397","0.0-126.0","3WQQ9FUS6BGUG3PORZEM2ORC9GD8BB","AMHUDJ44HF1ZH","3WPCIUYH1AU470H2HRBLZRFBM3CTDN","","","img/flower8.png","74","3725.5","1","0","3","0.6,0.6,0,0,0.6,0.6,0.6,0,0.6",""
"null","","html-keyboard-response","127","383712","0.0-127.0","3WQQ9FUS6BGUG3PORZEM2ORC9GD8BB","AMHUDJ44HF1ZH","3WPCIUYH1AU470H2HRBLZRFBM3CTDN","","","<img src=""img/flower8.png"" style=""width:200px;border:14px solid red;"">","null","","","","","",""
"1107","","image-keyboard-response","128","384820","0.0-128.0","3WQQ9FUS6BGUG3PORZEM2ORC9GD8BB","AMHUDJ44HF1ZH","3WPCIUYH1AU470H2HRBLZRFBM3CTDN","","","img/flower8.png","75","1107.4000000059605","2","0","3","0.6,0.6,0,0,0.6,0.6,0.6,0,0.6",""
"null","","html-keyboard-response","129","385133","0.0-129.0","3WQQ9FUS6BGUG3PORZEM2ORC9GD8BB","AMHUDJ44HF1ZH","3WPCIUYH1AU470H2HRBLZRFBM3CTDN","","","<img src=""img/flower8.png"" style=""width:200px;border:14px solid red;"">","null","","","","","",""
"512.2999999821186","","image-keyboard-response","130","385646","0.0-130.0","3WQQ9FUS6BGUG3PORZEM2ORC9GD8BB","AMHUDJ44HF1ZH","3WPCIUYH1AU470H2HRBLZRFBM3CTDN","","","img/flower8.png","76","512.6999999880791","3","1","3","0.6,0.6,0,0,0.6,0.6,0.6,0,0.6",""
"null","","html-keyboard-response","131","385949","0.0-131.0","3WQQ9FUS6BGUG3PORZEM2ORC9GD8BB","AMHUDJ44HF1ZH","3WPCIUYH1AU470H2HRBLZRFBM3CTDN","","","<img src=""img/flower8.png"" style=""width:200px; border:14px solid green;"">","null","","","","","",""
"8814.200000017881","","image-keyboard-response","132","394764","0.0-132.0","3WQQ9FUS6BGUG3PORZEM2ORC9GD8BB","AMHUDJ44HF1ZH","3WPCIUYH1AU470H2HRBLZRFBM3CTDN","","","img/flower5.png","75","8814.699999988079","2","1","1","0.6,0.6,0,0,0.6,0.6,0.6,0,0.6",""
"null","","html-keyboard-response","133","395067","0.0-133.0","3WQQ9FUS6BGUG3PORZEM2ORC9GD8BB","AMHUDJ44HF1ZH","3WPCIUYH1AU470H2HRBLZRFBM3CTDN","","","<img src=""img/flower5.png"" style=""width:200px; border:14px solid green;"">","null","","","","","",""
"1400.800000011921","","image-keyboard-response","134","396469","0.0-134.0","3WQQ9FUS6BGUG3PORZEM2ORC9GD8BB","AMHUDJ44HF1ZH","3WPCIUYH1AU470H2HRBLZRFBM3CTDN","","","img/flower9.png","76","1401.2000000178814","3","1","2","0.6,0.6,0,0,0.6,0.6,0.6,0,0.6",""
"null","","html-keyboard-response","135","396782","0.0-135.0","3WQQ9FUS6BGUG3PORZEM2ORC9GD8BB","AMHUDJ44HF1ZH","3WPCIUYH1AU470H2HRBLZRFBM3CTDN","","","<img src=""img/flower9.png"" style=""width:200px; border:14px solid green;"">","null","","","","","",""
"833.5","","image-keyboard-response","136","397616","0.0-136.0","3WQQ9FUS6BGUG3PORZEM2ORC9GD8BB","AMHUDJ44HF1ZH","3WPCIUYH1AU470H2HRBLZRFBM3CTDN","","","img/flower9.png","76","833.9000000059605","3","1","2","0.6,0.6,0,0,0.6,0.6,0.6,0,0.6",""
"null","","html-keyboard-response","137","397917","0.0-137.0","3WQQ9FUS6BGUG3PORZEM2ORC9GD8BB","AMHUDJ44HF1ZH","3WPCIUYH1AU470H2HRBLZRFBM3CTDN","","","<img src=""img/flower9.png"" style=""width:200px; border:14px solid green;"">","null","","","","","",""
"370.5","","image-keyboard-response","138","398288","0.0-138.0","3WQQ9FUS6BGUG3PORZEM2ORC9GD8BB","AMHUDJ44HF1ZH","3WPCIUYH1AU470H2HRBLZRFBM3CTDN","","","img/flower9.png","76","371","3","1","2","0.6,0.6,0,0,0.6,0.6,0.6,0,0.6",""
"null","","html-keyboard-response","139","398592","0.0-139.0","3WQQ9FUS6BGUG3PORZEM2ORC9GD8BB","AMHUDJ44HF1ZH","3WPCIUYH1AU470H2HRBLZRFBM3CTDN","","","<img src=""img/flower9.png"" style=""width:200px; border:14px solid green;"">","null","","","","","",""
"2850.399999976158","","image-keyboard-response","140","401443","0.0-140.0","3WQQ9FUS6BGUG3PORZEM2ORC9GD8BB","AMHUDJ44HF1ZH","3WPCIUYH1AU470H2HRBLZRFBM3CTDN","","","img/flower8.png","76","2850.9000000059605","3","1","3","0.6,0.6,0,0,0.6,0.6,0.6,0,0.6",""
"null","","html-keyboard-response","141","401744","0.0-141.0","3WQQ9FUS6BGUG3PORZEM2ORC9GD8BB","AMHUDJ44HF1ZH","3WPCIUYH1AU470H2HRBLZRFBM3CTDN","","","<img src=""img/flower8.png"" style=""width:200px; border:14px solid green;"">","null","","","","","",""
"811.4000000059605","","image-keyboard-response","142","402556","0.0-142.0","3WQQ9FUS6BGUG3PORZEM2ORC9GD8BB","AMHUDJ44HF1ZH","3WPCIUYH1AU470H2HRBLZRFBM3CTDN","","","img/flower5.png","75","811.8999999761581","2","1","1","0.6,0.6,0,0,0.6,0.6,0.6,0,0.6",""
"null","","html-keyboard-response","143","402863","0.0-143.0","3WQQ9FUS6BGUG3PORZEM2ORC9GD8BB","AMHUDJ44HF1ZH","3WPCIUYH1AU470H2HRBLZRFBM3CTDN","","","<img src=""img/flower5.png"" style=""width:200px; border:14px solid green;"">","null","","","","","",""
"784.0999999940395","","image-keyboard-response","144","403648","0.0-144.0","3WQQ9FUS6BGUG3PORZEM2ORC9GD8BB","AMHUDJ44HF1ZH","3WPCIUYH1AU470H2HRBLZRFBM3CTDN","","","img/flower9.png","76","784.7999999821186","3","1","2","0.6,0.6,0,0,0.6,0.6,0.6,0,0.6",""
"null","","html-keyboard-response","145","403964","0.0-145.0","3WQQ9FUS6BGUG3PORZEM2ORC9GD8BB","AMHUDJ44HF1ZH","3WPCIUYH1AU470H2HRBLZRFBM3CTDN","","","<img src=""img/flower9.png"" style=""width:200px; border:14px solid green;"">","null","","","","","",""
"336.5","","image-keyboard-response","146","404301","0.0-146.0","3WQQ9FUS6BGUG3PORZEM2ORC9GD8BB","AMHUDJ44HF1ZH","3WPCIUYH1AU470H2HRBLZRFBM3CTDN","","","img/flower9.png","76","337","3","0","2","0.6,0.6,0,0,0.6,0.6,0.6,0,0.6",""
"null","","html-keyboard-response","147","404616","0.0-147.0","3WQQ9FUS6BGUG3PORZEM2ORC9GD8BB","AMHUDJ44HF1ZH","3WPCIUYH1AU470H2HRBLZRFBM3CTDN","","","<img src=""img/flower9.png"" style=""width:200px;border:14px solid red;"">","null","","","","","",""
"330.40000000596046","","image-keyboard-response","148","404947","0.0-148.0","3WQQ9FUS6BGUG3PORZEM2ORC9GD8BB","AMHUDJ44HF1ZH","3WPCIUYH1AU470H2HRBLZRFBM3CTDN","","","img/flower9.png","76","330.90000000596046","3","1","2","0.6,0.6,0,0,0.6,0.6,0.6,0,0.6",""
"null","","html-keyboard-response","149","405251","0.0-149.0","3WQQ9FUS6BGUG3PORZEM2ORC9GD8BB","AMHUDJ44HF1ZH","3WPCIUYH1AU470H2HRBLZRFBM3CTDN","","","<img src=""img/flower9.png"" style=""width:200px; border:14px solid green;"">","null","","","","","",""
"667.6999999880791","","image-keyboard-response","150","405919","0.0-150.0","3WQQ9FUS6BGUG3PORZEM2ORC9GD8BB","AMHUDJ44HF1ZH","3WPCIUYH1AU470H2HRBLZRFBM3CTDN","","","img/flower5.png","75","668.1999999880791","2","0","1","0.6,0.6,0,0,0.6,0.6,0.6,0,0.6",""
"null","","html-keyboard-response","151","406234","0.0-151.0","3WQQ9FUS6BGUG3PORZEM2ORC9GD8BB","AMHUDJ44HF1ZH","3WPCIUYH1AU470H2HRBLZRFBM3CTDN","","","<img src=""img/flower5.png"" style=""width:200px;border:14px solid red;"">","null","","","","","",""
"442.89999997615814","","image-keyboard-response","152","406677","0.0-152.0","3WQQ9FUS6BGUG3PORZEM2ORC9GD8BB","AMHUDJ44HF1ZH","3WPCIUYH1AU470H2HRBLZRFBM3CTDN","","","img/flower5.png","75","443.5","2","1","1","0.6,0.6,0,0,0.6,0.6,0.6,0,0.6",""
"null","","html-keyboard-response","153","406981","0.0-153.0","3WQQ9FUS6BGUG3PORZEM2ORC9GD8BB","AMHUDJ44HF1ZH","3WPCIUYH1AU470H2HRBLZRFBM3CTDN","","","<img src=""img/flower5.png"" style=""width:200px; border:14px solid green;"">","null","","","","","",""
"333.59999999403954","","image-keyboard-response","154","407316","0.0-154.0","3WQQ9FUS6BGUG3PORZEM2ORC9GD8BB","AMHUDJ44HF1ZH","3WPCIUYH1AU470H2HRBLZRFBM3CTDN","","","img/flower5.png","75","334.40000000596046","2","1","1","0.6,0.6,0,0,0.6,0.6,0.6,0,0.6",""
"null","","html-keyboard-response","155","407618","0.0-155.0","3WQQ9FUS6BGUG3PORZEM2ORC9GD8BB","AMHUDJ44HF1ZH","3WPCIUYH1AU470H2HRBLZRFBM3CTDN","","","<img src=""img/flower5.png"" style=""width:200px; border:14px solid green;"">","null","","","","","",""
"736.7999999821186","","image-keyboard-response","156","408356","0.0-156.0","3WQQ9FUS6BGUG3PORZEM2ORC9GD8BB","AMHUDJ44HF1ZH","3WPCIUYH1AU470H2HRBLZRFBM3CTDN","","","img/flower8.png","76","737.1999999880791","3","0","3","0.6,0.6,0,0,0.6,0.6,0.6,0,0.6",""
"null","","html-keyboard-response","157","408666","0.0-157.0","3WQQ9FUS6BGUG3PORZEM2ORC9GD8BB","AMHUDJ44HF1ZH","3WPCIUYH1AU470H2HRBLZRFBM3CTDN","","","<img src=""img/flower8.png"" style=""width:200px;border:14px solid red;"">","null","","","","","",""
"281.69999998807907","","image-keyboard-response","158","408948","0.0-158.0","3WQQ9FUS6BGUG3PORZEM2ORC9GD8BB","AMHUDJ44HF1ZH","3WPCIUYH1AU470H2HRBLZRFBM3CTDN","","","img/flower8.png","76","282.19999998807907","3","0","3","0.6,0.6,0,0,0.6,0.6,0.6,0,0.6",""
"null","","html-keyboard-response","159","409253","0.0-159.0","3WQQ9FUS6BGUG3PORZEM2ORC9GD8BB","AMHUDJ44HF1ZH","3WPCIUYH1AU470H2HRBLZRFBM3CTDN","","","<img src=""img/flower8.png"" style=""width:200px;border:14px solid red;"">","null","","","","","",""
"814.5","","image-keyboard-response","160","410068","0.0-160.0","3WQQ9FUS6BGUG3PORZEM2ORC9GD8BB","AMHUDJ44HF1ZH","3WPCIUYH1AU470H2HRBLZRFBM3CTDN","","","img/flower9.png","76","815.1999999880791","3","0","2","0.6,0.6,0,0,0.6,0.6,0.6,0,0.6",""
"null","","html-keyboard-response","161","410382","0.0-161.0","3WQQ9FUS6BGUG3PORZEM2ORC9GD8BB","AMHUDJ44HF1ZH","3WPCIUYH1AU470H2HRBLZRFBM3CTDN","","","<img src=""img/flower9.png"" style=""width:200px;border:14px solid red;"">","null","","","","","",""
"756.4000000059605","","image-keyboard-response","162","411139","0.0-162.0","3WQQ9FUS6BGUG3PORZEM2ORC9GD8BB","AMHUDJ44HF1ZH","3WPCIUYH1AU470H2HRBLZRFBM3CTDN","","","img/flower8.png","76","757","3","0","3","0.6,0.6,0,0,0.6,0.6,0.6,0,0.6",""
"null","","html-keyboard-response","163","411451","0.0-163.0","3WQQ9FUS6BGUG3PORZEM2ORC9GD8BB","AMHUDJ44HF1ZH","3WPCIUYH1AU470H2HRBLZRFBM3CTDN","","","<img src=""img/flower8.png"" style=""width:200px;border:14px solid red;"">","null","","","","","",""
"1229.7999999821186","","image-keyboard-response","164","412681","0.0-164.0","3WQQ9FUS6BGUG3PORZEM2ORC9GD8BB","AMHUDJ44HF1ZH","3WPCIUYH1AU470H2HRBLZRFBM3CTDN","","","img/flower9.png","75","1230.4000000059605","2","1","2","0.6,0.6,0,0,0.6,0.6,0.6,0,0.6",""
"null","","html-keyboard-response","165","412983","0.0-165.0","3WQQ9FUS6BGUG3PORZEM2ORC9GD8BB","AMHUDJ44HF1ZH","3WPCIUYH1AU470H2HRBLZRFBM3CTDN","","","<img src=""img/flower9.png"" style=""width:200px; border:14px solid green;"">","null","","","","","",""
"2641.7999999821186","","image-keyboard-response","166","415625","0.0-166.0","3WQQ9FUS6BGUG3PORZEM2ORC9GD8BB","AMHUDJ44HF1ZH","3WPCIUYH1AU470H2HRBLZRFBM3CTDN","","","img/flower5.png","75","2642.199999988079","2","1","1","0.6,0.6,0,0,0.6,0.6,0.6,0,0.6",""
"null","","html-keyboard-response","167","415933","0.0-167.0","3WQQ9FUS6BGUG3PORZEM2ORC9GD8BB","AMHUDJ44HF1ZH","3WPCIUYH1AU470H2HRBLZRFBM3CTDN","","","<img src=""img/flower5.png"" style=""width:200px; border:14px solid green;"">","null","","","","","",""
"290.69999998807907","","image-keyboard-response","168","416224","0.0-168.0","3WQQ9FUS6BGUG3PORZEM2ORC9GD8BB","AMHUDJ44HF1ZH","3WPCIUYH1AU470H2HRBLZRFBM3CTDN","","","img/flower5.png","75","291.2000000178814","2","1","1","0.6,0.6,0,0,0.6,0.6,0.6,0,0.6",""
"null","","html-keyboard-response","169","416534","0.0-169.0","3WQQ9FUS6BGUG3PORZEM2ORC9GD8BB","AMHUDJ44HF1ZH","3WPCIUYH1AU470H2HRBLZRFBM3CTDN","","","<img src=""img/flower5.png"" style=""width:200px; border:14px solid green;"">","null","","","","","",""
"858.6000000238419","","image-keyboard-response","170","417393","0.0-170.0","3WQQ9FUS6BGUG3PORZEM2ORC9GD8BB","AMHUDJ44HF1ZH","3WPCIUYH1AU470H2HRBLZRFBM3CTDN","","","img/flower8.png","76","859.0999999940395","3","1","3","0.6,0.6,0,0,0.6,0.6,0.6,0,0.6",""
"null","","html-keyboard-response","171","417697","0.0-171.0","3WQQ9FUS6BGUG3PORZEM2ORC9GD8BB","AMHUDJ44HF1ZH","3WPCIUYH1AU470H2HRBLZRFBM3CTDN","","","<img src=""img/flower8.png"" style=""width:200px; border:14px solid green;"">","null","","","","","",""
"1448.7999999821186","","image-keyboard-response","172","419147","0.0-172.0","3WQQ9FUS6BGUG3PORZEM2ORC9GD8BB","AMHUDJ44HF1ZH","3WPCIUYH1AU470H2HRBLZRFBM3CTDN","","","img/flower9.png","76","1449.1000000238419","3","0","2","0.6,0.6,0,0,0.6,0.6,0.6,0,0.6",""
"null","","html-keyboard-response","173","419453","0.0-173.0","3WQQ9FUS6BGUG3PORZEM2ORC9GD8BB","AMHUDJ44HF1ZH","3WPCIUYH1AU470H2HRBLZRFBM3CTDN","","","<img src=""img/flower9.png"" style=""width:200px;border:14px solid red;"">","null","","","","","",""
"349.30000001192093","","image-keyboard-response","174","419803","0.0-174.0","3WQQ9FUS6BGUG3PORZEM2ORC9GD8BB","AMHUDJ44HF1ZH","3WPCIUYH1AU470H2HRBLZRFBM3CTDN","","","img/flower5.png","76","349.7999999821186","3","0","1","0.6,0.6,0,0,0.6,0.6,0.6,0,0.6",""
"null","","html-keyboard-response","175","420116","0.0-175.0","3WQQ9FUS6BGUG3PORZEM2ORC9GD8BB","AMHUDJ44HF1ZH","3WPCIUYH1AU470H2HRBLZRFBM3CTDN","","","<img src=""img/flower5.png"" style=""width:200px;border:14px solid red;"">","null","","","","","",""
"502.30000001192093","","image-keyboard-response","176","420618","0.0-176.0","3WQQ9FUS6BGUG3PORZEM2ORC9GD8BB","AMHUDJ44HF1ZH","3WPCIUYH1AU470H2HRBLZRFBM3CTDN","","","img/flower5.png","75","502.80000001192093","2","1","1","0.6,0.6,0,0,0.6,0.6,0.6,0,0.6",""
"null","","html-keyboard-response","177","420933","0.0-177.0","3WQQ9FUS6BGUG3PORZEM2ORC9GD8BB","AMHUDJ44HF1ZH","3WPCIUYH1AU470H2HRBLZRFBM3CTDN","","","<img src=""img/flower5.png"" style=""width:200px; border:14px solid green;"">","null","","","","","",""
"308.80000001192093","","image-keyboard-response","178","421242","0.0-178.0","3WQQ9FUS6BGUG3PORZEM2ORC9GD8BB","AMHUDJ44HF1ZH","3WPCIUYH1AU470H2HRBLZRFBM3CTDN","","","img/flower5.png","75","309.40000000596046","2","0","1","0.6,0.6,0,0,0.6,0.6,0.6,0,0.6",""
"null","","html-keyboard-response","179","421550","0.0-179.0","3WQQ9FUS6BGUG3PORZEM2ORC9GD8BB","AMHUDJ44HF1ZH","3WPCIUYH1AU470H2HRBLZRFBM3CTDN","","","<img src=""img/flower5.png"" style=""width:200px;border:14px solid red;"">","null","","","","","",""
"291.60000002384186","","image-keyboard-response","180","421842","0.0-180.0","3WQQ9FUS6BGUG3PORZEM2ORC9GD8BB","AMHUDJ44HF1ZH","3WPCIUYH1AU470H2HRBLZRFBM3CTDN","","","img/flower5.png","75","292.09999999403954","2","0","1","0.6,0.6,0,0,0.6,0.6,0.6,0,0.6",""
"null","","html-keyboard-response","181","422148","0.0-181.0","3WQQ9FUS6BGUG3PORZEM2ORC9GD8BB","AMHUDJ44HF1ZH","3WPCIUYH1AU470H2HRBLZRFBM3CTDN","","","<img src=""img/flower5.png"" style=""width:200px;border:14px solid red;"">","null","","","","","",""
"524.5","","image-keyboard-response","182","422673","0.0-182.0","3WQQ9FUS6BGUG3PORZEM2ORC9GD8BB","AMHUDJ44HF1ZH","3WPCIUYH1AU470H2HRBLZRFBM3CTDN","","","img/flower5.png","75","525","2","0","1","0.6,0.6,0,0,0.6,0.6,0.6,0,0.6",""
"null","","html-keyboard-response","183","422983","0.0-183.0","3WQQ9FUS6BGUG3PORZEM2ORC9GD8BB","AMHUDJ44HF1ZH","3WPCIUYH1AU470H2HRBLZRFBM3CTDN","","","<img src=""img/flower5.png"" style=""width:200px;border:14px solid red;"">","null","","","","","",""
"1938.1000000238419","","image-keyboard-response","184","424921","0.0-184.0","3WQQ9FUS6BGUG3PORZEM2ORC9GD8BB","AMHUDJ44HF1ZH","3WPCIUYH1AU470H2HRBLZRFBM3CTDN","","","img/flower9.png","76","1938.800000011921","3","1","2","0.6,0.6,0,0,0.6,0.6,0.6,0,0.6",""
"null","","html-keyboard-response","185","425233","0.0-185.0","3WQQ9FUS6BGUG3PORZEM2ORC9GD8BB","AMHUDJ44HF1ZH","3WPCIUYH1AU470H2HRBLZRFBM3CTDN","","","<img src=""img/flower9.png"" style=""width:200px; border:14px solid green;"">","null","","","","","",""
"1083.2000000178814","","image-keyboard-response","186","426317","0.0-186.0","3WQQ9FUS6BGUG3PORZEM2ORC9GD8BB","AMHUDJ44HF1ZH","3WPCIUYH1AU470H2HRBLZRFBM3CTDN","","","img/flower5.png","75","1083.7000000178814","2","0","1","0.6,0.6,0,0,0.6,0.6,0.6,0,0.6",""
"null","","html-keyboard-response","187","426633","0.0-187.0","3WQQ9FUS6BGUG3PORZEM2ORC9GD8BB","AMHUDJ44HF1ZH","3WPCIUYH1AU470H2HRBLZRFBM3CTDN","","","<img src=""img/flower5.png"" style=""width:200px;border:14px solid red;"">","null","","","","","",""
"839.8999999761581","","image-keyboard-response","188","427473","0.0-188.0","3WQQ9FUS6BGUG3PORZEM2ORC9GD8BB","AMHUDJ44HF1ZH","3WPCIUYH1AU470H2HRBLZRFBM3CTDN","","","img/flower8.png","76","840.4000000059605","3","1","3","0.6,0.6,0,0,0.6,0.6,0.6,0,0.6",""
"null","","html-keyboard-response","189","427776","0.0-189.0","3WQQ9FUS6BGUG3PORZEM2ORC9GD8BB","AMHUDJ44HF1ZH","3WPCIUYH1AU470H2HRBLZRFBM3CTDN","","","<img src=""img/flower8.png"" style=""width:200px; border:14px solid green;"">","null","","","","","",""
"865.3000000119209","","image-keyboard-response","190","428642","0.0-190.0","3WQQ9FUS6BGUG3PORZEM2ORC9GD8BB","AMHUDJ44HF1ZH","3WPCIUYH1AU470H2HRBLZRFBM3CTDN","","","img/flower5.png","74","865.7999999821186","1","1","1","0.6,0.6,0,0,0.6,0.6,0.6,0,0.6",""
"null","","html-keyboard-response","191","428949","0.0-191.0","3WQQ9FUS6BGUG3PORZEM2ORC9GD8BB","AMHUDJ44HF1ZH","3WPCIUYH1AU470H2HRBLZRFBM3CTDN","","","<img src=""img/flower5.png"" style=""width:200px; border:14px solid green;"">","null","","","","","",""
"1027.0999999940395","","image-keyboard-response","192","429977","0.0-192.0","3WQQ9FUS6BGUG3PORZEM2ORC9GD8BB","AMHUDJ44HF1ZH","3WPCIUYH1AU470H2HRBLZRFBM3CTDN","","","img/flower8.png","75","1027.7000000178814","2","0","3","0.6,0.6,0,0,0.6,0.6,0.6,0,0.6",""
"null","","html-keyboard-response","193","430282","0.0-193.0","3WQQ9FUS6BGUG3PORZEM2ORC9GD8BB","AMHUDJ44HF1ZH","3WPCIUYH1AU470H2HRBLZRFBM3CTDN","","","<img src=""img/flower8.png"" style=""width:200px;border:14px solid red;"">","null","","","","","",""
"997.8000000119209","","image-keyboard-response","194","431281","0.0-194.0","3WQQ9FUS6BGUG3PORZEM2ORC9GD8BB","AMHUDJ44HF1ZH","3WPCIUYH1AU470H2HRBLZRFBM3CTDN","","","img/flower9.png","76","998.4000000059605","3","1","2","0.6,0.6,0,0,0.6,0.6,0.6,0,0.6",""
"null","","html-keyboard-response","195","431586","0.0-195.0","3WQQ9FUS6BGUG3PORZEM2ORC9GD8BB","AMHUDJ44HF1ZH","3WPCIUYH1AU470H2HRBLZRFBM3CTDN","","","<img src=""img/flower9.png"" style=""width:200px; border:14px solid green;"">","null","","","","","",""
"307.69999998807907","","image-keyboard-response","196","431894","0.0-196.0","3WQQ9FUS6BGUG3PORZEM2ORC9GD8BB","AMHUDJ44HF1ZH","3WPCIUYH1AU470H2HRBLZRFBM3CTDN","","","img/flower5.png","76","308.30000001192093","3","0","1","0.6,0.6,0,0,0.6,0.6,0.6,0,0.6",""
"null","","html-keyboard-response","197","432200","0.0-197.0","3WQQ9FUS6BGUG3PORZEM2ORC9GD8BB","AMHUDJ44HF1ZH","3WPCIUYH1AU470H2HRBLZRFBM3CTDN","","","<img src=""img/flower5.png"" style=""width:200px;border:14px solid red;"">","null","","","","","",""
"723.5","","image-keyboard-response","198","432924","0.0-198.0","3WQQ9FUS6BGUG3PORZEM2ORC9GD8BB","AMHUDJ44HF1ZH","3WPCIUYH1AU470H2HRBLZRFBM3CTDN","","","img/flower9.png","76","724.1000000238419","3","1","2","0.6,0.6,0,0,0.6,0.6,0.6,0,0.6",""
"null","","html-keyboard-response","199","433235","0.0-199.0","3WQQ9FUS6BGUG3PORZEM2ORC9GD8BB","AMHUDJ44HF1ZH","3WPCIUYH1AU470H2HRBLZRFBM3CTDN","","","<img src=""img/flower9.png"" style=""width:200px; border:14px solid green;"">","null","","","","","",""
"967.3000000119209","","image-keyboard-response","200","434204","0.0-200.0","3WQQ9FUS6BGUG3PORZEM2ORC9GD8BB","AMHUDJ44HF1ZH","3WPCIUYH1AU470H2HRBLZRFBM3CTDN","","","img/flower8.png","74","967.9000000059605","1","1","3","0.6,0.6,0,0,0.6,0.6,0.6,0,0.6",""
"null","","html-keyboard-response","201","434517","0.0-201.0","3WQQ9FUS6BGUG3PORZEM2ORC9GD8BB","AMHUDJ44HF1ZH","3WPCIUYH1AU470H2HRBLZRFBM3CTDN","","","<img src=""img/flower8.png"" style=""width:200px; border:14px solid green;"">","null","","","","","",""
"1295.0999999940395","","image-keyboard-response","202","435813","0.0-202.0","3WQQ9FUS6BGUG3PORZEM2ORC9GD8BB","AMHUDJ44HF1ZH","3WPCIUYH1AU470H2HRBLZRFBM3CTDN","","","img/flower8.png","74","1295.5999999940395","1","0","3","0.6,0.6,0,0,0.6,0.6,0.6,0,0.6",""
"null","","html-keyboard-response","203","436116","0.0-203.0","3WQQ9FUS6BGUG3PORZEM2ORC9GD8BB","AMHUDJ44HF1ZH","3WPCIUYH1AU470H2HRBLZRFBM3CTDN","","","<img src=""img/flower8.png"" style=""width:200px;border:14px solid red;"">","null","","","","","",""
"433.2999999821186","","image-keyboard-response","204","436550","0.0-204.0","3WQQ9FUS6BGUG3PORZEM2ORC9GD8BB","AMHUDJ44HF1ZH","3WPCIUYH1AU470H2HRBLZRFBM3CTDN","","","img/flower8.png","74","433.80000001192093","1","1","3","0.6,0.6,0,0,0.6,0.6,0.6,0,0.6",""
"null","","html-keyboard-response","205","436867","0.0-205.0","3WQQ9FUS6BGUG3PORZEM2ORC9GD8BB","AMHUDJ44HF1ZH","3WPCIUYH1AU470H2HRBLZRFBM3CTDN","","","<img src=""img/flower8.png"" style=""width:200px; border:14px solid green;"">","null","","","","","",""
"654.9000000059605","","image-keyboard-response","206","437523","0.0-206.0","3WQQ9FUS6BGUG3PORZEM2ORC9GD8BB","AMHUDJ44HF1ZH","3WPCIUYH1AU470H2HRBLZRFBM3CTDN","","","img/flower8.png","74","655.4000000059605","1","1","3","0.6,0.6,0,0,0.6,0.6,0.6,0,0.6",""
"null","","html-keyboard-response","207","437839","0.0-207.0","3WQQ9FUS6BGUG3PORZEM2ORC9GD8BB","AMHUDJ44HF1ZH","3WPCIUYH1AU470H2HRBLZRFBM3CTDN","","","<img src=""img/flower8.png"" style=""width:200px; border:14px solid green;"">","null","","","","","",""
"1290.7000000178814","","image-keyboard-response","208","439130","0.0-208.0","3WQQ9FUS6BGUG3PORZEM2ORC9GD8BB","AMHUDJ44HF1ZH","3WPCIUYH1AU470H2HRBLZRFBM3CTDN","","","img/flower5.png","75","1291.199999988079","2","1","1","0.6,0.6,0,0,0.6,0.6,0.6,0,0.6",""
"null","","html-keyboard-response","209","439435","0.0-209.0","3WQQ9FUS6BGUG3PORZEM2ORC9GD8BB","AMHUDJ44HF1ZH","3WPCIUYH1AU470H2HRBLZRFBM3CTDN","","","<img src=""img/flower5.png"" style=""width:200px; border:14px solid green;"">","null","","","","","",""
"285.60000002384186","","image-keyboard-response","210","439721","0.0-210.0","3WQQ9FUS6BGUG3PORZEM2ORC9GD8BB","AMHUDJ44HF1ZH","3WPCIUYH1AU470H2HRBLZRFBM3CTDN","","","img/flower8.png","75","286.19999998807907","2","0","3","0.6,0.6,0,0,0.6,0.6,0.6,0,0.6",""
"null","","html-keyboard-response","211","440032","0.0-211.0","3WQQ9FUS6BGUG3PORZEM2ORC9GD8BB","AMHUDJ44HF1ZH","3WPCIUYH1AU470H2HRBLZRFBM3CTDN","","","<img src=""img/flower8.png"" style=""width:200px;border:14px solid red;"">","null","","","","","",""
"4211.300000011921","","image-keyboard-response","212","444244","0.0-212.0","3WQQ9FUS6BGUG3PORZEM2ORC9GD8BB","AMHUDJ44HF1ZH","3WPCIUYH1AU470H2HRBLZRFBM3CTDN","","","img/flower8.png","74","4211.9000000059605","1","1","3","0.6,0.6,0,0,0.6,0.6,0.6,0,0.6",""
"null","","html-keyboard-response","213","444550","0.0-213.0","3WQQ9FUS6BGUG3PORZEM2ORC9GD8BB","AMHUDJ44HF1ZH","3WPCIUYH1AU470H2HRBLZRFBM3CTDN","","","<img src=""img/flower8.png"" style=""width:200px; border:14px solid green;"">","null","","","","","",""
"1016.2000000178814","","image-keyboard-response","214","445566","0.0-214.0","3WQQ9FUS6BGUG3PORZEM2ORC9GD8BB","AMHUDJ44HF1ZH","3WPCIUYH1AU470H2HRBLZRFBM3CTDN","","","img/flower9.png","76","1016.7999999821186","3","1","2","0.6,0.6,0,0,0.6,0.6,0.6,0,0.6",""
"null","","html-keyboard-response","215","445871","0.0-215.0","3WQQ9FUS6BGUG3PORZEM2ORC9GD8BB","AMHUDJ44HF1ZH","3WPCIUYH1AU470H2HRBLZRFBM3CTDN","","","<img src=""img/flower9.png"" style=""width:200px; border:14px solid green;"">","null","","","","","",""
"725.2000000178814","","image-keyboard-response","216","446596","0.0-216.0","3WQQ9FUS6BGUG3PORZEM2ORC9GD8BB","AMHUDJ44HF1ZH","3WPCIUYH1AU470H2HRBLZRFBM3CTDN","","","img/flower5.png","75","725.8000000119209","2","1","1","0.6,0.6,0,0,0.6,0.6,0.6,0,0.6",""
"null","","html-keyboard-response","217","446897","0.0-217.0","3WQQ9FUS6BGUG3PORZEM2ORC9GD8BB","AMHUDJ44HF1ZH","3WPCIUYH1AU470H2HRBLZRFBM3CTDN","","","<img src=""img/flower5.png"" style=""width:200px; border:14px solid green;"">","null","","","","","",""
"711.5999999940395","","image-keyboard-response","218","447610","0.0-218.0","3WQQ9FUS6BGUG3PORZEM2ORC9GD8BB","AMHUDJ44HF1ZH","3WPCIUYH1AU470H2HRBLZRFBM3CTDN","","","img/flower5.png","75","712.1999999880791","2","1","1","0.6,0.6,0,0,0.6,0.6,0.6,0,0.6",""
"null","","html-keyboard-response","219","447918","0.0-219.0","3WQQ9FUS6BGUG3PORZEM2ORC9GD8BB","AMHUDJ44HF1ZH","3WPCIUYH1AU470H2HRBLZRFBM3CTDN","","","<img src=""img/flower5.png"" style=""width:200px; border:14px solid green;"">","null","","","","","",""
"730.5","","image-keyboard-response","220","448649","0.0-220.0","3WQQ9FUS6BGUG3PORZEM2ORC9GD8BB","AMHUDJ44HF1ZH","3WPCIUYH1AU470H2HRBLZRFBM3CTDN","","","img/flower8.png","74","731","1","1","3","0.6,0.6,0,0,0.6,0.6,0.6,0,0.6",""
"null","","html-keyboard-response","221","448951","0.0-221.0","3WQQ9FUS6BGUG3PORZEM2ORC9GD8BB","AMHUDJ44HF1ZH","3WPCIUYH1AU470H2HRBLZRFBM3CTDN","","","<img src=""img/flower8.png"" style=""width:200px; border:14px solid green;"">","null","","","","","",""
"1568","","image-keyboard-response","222","450520","0.0-222.0","3WQQ9FUS6BGUG3PORZEM2ORC9GD8BB","AMHUDJ44HF1ZH","3WPCIUYH1AU470H2HRBLZRFBM3CTDN","","","img/flower9.png","76","1568.5","3","1","2","0.6,0.6,0,0,0.6,0.6,0.6,0,0.6",""
"null","","html-keyboard-response","223","450834","0.0-223.0","3WQQ9FUS6BGUG3PORZEM2ORC9GD8BB","AMHUDJ44HF1ZH","3WPCIUYH1AU470H2HRBLZRFBM3CTDN","","","<img src=""img/flower9.png"" style=""width:200px; border:14px solid green;"">","null","","","","","",""
"553.8000000119209","","image-keyboard-response","224","451388","0.0-224.0","3WQQ9FUS6BGUG3PORZEM2ORC9GD8BB","AMHUDJ44HF1ZH","3WPCIUYH1AU470H2HRBLZRFBM3CTDN","","","img/flower9.png","76","554.2999999821186","3","1","2","0.6,0.6,0,0,0.6,0.6,0.6,0,0.6",""
"null","","html-keyboard-response","225","451713","0.0-225.0","3WQQ9FUS6BGUG3PORZEM2ORC9GD8BB","AMHUDJ44HF1ZH","3WPCIUYH1AU470H2HRBLZRFBM3CTDN","","","<img src=""img/flower9.png"" style=""width:200px; border:14px solid green;"">","null","","","","","",""
"536.0999999940395","","image-keyboard-response","226","452250","0.0-226.0","3WQQ9FUS6BGUG3PORZEM2ORC9GD8BB","AMHUDJ44HF1ZH","3WPCIUYH1AU470H2HRBLZRFBM3CTDN","","","img/flower9.png","76","536.5","3","0","2","0.6,0.6,0,0,0.6,0.6,0.6,0,0.6",""
"null","","html-keyboard-response","227","452553","0.0-227.0","3WQQ9FUS6BGUG3PORZEM2ORC9GD8BB","AMHUDJ44HF1ZH","3WPCIUYH1AU470H2HRBLZRFBM3CTDN","","","<img src=""img/flower9.png"" style=""width:200px;border:14px solid red;"">","null","","","","","",""
"739.2999999821186","","image-keyboard-response","228","453293","0.0-228.0","3WQQ9FUS6BGUG3PORZEM2ORC9GD8BB","AMHUDJ44HF1ZH","3WPCIUYH1AU470H2HRBLZRFBM3CTDN","","","img/flower5.png","75","739.9000000059605","2","1","1","0.6,0.6,0,0,0.6,0.6,0.6,0,0.6",""
"null","","html-keyboard-response","229","453602","0.0-229.0","3WQQ9FUS6BGUG3PORZEM2ORC9GD8BB","AMHUDJ44HF1ZH","3WPCIUYH1AU470H2HRBLZRFBM3CTDN","","","<img src=""img/flower5.png"" style=""width:200px; border:14px solid green;"">","null","","","","","",""
"893.3000000119209","","image-keyboard-response","230","454495","0.0-230.0","3WQQ9FUS6BGUG3PORZEM2ORC9GD8BB","AMHUDJ44HF1ZH","3WPCIUYH1AU470H2HRBLZRFBM3CTDN","","","img/flower9.png","76","893.8000000119209","3","1","2","0.6,0.6,0,0,0.6,0.6,0.6,0,0.6",""
"null","","html-keyboard-response","231","454800","0.0-231.0","3WQQ9FUS6BGUG3PORZEM2ORC9GD8BB","AMHUDJ44HF1ZH","3WPCIUYH1AU470H2HRBLZRFBM3CTDN","","","<img src=""img/flower9.png"" style=""width:200px; border:14px solid green;"">","null","","","","","",""
"853.0999999940395","","image-keyboard-response","232","455654","0.0-232.0","3WQQ9FUS6BGUG3PORZEM2ORC9GD8BB","AMHUDJ44HF1ZH","3WPCIUYH1AU470H2HRBLZRFBM3CTDN","","","img/flower8.png","74","853.6999999880791","1","0","3","0.6,0.6,0,0,0.6,0.6,0.6,0,0.6",""
"null","","html-keyboard-response","233","455966","0.0-233.0","3WQQ9FUS6BGUG3PORZEM2ORC9GD8BB","AMHUDJ44HF1ZH","3WPCIUYH1AU470H2HRBLZRFBM3CTDN","","","<img src=""img/flower8.png"" style=""width:200px;border:14px solid red;"">","null","","","","","",""
"2799.5","","image-keyboard-response","234","458766","0.0-234.0","3WQQ9FUS6BGUG3PORZEM2ORC9GD8BB","AMHUDJ44HF1ZH","3WPCIUYH1AU470H2HRBLZRFBM3CTDN","","","img/flower5.png","75","2800","2","0","1","0.6,0.6,0,0,0.6,0.6,0.6,0,0.6",""
"null","","html-keyboard-response","235","459068","0.0-235.0","3WQQ9FUS6BGUG3PORZEM2ORC9GD8BB","AMHUDJ44HF1ZH","3WPCIUYH1AU470H2HRBLZRFBM3CTDN","","","<img src=""img/flower5.png"" style=""width:200px;border:14px solid red;"">","null","","","","","",""
"495.80000001192093","","image-keyboard-response","236","459565","0.0-236.0","3WQQ9FUS6BGUG3PORZEM2ORC9GD8BB","AMHUDJ44HF1ZH","3WPCIUYH1AU470H2HRBLZRFBM3CTDN","","","img/flower5.png","75","496.39999997615814","2","1","1","0.6,0.6,0,0,0.6,0.6,0.6,0,0.6",""
"null","","html-keyboard-response","237","459871","0.0-237.0","3WQQ9FUS6BGUG3PORZEM2ORC9GD8BB","AMHUDJ44HF1ZH","3WPCIUYH1AU470H2HRBLZRFBM3CTDN","","","<img src=""img/flower5.png"" style=""width:200px; border:14px solid green;"">","null","","","","","",""
"948","","image-keyboard-response","238","460819","0.0-238.0","3WQQ9FUS6BGUG3PORZEM2ORC9GD8BB","AMHUDJ44HF1ZH","3WPCIUYH1AU470H2HRBLZRFBM3CTDN","","","img/flower8.png","74","948.3999999761581","1","0","3","0.6,0.6,0,0,0.6,0.6,0.6,0,0.6",""
"null","","html-keyboard-response","239","461134","0.0-239.0","3WQQ9FUS6BGUG3PORZEM2ORC9GD8BB","AMHUDJ44HF1ZH","3WPCIUYH1AU470H2HRBLZRFBM3CTDN","","","<img src=""img/flower8.png"" style=""width:200px;border:14px solid red;"">","null","","","","","",""
"862.0999999940395","","image-keyboard-response","240","461997","0.0-240.0","3WQQ9FUS6BGUG3PORZEM2ORC9GD8BB","AMHUDJ44HF1ZH","3WPCIUYH1AU470H2HRBLZRFBM3CTDN","","","img/flower9.png","76","862.7000000178814","3","0","2","0.6,0.6,0,0,0.6,0.6,0.6,0,0.6",""
"null","","html-keyboard-response","241","462305","0.0-241.0","3WQQ9FUS6BGUG3PORZEM2ORC9GD8BB","AMHUDJ44HF1ZH","3WPCIUYH1AU470H2HRBLZRFBM3CTDN","","","<img src=""img/flower9.png"" style=""width:200px;border:14px solid red;"">","null","","","","","",""
"734.8000000119209","","image-keyboard-response","242","463040","0.0-242.0","3WQQ9FUS6BGUG3PORZEM2ORC9GD8BB","AMHUDJ44HF1ZH","3WPCIUYH1AU470H2HRBLZRFBM3CTDN","","","img/flower9.png","76","735.4000000059605","3","1","2","0.6,0.6,0,0,0.6,0.6,0.6,0,0.6",""
"null","","html-keyboard-response","243","463351","0.0-243.0","3WQQ9FUS6BGUG3PORZEM2ORC9GD8BB","AMHUDJ44HF1ZH","3WPCIUYH1AU470H2HRBLZRFBM3CTDN","","","<img src=""img/flower9.png"" style=""width:200px; border:14px solid green;"">","null","","","","","",""
"482.59999999403954","","image-keyboard-response","244","463834","0.0-244.0","3WQQ9FUS6BGUG3PORZEM2ORC9GD8BB","AMHUDJ44HF1ZH","3WPCIUYH1AU470H2HRBLZRFBM3CTDN","","","img/flower9.png","76","483.2000000178814","3","0","2","0.6,0.6,0,0,0.6,0.6,0.6,0,0.6",""
"null","","html-keyboard-response","245","464150","0.0-245.0","3WQQ9FUS6BGUG3PORZEM2ORC9GD8BB","AMHUDJ44HF1ZH","3WPCIUYH1AU470H2HRBLZRFBM3CTDN","","","<img src=""img/flower9.png"" style=""width:200px;border:14px solid red;"">","null","","","","","",""
"789","","image-keyboard-response","246","464939","0.0-246.0","3WQQ9FUS6BGUG3PORZEM2ORC9GD8BB","AMHUDJ44HF1ZH","3WPCIUYH1AU470H2HRBLZRFBM3CTDN","","","img/flower8.png","74","789.5","1","0","3","0.6,0.6,0,0,0.6,0.6,0.6,0,0.6",""
"null","","html-keyboard-response","247","465252","0.0-247.0","3WQQ9FUS6BGUG3PORZEM2ORC9GD8BB","AMHUDJ44HF1ZH","3WPCIUYH1AU470H2HRBLZRFBM3CTDN","","","<img src=""img/flower8.png"" style=""width:200px;border:14px solid red;"">","null","","","","","",""
"372.40000000596046","","image-keyboard-response","248","465625","0.0-248.0","3WQQ9FUS6BGUG3PORZEM2ORC9GD8BB","AMHUDJ44HF1ZH","3WPCIUYH1AU470H2HRBLZRFBM3CTDN","","","img/flower8.png","74","372.7999999821186","1","0","3","0.6,0.6,0,0,0.6,0.6,0.6,0,0.6",""
"null","","html-keyboard-response","249","465934","0.0-249.0","3WQQ9FUS6BGUG3PORZEM2ORC9GD8BB","AMHUDJ44HF1ZH","3WPCIUYH1AU470H2HRBLZRFBM3CTDN","","","<img src=""img/flower8.png"" style=""width:200px;border:14px solid red;"">","null","","","","","",""
"1010.1999999880791","","image-keyboard-response","250","466945","0.0-250.0","3WQQ9FUS6BGUG3PORZEM2ORC9GD8BB","AMHUDJ44HF1ZH","3WPCIUYH1AU470H2HRBLZRFBM3CTDN","","","img/flower5.png","75","1010.7000000178814","2","1","1","0.6,0.6,0,0,0.6,0.6,0.6,0,0.6",""
"null","","html-keyboard-response","251","467251","0.0-251.0","3WQQ9FUS6BGUG3PORZEM2ORC9GD8BB","AMHUDJ44HF1ZH","3WPCIUYH1AU470H2HRBLZRFBM3CTDN","","","<img src=""img/flower5.png"" style=""width:200px; border:14px solid green;"">","null","","","","","",""
"295.09999999403954","","image-keyboard-response","252","467547","0.0-252.0","3WQQ9FUS6BGUG3PORZEM2ORC9GD8BB","AMHUDJ44HF1ZH","3WPCIUYH1AU470H2HRBLZRFBM3CTDN","","","img/flower5.png","75","295.59999999403954","2","1","1","0.6,0.6,0,0,0.6,0.6,0.6,0,0.6",""
"null","","html-keyboard-response","253","467855","0.0-253.0","3WQQ9FUS6BGUG3PORZEM2ORC9GD8BB","AMHUDJ44HF1ZH","3WPCIUYH1AU470H2HRBLZRFBM3CTDN","","","<img src=""img/flower5.png"" style=""width:200px; border:14px solid green;"">","null","","","","","",""
"271.90000000596046","","image-keyboard-response","254","468127","0.0-254.0","3WQQ9FUS6BGUG3PORZEM2ORC9GD8BB","AMHUDJ44HF1ZH","3WPCIUYH1AU470H2HRBLZRFBM3CTDN","","","img/flower9.png","75","272.40000000596046","2","0","2","0.6,0.6,0,0,0.6,0.6,0.6,0,0.6",""
"null","","html-keyboard-response","255","468435","0.0-255.0","3WQQ9FUS6BGUG3PORZEM2ORC9GD8BB","AMHUDJ44HF1ZH","3WPCIUYH1AU470H2HRBLZRFBM3CTDN","","","<img src=""img/flower9.png"" style=""width:200px;border:14px solid red;"">","null","","","","","",""
"494.5","","image-keyboard-response","256","468931","0.0-256.0","3WQQ9FUS6BGUG3PORZEM2ORC9GD8BB","AMHUDJ44HF1ZH","3WPCIUYH1AU470H2HRBLZRFBM3CTDN","","","img/flower8.png","76","495.09999999403954","3","1","3","0.6,0.6,0,0,0.6,0.6,0.6,0,0.6",""
"null","","html-keyboard-response","257","469234","0.0-257.0","3WQQ9FUS6BGUG3PORZEM2ORC9GD8BB","AMHUDJ44HF1ZH","3WPCIUYH1AU470H2HRBLZRFBM3CTDN","","","<img src=""img/flower8.png"" style=""width:200px; border:14px solid green;"">","null","","","","","",""
"1986.300000011921","","image-keyboard-response","258","471221","0.0-258.0","3WQQ9FUS6BGUG3PORZEM2ORC9GD8BB","AMHUDJ44HF1ZH","3WPCIUYH1AU470H2HRBLZRFBM3CTDN","","","img/flower5.png","75","1986.9000000059605","2","1","1","0.6,0.6,0,0,0.6,0.6,0.6,0,0.6",""
"null","","html-keyboard-response","259","471535","0.0-259.0","3WQQ9FUS6BGUG3PORZEM2ORC9GD8BB","AMHUDJ44HF1ZH","3WPCIUYH1AU470H2HRBLZRFBM3CTDN","","","<img src=""img/flower5.png"" style=""width:200px; border:14px solid green;"">","null","","","","","",""
"998.0999999940395","","image-keyboard-response","260","472534","0.0-260.0","3WQQ9FUS6BGUG3PORZEM2ORC9GD8BB","AMHUDJ44HF1ZH","3WPCIUYH1AU470H2HRBLZRFBM3CTDN","","","img/flower9.png","74","998.7000000178814","1","0","2","0.6,0.6,0,0,0.6,0.6,0.6,0,0.6",""
"null","","html-keyboard-response","261","472837","0.0-261.0","3WQQ9FUS6BGUG3PORZEM2ORC9GD8BB","AMHUDJ44HF1ZH","3WPCIUYH1AU470H2HRBLZRFBM3CTDN","","","<img src=""img/flower9.png"" style=""width:200px;border:14px solid red;"">","null","","","","","",""
"1022.2000000178814","","image-keyboard-response","262","473859","0.0-262.0","3WQQ9FUS6BGUG3PORZEM2ORC9GD8BB","AMHUDJ44HF1ZH","3WPCIUYH1AU470H2HRBLZRFBM3CTDN","","","img/flower8.png","76","1022.7000000178814","3","1","3","0.6,0.6,0,0,0.6,0.6,0.6,0,0.6",""
"null","","html-keyboard-response","263","474167","0.0-263.0","3WQQ9FUS6BGUG3PORZEM2ORC9GD8BB","AMHUDJ44HF1ZH","3WPCIUYH1AU470H2HRBLZRFBM3CTDN","","","<img src=""img/flower8.png"" style=""width:200px; border:14px solid green;"">","null","","","","","",""
"1330.9000000059605","","image-keyboard-response","264","475499","0.0-264.0","3WQQ9FUS6BGUG3PORZEM2ORC9GD8BB","AMHUDJ44HF1ZH","3WPCIUYH1AU470H2HRBLZRFBM3CTDN","","","img/flower9.png","74","1331.3999999761581","1","0","2","0.6,0.6,0,0,0.6,0.6,0.6,0,0.6",""
"null","","html-keyboard-response","265","475808","0.0-265.0","3WQQ9FUS6BGUG3PORZEM2ORC9GD8BB","AMHUDJ44HF1ZH","3WPCIUYH1AU470H2HRBLZRFBM3CTDN","","","<img src=""img/flower9.png"" style=""width:200px;border:14px solid red;"">","null","","","","","",""
"1586.0999999940395","","image-keyboard-response","266","477395","0.0-266.0","3WQQ9FUS6BGUG3PORZEM2ORC9GD8BB","AMHUDJ44HF1ZH","3WPCIUYH1AU470H2HRBLZRFBM3CTDN","","","img/flower8.png","74","1586.6000000238419","1","1","3","0.6,0.6,0,0,0.6,0.6,0.6,0,0.6",""
"null","","html-keyboard-response","267","477698","0.0-267.0","3WQQ9FUS6BGUG3PORZEM2ORC9GD8BB","AMHUDJ44HF1ZH","3WPCIUYH1AU470H2HRBLZRFBM3CTDN","","","<img src=""img/flower8.png"" style=""width:200px; border:14px solid green;"">","null","","","","","",""
"603.6999999880791","","image-keyboard-response","268","478303","0.0-268.0","3WQQ9FUS6BGUG3PORZEM2ORC9GD8BB","AMHUDJ44HF1ZH","3WPCIUYH1AU470H2HRBLZRFBM3CTDN","","","img/flower8.png","74","604.1999999880791","1","0","3","0.6,0.6,0,0,0.6,0.6,0.6,0,0.6",""
"null","","html-keyboard-response","269","478617","0.0-269.0","3WQQ9FUS6BGUG3PORZEM2ORC9GD8BB","AMHUDJ44HF1ZH","3WPCIUYH1AU470H2HRBLZRFBM3CTDN","","","<img src=""img/flower8.png"" style=""width:200px;border:14px solid red;"">","null","","","","","",""
"847.8999999761581","","image-keyboard-response","270","479466","0.0-270.0","3WQQ9FUS6BGUG3PORZEM2ORC9GD8BB","AMHUDJ44HF1ZH","3WPCIUYH1AU470H2HRBLZRFBM3CTDN","","","img/flower9.png","76","848.4000000059605","3","1","2","0.6,0.6,0,0,0.6,0.6,0.6,0,0.6",""
"null","","html-keyboard-response","271","479777","0.0-271.0","3WQQ9FUS6BGUG3PORZEM2ORC9GD8BB","AMHUDJ44HF1ZH","3WPCIUYH1AU470H2HRBLZRFBM3CTDN","","","<img src=""img/flower9.png"" style=""width:200px; border:14px solid green;"">","null","","","","","",""
"756.4000000059605","","image-keyboard-response","272","480534","0.0-272.0","3WQQ9FUS6BGUG3PORZEM2ORC9GD8BB","AMHUDJ44HF1ZH","3WPCIUYH1AU470H2HRBLZRFBM3CTDN","","","img/flower5.png","75","757","2","1","1","0.6,0.6,0,0,0.6,0.6,0.6,0,0.6",""
"null","","html-keyboard-response","273","480835","0.0-273.0","3WQQ9FUS6BGUG3PORZEM2ORC9GD8BB","AMHUDJ44HF1ZH","3WPCIUYH1AU470H2HRBLZRFBM3CTDN","","","<img src=""img/flower5.png"" style=""width:200px; border:14px solid green;"">","null","","","","","",""
"445.5","","image-keyboard-response","274","481281","0.0-274.0","3WQQ9FUS6BGUG3PORZEM2ORC9GD8BB","AMHUDJ44HF1ZH","3WPCIUYH1AU470H2HRBLZRFBM3CTDN","","","img/flower5.png","75","445.90000000596046","2","1","1","0.6,0.6,0,0,0.6,0.6,0.6,0,0.6",""
"null","","html-keyboard-response","275","481588","0.0-275.0","3WQQ9FUS6BGUG3PORZEM2ORC9GD8BB","AMHUDJ44HF1ZH","3WPCIUYH1AU470H2HRBLZRFBM3CTDN","","","<img src=""img/flower5.png"" style=""width:200px; border:14px solid green;"">","null","","","","","",""
"340.59999999403954","","image-keyboard-response","276","481929","0.0-276.0","3WQQ9FUS6BGUG3PORZEM2ORC9GD8BB","AMHUDJ44HF1ZH","3WPCIUYH1AU470H2HRBLZRFBM3CTDN","","","img/flower5.png","75","341.2000000178814","2","1","1","0.6,0.6,0,0,0.6,0.6,0.6,0,0.6",""
"null","","html-keyboard-response","277","482235","0.0-277.0","3WQQ9FUS6BGUG3PORZEM2ORC9GD8BB","AMHUDJ44HF1ZH","3WPCIUYH1AU470H2HRBLZRFBM3CTDN","","","<img src=""img/flower5.png"" style=""width:200px; border:14px solid green;"">","null","","","","","",""
"951.3000000119209","","image-keyboard-response","278","483187","0.0-278.0","3WQQ9FUS6BGUG3PORZEM2ORC9GD8BB","AMHUDJ44HF1ZH","3WPCIUYH1AU470H2HRBLZRFBM3CTDN","","","img/flower8.png","74","951.6999999880791","1","1","3","0.6,0.6,0,0,0.6,0.6,0.6,0,0.6",""
"null","","html-keyboard-response","279","483501","0.0-279.0","3WQQ9FUS6BGUG3PORZEM2ORC9GD8BB","AMHUDJ44HF1ZH","3WPCIUYH1AU470H2HRBLZRFBM3CTDN","","","<img src=""img/flower8.png"" style=""width:200px; border:14px solid green;"">","null","","","","","",""
"489.59999999403954","","image-keyboard-response","280","483991","0.0-280.0","3WQQ9FUS6BGUG3PORZEM2ORC9GD8BB","AMHUDJ44HF1ZH","3WPCIUYH1AU470H2HRBLZRFBM3CTDN","","","img/flower8.png","74","490.09999999403954","1","1","3","0.6,0.6,0,0,0.6,0.6,0.6,0,0.6",""
"null","","html-keyboard-response","281","484300","0.0-281.0","3WQQ9FUS6BGUG3PORZEM2ORC9GD8BB","AMHUDJ44HF1ZH","3WPCIUYH1AU470H2HRBLZRFBM3CTDN","","","<img src=""img/flower8.png"" style=""width:200px; border:14px solid green;"">","null","","","","","",""
"676.2999999821186","","image-keyboard-response","282","484977","0.0-282.0","3WQQ9FUS6BGUG3PORZEM2ORC9GD8BB","AMHUDJ44HF1ZH","3WPCIUYH1AU470H2HRBLZRFBM3CTDN","","","img/flower9.png","76","676.6999999880791","3","1","2","0.6,0.6,0,0,0.6,0.6,0.6,0,0.6",""
"null","","html-keyboard-response","283","485283","0.0-283.0","3WQQ9FUS6BGUG3PORZEM2ORC9GD8BB","AMHUDJ44HF1ZH","3WPCIUYH1AU470H2HRBLZRFBM3CTDN","","","<img src=""img/flower9.png"" style=""width:200px; border:14px solid green;"">","null","","","","","",""
"342.90000000596046","","image-keyboard-response","284","485627","0.0-284.0","3WQQ9FUS6BGUG3PORZEM2ORC9GD8BB","AMHUDJ44HF1ZH","3WPCIUYH1AU470H2HRBLZRFBM3CTDN","","","img/flower9.png","76","343.40000000596046","3","1","2","0.6,0.6,0,0,0.6,0.6,0.6,0,0.6",""
"null","","html-keyboard-response","285","485935","0.0-285.0","3WQQ9FUS6BGUG3PORZEM2ORC9GD8BB","AMHUDJ44HF1ZH","3WPCIUYH1AU470H2HRBLZRFBM3CTDN","","","<img src=""img/flower9.png"" style=""width:200px; border:14px solid green;"">","null","","","","","",""
"575.6000000238419","","image-keyboard-response","286","486511","0.0-286.0","3WQQ9FUS6BGUG3PORZEM2ORC9GD8BB","AMHUDJ44HF1ZH","3WPCIUYH1AU470H2HRBLZRFBM3CTDN","","","img/flower8.png","74","576.1999999880791","1","1","3","0.6,0.6,0,0,0.6,0.6,0.6,0,0.6",""
"null","","html-keyboard-response","287","486817","0.0-287.0","3WQQ9FUS6BGUG3PORZEM2ORC9GD8BB","AMHUDJ44HF1ZH","3WPCIUYH1AU470H2HRBLZRFBM3CTDN","","","<img src=""img/flower8.png"" style=""width:200px; border:14px solid green;"">","null","","","","","",""
"673.7000000178814","","image-keyboard-response","288","487491","0.0-288.0","3WQQ9FUS6BGUG3PORZEM2ORC9GD8BB","AMHUDJ44HF1ZH","3WPCIUYH1AU470H2HRBLZRFBM3CTDN","","","img/flower9.png","76","674.1999999880791","3","0","2","0.6,0.6,0,0,0.6,0.6,0.6,0,0.6",""
"null","","html-keyboard-response","289","487793","0.0-289.0","3WQQ9FUS6BGUG3PORZEM2ORC9GD8BB","AMHUDJ44HF1ZH","3WPCIUYH1AU470H2HRBLZRFBM3CTDN","","","<img src=""img/flower9.png"" style=""width:200px;border:14px solid red;"">","null","","","","","",""
"450","","image-keyboard-response","290","488243","0.0-290.0","3WQQ9FUS6BGUG3PORZEM2ORC9GD8BB","AMHUDJ44HF1ZH","3WPCIUYH1AU470H2HRBLZRFBM3CTDN","","","img/flower9.png","76","450.5","3","0","2","0.6,0.6,0,0,0.6,0.6,0.6,0,0.6",""
"null","","html-keyboard-response","291","488552","0.0-291.0","3WQQ9FUS6BGUG3PORZEM2ORC9GD8BB","AMHUDJ44HF1ZH","3WPCIUYH1AU470H2HRBLZRFBM3CTDN","","","<img src=""img/flower9.png"" style=""width:200px;border:14px solid red;"">","null","","","","","",""
"396","","image-keyboard-response","292","488949","0.0-292.0","3WQQ9FUS6BGUG3PORZEM2ORC9GD8BB","AMHUDJ44HF1ZH","3WPCIUYH1AU470H2HRBLZRFBM3CTDN","","","img/flower9.png","76","396.59999999403954","3","1","2","0.6,0.6,0,0,0.6,0.6,0.6,0,0.6",""
"null","","html-keyboard-response","293","489252","0.0-293.0","3WQQ9FUS6BGUG3PORZEM2ORC9GD8BB","AMHUDJ44HF1ZH","3WPCIUYH1AU470H2HRBLZRFBM3CTDN","","","<img src=""img/flower9.png"" style=""width:200px; border:14px solid green;"">","null","","","","","",""
"760.4000000059605","","image-keyboard-response","294","490013","0.0-294.0","3WQQ9FUS6BGUG3PORZEM2ORC9GD8BB","AMHUDJ44HF1ZH","3WPCIUYH1AU470H2HRBLZRFBM3CTDN","","","img/flower5.png","75","760.9000000059605","2","1","1","0.6,0.6,0,0,0.6,0.6,0.6,0,0.6",""
"null","","html-keyboard-response","295","490318","0.0-295.0","3WQQ9FUS6BGUG3PORZEM2ORC9GD8BB","AMHUDJ44HF1ZH","3WPCIUYH1AU470H2HRBLZRFBM3CTDN","","","<img src=""img/flower5.png"" style=""width:200px; border:14px solid green;"">","null","","","","","",""
"729.5","","image-keyboard-response","296","491048","0.0-296.0","3WQQ9FUS6BGUG3PORZEM2ORC9GD8BB","AMHUDJ44HF1ZH","3WPCIUYH1AU470H2HRBLZRFBM3CTDN","","","img/flower9.png","76","730.1000000238419","3","1","2","0.6,0.6,0,0,0.6,0.6,0.6,0,0.6",""
"null","","html-keyboard-response","297","491353","0.0-297.0","3WQQ9FUS6BGUG3PORZEM2ORC9GD8BB","AMHUDJ44HF1ZH","3WPCIUYH1AU470H2HRBLZRFBM3CTDN","","","<img src=""img/flower9.png"" style=""width:200px; border:14px solid green;"">","null","","","","","",""
"784","","image-keyboard-response","298","492137","0.0-298.0","3WQQ9FUS6BGUG3PORZEM2ORC9GD8BB","AMHUDJ44HF1ZH","3WPCIUYH1AU470H2HRBLZRFBM3CTDN","","","img/flower5.png","75","784.5","2","1","1","0.6,0.6,0,0,0.6,0.6,0.6,0,0.6",""
"null","","html-keyboard-response","299","492453","0.0-299.0","3WQQ9FUS6BGUG3PORZEM2ORC9GD8BB","AMHUDJ44HF1ZH","3WPCIUYH1AU470H2HRBLZRFBM3CTDN","","","<img src=""img/flower5.png"" style=""width:200px; border:14px solid green;"">","null","","","","","",""
"794.5","","image-keyboard-response","300","493248","0.0-300.0","3WQQ9FUS6BGUG3PORZEM2ORC9GD8BB","AMHUDJ44HF1ZH","3WPCIUYH1AU470H2HRBLZRFBM3CTDN","","","img/flower8.png","74","795","1","0","3","0.6,0.6,0,0,0.6,0.6,0.6,0,0.6",""
"null","","html-keyboard-response","301","493554","0.0-301.0","3WQQ9FUS6BGUG3PORZEM2ORC9GD8BB","AMHUDJ44HF1ZH","3WPCIUYH1AU470H2HRBLZRFBM3CTDN","","","<img src=""img/flower8.png"" style=""width:200px;border:14px solid red;"">","null","","","","","",""
"933.5","","image-keyboard-response","302","494488","0.0-302.0","3WQQ9FUS6BGUG3PORZEM2ORC9GD8BB","AMHUDJ44HF1ZH","3WPCIUYH1AU470H2HRBLZRFBM3CTDN","","","img/flower5.png","75","934","2","1","1","0.6,0.6,0,0,0.6,0.6,0.6,0,0.6",""
"null","","html-keyboard-response","303","494801","0.0-303.0","3WQQ9FUS6BGUG3PORZEM2ORC9GD8BB","AMHUDJ44HF1ZH","3WPCIUYH1AU470H2HRBLZRFBM3CTDN","","","<img src=""img/flower5.png"" style=""width:200px; border:14px solid green;"">","null","","","","","",""
"729.6999999880791","","image-keyboard-response","304","495532","0.0-304.0","3WQQ9FUS6BGUG3PORZEM2ORC9GD8BB","AMHUDJ44HF1ZH","3WPCIUYH1AU470H2HRBLZRFBM3CTDN","","","img/flower8.png","74","730.3000000119209","1","1","3","0.6,0.6,0,0,0.6,0.6,0.6,0,0.6",""
"null","","html-keyboard-response","305","495840","0.0-305.0","3WQQ9FUS6BGUG3PORZEM2ORC9GD8BB","AMHUDJ44HF1ZH","3WPCIUYH1AU470H2HRBLZRFBM3CTDN","","","<img src=""img/flower8.png"" style=""width:200px; border:14px solid green;"">","null","","","","","",""
"","","html-keyboard-response","306","503400","0.0-306.0","3WQQ9FUS6BGUG3PORZEM2ORC9GD8BB","AMHUDJ44HF1ZH","3WPCIUYH1AU470H2HRBLZRFBM3CTDN","","","","","","","","","",""
"3119.199999988079","","image-keyboard-response","307","506520","0.0-307.0","3WQQ9FUS6BGUG3PORZEM2ORC9GD8BB","AMHUDJ44HF1ZH","3WPCIUYH1AU470H2HRBLZRFBM3CTDN","","","img/flower7.png","76","3119.5999999940395","3","0","3","0.8,0.8,0.2,0.2,0.8,0.8,0.8,0.2,0.8",""
"null","","html-keyboard-response","308","506834","0.0-308.0","3WQQ9FUS6BGUG3PORZEM2ORC9GD8BB","AMHUDJ44HF1ZH","3WPCIUYH1AU470H2HRBLZRFBM3CTDN","","","<img src=""img/flower7.png"" style=""width:200px;border:14px solid red;"">","null","","","","","",""
"778.1999999880791","","image-keyboard-response","309","507613","0.0-309.0","3WQQ9FUS6BGUG3PORZEM2ORC9GD8BB","AMHUDJ44HF1ZH","3WPCIUYH1AU470H2HRBLZRFBM3CTDN","","","img/flower7.png","75","778.6999999880791","2","1","3","0.8,0.8,0.2,0.2,0.8,0.8,0.8,0.2,0.8",""
"null","","html-keyboard-response","310","507920","0.0-310.0","3WQQ9FUS6BGUG3PORZEM2ORC9GD8BB","AMHUDJ44HF1ZH","3WPCIUYH1AU470H2HRBLZRFBM3CTDN","","","<img src=""img/flower7.png"" style=""width:200px; border:14px solid green;"">","null","","","","","",""
"944.4000000059605","","image-keyboard-response","311","508865","0.0-311.0","3WQQ9FUS6BGUG3PORZEM2ORC9GD8BB","AMHUDJ44HF1ZH","3WPCIUYH1AU470H2HRBLZRFBM3CTDN","","","img/flower7.png","74","945","1","1","3","0.8,0.8,0.2,0.2,0.8,0.8,0.8,0.2,0.8",""
"null","","html-keyboard-response","312","509168","0.0-312.0","3WQQ9FUS6BGUG3PORZEM2ORC9GD8BB","AMHUDJ44HF1ZH","3WPCIUYH1AU470H2HRBLZRFBM3CTDN","","","<img src=""img/flower7.png"" style=""width:200px; border:14px solid green;"">","null","","","","","",""
"1883.6000000238419","","image-keyboard-response","313","511052","0.0-313.0","3WQQ9FUS6BGUG3PORZEM2ORC9GD8BB","AMHUDJ44HF1ZH","3WPCIUYH1AU470H2HRBLZRFBM3CTDN","","","img/flower4.png","74","1884.300000011921","1","1","1","0.8,0.8,0.2,0.2,0.8,0.8,0.8,0.2,0.8",""
"null","","html-keyboard-response","314","511354","0.0-314.0","3WQQ9FUS6BGUG3PORZEM2ORC9GD8BB","AMHUDJ44HF1ZH","3WPCIUYH1AU470H2HRBLZRFBM3CTDN","","","<img src=""img/flower4.png"" style=""width:200px; border:14px solid green;"">","null","","","","","",""
"731.5","","image-keyboard-response","315","512086","0.0-315.0","3WQQ9FUS6BGUG3PORZEM2ORC9GD8BB","AMHUDJ44HF1ZH","3WPCIUYH1AU470H2HRBLZRFBM3CTDN","","","img/flower4.png","74","732","1","0","1","0.8,0.8,0.2,0.2,0.8,0.8,0.8,0.2,0.8",""
"null","","html-keyboard-response","316","512402","0.0-316.0","3WQQ9FUS6BGUG3PORZEM2ORC9GD8BB","AMHUDJ44HF1ZH","3WPCIUYH1AU470H2HRBLZRFBM3CTDN","","","<img src=""img/flower4.png"" style=""width:200px;border:14px solid red;"">","null","","","","","",""
"1189.0999999940395","","image-keyboard-response","317","513592","0.0-317.0","3WQQ9FUS6BGUG3PORZEM2ORC9GD8BB","AMHUDJ44HF1ZH","3WPCIUYH1AU470H2HRBLZRFBM3CTDN","","","img/flower7.png","74","1189.5999999940395","1","1","3","0.8,0.8,0.2,0.2,0.8,0.8,0.8,0.2,0.8",""
"null","","html-keyboard-response","318","513902","0.0-318.0","3WQQ9FUS6BGUG3PORZEM2ORC9GD8BB","AMHUDJ44HF1ZH","3WPCIUYH1AU470H2HRBLZRFBM3CTDN","","","<img src=""img/flower7.png"" style=""width:200px; border:14px solid green;"">","null","","","","","",""
"2712.5","","image-keyboard-response","319","516615","0.0-319.0","3WQQ9FUS6BGUG3PORZEM2ORC9GD8BB","AMHUDJ44HF1ZH","3WPCIUYH1AU470H2HRBLZRFBM3CTDN","","","img/flower3.png","74","2712.800000011921","1","0","2","0.8,0.8,0.2,0.2,0.8,0.8,0.8,0.2,0.8",""
"null","","html-keyboard-response","320","516920","0.0-320.0","3WQQ9FUS6BGUG3PORZEM2ORC9GD8BB","AMHUDJ44HF1ZH","3WPCIUYH1AU470H2HRBLZRFBM3CTDN","","","<img src=""img/flower3.png"" style=""width:200px;border:14px solid red;"">","null","","","","","",""
"885.3000000119209","","image-keyboard-response","321","517806","0.0-321.0","3WQQ9FUS6BGUG3PORZEM2ORC9GD8BB","AMHUDJ44HF1ZH","3WPCIUYH1AU470H2HRBLZRFBM3CTDN","","","img/flower3.png","75","885.8000000119209","2","1","2","0.8,0.8,0.2,0.2,0.8,0.8,0.8,0.2,0.8",""
"null","","html-keyboard-response","322","518118","0.0-322.0","3WQQ9FUS6BGUG3PORZEM2ORC9GD8BB","AMHUDJ44HF1ZH","3WPCIUYH1AU470H2HRBLZRFBM3CTDN","","","<img src=""img/flower3.png"" style=""width:200px; border:14px solid green;"">","null","","","","","",""
"1362.9000000059605","","image-keyboard-response","323","519482","0.0-323.0","3WQQ9FUS6BGUG3PORZEM2ORC9GD8BB","AMHUDJ44HF1ZH","3WPCIUYH1AU470H2HRBLZRFBM3CTDN","","","img/flower7.png","74","1363.4000000059605","1","1","3","0.8,0.8,0.2,0.2,0.8,0.8,0.8,0.2,0.8",""
"null","","html-keyboard-response","324","519795","0.0-324.0","3WQQ9FUS6BGUG3PORZEM2ORC9GD8BB","AMHUDJ44HF1ZH","3WPCIUYH1AU470H2HRBLZRFBM3CTDN","","","<img src=""img/flower7.png"" style=""width:200px; border:14px solid green;"">","null","","","","","",""
"803.8999999761581","","image-keyboard-response","325","520599","0.0-325.0","3WQQ9FUS6BGUG3PORZEM2ORC9GD8BB","AMHUDJ44HF1ZH","3WPCIUYH1AU470H2HRBLZRFBM3CTDN","","","img/flower4.png","74","804.5","1","1","1","0.8,0.8,0.2,0.2,0.8,0.8,0.8,0.2,0.8",""
"null","","html-keyboard-response","326","520903","0.0-326.0","3WQQ9FUS6BGUG3PORZEM2ORC9GD8BB","AMHUDJ44HF1ZH","3WPCIUYH1AU470H2HRBLZRFBM3CTDN","","","<img src=""img/flower4.png"" style=""width:200px; border:14px solid green;"">","null","","","","","",""
"404.5","","image-keyboard-response","327","521308","0.0-327.0","3WQQ9FUS6BGUG3PORZEM2ORC9GD8BB","AMHUDJ44HF1ZH","3WPCIUYH1AU470H2HRBLZRFBM3CTDN","","","img/flower4.png","74","405","1","0","1","0.8,0.8,0.2,0.2,0.8,0.8,0.8,0.2,0.8",""
"null","","html-keyboard-response","328","521618","0.0-328.0","3WQQ9FUS6BGUG3PORZEM2ORC9GD8BB","AMHUDJ44HF1ZH","3WPCIUYH1AU470H2HRBLZRFBM3CTDN","","","<img src=""img/flower4.png"" style=""width:200px;border:14px solid red;"">","null","","","","","",""
"766.4000000059605","","image-keyboard-response","329","522385","0.0-329.0","3WQQ9FUS6BGUG3PORZEM2ORC9GD8BB","AMHUDJ44HF1ZH","3WPCIUYH1AU470H2HRBLZRFBM3CTDN","","","img/flower7.png","74","767","1","0","3","0.8,0.8,0.2,0.2,0.8,0.8,0.8,0.2,0.8",""
"null","","html-keyboard-response","330","522701","0.0-330.0","3WQQ9FUS6BGUG3PORZEM2ORC9GD8BB","AMHUDJ44HF1ZH","3WPCIUYH1AU470H2HRBLZRFBM3CTDN","","","<img src=""img/flower7.png"" style=""width:200px;border:14px solid red;"">","null","","","","","",""
"319.5","","image-keyboard-response","331","523021","0.0-331.0","3WQQ9FUS6BGUG3PORZEM2ORC9GD8BB","AMHUDJ44HF1ZH","3WPCIUYH1AU470H2HRBLZRFBM3CTDN","","","img/flower7.png","74","320.09999999403954","1","0","3","0.8,0.8,0.2,0.2,0.8,0.8,0.8,0.2,0.8",""
"null","","html-keyboard-response","332","523337","0.0-332.0","3WQQ9FUS6BGUG3PORZEM2ORC9GD8BB","AMHUDJ44HF1ZH","3WPCIUYH1AU470H2HRBLZRFBM3CTDN","","","<img src=""img/flower7.png"" style=""width:200px;border:14px solid red;"">","null","","","","","",""
"899.1999999880791","","image-keyboard-response","333","524237","0.0-333.0","3WQQ9FUS6BGUG3PORZEM2ORC9GD8BB","AMHUDJ44HF1ZH","3WPCIUYH1AU470H2HRBLZRFBM3CTDN","","","img/flower3.png","75","899.6999999880791","2","0","2","0.8,0.8,0.2,0.2,0.8,0.8,0.8,0.2,0.8",""
"null","","html-keyboard-response","334","524552","0.0-334.0","3WQQ9FUS6BGUG3PORZEM2ORC9GD8BB","AMHUDJ44HF1ZH","3WPCIUYH1AU470H2HRBLZRFBM3CTDN","","","<img src=""img/flower3.png"" style=""width:200px;border:14px solid red;"">","null","","","","","",""
"979","","image-keyboard-response","335","525532","0.0-335.0","3WQQ9FUS6BGUG3PORZEM2ORC9GD8BB","AMHUDJ44HF1ZH","3WPCIUYH1AU470H2HRBLZRFBM3CTDN","","","img/flower7.png","76","979.4000000059605","3","1","3","0.8,0.8,0.2,0.2,0.8,0.8,0.8,0.2,0.8",""
"null","","html-keyboard-response","336","525841","0.0-336.0","3WQQ9FUS6BGUG3PORZEM2ORC9GD8BB","AMHUDJ44HF1ZH","3WPCIUYH1AU470H2HRBLZRFBM3CTDN","","","<img src=""img/flower7.png"" style=""width:200px; border:14px solid green;"">","null","","","","","",""
"681.3000000119209","","image-keyboard-response","337","526523","0.0-337.0","3WQQ9FUS6BGUG3PORZEM2ORC9GD8BB","AMHUDJ44HF1ZH","3WPCIUYH1AU470H2HRBLZRFBM3CTDN","","","img/flower7.png","76","681.8999999761581","3","1","3","0.8,0.8,0.2,0.2,0.8,0.8,0.8,0.2,0.8",""
"null","","html-keyboard-response","338","526834","0.0-338.0","3WQQ9FUS6BGUG3PORZEM2ORC9GD8BB","AMHUDJ44HF1ZH","3WPCIUYH1AU470H2HRBLZRFBM3CTDN","","","<img src=""img/flower7.png"" style=""width:200px; border:14px solid green;"">","null","","","","","",""
"348.80000001192093","","image-keyboard-response","339","527184","0.0-339.0","3WQQ9FUS6BGUG3PORZEM2ORC9GD8BB","AMHUDJ44HF1ZH","3WPCIUYH1AU470H2HRBLZRFBM3CTDN","","","img/flower7.png","76","349.2000000178814","3","1","3","0.8,0.8,0.2,0.2,0.8,0.8,0.8,0.2,0.8",""
"null","","html-keyboard-response","340","527487","0.0-340.0","3WQQ9FUS6BGUG3PORZEM2ORC9GD8BB","AMHUDJ44HF1ZH","3WPCIUYH1AU470H2HRBLZRFBM3CTDN","","","<img src=""img/flower7.png"" style=""width:200px; border:14px solid green;"">","null","","","","","",""
"1217.699999988079","","image-keyboard-response","341","528692","0.0-341.0","3WQQ9FUS6BGUG3PORZEM2ORC9GD8BB","AMHUDJ44HF1ZH","3WPCIUYH1AU470H2HRBLZRFBM3CTDN","","","img/flower4.png","74","1218.5","1","1","1","0.8,0.8,0.2,0.2,0.8,0.8,0.8,0.2,0.8",""
"null","","html-keyboard-response","342","529004","0.0-342.0","3WQQ9FUS6BGUG3PORZEM2ORC9GD8BB","AMHUDJ44HF1ZH","3WPCIUYH1AU470H2HRBLZRFBM3CTDN","","","<img src=""img/flower4.png"" style=""width:200px; border:14px solid green;"">","null","","","","","",""
"824.8000000119209","","image-keyboard-response","343","529830","0.0-343.0","3WQQ9FUS6BGUG3PORZEM2ORC9GD8BB","AMHUDJ44HF1ZH","3WPCIUYH1AU470H2HRBLZRFBM3CTDN","","","img/flower3.png","75","825.3000000119209","2","1","2","0.8,0.8,0.2,0.2,0.8,0.8,0.8,0.2,0.8",""
"null","","html-keyboard-response","344","530138","0.0-344.0","3WQQ9FUS6BGUG3PORZEM2ORC9GD8BB","AMHUDJ44HF1ZH","3WPCIUYH1AU470H2HRBLZRFBM3CTDN","","","<img src=""img/flower3.png"" style=""width:200px; border:14px solid green;"">","null","","","","","",""
"1395","","image-keyboard-response","345","531533","0.0-345.0","3WQQ9FUS6BGUG3PORZEM2ORC9GD8BB","AMHUDJ44HF1ZH","3WPCIUYH1AU470H2HRBLZRFBM3CTDN","","","img/flower4.png","74","1395.5999999940395","1","1","1","0.8,0.8,0.2,0.2,0.8,0.8,0.8,0.2,0.8",""
"null","","html-keyboard-response","346","531843","0.0-346.0","3WQQ9FUS6BGUG3PORZEM2ORC9GD8BB","AMHUDJ44HF1ZH","3WPCIUYH1AU470H2HRBLZRFBM3CTDN","","","<img src=""img/flower4.png"" style=""width:200px; border:14px solid green;"">","null","","","","","",""
"1122.4000000059605","","image-keyboard-response","347","532966","0.0-347.0","3WQQ9FUS6BGUG3PORZEM2ORC9GD8BB","AMHUDJ44HF1ZH","3WPCIUYH1AU470H2HRBLZRFBM3CTDN","","","img/flower7.png","76","1122.800000011921","3","0","3","0.8,0.8,0.2,0.2,0.8,0.8,0.8,0.2,0.8",""
"null","","html-keyboard-response","348","533272","0.0-348.0","3WQQ9FUS6BGUG3PORZEM2ORC9GD8BB","AMHUDJ44HF1ZH","3WPCIUYH1AU470H2HRBLZRFBM3CTDN","","","<img src=""img/flower7.png"" style=""width:200px;border:14px solid red;"">","null","","","","","",""
"1622.9000000059605","","image-keyboard-response","349","534896","0.0-349.0","3WQQ9FUS6BGUG3PORZEM2ORC9GD8BB","AMHUDJ44HF1ZH","3WPCIUYH1AU470H2HRBLZRFBM3CTDN","","","img/flower3.png","75","1623.5","2","1","2","0.8,0.8,0.2,0.2,0.8,0.8,0.8,0.2,0.8",""
"null","","html-keyboard-response","350","535207","0.0-350.0","3WQQ9FUS6BGUG3PORZEM2ORC9GD8BB","AMHUDJ44HF1ZH","3WPCIUYH1AU470H2HRBLZRFBM3CTDN","","","<img src=""img/flower3.png"" style=""width:200px; border:14px solid green;"">","null","","","","","",""
"1225.699999988079","","image-keyboard-response","351","536433","0.0-351.0","3WQQ9FUS6BGUG3PORZEM2ORC9GD8BB","AMHUDJ44HF1ZH","3WPCIUYH1AU470H2HRBLZRFBM3CTDN","","","img/flower3.png","74","1226.300000011921","1","1","2","0.8,0.8,0.2,0.2,0.8,0.8,0.8,0.2,0.8",""
"null","","html-keyboard-response","352","536738","0.0-352.0","3WQQ9FUS6BGUG3PORZEM2ORC9GD8BB","AMHUDJ44HF1ZH","3WPCIUYH1AU470H2HRBLZRFBM3CTDN","","","<img src=""img/flower3.png"" style=""width:200px; border:14px solid green;"">","null","","","","","",""
"1037.2999999821186","","image-keyboard-response","353","537776","0.0-353.0","3WQQ9FUS6BGUG3PORZEM2ORC9GD8BB","AMHUDJ44HF1ZH","3WPCIUYH1AU470H2HRBLZRFBM3CTDN","","","img/flower7.png","76","1037.7000000178814","3","1","3","0.8,0.8,0.2,0.2,0.8,0.8,0.8,0.2,0.8",""
"null","","html-keyboard-response","354","538088","0.0-354.0","3WQQ9FUS6BGUG3PORZEM2ORC9GD8BB","AMHUDJ44HF1ZH","3WPCIUYH1AU470H2HRBLZRFBM3CTDN","","","<img src=""img/flower7.png"" style=""width:200px; border:14px solid green;"">","null","","","","","",""
"829.9000000059605","","image-keyboard-response","355","538918","0.0-355.0","3WQQ9FUS6BGUG3PORZEM2ORC9GD8BB","AMHUDJ44HF1ZH","3WPCIUYH1AU470H2HRBLZRFBM3CTDN","","","img/flower4.png","74","830.5","1","0","1","0.8,0.8,0.2,0.2,0.8,0.8,0.8,0.2,0.8",""
"null","","html-keyboard-response","356","539224","0.0-356.0","3WQQ9FUS6BGUG3PORZEM2ORC9GD8BB","AMHUDJ44HF1ZH","3WPCIUYH1AU470H2HRBLZRFBM3CTDN","","","<img src=""img/flower4.png"" style=""width:200px;border:14px solid red;"">","null","","","","","",""
"436.2999999821186","","image-keyboard-response","357","539661","0.0-357.0","3WQQ9FUS6BGUG3PORZEM2ORC9GD8BB","AMHUDJ44HF1ZH","3WPCIUYH1AU470H2HRBLZRFBM3CTDN","","","img/flower4.png","74","437","1","1","1","0.8,0.8,0.2,0.2,0.8,0.8,0.8,0.2,0.8",""
"null","","html-keyboard-response","358","539972","0.0-358.0","3WQQ9FUS6BGUG3PORZEM2ORC9GD8BB","AMHUDJ44HF1ZH","3WPCIUYH1AU470H2HRBLZRFBM3CTDN","","","<img src=""img/flower4.png"" style=""width:200px; border:14px solid green;"">","null","","","","","",""
"2237.2999999821186","","image-keyboard-response","359","542210","0.0-359.0","3WQQ9FUS6BGUG3PORZEM2ORC9GD8BB","AMHUDJ44HF1ZH","3WPCIUYH1AU470H2HRBLZRFBM3CTDN","","","img/flower7.png","76","2237.7999999821186","3","1","3","0.8,0.8,0.2,0.2,0.8,0.8,0.8,0.2,0.8",""
"null","","html-keyboard-response","360","542523","0.0-360.0","3WQQ9FUS6BGUG3PORZEM2ORC9GD8BB","AMHUDJ44HF1ZH","3WPCIUYH1AU470H2HRBLZRFBM3CTDN","","","<img src=""img/flower7.png"" style=""width:200px; border:14px solid green;"">","null","","","","","",""
"411","","image-keyboard-response","361","542935","0.0-361.0","3WQQ9FUS6BGUG3PORZEM2ORC9GD8BB","AMHUDJ44HF1ZH","3WPCIUYH1AU470H2HRBLZRFBM3CTDN","","","img/flower7.png","76","411.5","3","0","3","0.8,0.8,0.2,0.2,0.8,0.8,0.8,0.2,0.8",""
"null","","html-keyboard-response","362","543238","0.0-362.0","3WQQ9FUS6BGUG3PORZEM2ORC9GD8BB","AMHUDJ44HF1ZH","3WPCIUYH1AU470H2HRBLZRFBM3CTDN","","","<img src=""img/flower7.png"" style=""width:200px;border:14px solid red;"">","null","","","","","",""
"475","","image-keyboard-response","363","543714","0.0-363.0","3WQQ9FUS6BGUG3PORZEM2ORC9GD8BB","AMHUDJ44HF1ZH","3WPCIUYH1AU470H2HRBLZRFBM3CTDN","","","img/flower7.png","76","475.59999999403954","3","0","3","0.8,0.8,0.2,0.2,0.8,0.8,0.8,0.2,0.8",""
"null","","html-keyboard-response","364","544021","0.0-364.0","3WQQ9FUS6BGUG3PORZEM2ORC9GD8BB","AMHUDJ44HF1ZH","3WPCIUYH1AU470H2HRBLZRFBM3CTDN","","","<img src=""img/flower7.png"" style=""width:200px;border:14px solid red;"">","null","","","","","",""
"1493","","image-keyboard-response","365","545515","0.0-365.0","3WQQ9FUS6BGUG3PORZEM2ORC9GD8BB","AMHUDJ44HF1ZH","3WPCIUYH1AU470H2HRBLZRFBM3CTDN","","","img/flower3.png","74","1493.6000000238419","1","1","2","0.8,0.8,0.2,0.2,0.8,0.8,0.8,0.2,0.8",""
"null","","html-keyboard-response","366","545827","0.0-366.0","3WQQ9FUS6BGUG3PORZEM2ORC9GD8BB","AMHUDJ44HF1ZH","3WPCIUYH1AU470H2HRBLZRFBM3CTDN","","","<img src=""img/flower3.png"" style=""width:200px; border:14px solid green;"">","null","","","","","",""
"411.2000000178814","","image-keyboard-response","367","546239","0.0-367.0","3WQQ9FUS6BGUG3PORZEM2ORC9GD8BB","AMHUDJ44HF1ZH","3WPCIUYH1AU470H2HRBLZRFBM3CTDN","","","img/flower3.png","74","411.69999998807907","1","0","2","0.8,0.8,0.2,0.2,0.8,0.8,0.8,0.2,0.8",""
"null","","html-keyboard-response","368","546542","0.0-368.0","3WQQ9FUS6BGUG3PORZEM2ORC9GD8BB","AMHUDJ44HF1ZH","3WPCIUYH1AU470H2HRBLZRFBM3CTDN","","","<img src=""img/flower3.png"" style=""width:200px;border:14px solid red;"">","null","","","","","",""
"315.90000000596046","","image-keyboard-response","369","546858","0.0-369.0","3WQQ9FUS6BGUG3PORZEM2ORC9GD8BB","AMHUDJ44HF1ZH","3WPCIUYH1AU470H2HRBLZRFBM3CTDN","","","img/flower3.png","74","316.5","1","0","2","0.8,0.8,0.2,0.2,0.8,0.8,0.8,0.2,0.8",""
"null","","html-keyboard-response","370","547170","0.0-370.0","3WQQ9FUS6BGUG3PORZEM2ORC9GD8BB","AMHUDJ44HF1ZH","3WPCIUYH1AU470H2HRBLZRFBM3CTDN","","","<img src=""img/flower3.png"" style=""width:200px;border:14px solid red;"">","null","","","","","",""
"393.5","","image-keyboard-response","371","547564","0.0-371.0","3WQQ9FUS6BGUG3PORZEM2ORC9GD8BB","AMHUDJ44HF1ZH","3WPCIUYH1AU470H2HRBLZRFBM3CTDN","","","img/flower3.png","74","394","1","0","2","0.8,0.8,0.2,0.2,0.8,0.8,0.8,0.2,0.8",""
"null","","html-keyboard-response","372","547874","0.0-372.0","3WQQ9FUS6BGUG3PORZEM2ORC9GD8BB","AMHUDJ44HF1ZH","3WPCIUYH1AU470H2HRBLZRFBM3CTDN","","","<img src=""img/flower3.png"" style=""width:200px;border:14px solid red;"">","null","","","","","",""
"780.5999999940395","","image-keyboard-response","373","548655","0.0-373.0","3WQQ9FUS6BGUG3PORZEM2ORC9GD8BB","AMHUDJ44HF1ZH","3WPCIUYH1AU470H2HRBLZRFBM3CTDN","","","img/flower4.png","74","781","1","1","1","0.8,0.8,0.2,0.2,0.8,0.8,0.8,0.2,0.8",""
"null","","html-keyboard-response","374","548971","0.0-374.0","3WQQ9FUS6BGUG3PORZEM2ORC9GD8BB","AMHUDJ44HF1ZH","3WPCIUYH1AU470H2HRBLZRFBM3CTDN","","","<img src=""img/flower4.png"" style=""width:200px; border:14px solid green;"">","null","","","","","",""
"291.59999999403954","","image-keyboard-response","375","549264","0.0-375.0","3WQQ9FUS6BGUG3PORZEM2ORC9GD8BB","AMHUDJ44HF1ZH","3WPCIUYH1AU470H2HRBLZRFBM3CTDN","","","img/flower4.png","74","292.19999998807907","1","0","1","0.8,0.8,0.2,0.2,0.8,0.8,0.8,0.2,0.8",""
"null","","html-keyboard-response","376","549571","0.0-376.0","3WQQ9FUS6BGUG3PORZEM2ORC9GD8BB","AMHUDJ44HF1ZH","3WPCIUYH1AU470H2HRBLZRFBM3CTDN","","","<img src=""img/flower4.png"" style=""width:200px;border:14px solid red;"">","null","","","","","",""
"1412.2000000178814","","image-keyboard-response","377","550984","0.0-377.0","3WQQ9FUS6BGUG3PORZEM2ORC9GD8BB","AMHUDJ44HF1ZH","3WPCIUYH1AU470H2HRBLZRFBM3CTDN","","","img/flower3.png","75","1412.699999988079","2","0","2","0.8,0.8,0.2,0.2,0.8,0.8,0.8,0.2,0.8",""
"null","","html-keyboard-response","378","551288","0.0-378.0","3WQQ9FUS6BGUG3PORZEM2ORC9GD8BB","AMHUDJ44HF1ZH","3WPCIUYH1AU470H2HRBLZRFBM3CTDN","","","<img src=""img/flower3.png"" style=""width:200px;border:14px solid red;"">","null","","","","","",""
"702.5","","image-keyboard-response","379","551991","0.0-379.0","3WQQ9FUS6BGUG3PORZEM2ORC9GD8BB","AMHUDJ44HF1ZH","3WPCIUYH1AU470H2HRBLZRFBM3CTDN","","","img/flower3.png","76","703","3","1","2","0.8,0.8,0.2,0.2,0.8,0.8,0.8,0.2,0.8",""
"null","","html-keyboard-response","380","552305","0.0-380.0","3WQQ9FUS6BGUG3PORZEM2ORC9GD8BB","AMHUDJ44HF1ZH","3WPCIUYH1AU470H2HRBLZRFBM3CTDN","","","<img src=""img/flower3.png"" style=""width:200px; border:14px solid green;"">","null","","","","","",""
"338.80000001192093","","image-keyboard-response","381","552645","0.0-381.0","3WQQ9FUS6BGUG3PORZEM2ORC9GD8BB","AMHUDJ44HF1ZH","3WPCIUYH1AU470H2HRBLZRFBM3CTDN","","","img/flower4.png","76","339.2999999821186","3","0","1","0.8,0.8,0.2,0.2,0.8,0.8,0.8,0.2,0.8",""
"null","","html-keyboard-response","382","552955","0.0-382.0","3WQQ9FUS6BGUG3PORZEM2ORC9GD8BB","AMHUDJ44HF1ZH","3WPCIUYH1AU470H2HRBLZRFBM3CTDN","","","<img src=""img/flower4.png"" style=""width:200px;border:14px solid red;"">","null","","","","","",""
"1054.5","","image-keyboard-response","383","554010","0.0-383.0","3WQQ9FUS6BGUG3PORZEM2ORC9GD8BB","AMHUDJ44HF1ZH","3WPCIUYH1AU470H2HRBLZRFBM3CTDN","","","img/flower4.png","74","1055.1000000238419","1","0","1","0.8,0.8,0.2,0.2,0.8,0.8,0.8,0.2,0.8",""
"null","","html-keyboard-response","384","554315","0.0-384.0","3WQQ9FUS6BGUG3PORZEM2ORC9GD8BB","AMHUDJ44HF1ZH","3WPCIUYH1AU470H2HRBLZRFBM3CTDN","","","<img src=""img/flower4.png"" style=""width:200px;border:14px solid red;"">","null","","","","","",""
"319.59999999403954","","image-keyboard-response","385","554636","0.0-385.0","3WQQ9FUS6BGUG3PORZEM2ORC9GD8BB","AMHUDJ44HF1ZH","3WPCIUYH1AU470H2HRBLZRFBM3CTDN","","","img/flower3.png","74","320.2999999821186","1","0","2","0.8,0.8,0.2,0.2,0.8,0.8,0.8,0.2,0.8",""
"null","","html-keyboard-response","386","554938","0.0-386.0","3WQQ9FUS6BGUG3PORZEM2ORC9GD8BB","AMHUDJ44HF1ZH","3WPCIUYH1AU470H2HRBLZRFBM3CTDN","","","<img src=""img/flower3.png"" style=""width:200px;border:14px solid red;"">","null","","","","","",""
"854.8000000119209","","image-keyboard-response","387","555794","0.0-387.0","3WQQ9FUS6BGUG3PORZEM2ORC9GD8BB","AMHUDJ44HF1ZH","3WPCIUYH1AU470H2HRBLZRFBM3CTDN","","","img/flower3.png","76","855.5","3","1","2","0.8,0.8,0.2,0.2,0.8,0.8,0.8,0.2,0.8",""
"null","","html-keyboard-response","388","556104","0.0-388.0","3WQQ9FUS6BGUG3PORZEM2ORC9GD8BB","AMHUDJ44HF1ZH","3WPCIUYH1AU470H2HRBLZRFBM3CTDN","","","<img src=""img/flower3.png"" style=""width:200px; border:14px solid green;"">","null","","","","","",""
"723.1999999880791","","image-keyboard-response","389","556828","0.0-389.0","3WQQ9FUS6BGUG3PORZEM2ORC9GD8BB","AMHUDJ44HF1ZH","3WPCIUYH1AU470H2HRBLZRFBM3CTDN","","","img/flower7.png","76","723.8000000119209","3","1","3","0.8,0.8,0.2,0.2,0.8,0.8,0.8,0.2,0.8",""
"null","","html-keyboard-response","390","557140","0.0-390.0","3WQQ9FUS6BGUG3PORZEM2ORC9GD8BB","AMHUDJ44HF1ZH","3WPCIUYH1AU470H2HRBLZRFBM3CTDN","","","<img src=""img/flower7.png"" style=""width:200px; border:14px solid green;"">","null","","","","","",""
"384.59999999403954","","image-keyboard-response","391","557525","0.0-391.0","3WQQ9FUS6BGUG3PORZEM2ORC9GD8BB","AMHUDJ44HF1ZH","3WPCIUYH1AU470H2HRBLZRFBM3CTDN","","","img/flower7.png","76","385.19999998807907","3","0","3","0.8,0.8,0.2,0.2,0.8,0.8,0.8,0.2,0.8",""
"null","","html-keyboard-response","392","557828","0.0-392.0","3WQQ9FUS6BGUG3PORZEM2ORC9GD8BB","AMHUDJ44HF1ZH","3WPCIUYH1AU470H2HRBLZRFBM3CTDN","","","<img src=""img/flower7.png"" style=""width:200px;border:14px solid red;"">","null","","","","","",""
"868.1999999880791","","image-keyboard-response","393","558696","0.0-393.0","3WQQ9FUS6BGUG3PORZEM2ORC9GD8BB","AMHUDJ44HF1ZH","3WPCIUYH1AU470H2HRBLZRFBM3CTDN","","","img/flower3.png","76","868.7000000178814","3","1","2","0.8,0.8,0.2,0.2,0.8,0.8,0.8,0.2,0.8",""
"null","","html-keyboard-response","394","559004","0.0-394.0","3WQQ9FUS6BGUG3PORZEM2ORC9GD8BB","AMHUDJ44HF1ZH","3WPCIUYH1AU470H2HRBLZRFBM3CTDN","","","<img src=""img/flower3.png"" style=""width:200px; border:14px solid green;"">","null","","","","","",""
"278.59999999403954","","image-keyboard-response","395","559283","0.0-395.0","3WQQ9FUS6BGUG3PORZEM2ORC9GD8BB","AMHUDJ44HF1ZH","3WPCIUYH1AU470H2HRBLZRFBM3CTDN","","","img/flower7.png","76","279.19999998807907","3","1","3","0.8,0.8,0.2,0.2,0.8,0.8,0.8,0.2,0.8",""
"null","","html-keyboard-response","396","559589","0.0-396.0","3WQQ9FUS6BGUG3PORZEM2ORC9GD8BB","AMHUDJ44HF1ZH","3WPCIUYH1AU470H2HRBLZRFBM3CTDN","","","<img src=""img/flower7.png"" style=""width:200px; border:14px solid green;"">","null","","","","","",""
"378.09999999403954","","image-keyboard-response","397","559967","0.0-397.0","3WQQ9FUS6BGUG3PORZEM2ORC9GD8BB","AMHUDJ44HF1ZH","3WPCIUYH1AU470H2HRBLZRFBM3CTDN","","","img/flower7.png","76","378.7000000178814","3","1","3","0.8,0.8,0.2,0.2,0.8,0.8,0.8,0.2,0.8",""
"null","","html-keyboard-response","398","560273","0.0-398.0","3WQQ9FUS6BGUG3PORZEM2ORC9GD8BB","AMHUDJ44HF1ZH","3WPCIUYH1AU470H2HRBLZRFBM3CTDN","","","<img src=""img/flower7.png"" style=""width:200px; border:14px solid green;"">","null","","","","","",""
"280.59999999403954","","image-keyboard-response","399","560554","0.0-399.0","3WQQ9FUS6BGUG3PORZEM2ORC9GD8BB","AMHUDJ44HF1ZH","3WPCIUYH1AU470H2HRBLZRFBM3CTDN","","","img/flower7.png","76","281.19999998807907","3","1","3","0.8,0.8,0.2,0.2,0.8,0.8,0.8,0.2,0.8",""
"null","","html-keyboard-response","400","560856","0.0-400.0","3WQQ9FUS6BGUG3PORZEM2ORC9GD8BB","AMHUDJ44HF1ZH","3WPCIUYH1AU470H2HRBLZRFBM3CTDN","","","<img src=""img/flower7.png"" style=""width:200px; border:14px solid green;"">","null","","","","","",""
"1009.3000000119209","","image-keyboard-response","401","561866","0.0-401.0","3WQQ9FUS6BGUG3PORZEM2ORC9GD8BB","AMHUDJ44HF1ZH","3WPCIUYH1AU470H2HRBLZRFBM3CTDN","","","img/flower4.png","74","1009.6999999880791","1","1","1","0.8,0.8,0.2,0.2,0.8,0.8,0.8,0.2,0.8",""
"null","","html-keyboard-response","402","562170","0.0-402.0","3WQQ9FUS6BGUG3PORZEM2ORC9GD8BB","AMHUDJ44HF1ZH","3WPCIUYH1AU470H2HRBLZRFBM3CTDN","","","<img src=""img/flower4.png"" style=""width:200px; border:14px solid green;"">","null","","","","","",""
