"success","trial_type","trial_index","time_elapsed","internal_node_id","assignmentID","mturkID","hitID","view_history","rt","stimulus","key_press","reactionTime","a","r","s","cond","reward_cond","reward_cond_actual","reward_matrix_idx","responses"
"true","fullscreen","0","8799","0.0-0.0","32EYX73OY1VFU7DQQZ1HYVE5S8HURX","AMVBT3XDCQBHI","3PEG1BH7AEDCPKTV9M6N3A4F0EHKBR","","","","","","","","","","","","",""
"","instructions","1","59262","0.0-1.0","32EYX73OY1VFU7DQQZ1HYVE5S8HURX","AMVBT3XDCQBHI","3PEG1BH7AEDCPKTV9M6N3A4F0EHKBR","[{""page_index"":0,""viewing_time"":3685.699999988079},{""page_index"":1,""viewing_time"":3420.699999988079},{""page_index"":2,""viewing_time"":8116.5},{""page_index"":3,""viewing_time"":10096},{""page_index"":4,""viewing_time"":9081},{""page_index"":5,""viewing_time"":4754.300000011921},{""page_index"":6,""viewing_time"":4802.899999976158},{""page_index"":7,""viewing_time"":6502.300000011921}]","50460.59999996424","","","","","","","","","","",""
"","image-keyboard-response","2","61266","0.0-2.0","32EYX73OY1VFU7DQQZ1HYVE5S8HURX","AMVBT3XDCQBHI","3PEG1BH7AEDCPKTV9M6N3A4F0EHKBR","","","img/flower6.png","","2002.800000011921","-1","0","1","1","1,0.333,0.333,0.333,1,0.333,0.333,0.333,1","1,0.333,0.333,0.333,1,0.333,0.333,0.333,1","1",""
"","html-keyboard-response","3","61569","0.0-3.0","32EYX73OY1VFU7DQQZ1HYVE5S8HURX","AMVBT3XDCQBHI","3PEG1BH7AEDCPKTV9M6N3A4F0EHKBR","","null","<img src=""img/flower6.png"" style=""width:200px;border:14px solid red;"">","null","","","","","","","","",""
"","image-keyboard-response","4","63340","0.0-4.0","32EYX73OY1VFU7DQQZ1HYVE5S8HURX","AMVBT3XDCQBHI","3PEG1BH7AEDCPKTV9M6N3A4F0EHKBR","","1769.699999988079","img/flower6.png","75","1770.800000011921","2","0","1","1","1,0.333,0.333,0.333,1,0.333,0.333,0.333,1","1,0.333,0.333,0.333,1,0.333,0.333,0.333,1","1",""
"","html-keyboard-response","5","63643","0.0-5.0","32EYX73OY1VFU7DQQZ1HYVE5S8HURX","AMVBT3XDCQBHI","3PEG1BH7AEDCPKTV9M6N3A4F0EHKBR","","null","<img src=""img/flower6.png"" style=""width:200px;border:14px solid red;"">","null","","","","","","","","",""
"","image-keyboard-response","6","64323","0.0-6.0","32EYX73OY1VFU7DQQZ1HYVE5S8HURX","AMVBT3XDCQBHI","3PEG1BH7AEDCPKTV9M6N3A4F0EHKBR","","678.1000000238419","img/flower6.png","75","679.5","2","0","1","1","1,0.333,0.333,0.333,1,0.333,0.333,0.333,1","1,0.333,0.333,0.333,1,0.333,0.333,0.333,1","1",""
"","html-keyboard-response","7","64626","0.0-7.0","32EYX73OY1VFU7DQQZ1HYVE5S8HURX","AMVBT3XDCQBHI","3PEG1BH7AEDCPKTV9M6N3A4F0EHKBR","","null","<img src=""img/flower6.png"" style=""width:200px;border:14px solid red;"">","null","","","","","","","","",""
"","image-keyboard-response","8","65626","0.0-8.0","32EYX73OY1VFU7DQQZ1HYVE5S8HURX","AMVBT3XDCQBHI","3PEG1BH7AEDCPKTV9M6N3A4F0EHKBR","","998.1999999880791","img/flower5.png","74","999.3000000119209","1","1","3","1","1,0.333,0.333,0.333,1,0.333,0.333,0.333,1","1,0.333,0.333,0.333,1,0.333,0.333,0.333,1","1",""
"","html-keyboard-response","9","65927","0.0-9.0","32EYX73OY1VFU7DQQZ1HYVE5S8HURX","AMVBT3XDCQBHI","3PEG1BH7AEDCPKTV9M6N3A4F0EHKBR","","null","<img src=""img/flower5.png"" style=""width:200px; border:14px solid green;"">","null","","","","","","","","",""
"","image-keyboard-response","10","66707","0.0-10.0","32EYX73OY1VFU7DQQZ1HYVE5S8HURX","AMVBT3XDCQBHI","3PEG1BH7AEDCPKTV9M6N3A4F0EHKBR","","779","img/flower6.png","75","779.9000000357628","2","1","1","1","1,0.333,0.333,0.333,1,0.333,0.333,0.333,1","1,0.333,0.333,0.333,1,0.333,0.333,0.333,1","1",""
"","html-keyboard-response","11","67009","0.0-11.0","32EYX73OY1VFU7DQQZ1HYVE5S8HURX","AMVBT3XDCQBHI","3PEG1BH7AEDCPKTV9M6N3A4F0EHKBR","","null","<img src=""img/flower6.png"" style=""width:200px; border:14px solid green;"">","null","","","","","","","","",""
"","image-keyboard-response","12","67910","0.0-12.0","32EYX73OY1VFU7DQQZ1HYVE5S8HURX","AMVBT3XDCQBHI","3PEG1BH7AEDCPKTV9M6N3A4F0EHKBR","","899.5","img/flower5.png","74","900.3999999761581","1","0","3","1","1,0.333,0.333,0.333,1,0.333,0.333,0.333,1","1,0.333,0.333,0.333,1,0.333,0.333,0.333,1","1",""
"","html-keyboard-response","13","68212","0.0-13.0","32EYX73OY1VFU7DQQZ1HYVE5S8HURX","AMVBT3XDCQBHI","3PEG1BH7AEDCPKTV9M6N3A4F0EHKBR","","null","<img src=""img/flower5.png"" style=""width:200px;border:14px solid red;"">","null","","","","","","","","",""
"","image-keyboard-response","14","70210","0.0-14.0","32EYX73OY1VFU7DQQZ1HYVE5S8HURX","AMVBT3XDCQBHI","3PEG1BH7AEDCPKTV9M6N3A4F0EHKBR","","1997.0999999642372","img/flower4.png","74","1997.7999999523163","1","0","2","1","1,0.333,0.333,0.333,1,0.333,0.333,0.333,1","1,0.333,0.333,0.333,1,0.333,0.333,0.333,1","1",""
"","html-keyboard-response","15","70522","0.0-15.0","32EYX73OY1VFU7DQQZ1HYVE5S8HURX","AMVBT3XDCQBHI","3PEG1BH7AEDCPKTV9M6N3A4F0EHKBR","","null","<img src=""img/flower4.png"" style=""width:200px;border:14px solid red;"">","null","","","","","","","","",""
"","image-keyboard-response","16","72018","0.0-16.0","32EYX73OY1VFU7DQQZ1HYVE5S8HURX","AMVBT3XDCQBHI","3PEG1BH7AEDCPKTV9M6N3A4F0EHKBR","","1495.199999988079","img/flower5.png","75","1496.1000000238419","2","0","3","1","1,0.333,0.333,0.333,1,0.333,0.333,0.333,1","1,0.333,0.333,0.333,1,0.333,0.333,0.333,1","1",""
"","html-keyboard-response","17","72320","0.0-17.0","32EYX73OY1VFU7DQQZ1HYVE5S8HURX","AMVBT3XDCQBHI","3PEG1BH7AEDCPKTV9M6N3A4F0EHKBR","","null","<img src=""img/flower5.png"" style=""width:200px;border:14px solid red;"">","null","","","","","","","","",""
"","image-keyboard-response","18","74322","0.0-18.0","32EYX73OY1VFU7DQQZ1HYVE5S8HURX","AMVBT3XDCQBHI","3PEG1BH7AEDCPKTV9M6N3A4F0EHKBR","","","img/flower6.png","","2001.6000000238419","-1","0","1","1","1,0.333,0.333,0.333,1,0.333,0.333,0.333,1","1,0.333,0.333,0.333,1,0.333,0.333,0.333,1","1",""
"","html-keyboard-response","19","74624","0.0-19.0","32EYX73OY1VFU7DQQZ1HYVE5S8HURX","AMVBT3XDCQBHI","3PEG1BH7AEDCPKTV9M6N3A4F0EHKBR","","null","<img src=""img/flower6.png"" style=""width:200px;border:14px solid red;"">","null","","","","","","","","",""
"","image-keyboard-response","20","76489","0.0-20.0","32EYX73OY1VFU7DQQZ1HYVE5S8HURX","AMVBT3XDCQBHI","3PEG1BH7AEDCPKTV9M6N3A4F0EHKBR","","1862.8999999761581","img/flower5.png","76","1864","3","1","3","1","1,0.333,0.333,0.333,1,0.333,0.333,0.333,1","1,0.333,0.333,0.333,1,0.333,0.333,0.333,1","1",""
"","html-keyboard-response","21","76790","0.0-21.0","32EYX73OY1VFU7DQQZ1HYVE5S8HURX","AMVBT3XDCQBHI","3PEG1BH7AEDCPKTV9M6N3A4F0EHKBR","","null","<img src=""img/flower5.png"" style=""width:200px; border:14px solid green;"">","null","","","","","","","","",""
"","image-keyboard-response","22","78409","0.0-22.0","32EYX73OY1VFU7DQQZ1HYVE5S8HURX","AMVBT3XDCQBHI","3PEG1BH7AEDCPKTV9M6N3A4F0EHKBR","","1618.300000011921","img/flower6.png","75","1619.2000000476837","2","1","1","1","1,0.333,0.333,0.333,1,0.333,0.333,0.333,1","1,0.333,0.333,0.333,1,0.333,0.333,0.333,1","1",""
"","html-keyboard-response","23","78711","0.0-23.0","32EYX73OY1VFU7DQQZ1HYVE5S8HURX","AMVBT3XDCQBHI","3PEG1BH7AEDCPKTV9M6N3A4F0EHKBR","","null","<img src=""img/flower6.png"" style=""width:200px; border:14px solid green;"">","null","","","","","","","","",""
"","image-keyboard-response","24","79923","0.0-24.0","32EYX73OY1VFU7DQQZ1HYVE5S8HURX","AMVBT3XDCQBHI","3PEG1BH7AEDCPKTV9M6N3A4F0EHKBR","","1210.800000011921","img/flower5.png","76","1211.6000000238419","3","1","3","1","1,0.333,0.333,0.333,1,0.333,0.333,0.333,1","1,0.333,0.333,0.333,1,0.333,0.333,0.333,1","1",""
"","html-keyboard-response","25","80225","0.0-25.0","32EYX73OY1VFU7DQQZ1HYVE5S8HURX","AMVBT3XDCQBHI","3PEG1BH7AEDCPKTV9M6N3A4F0EHKBR","","null","<img src=""img/flower5.png"" style=""width:200px; border:14px solid green;"">","null","","","","","","","","",""
"","image-keyboard-response","26","81558","0.0-26.0","32EYX73OY1VFU7DQQZ1HYVE5S8HURX","AMVBT3XDCQBHI","3PEG1BH7AEDCPKTV9M6N3A4F0EHKBR","","1332.0999999642372","img/flower6.png","75","1332.9000000357628","2","0","1","1","1,0.333,0.333,0.333,1,0.333,0.333,0.333,1","1,0.333,0.333,0.333,1,0.333,0.333,0.333,1","1",""
"","html-keyboard-response","27","81874","0.0-27.0","32EYX73OY1VFU7DQQZ1HYVE5S8HURX","AMVBT3XDCQBHI","3PEG1BH7AEDCPKTV9M6N3A4F0EHKBR","","null","<img src=""img/flower6.png"" style=""width:200px;border:14px solid red;"">","null","","","","","","","","",""
"","image-keyboard-response","28","83607","0.0-28.0","32EYX73OY1VFU7DQQZ1HYVE5S8HURX","AMVBT3XDCQBHI","3PEG1BH7AEDCPKTV9M6N3A4F0EHKBR","","1732.300000011921","img/flower5.png","75","1733","2","0","3","1","1,0.333,0.333,0.333,1,0.333,0.333,0.333,1","1,0.333,0.333,0.333,1,0.333,0.333,0.333,1","1",""
"","html-keyboard-response","29","83909","0.0-29.0","32EYX73OY1VFU7DQQZ1HYVE5S8HURX","AMVBT3XDCQBHI","3PEG1BH7AEDCPKTV9M6N3A4F0EHKBR","","null","<img src=""img/flower5.png"" style=""width:200px;border:14px solid red;"">","null","","","","","","","","",""
"","image-keyboard-response","30","85911","0.0-30.0","32EYX73OY1VFU7DQQZ1HYVE5S8HURX","AMVBT3XDCQBHI","3PEG1BH7AEDCPKTV9M6N3A4F0EHKBR","","","img/flower5.png","","2002.199999988079","-1","0","3","1","1,0.333,0.333,0.333,1,0.333,0.333,0.333,1","1,0.333,0.333,0.333,1,0.333,0.333,0.333,1","1",""
"","html-keyboard-response","31","86213","0.0-31.0","32EYX73OY1VFU7DQQZ1HYVE5S8HURX","AMVBT3XDCQBHI","3PEG1BH7AEDCPKTV9M6N3A4F0EHKBR","","null","<img src=""img/flower5.png"" style=""width:200px;border:14px solid red;"">","null","","","","","","","","",""
"","image-keyboard-response","32","87104","0.0-32.0","32EYX73OY1VFU7DQQZ1HYVE5S8HURX","AMVBT3XDCQBHI","3PEG1BH7AEDCPKTV9M6N3A4F0EHKBR","","890","img/flower5.png","76","890.6999999880791","3","1","3","1","1,0.333,0.333,0.333,1,0.333,0.333,0.333,1","1,0.333,0.333,0.333,1,0.333,0.333,0.333,1","1",""
"","html-keyboard-response","33","87406","0.0-33.0","32EYX73OY1VFU7DQQZ1HYVE5S8HURX","AMVBT3XDCQBHI","3PEG1BH7AEDCPKTV9M6N3A4F0EHKBR","","null","<img src=""img/flower5.png"" style=""width:200px; border:14px solid green;"">","null","","","","","","","","",""
"","image-keyboard-response","34","88029","0.0-34.0","32EYX73OY1VFU7DQQZ1HYVE5S8HURX","AMVBT3XDCQBHI","3PEG1BH7AEDCPKTV9M6N3A4F0EHKBR","","622.5","img/flower5.png","76","623.3000000119209","3","1","3","1","1,0.333,0.333,0.333,1,0.333,0.333,0.333,1","1,0.333,0.333,0.333,1,0.333,0.333,0.333,1","1",""
"","html-keyboard-response","35","88344","0.0-35.0","32EYX73OY1VFU7DQQZ1HYVE5S8HURX","AMVBT3XDCQBHI","3PEG1BH7AEDCPKTV9M6N3A4F0EHKBR","","null","<img src=""img/flower5.png"" style=""width:200px; border:14px solid green;"">","null","","","","","","","","",""
"","image-keyboard-response","36","89289","0.0-36.0","32EYX73OY1VFU7DQQZ1HYVE5S8HURX","AMVBT3XDCQBHI","3PEG1BH7AEDCPKTV9M6N3A4F0EHKBR","","943.7000000476837","img/flower4.png","74","944.5","1","0","2","1","1,0.333,0.333,0.333,1,0.333,0.333,0.333,1","1,0.333,0.333,0.333,1,0.333,0.333,0.333,1","1",""
"","html-keyboard-response","37","89590","0.0-37.0","32EYX73OY1VFU7DQQZ1HYVE5S8HURX","AMVBT3XDCQBHI","3PEG1BH7AEDCPKTV9M6N3A4F0EHKBR","","null","<img src=""img/flower4.png"" style=""width:200px;border:14px solid red;"">","null","","","","","","","","",""
"","image-keyboard-response","38","90272","0.0-38.0","32EYX73OY1VFU7DQQZ1HYVE5S8HURX","AMVBT3XDCQBHI","3PEG1BH7AEDCPKTV9M6N3A4F0EHKBR","","681.5","img/flower4.png","74","682.3000000119209","1","1","2","1","1,0.333,0.333,0.333,1,0.333,0.333,0.333,1","1,0.333,0.333,0.333,1,0.333,0.333,0.333,1","1",""
"","html-keyboard-response","39","90574","0.0-39.0","32EYX73OY1VFU7DQQZ1HYVE5S8HURX","AMVBT3XDCQBHI","3PEG1BH7AEDCPKTV9M6N3A4F0EHKBR","","null","<img src=""img/flower4.png"" style=""width:200px; border:14px solid green;"">","null","","","","","","","","",""
"","image-keyboard-response","40","91105","0.0-40.0","32EYX73OY1VFU7DQQZ1HYVE5S8HURX","AMVBT3XDCQBHI","3PEG1BH7AEDCPKTV9M6N3A4F0EHKBR","","530.3000000119209","img/flower4.png","74","531.1999999880791","1","0","2","1","1,0.333,0.333,0.333,1,0.333,0.333,0.333,1","1,0.333,0.333,0.333,1,0.333,0.333,0.333,1","1",""
"","html-keyboard-response","41","91408","0.0-41.0","32EYX73OY1VFU7DQQZ1HYVE5S8HURX","AMVBT3XDCQBHI","3PEG1BH7AEDCPKTV9M6N3A4F0EHKBR","","null","<img src=""img/flower4.png"" style=""width:200px;border:14px solid red;"">","null","","","","","","","","",""
"","image-keyboard-response","42","92973","0.0-42.0","32EYX73OY1VFU7DQQZ1HYVE5S8HURX","AMVBT3XDCQBHI","3PEG1BH7AEDCPKTV9M6N3A4F0EHKBR","","1564.1000000238419","img/flower6.png","75","1565.0999999642372","2","0","1","1","1,0.333,0.333,0.333,1,0.333,0.333,0.333,1","1,0.333,0.333,0.333,1,0.333,0.333,0.333,1","1",""
"","html-keyboard-response","43","93274","0.0-43.0","32EYX73OY1VFU7DQQZ1HYVE5S8HURX","AMVBT3XDCQBHI","3PEG1BH7AEDCPKTV9M6N3A4F0EHKBR","","null","<img src=""img/flower6.png"" style=""width:200px;border:14px solid red;"">","null","","","","","","","","",""
"","image-keyboard-response","44","94137","0.0-44.0","32EYX73OY1VFU7DQQZ1HYVE5S8HURX","AMVBT3XDCQBHI","3PEG1BH7AEDCPKTV9M6N3A4F0EHKBR","","861.6000000238419","img/flower5.png","76","862.3999999761581","3","1","3","1","1,0.333,0.333,0.333,1,0.333,0.333,0.333,1","1,0.333,0.333,0.333,1,0.333,0.333,0.333,1","1",""
"","html-keyboard-response","45","94439","0.0-45.0","32EYX73OY1VFU7DQQZ1HYVE5S8HURX","AMVBT3XDCQBHI","3PEG1BH7AEDCPKTV9M6N3A4F0EHKBR","","null","<img src=""img/flower5.png"" style=""width:200px; border:14px solid green;"">","null","","","","","","","","",""
"","image-keyboard-response","46","95220","0.0-46.0","32EYX73OY1VFU7DQQZ1HYVE5S8HURX","AMVBT3XDCQBHI","3PEG1BH7AEDCPKTV9M6N3A4F0EHKBR","","779.7000000476837","img/flower5.png","76","780.5","3","1","3","1","1,0.333,0.333,0.333,1,0.333,0.333,0.333,1","1,0.333,0.333,0.333,1,0.333,0.333,0.333,1","1",""
"","html-keyboard-response","47","95522","0.0-47.0","32EYX73OY1VFU7DQQZ1HYVE5S8HURX","AMVBT3XDCQBHI","3PEG1BH7AEDCPKTV9M6N3A4F0EHKBR","","null","<img src=""img/flower5.png"" style=""width:200px; border:14px solid green;"">","null","","","","","","","","",""
"","image-keyboard-response","48","96506","0.0-48.0","32EYX73OY1VFU7DQQZ1HYVE5S8HURX","AMVBT3XDCQBHI","3PEG1BH7AEDCPKTV9M6N3A4F0EHKBR","","982.5","img/flower6.png","75","983.5","2","0","1","1","1,0.333,0.333,0.333,1,0.333,0.333,0.333,1","1,0.333,0.333,0.333,1,0.333,0.333,0.333,1","1",""
"","html-keyboard-response","49","96807","0.0-49.0","32EYX73OY1VFU7DQQZ1HYVE5S8HURX","AMVBT3XDCQBHI","3PEG1BH7AEDCPKTV9M6N3A4F0EHKBR","","null","<img src=""img/flower6.png"" style=""width:200px;border:14px solid red;"">","null","","","","","","","","",""
"","image-keyboard-response","50","97485","0.0-50.0","32EYX73OY1VFU7DQQZ1HYVE5S8HURX","AMVBT3XDCQBHI","3PEG1BH7AEDCPKTV9M6N3A4F0EHKBR","","676.9000000357628","img/flower6.png","75","677.8000000119209","2","0","1","1","1,0.333,0.333,0.333,1,0.333,0.333,0.333,1","1,0.333,0.333,0.333,1,0.333,0.333,0.333,1","1",""
"","html-keyboard-response","51","97787","0.0-51.0","32EYX73OY1VFU7DQQZ1HYVE5S8HURX","AMVBT3XDCQBHI","3PEG1BH7AEDCPKTV9M6N3A4F0EHKBR","","null","<img src=""img/flower6.png"" style=""width:200px;border:14px solid red;"">","null","","","","","","","","",""
"","image-keyboard-response","52","98535","0.0-52.0","32EYX73OY1VFU7DQQZ1HYVE5S8HURX","AMVBT3XDCQBHI","3PEG1BH7AEDCPKTV9M6N3A4F0EHKBR","","746.9000000357628","img/flower4.png","74","747.6999999880791","1","0","2","1","1,0.333,0.333,0.333,1,0.333,0.333,0.333,1","1,0.333,0.333,0.333,1,0.333,0.333,0.333,1","1",""
"","html-keyboard-response","53","98837","0.0-53.0","32EYX73OY1VFU7DQQZ1HYVE5S8HURX","AMVBT3XDCQBHI","3PEG1BH7AEDCPKTV9M6N3A4F0EHKBR","","null","<img src=""img/flower4.png"" style=""width:200px;border:14px solid red;"">","null","","","","","","","","",""
"","image-keyboard-response","54","99971","0.0-54.0","32EYX73OY1VFU7DQQZ1HYVE5S8HURX","AMVBT3XDCQBHI","3PEG1BH7AEDCPKTV9M6N3A4F0EHKBR","","1133.199999988079","img/flower6.png","75","1133.9000000357628","2","0","1","1","1,0.333,0.333,0.333,1,0.333,0.333,0.333,1","1,0.333,0.333,0.333,1,0.333,0.333,0.333,1","1",""
"","html-keyboard-response","55","100272","0.0-55.0","32EYX73OY1VFU7DQQZ1HYVE5S8HURX","AMVBT3XDCQBHI","3PEG1BH7AEDCPKTV9M6N3A4F0EHKBR","","null","<img src=""img/flower6.png"" style=""width:200px;border:14px solid red;"">","null","","","","","","","","",""
"","image-keyboard-response","56","101404","0.0-56.0","32EYX73OY1VFU7DQQZ1HYVE5S8HURX","AMVBT3XDCQBHI","3PEG1BH7AEDCPKTV9M6N3A4F0EHKBR","","1130.6000000238419","img/flower4.png","74","1131.4000000357628","1","1","2","1","1,0.333,0.333,0.333,1,0.333,0.333,0.333,1","1,0.333,0.333,0.333,1,0.333,0.333,0.333,1","1",""
"","html-keyboard-response","57","101705","0.0-57.0","32EYX73OY1VFU7DQQZ1HYVE5S8HURX","AMVBT3XDCQBHI","3PEG1BH7AEDCPKTV9M6N3A4F0EHKBR","","null","<img src=""img/flower4.png"" style=""width:200px; border:14px solid green;"">","null","","","","","","","","",""
"","image-keyboard-response","58","102422","0.0-58.0","32EYX73OY1VFU7DQQZ1HYVE5S8HURX","AMVBT3XDCQBHI","3PEG1BH7AEDCPKTV9M6N3A4F0EHKBR","","715.9000000357628","img/flower6.png","75","716.6999999880791","2","1","1","1","1,0.333,0.333,0.333,1,0.333,0.333,0.333,1","1,0.333,0.333,0.333,1,0.333,0.333,0.333,1","1",""
"","html-keyboard-response","59","102724","0.0-59.0","32EYX73OY1VFU7DQQZ1HYVE5S8HURX","AMVBT3XDCQBHI","3PEG1BH7AEDCPKTV9M6N3A4F0EHKBR","","null","<img src=""img/flower6.png"" style=""width:200px; border:14px solid green;"">","null","","","","","","","","",""
"","image-keyboard-response","60","103611","0.0-60.0","32EYX73OY1VFU7DQQZ1HYVE5S8HURX","AMVBT3XDCQBHI","3PEG1BH7AEDCPKTV9M6N3A4F0EHKBR","","886.1000000238419","img/flower5.png","76","886.8999999761581","3","1","3","1","1,0.333,0.333,0.333,1,0.333,0.333,0.333,1","1,0.333,0.333,0.333,1,0.333,0.333,0.333,1","1",""
"","html-keyboard-response","61","103912","0.0-61.0","32EYX73OY1VFU7DQQZ1HYVE5S8HURX","AMVBT3XDCQBHI","3PEG1BH7AEDCPKTV9M6N3A4F0EHKBR","","null","<img src=""img/flower5.png"" style=""width:200px; border:14px solid green;"">","null","","","","","","","","",""
"","image-keyboard-response","62","105337","0.0-62.0","32EYX73OY1VFU7DQQZ1HYVE5S8HURX","AMVBT3XDCQBHI","3PEG1BH7AEDCPKTV9M6N3A4F0EHKBR","","1423.800000011921","img/flower4.png","74","1424.699999988079","1","0","2","1","1,0.333,0.333,0.333,1,0.333,0.333,0.333,1","1,0.333,0.333,0.333,1,0.333,0.333,0.333,1","1",""
"","html-keyboard-response","63","105645","0.0-63.0","32EYX73OY1VFU7DQQZ1HYVE5S8HURX","AMVBT3XDCQBHI","3PEG1BH7AEDCPKTV9M6N3A4F0EHKBR","","null","<img src=""img/flower4.png"" style=""width:200px;border:14px solid red;"">","null","","","","","","","","",""
"","image-keyboard-response","64","106536","0.0-64.0","32EYX73OY1VFU7DQQZ1HYVE5S8HURX","AMVBT3XDCQBHI","3PEG1BH7AEDCPKTV9M6N3A4F0EHKBR","","890.5999999642372","img/flower6.png","75","891.4000000357628","2","0","1","1","1,0.333,0.333,0.333,1,0.333,0.333,0.333,1","1,0.333,0.333,0.333,1,0.333,0.333,0.333,1","1",""
"","html-keyboard-response","65","106838","0.0-65.0","32EYX73OY1VFU7DQQZ1HYVE5S8HURX","AMVBT3XDCQBHI","3PEG1BH7AEDCPKTV9M6N3A4F0EHKBR","","null","<img src=""img/flower6.png"" style=""width:200px;border:14px solid red;"">","null","","","","","","","","",""
"","image-keyboard-response","66","107801","0.0-66.0","32EYX73OY1VFU7DQQZ1HYVE5S8HURX","AMVBT3XDCQBHI","3PEG1BH7AEDCPKTV9M6N3A4F0EHKBR","","961.5999999642372","img/flower4.png","74","962.3999999761581","1","0","2","1","1,0.333,0.333,0.333,1,0.333,0.333,0.333,1","1,0.333,0.333,0.333,1,0.333,0.333,0.333,1","1",""
"","html-keyboard-response","67","108103","0.0-67.0","32EYX73OY1VFU7DQQZ1HYVE5S8HURX","AMVBT3XDCQBHI","3PEG1BH7AEDCPKTV9M6N3A4F0EHKBR","","null","<img src=""img/flower4.png"" style=""width:200px;border:14px solid red;"">","null","","","","","","","","",""
"","image-keyboard-response","68","109278","0.0-68.0","32EYX73OY1VFU7DQQZ1HYVE5S8HURX","AMVBT3XDCQBHI","3PEG1BH7AEDCPKTV9M6N3A4F0EHKBR","","1174.1000000238419","img/flower5.png","76","1175","3","1","3","1","1,0.333,0.333,0.333,1,0.333,0.333,0.333,1","1,0.333,0.333,0.333,1,0.333,0.333,0.333,1","1",""
"","html-keyboard-response","69","109580","0.0-69.0","32EYX73OY1VFU7DQQZ1HYVE5S8HURX","AMVBT3XDCQBHI","3PEG1BH7AEDCPKTV9M6N3A4F0EHKBR","","null","<img src=""img/flower5.png"" style=""width:200px; border:14px solid green;"">","null","","","","","","","","",""
"","image-keyboard-response","70","110370","0.0-70.0","32EYX73OY1VFU7DQQZ1HYVE5S8HURX","AMVBT3XDCQBHI","3PEG1BH7AEDCPKTV9M6N3A4F0EHKBR","","788.5","img/flower5.png","76","789.1999999880791","3","1","3","1","1,0.333,0.333,0.333,1,0.333,0.333,0.333,1","1,0.333,0.333,0.333,1,0.333,0.333,0.333,1","1",""
"","html-keyboard-response","71","110672","0.0-71.0","32EYX73OY1VFU7DQQZ1HYVE5S8HURX","AMVBT3XDCQBHI","3PEG1BH7AEDCPKTV9M6N3A4F0EHKBR","","null","<img src=""img/flower5.png"" style=""width:200px; border:14px solid green;"">","null","","","","","","","","",""
"","image-keyboard-response","72","111333","0.0-72.0","32EYX73OY1VFU7DQQZ1HYVE5S8HURX","AMVBT3XDCQBHI","3PEG1BH7AEDCPKTV9M6N3A4F0EHKBR","","660","img/flower4.png","74","660.9000000357628","1","0","2","1","1,0.333,0.333,0.333,1,0.333,0.333,0.333,1","1,0.333,0.333,0.333,1,0.333,0.333,0.333,1","1",""
"","html-keyboard-response","73","111636","0.0-73.0","32EYX73OY1VFU7DQQZ1HYVE5S8HURX","AMVBT3XDCQBHI","3PEG1BH7AEDCPKTV9M6N3A4F0EHKBR","","null","<img src=""img/flower4.png"" style=""width:200px;border:14px solid red;"">","null","","","","","","","","",""
"","image-keyboard-response","74","112134","0.0-74.0","32EYX73OY1VFU7DQQZ1HYVE5S8HURX","AMVBT3XDCQBHI","3PEG1BH7AEDCPKTV9M6N3A4F0EHKBR","","497.39999997615814","img/flower4.png","74","498.19999998807907","1","0","2","1","1,0.333,0.333,0.333,1,0.333,0.333,0.333,1","1,0.333,0.333,0.333,1,0.333,0.333,0.333,1","1",""
"","html-keyboard-response","75","112435","0.0-75.0","32EYX73OY1VFU7DQQZ1HYVE5S8HURX","AMVBT3XDCQBHI","3PEG1BH7AEDCPKTV9M6N3A4F0EHKBR","","null","<img src=""img/flower4.png"" style=""width:200px;border:14px solid red;"">","null","","","","","","","","",""
"","image-keyboard-response","76","112999","0.0-76.0","32EYX73OY1VFU7DQQZ1HYVE5S8HURX","AMVBT3XDCQBHI","3PEG1BH7AEDCPKTV9M6N3A4F0EHKBR","","563.0999999642372","img/flower4.png","74","563.8000000119209","1","0","2","1","1,0.333,0.333,0.333,1,0.333,0.333,0.333,1","1,0.333,0.333,0.333,1,0.333,0.333,0.333,1","1",""
"","html-keyboard-response","77","113302","0.0-77.0","32EYX73OY1VFU7DQQZ1HYVE5S8HURX","AMVBT3XDCQBHI","3PEG1BH7AEDCPKTV9M6N3A4F0EHKBR","","null","<img src=""img/flower4.png"" style=""width:200px;border:14px solid red;"">","null","","","","","","","","",""
"","image-keyboard-response","78","113843","0.0-78.0","32EYX73OY1VFU7DQQZ1HYVE5S8HURX","AMVBT3XDCQBHI","3PEG1BH7AEDCPKTV9M6N3A4F0EHKBR","","540.5","img/flower4.png","74","541.4000000357628","1","1","2","1","1,0.333,0.333,0.333,1,0.333,0.333,0.333,1","1,0.333,0.333,0.333,1,0.333,0.333,0.333,1","1",""
"","html-keyboard-response","79","114145","0.0-79.0","32EYX73OY1VFU7DQQZ1HYVE5S8HURX","AMVBT3XDCQBHI","3PEG1BH7AEDCPKTV9M6N3A4F0EHKBR","","null","<img src=""img/flower4.png"" style=""width:200px; border:14px solid green;"">","null","","","","","","","","",""
"","image-keyboard-response","80","114685","0.0-80.0","32EYX73OY1VFU7DQQZ1HYVE5S8HURX","AMVBT3XDCQBHI","3PEG1BH7AEDCPKTV9M6N3A4F0EHKBR","","539","img/flower4.png","74","539.7999999523163","1","1","2","1","1,0.333,0.333,0.333,1,0.333,0.333,0.333,1","1,0.333,0.333,0.333,1,0.333,0.333,0.333,1","1",""
"","html-keyboard-response","81","114987","0.0-81.0","32EYX73OY1VFU7DQQZ1HYVE5S8HURX","AMVBT3XDCQBHI","3PEG1BH7AEDCPKTV9M6N3A4F0EHKBR","","null","<img src=""img/flower4.png"" style=""width:200px; border:14px solid green;"">","null","","","","","","","","",""
"","image-keyboard-response","82","115896","0.0-82.0","32EYX73OY1VFU7DQQZ1HYVE5S8HURX","AMVBT3XDCQBHI","3PEG1BH7AEDCPKTV9M6N3A4F0EHKBR","","908.3000000119209","img/flower5.png","76","909.1000000238419","3","1","3","1","1,0.333,0.333,0.333,1,0.333,0.333,0.333,1","1,0.333,0.333,0.333,1,0.333,0.333,0.333,1","1",""
"","html-keyboard-response","83","116198","0.0-83.0","32EYX73OY1VFU7DQQZ1HYVE5S8HURX","AMVBT3XDCQBHI","3PEG1BH7AEDCPKTV9M6N3A4F0EHKBR","","null","<img src=""img/flower5.png"" style=""width:200px; border:14px solid green;"">","null","","","","","","","","",""
"","image-keyboard-response","84","117195","0.0-84.0","32EYX73OY1VFU7DQQZ1HYVE5S8HURX","AMVBT3XDCQBHI","3PEG1BH7AEDCPKTV9M6N3A4F0EHKBR","","996.8000000119209","img/flower4.png","74","997.5","1","1","2","1","1,0.333,0.333,0.333,1,0.333,0.333,0.333,1","1,0.333,0.333,0.333,1,0.333,0.333,0.333,1","1",""
"","html-keyboard-response","85","117508","0.0-85.0","32EYX73OY1VFU7DQQZ1HYVE5S8HURX","AMVBT3XDCQBHI","3PEG1BH7AEDCPKTV9M6N3A4F0EHKBR","","null","<img src=""img/flower4.png"" style=""width:200px; border:14px solid green;"">","null","","","","","","","","",""
"","image-keyboard-response","86","118545","0.0-86.0","32EYX73OY1VFU7DQQZ1HYVE5S8HURX","AMVBT3XDCQBHI","3PEG1BH7AEDCPKTV9M6N3A4F0EHKBR","","1035.8999999761581","img/flower6.png","75","1036.6000000238419","2","0","1","1","1,0.333,0.333,0.333,1,0.333,0.333,0.333,1","1,0.333,0.333,0.333,1,0.333,0.333,0.333,1","1",""
"","html-keyboard-response","87","118846","0.0-87.0","32EYX73OY1VFU7DQQZ1HYVE5S8HURX","AMVBT3XDCQBHI","3PEG1BH7AEDCPKTV9M6N3A4F0EHKBR","","null","<img src=""img/flower6.png"" style=""width:200px;border:14px solid red;"">","null","","","","","","","","",""
"","image-keyboard-response","88","119621","0.0-88.0","32EYX73OY1VFU7DQQZ1HYVE5S8HURX","AMVBT3XDCQBHI","3PEG1BH7AEDCPKTV9M6N3A4F0EHKBR","","772.1000000238419","img/flower4.png","74","773","1","1","2","1","1,0.333,0.333,0.333,1,0.333,0.333,0.333,1","1,0.333,0.333,0.333,1,0.333,0.333,0.333,1","1",""
"","html-keyboard-response","89","119923","0.0-89.0","32EYX73OY1VFU7DQQZ1HYVE5S8HURX","AMVBT3XDCQBHI","3PEG1BH7AEDCPKTV9M6N3A4F0EHKBR","","null","<img src=""img/flower4.png"" style=""width:200px; border:14px solid green;"">","null","","","","","","","","",""
"","image-keyboard-response","90","120948","0.0-90.0","32EYX73OY1VFU7DQQZ1HYVE5S8HURX","AMVBT3XDCQBHI","3PEG1BH7AEDCPKTV9M6N3A4F0EHKBR","","1024.300000011921","img/flower5.png","76","1025.199999988079","3","1","3","1","1,0.333,0.333,0.333,1,0.333,0.333,0.333,1","1,0.333,0.333,0.333,1,0.333,0.333,0.333,1","1",""
"","html-keyboard-response","91","121250","0.0-91.0","32EYX73OY1VFU7DQQZ1HYVE5S8HURX","AMVBT3XDCQBHI","3PEG1BH7AEDCPKTV9M6N3A4F0EHKBR","","null","<img src=""img/flower5.png"" style=""width:200px; border:14px solid green;"">","null","","","","","","","","",""
"","image-keyboard-response","92","122103","0.0-92.0","32EYX73OY1VFU7DQQZ1HYVE5S8HURX","AMVBT3XDCQBHI","3PEG1BH7AEDCPKTV9M6N3A4F0EHKBR","","852.3000000119209","img/flower5.png","76","853.3000000119209","3","1","3","1","1,0.333,0.333,0.333,1,0.333,0.333,0.333,1","1,0.333,0.333,0.333,1,0.333,0.333,0.333,1","1",""
"","html-keyboard-response","93","122404","0.0-93.0","32EYX73OY1VFU7DQQZ1HYVE5S8HURX","AMVBT3XDCQBHI","3PEG1BH7AEDCPKTV9M6N3A4F0EHKBR","","null","<img src=""img/flower5.png"" style=""width:200px; border:14px solid green;"">","null","","","","","","","","",""
"","image-keyboard-response","94","123174","0.0-94.0","32EYX73OY1VFU7DQQZ1HYVE5S8HURX","AMVBT3XDCQBHI","3PEG1BH7AEDCPKTV9M6N3A4F0EHKBR","","768.5","img/flower4.png","74","769.1999999880791","1","1","2","1","1,0.333,0.333,0.333,1,0.333,0.333,0.333,1","1,0.333,0.333,0.333,1,0.333,0.333,0.333,1","1",""
"","html-keyboard-response","95","123476","0.0-95.0","32EYX73OY1VFU7DQQZ1HYVE5S8HURX","AMVBT3XDCQBHI","3PEG1BH7AEDCPKTV9M6N3A4F0EHKBR","","null","<img src=""img/flower4.png"" style=""width:200px; border:14px solid green;"">","null","","","","","","","","",""
"","image-keyboard-response","96","124027","0.0-96.0","32EYX73OY1VFU7DQQZ1HYVE5S8HURX","AMVBT3XDCQBHI","3PEG1BH7AEDCPKTV9M6N3A4F0EHKBR","","550.5","img/flower4.png","74","551.2000000476837","1","1","2","1","1,0.333,0.333,0.333,1,0.333,0.333,0.333,1","1,0.333,0.333,0.333,1,0.333,0.333,0.333,1","1",""
"","html-keyboard-response","97","124343","0.0-97.0","32EYX73OY1VFU7DQQZ1HYVE5S8HURX","AMVBT3XDCQBHI","3PEG1BH7AEDCPKTV9M6N3A4F0EHKBR","","null","<img src=""img/flower4.png"" style=""width:200px; border:14px solid green;"">","null","","","","","","","","",""
"","image-keyboard-response","98","125245","0.0-98.0","32EYX73OY1VFU7DQQZ1HYVE5S8HURX","AMVBT3XDCQBHI","3PEG1BH7AEDCPKTV9M6N3A4F0EHKBR","","900.3000000119209","img/flower5.png","76","901.5","3","1","3","1","1,0.333,0.333,0.333,1,0.333,0.333,0.333,1","1,0.333,0.333,0.333,1,0.333,0.333,0.333,1","1",""
"","html-keyboard-response","99","125547","0.0-99.0","32EYX73OY1VFU7DQQZ1HYVE5S8HURX","AMVBT3XDCQBHI","3PEG1BH7AEDCPKTV9M6N3A4F0EHKBR","","null","<img src=""img/flower5.png"" style=""width:200px; border:14px solid green;"">","null","","","","","","","","",""
"","image-keyboard-response","100","126591","0.0-100.0","32EYX73OY1VFU7DQQZ1HYVE5S8HURX","AMVBT3XDCQBHI","3PEG1BH7AEDCPKTV9M6N3A4F0EHKBR","","1043.5","img/flower6.png","75","1044.199999988079","2","1","1","1","1,0.333,0.333,0.333,1,0.333,0.333,0.333,1","1,0.333,0.333,0.333,1,0.333,0.333,0.333,1","1",""
"","html-keyboard-response","101","126893","0.0-101.0","32EYX73OY1VFU7DQQZ1HYVE5S8HURX","AMVBT3XDCQBHI","3PEG1BH7AEDCPKTV9M6N3A4F0EHKBR","","null","<img src=""img/flower6.png"" style=""width:200px; border:14px solid green;"">","null","","","","","","","","",""
"","image-keyboard-response","102","127425","0.0-102.0","32EYX73OY1VFU7DQQZ1HYVE5S8HURX","AMVBT3XDCQBHI","3PEG1BH7AEDCPKTV9M6N3A4F0EHKBR","","531","img/flower6.png","75","531.8000000119209","2","0","1","1","1,0.333,0.333,0.333,1,0.333,0.333,0.333,1","1,0.333,0.333,0.333,1,0.333,0.333,0.333,1","1",""
"","html-keyboard-response","103","127727","0.0-103.0","32EYX73OY1VFU7DQQZ1HYVE5S8HURX","AMVBT3XDCQBHI","3PEG1BH7AEDCPKTV9M6N3A4F0EHKBR","","null","<img src=""img/flower6.png"" style=""width:200px;border:14px solid red;"">","null","","","","","","","","",""
"","image-keyboard-response","104","128750","0.0-104.0","32EYX73OY1VFU7DQQZ1HYVE5S8HURX","AMVBT3XDCQBHI","3PEG1BH7AEDCPKTV9M6N3A4F0EHKBR","","1021.6000000238419","img/flower5.png","76","1022.4000000357628","3","1","3","1","1,0.333,0.333,0.333,1,0.333,0.333,0.333,1","1,0.333,0.333,0.333,1,0.333,0.333,0.333,1","1",""
"","html-keyboard-response","105","129051","0.0-105.0","32EYX73OY1VFU7DQQZ1HYVE5S8HURX","AMVBT3XDCQBHI","3PEG1BH7AEDCPKTV9M6N3A4F0EHKBR","","null","<img src=""img/flower5.png"" style=""width:200px; border:14px solid green;"">","null","","","","","","","","",""
"","image-keyboard-response","106","130174","0.0-106.0","32EYX73OY1VFU7DQQZ1HYVE5S8HURX","AMVBT3XDCQBHI","3PEG1BH7AEDCPKTV9M6N3A4F0EHKBR","","1121.699999988079","img/flower6.png","75","1122.5","2","0","1","1","1,0.333,0.333,0.333,1,0.333,0.333,0.333,1","1,0.333,0.333,0.333,1,0.333,0.333,0.333,1","1",""
"","html-keyboard-response","107","130475","0.0-107.0","32EYX73OY1VFU7DQQZ1HYVE5S8HURX","AMVBT3XDCQBHI","3PEG1BH7AEDCPKTV9M6N3A4F0EHKBR","","null","<img src=""img/flower6.png"" style=""width:200px;border:14px solid red;"">","null","","","","","","","","",""
"","image-keyboard-response","108","131021","0.0-108.0","32EYX73OY1VFU7DQQZ1HYVE5S8HURX","AMVBT3XDCQBHI","3PEG1BH7AEDCPKTV9M6N3A4F0EHKBR","","545.3000000119209","img/flower6.png","75","546.1000000238419","2","0","1","1","1,0.333,0.333,0.333,1,0.333,0.333,0.333,1","1,0.333,0.333,0.333,1,0.333,0.333,0.333,1","1",""
"","html-keyboard-response","109","131323","0.0-109.0","32EYX73OY1VFU7DQQZ1HYVE5S8HURX","AMVBT3XDCQBHI","3PEG1BH7AEDCPKTV9M6N3A4F0EHKBR","","null","<img src=""img/flower6.png"" style=""width:200px;border:14px solid red;"">","null","","","","","","","","",""
"","image-keyboard-response","110","132469","0.0-110.0","32EYX73OY1VFU7DQQZ1HYVE5S8HURX","AMVBT3XDCQBHI","3PEG1BH7AEDCPKTV9M6N3A4F0EHKBR","","1145.7000000476837","img/flower5.png","76","1146.6000000238419","3","1","3","1","1,0.333,0.333,0.333,1,0.333,0.333,0.333,1","1,0.333,0.333,0.333,1,0.333,0.333,0.333,1","1",""
"","html-keyboard-response","111","132772","0.0-111.0","32EYX73OY1VFU7DQQZ1HYVE5S8HURX","AMVBT3XDCQBHI","3PEG1BH7AEDCPKTV9M6N3A4F0EHKBR","","null","<img src=""img/flower5.png"" style=""width:200px; border:14px solid green;"">","null","","","","","","","","",""
"","image-keyboard-response","112","133321","0.0-112.0","32EYX73OY1VFU7DQQZ1HYVE5S8HURX","AMVBT3XDCQBHI","3PEG1BH7AEDCPKTV9M6N3A4F0EHKBR","","548.6000000238419","img/flower5.png","76","549.5","3","1","3","1","1,0.333,0.333,0.333,1,0.333,0.333,0.333,1","1,0.333,0.333,0.333,1,0.333,0.333,0.333,1","1",""
"","html-keyboard-response","113","133624","0.0-113.0","32EYX73OY1VFU7DQQZ1HYVE5S8HURX","AMVBT3XDCQBHI","3PEG1BH7AEDCPKTV9M6N3A4F0EHKBR","","null","<img src=""img/flower5.png"" style=""width:200px; border:14px solid green;"">","null","","","","","","","","",""
"","image-keyboard-response","114","134177","0.0-114.0","32EYX73OY1VFU7DQQZ1HYVE5S8HURX","AMVBT3XDCQBHI","3PEG1BH7AEDCPKTV9M6N3A4F0EHKBR","","551.8999999761581","img/flower5.png","76","552.8000000119209","3","1","3","1","1,0.333,0.333,0.333,1,0.333,0.333,0.333,1","1,0.333,0.333,0.333,1,0.333,0.333,0.333,1","1",""
"","html-keyboard-response","115","134478","0.0-115.0","32EYX73OY1VFU7DQQZ1HYVE5S8HURX","AMVBT3XDCQBHI","3PEG1BH7AEDCPKTV9M6N3A4F0EHKBR","","null","<img src=""img/flower5.png"" style=""width:200px; border:14px solid green;"">","null","","","","","","","","",""
"","image-keyboard-response","116","135500","0.0-116.0","32EYX73OY1VFU7DQQZ1HYVE5S8HURX","AMVBT3XDCQBHI","3PEG1BH7AEDCPKTV9M6N3A4F0EHKBR","","1020.9000000357628","img/flower5.png","76","1021.8000000119209","3","1","3","1","1,0.333,0.333,0.333,1,0.333,0.333,0.333,1","1,0.333,0.333,0.333,1,0.333,0.333,0.333,1","1",""
"","html-keyboard-response","117","135802","0.0-117.0","32EYX73OY1VFU7DQQZ1HYVE5S8HURX","AMVBT3XDCQBHI","3PEG1BH7AEDCPKTV9M6N3A4F0EHKBR","","null","<img src=""img/flower5.png"" style=""width:200px; border:14px solid green;"">","null","","","","","","","","",""
"","image-keyboard-response","118","136413","0.0-118.0","32EYX73OY1VFU7DQQZ1HYVE5S8HURX","AMVBT3XDCQBHI","3PEG1BH7AEDCPKTV9M6N3A4F0EHKBR","","610.7000000476837","img/flower5.png","76","611.3999999761581","3","1","3","1","1,0.333,0.333,0.333,1,0.333,0.333,0.333,1","1,0.333,0.333,0.333,1,0.333,0.333,0.333,1","1",""
"","html-keyboard-response","119","136715","0.0-119.0","32EYX73OY1VFU7DQQZ1HYVE5S8HURX","AMVBT3XDCQBHI","3PEG1BH7AEDCPKTV9M6N3A4F0EHKBR","","null","<img src=""img/flower5.png"" style=""width:200px; border:14px solid green;"">","null","","","","","","","","",""
"","image-keyboard-response","120","137506","0.0-120.0","32EYX73OY1VFU7DQQZ1HYVE5S8HURX","AMVBT3XDCQBHI","3PEG1BH7AEDCPKTV9M6N3A4F0EHKBR","","790.5","img/flower6.png","75","791.3000000119209","2","1","1","1","1,0.333,0.333,0.333,1,0.333,0.333,0.333,1","1,0.333,0.333,0.333,1,0.333,0.333,0.333,1","1",""
"","html-keyboard-response","121","137807","0.0-121.0","32EYX73OY1VFU7DQQZ1HYVE5S8HURX","AMVBT3XDCQBHI","3PEG1BH7AEDCPKTV9M6N3A4F0EHKBR","","null","<img src=""img/flower6.png"" style=""width:200px; border:14px solid green;"">","null","","","","","","","","",""
"","image-keyboard-response","122","138381","0.0-122.0","32EYX73OY1VFU7DQQZ1HYVE5S8HURX","AMVBT3XDCQBHI","3PEG1BH7AEDCPKTV9M6N3A4F0EHKBR","","572.5","img/flower6.png","75","573.0999999642372","2","1","1","1","1,0.333,0.333,0.333,1,0.333,0.333,0.333,1","1,0.333,0.333,0.333,1,0.333,0.333,0.333,1","1",""
"","html-keyboard-response","123","138682","0.0-123.0","32EYX73OY1VFU7DQQZ1HYVE5S8HURX","AMVBT3XDCQBHI","3PEG1BH7AEDCPKTV9M6N3A4F0EHKBR","","null","<img src=""img/flower6.png"" style=""width:200px; border:14px solid green;"">","null","","","","","","","","",""
"","image-keyboard-response","124","139237","0.0-124.0","32EYX73OY1VFU7DQQZ1HYVE5S8HURX","AMVBT3XDCQBHI","3PEG1BH7AEDCPKTV9M6N3A4F0EHKBR","","554.0999999642372","img/flower6.png","75","554.8999999761581","2","1","1","1","1,0.333,0.333,0.333,1,0.333,0.333,0.333,1","1,0.333,0.333,0.333,1,0.333,0.333,0.333,1","1",""
"","html-keyboard-response","125","139538","0.0-125.0","32EYX73OY1VFU7DQQZ1HYVE5S8HURX","AMVBT3XDCQBHI","3PEG1BH7AEDCPKTV9M6N3A4F0EHKBR","","null","<img src=""img/flower6.png"" style=""width:200px; border:14px solid green;"">","null","","","","","","","","",""
"","image-keyboard-response","126","140284","0.0-126.0","32EYX73OY1VFU7DQQZ1HYVE5S8HURX","AMVBT3XDCQBHI","3PEG1BH7AEDCPKTV9M6N3A4F0EHKBR","","745.0999999642372","img/flower5.png","76","746","3","1","3","1","1,0.333,0.333,0.333,1,0.333,0.333,0.333,1","1,0.333,0.333,0.333,1,0.333,0.333,0.333,1","1",""
"","html-keyboard-response","127","140586","0.0-127.0","32EYX73OY1VFU7DQQZ1HYVE5S8HURX","AMVBT3XDCQBHI","3PEG1BH7AEDCPKTV9M6N3A4F0EHKBR","","null","<img src=""img/flower5.png"" style=""width:200px; border:14px solid green;"">","null","","","","","","","","",""
"","image-keyboard-response","128","141430","0.0-128.0","32EYX73OY1VFU7DQQZ1HYVE5S8HURX","AMVBT3XDCQBHI","3PEG1BH7AEDCPKTV9M6N3A4F0EHKBR","","843.6999999880791","img/flower6.png","75","844.5","2","1","1","1","1,0.333,0.333,0.333,1,0.333,0.333,0.333,1","1,0.333,0.333,0.333,1,0.333,0.333,0.333,1","1",""
"","html-keyboard-response","129","141732","0.0-129.0","32EYX73OY1VFU7DQQZ1HYVE5S8HURX","AMVBT3XDCQBHI","3PEG1BH7AEDCPKTV9M6N3A4F0EHKBR","","null","<img src=""img/flower6.png"" style=""width:200px; border:14px solid green;"">","null","","","","","","","","",""
"","image-keyboard-response","130","142474","0.0-130.0","32EYX73OY1VFU7DQQZ1HYVE5S8HURX","AMVBT3XDCQBHI","3PEG1BH7AEDCPKTV9M6N3A4F0EHKBR","","741.3999999761581","img/flower4.png","74","742.1000000238419","1","0","2","1","1,0.333,0.333,0.333,1,0.333,0.333,0.333,1","1,0.333,0.333,0.333,1,0.333,0.333,0.333,1","1",""
"","html-keyboard-response","131","142775","0.0-131.0","32EYX73OY1VFU7DQQZ1HYVE5S8HURX","AMVBT3XDCQBHI","3PEG1BH7AEDCPKTV9M6N3A4F0EHKBR","","null","<img src=""img/flower4.png"" style=""width:200px;border:14px solid red;"">","null","","","","","","","","",""
"","image-keyboard-response","132","144101","0.0-132.0","32EYX73OY1VFU7DQQZ1HYVE5S8HURX","AMVBT3XDCQBHI","3PEG1BH7AEDCPKTV9M6N3A4F0EHKBR","","1325.199999988079","img/flower6.png","75","1325.9000000357628","2","0","1","1","1,0.333,0.333,0.333,1,0.333,0.333,0.333,1","1,0.333,0.333,0.333,1,0.333,0.333,0.333,1","1",""
"","html-keyboard-response","133","144403","0.0-133.0","32EYX73OY1VFU7DQQZ1HYVE5S8HURX","AMVBT3XDCQBHI","3PEG1BH7AEDCPKTV9M6N3A4F0EHKBR","","null","<img src=""img/flower6.png"" style=""width:200px;border:14px solid red;"">","null","","","","","","","","",""
"","image-keyboard-response","134","145266","0.0-134.0","32EYX73OY1VFU7DQQZ1HYVE5S8HURX","AMVBT3XDCQBHI","3PEG1BH7AEDCPKTV9M6N3A4F0EHKBR","","862.5","img/flower4.png","74","863.2999999523163","1","1","2","1","1,0.333,0.333,0.333,1,0.333,0.333,0.333,1","1,0.333,0.333,0.333,1,0.333,0.333,0.333,1","1",""
"","html-keyboard-response","135","145574","0.0-135.0","32EYX73OY1VFU7DQQZ1HYVE5S8HURX","AMVBT3XDCQBHI","3PEG1BH7AEDCPKTV9M6N3A4F0EHKBR","","null","<img src=""img/flower4.png"" style=""width:200px; border:14px solid green;"">","null","","","","","","","","",""
"","image-keyboard-response","136","146433","0.0-136.0","32EYX73OY1VFU7DQQZ1HYVE5S8HURX","AMVBT3XDCQBHI","3PEG1BH7AEDCPKTV9M6N3A4F0EHKBR","","857.8000000119209","img/flower6.png","75","858.6999999880791","2","1","1","1","1,0.333,0.333,0.333,1,0.333,0.333,0.333,1","1,0.333,0.333,0.333,1,0.333,0.333,0.333,1","1",""
"","html-keyboard-response","137","146735","0.0-137.0","32EYX73OY1VFU7DQQZ1HYVE5S8HURX","AMVBT3XDCQBHI","3PEG1BH7AEDCPKTV9M6N3A4F0EHKBR","","null","<img src=""img/flower6.png"" style=""width:200px; border:14px solid green;"">","null","","","","","","","","",""
"","image-keyboard-response","138","147453","0.0-138.0","32EYX73OY1VFU7DQQZ1HYVE5S8HURX","AMVBT3XDCQBHI","3PEG1BH7AEDCPKTV9M6N3A4F0EHKBR","","717.6000000238419","img/flower6.png","75","718.4000000357628","2","0","1","1","1,0.333,0.333,0.333,1,0.333,0.333,0.333,1","1,0.333,0.333,0.333,1,0.333,0.333,0.333,1","1",""
"","html-keyboard-response","139","147755","0.0-139.0","32EYX73OY1VFU7DQQZ1HYVE5S8HURX","AMVBT3XDCQBHI","3PEG1BH7AEDCPKTV9M6N3A4F0EHKBR","","null","<img src=""img/flower6.png"" style=""width:200px;border:14px solid red;"">","null","","","","","","","","",""
"","image-keyboard-response","140","148837","0.0-140.0","32EYX73OY1VFU7DQQZ1HYVE5S8HURX","AMVBT3XDCQBHI","3PEG1BH7AEDCPKTV9M6N3A4F0EHKBR","","1081.800000011921","img/flower5.png","76","1082.5","3","1","3","1","1,0.333,0.333,0.333,1,0.333,0.333,0.333,1","1,0.333,0.333,0.333,1,0.333,0.333,0.333,1","1",""
"","html-keyboard-response","141","149139","0.0-141.0","32EYX73OY1VFU7DQQZ1HYVE5S8HURX","AMVBT3XDCQBHI","3PEG1BH7AEDCPKTV9M6N3A4F0EHKBR","","null","<img src=""img/flower5.png"" style=""width:200px; border:14px solid green;"">","null","","","","","","","","",""
"","image-keyboard-response","142","149903","0.0-142.0","32EYX73OY1VFU7DQQZ1HYVE5S8HURX","AMVBT3XDCQBHI","3PEG1BH7AEDCPKTV9M6N3A4F0EHKBR","","763","img/flower4.png","74","763.7999999523163","1","1","2","1","1,0.333,0.333,0.333,1,0.333,0.333,0.333,1","1,0.333,0.333,0.333,1,0.333,0.333,0.333,1","1",""
"","html-keyboard-response","143","150204","0.0-143.0","32EYX73OY1VFU7DQQZ1HYVE5S8HURX","AMVBT3XDCQBHI","3PEG1BH7AEDCPKTV9M6N3A4F0EHKBR","","null","<img src=""img/flower4.png"" style=""width:200px; border:14px solid green;"">","null","","","","","","","","",""
"","image-keyboard-response","144","150708","0.0-144.0","32EYX73OY1VFU7DQQZ1HYVE5S8HURX","AMVBT3XDCQBHI","3PEG1BH7AEDCPKTV9M6N3A4F0EHKBR","","503.19999998807907","img/flower4.png","74","504","1","0","2","1","1,0.333,0.333,0.333,1,0.333,0.333,0.333,1","1,0.333,0.333,0.333,1,0.333,0.333,0.333,1","1",""
"","html-keyboard-response","145","151010","0.0-145.0","32EYX73OY1VFU7DQQZ1HYVE5S8HURX","AMVBT3XDCQBHI","3PEG1BH7AEDCPKTV9M6N3A4F0EHKBR","","null","<img src=""img/flower4.png"" style=""width:200px;border:14px solid red;"">","null","","","","","","","","",""
"","image-keyboard-response","146","151678","0.0-146.0","32EYX73OY1VFU7DQQZ1HYVE5S8HURX","AMVBT3XDCQBHI","3PEG1BH7AEDCPKTV9M6N3A4F0EHKBR","","667.1999999880791","img/flower4.png","74","667.8000000119209","1","1","2","1","1,0.333,0.333,0.333,1,0.333,0.333,0.333,1","1,0.333,0.333,0.333,1,0.333,0.333,0.333,1","1",""
"","html-keyboard-response","147","151979","0.0-147.0","32EYX73OY1VFU7DQQZ1HYVE5S8HURX","AMVBT3XDCQBHI","3PEG1BH7AEDCPKTV9M6N3A4F0EHKBR","","null","<img src=""img/flower4.png"" style=""width:200px; border:14px solid green;"">","null","","","","","","","","",""
"","image-keyboard-response","148","152586","0.0-148.0","32EYX73OY1VFU7DQQZ1HYVE5S8HURX","AMVBT3XDCQBHI","3PEG1BH7AEDCPKTV9M6N3A4F0EHKBR","","605.5","img/flower4.png","74","606.3999999761581","1","0","2","1","1,0.333,0.333,0.333,1,0.333,0.333,0.333,1","1,0.333,0.333,0.333,1,0.333,0.333,0.333,1","1",""
"","html-keyboard-response","149","152887","0.0-149.0","32EYX73OY1VFU7DQQZ1HYVE5S8HURX","AMVBT3XDCQBHI","3PEG1BH7AEDCPKTV9M6N3A4F0EHKBR","","null","<img src=""img/flower4.png"" style=""width:200px;border:14px solid red;"">","null","","","","","","","","",""
"","image-keyboard-response","150","153978","0.0-150.0","32EYX73OY1VFU7DQQZ1HYVE5S8HURX","AMVBT3XDCQBHI","3PEG1BH7AEDCPKTV9M6N3A4F0EHKBR","","1089.5999999642372","img/flower6.png","75","1090.5","2","1","1","1","1,0.333,0.333,0.333,1,0.333,0.333,0.333,1","1,0.333,0.333,0.333,1,0.333,0.333,0.333,1","1",""
"","html-keyboard-response","151","154280","0.0-151.0","32EYX73OY1VFU7DQQZ1HYVE5S8HURX","AMVBT3XDCQBHI","3PEG1BH7AEDCPKTV9M6N3A4F0EHKBR","","null","<img src=""img/flower6.png"" style=""width:200px; border:14px solid green;"">","null","","","","","","","","",""
"","image-keyboard-response","152","155092","0.0-152.0","32EYX73OY1VFU7DQQZ1HYVE5S8HURX","AMVBT3XDCQBHI","3PEG1BH7AEDCPKTV9M6N3A4F0EHKBR","","811.9000000357628","img/flower6.png","75","812.6000000238419","2","1","1","1","1,0.333,0.333,0.333,1,0.333,0.333,0.333,1","1,0.333,0.333,0.333,1,0.333,0.333,0.333,1","1",""
"","html-keyboard-response","153","155394","0.0-153.0","32EYX73OY1VFU7DQQZ1HYVE5S8HURX","AMVBT3XDCQBHI","3PEG1BH7AEDCPKTV9M6N3A4F0EHKBR","","null","<img src=""img/flower6.png"" style=""width:200px; border:14px solid green;"">","null","","","","","","","","",""
"","image-keyboard-response","154","156288","0.0-154.0","32EYX73OY1VFU7DQQZ1HYVE5S8HURX","AMVBT3XDCQBHI","3PEG1BH7AEDCPKTV9M6N3A4F0EHKBR","","892.5","img/flower4.png","74","893.3999999761581","1","1","2","1","1,0.333,0.333,0.333,1,0.333,0.333,0.333,1","1,0.333,0.333,0.333,1,0.333,0.333,0.333,1","1",""
"","html-keyboard-response","155","156603","0.0-155.0","32EYX73OY1VFU7DQQZ1HYVE5S8HURX","AMVBT3XDCQBHI","3PEG1BH7AEDCPKTV9M6N3A4F0EHKBR","","null","<img src=""img/flower4.png"" style=""width:200px; border:14px solid green;"">","null","","","","","","","","",""
"","image-keyboard-response","156","157579","0.0-156.0","32EYX73OY1VFU7DQQZ1HYVE5S8HURX","AMVBT3XDCQBHI","3PEG1BH7AEDCPKTV9M6N3A4F0EHKBR","","975","img/flower5.png","76","975.6999999880791","3","1","3","1","1,0.333,0.333,0.333,1,0.333,0.333,0.333,1","1,0.333,0.333,0.333,1,0.333,0.333,0.333,1","1",""
"","html-keyboard-response","157","157882","0.0-157.0","32EYX73OY1VFU7DQQZ1HYVE5S8HURX","AMVBT3XDCQBHI","3PEG1BH7AEDCPKTV9M6N3A4F0EHKBR","","null","<img src=""img/flower5.png"" style=""width:200px; border:14px solid green;"">","null","","","","","","","","",""
"","image-keyboard-response","158","159473","0.0-158.0","32EYX73OY1VFU7DQQZ1HYVE5S8HURX","AMVBT3XDCQBHI","3PEG1BH7AEDCPKTV9M6N3A4F0EHKBR","","1590.0999999642372","img/flower6.png","75","1590.7000000476837","2","0","1","1","1,0.333,0.333,0.333,1,0.333,0.333,0.333,1","1,0.333,0.333,0.333,1,0.333,0.333,0.333,1","1",""
"","html-keyboard-response","159","159775","0.0-159.0","32EYX73OY1VFU7DQQZ1HYVE5S8HURX","AMVBT3XDCQBHI","3PEG1BH7AEDCPKTV9M6N3A4F0EHKBR","","null","<img src=""img/flower6.png"" style=""width:200px;border:14px solid red;"">","null","","","","","","","","",""
"","image-keyboard-response","160","160725","0.0-160.0","32EYX73OY1VFU7DQQZ1HYVE5S8HURX","AMVBT3XDCQBHI","3PEG1BH7AEDCPKTV9M6N3A4F0EHKBR","","949.5","img/flower5.png","76","950.2999999523163","3","1","3","1","1,0.333,0.333,0.333,1,0.333,0.333,0.333,1","1,0.333,0.333,0.333,1,0.333,0.333,0.333,1","1",""
"","html-keyboard-response","161","161027","0.0-161.0","32EYX73OY1VFU7DQQZ1HYVE5S8HURX","AMVBT3XDCQBHI","3PEG1BH7AEDCPKTV9M6N3A4F0EHKBR","","null","<img src=""img/flower5.png"" style=""width:200px; border:14px solid green;"">","null","","","","","","","","",""
"","image-keyboard-response","162","161842","0.0-162.0","32EYX73OY1VFU7DQQZ1HYVE5S8HURX","AMVBT3XDCQBHI","3PEG1BH7AEDCPKTV9M6N3A4F0EHKBR","","814.1999999880791","img/flower4.png","74","814.8999999761581","1","0","2","1","1,0.333,0.333,0.333,1,0.333,0.333,0.333,1","1,0.333,0.333,0.333,1,0.333,0.333,0.333,1","1",""
"","html-keyboard-response","163","162143","0.0-163.0","32EYX73OY1VFU7DQQZ1HYVE5S8HURX","AMVBT3XDCQBHI","3PEG1BH7AEDCPKTV9M6N3A4F0EHKBR","","null","<img src=""img/flower4.png"" style=""width:200px;border:14px solid red;"">","null","","","","","","","","",""
"","image-keyboard-response","164","163207","0.0-164.0","32EYX73OY1VFU7DQQZ1HYVE5S8HURX","AMVBT3XDCQBHI","3PEG1BH7AEDCPKTV9M6N3A4F0EHKBR","","1062.5","img/flower5.png","76","1063.300000011921","3","1","3","1","1,0.333,0.333,0.333,1,0.333,0.333,0.333,1","1,0.333,0.333,0.333,1,0.333,0.333,0.333,1","1",""
"","html-keyboard-response","165","163508","0.0-165.0","32EYX73OY1VFU7DQQZ1HYVE5S8HURX","AMVBT3XDCQBHI","3PEG1BH7AEDCPKTV9M6N3A4F0EHKBR","","null","<img src=""img/flower5.png"" style=""width:200px; border:14px solid green;"">","null","","","","","","","","",""
"","image-keyboard-response","166","164536","0.0-166.0","32EYX73OY1VFU7DQQZ1HYVE5S8HURX","AMVBT3XDCQBHI","3PEG1BH7AEDCPKTV9M6N3A4F0EHKBR","","1027","img/flower4.png","74","1027.699999988079","1","1","2","1","1,0.333,0.333,0.333,1,0.333,0.333,0.333,1","1,0.333,0.333,0.333,1,0.333,0.333,0.333,1","1",""
"","html-keyboard-response","167","164853","0.0-167.0","32EYX73OY1VFU7DQQZ1HYVE5S8HURX","AMVBT3XDCQBHI","3PEG1BH7AEDCPKTV9M6N3A4F0EHKBR","","null","<img src=""img/flower4.png"" style=""width:200px; border:14px solid green;"">","null","","","","","","","","",""
"","image-keyboard-response","168","165649","0.0-168.0","32EYX73OY1VFU7DQQZ1HYVE5S8HURX","AMVBT3XDCQBHI","3PEG1BH7AEDCPKTV9M6N3A4F0EHKBR","","795.3000000119209","img/flower4.png","74","796.2000000476837","1","0","2","1","1,0.333,0.333,0.333,1,0.333,0.333,0.333,1","1,0.333,0.333,0.333,1,0.333,0.333,0.333,1","1",""
"","html-keyboard-response","169","165952","0.0-169.0","32EYX73OY1VFU7DQQZ1HYVE5S8HURX","AMVBT3XDCQBHI","3PEG1BH7AEDCPKTV9M6N3A4F0EHKBR","","null","<img src=""img/flower4.png"" style=""width:200px;border:14px solid red;"">","null","","","","","","","","",""
"","image-keyboard-response","170","166925","0.0-170.0","32EYX73OY1VFU7DQQZ1HYVE5S8HURX","AMVBT3XDCQBHI","3PEG1BH7AEDCPKTV9M6N3A4F0EHKBR","","972.1999999880791","img/flower5.png","76","973","3","1","3","1","1,0.333,0.333,0.333,1,0.333,0.333,0.333,1","1,0.333,0.333,0.333,1,0.333,0.333,0.333,1","1",""
"","html-keyboard-response","171","167227","0.0-171.0","32EYX73OY1VFU7DQQZ1HYVE5S8HURX","AMVBT3XDCQBHI","3PEG1BH7AEDCPKTV9M6N3A4F0EHKBR","","null","<img src=""img/flower5.png"" style=""width:200px; border:14px solid green;"">","null","","","","","","","","",""
"","image-keyboard-response","172","168124","0.0-172.0","32EYX73OY1VFU7DQQZ1HYVE5S8HURX","AMVBT3XDCQBHI","3PEG1BH7AEDCPKTV9M6N3A4F0EHKBR","","895.5","img/flower4.png","74","896.3999999761581","1","0","2","1","1,0.333,0.333,0.333,1,0.333,0.333,0.333,1","1,0.333,0.333,0.333,1,0.333,0.333,0.333,1","1",""
"","html-keyboard-response","173","168425","0.0-173.0","32EYX73OY1VFU7DQQZ1HYVE5S8HURX","AMVBT3XDCQBHI","3PEG1BH7AEDCPKTV9M6N3A4F0EHKBR","","null","<img src=""img/flower4.png"" style=""width:200px;border:14px solid red;"">","null","","","","","","","","",""
"","image-keyboard-response","174","168938","0.0-174.0","32EYX73OY1VFU7DQQZ1HYVE5S8HURX","AMVBT3XDCQBHI","3PEG1BH7AEDCPKTV9M6N3A4F0EHKBR","","512.1999999880791","img/flower4.png","74","512.8999999761581","1","0","2","1","1,0.333,0.333,0.333,1,0.333,0.333,0.333,1","1,0.333,0.333,0.333,1,0.333,0.333,0.333,1","1",""
"","html-keyboard-response","175","169240","0.0-175.0","32EYX73OY1VFU7DQQZ1HYVE5S8HURX","AMVBT3XDCQBHI","3PEG1BH7AEDCPKTV9M6N3A4F0EHKBR","","null","<img src=""img/flower4.png"" style=""width:200px;border:14px solid red;"">","null","","","","","","","","",""
"","image-keyboard-response","176","170260","0.0-176.0","32EYX73OY1VFU7DQQZ1HYVE5S8HURX","AMVBT3XDCQBHI","3PEG1BH7AEDCPKTV9M6N3A4F0EHKBR","","1019","img/flower6.png","75","1020","2","0","1","1","1,0.333,0.333,0.333,1,0.333,0.333,0.333,1","1,0.333,0.333,0.333,1,0.333,0.333,0.333,1","1",""
"","html-keyboard-response","177","170562","0.0-177.0","32EYX73OY1VFU7DQQZ1HYVE5S8HURX","AMVBT3XDCQBHI","3PEG1BH7AEDCPKTV9M6N3A4F0EHKBR","","null","<img src=""img/flower6.png"" style=""width:200px;border:14px solid red;"">","null","","","","","","","","",""
"","image-keyboard-response","178","171516","0.0-178.0","32EYX73OY1VFU7DQQZ1HYVE5S8HURX","AMVBT3XDCQBHI","3PEG1BH7AEDCPKTV9M6N3A4F0EHKBR","","953.2000000476837","img/flower4.png","74","953.8999999761581","1","0","2","1","1,0.333,0.333,0.333,1,0.333,0.333,0.333,1","1,0.333,0.333,0.333,1,0.333,0.333,0.333,1","1",""
"","html-keyboard-response","179","171817","0.0-179.0","32EYX73OY1VFU7DQQZ1HYVE5S8HURX","AMVBT3XDCQBHI","3PEG1BH7AEDCPKTV9M6N3A4F0EHKBR","","null","<img src=""img/flower4.png"" style=""width:200px;border:14px solid red;"">","null","","","","","","","","",""
"","image-keyboard-response","180","172742","0.0-180.0","32EYX73OY1VFU7DQQZ1HYVE5S8HURX","AMVBT3XDCQBHI","3PEG1BH7AEDCPKTV9M6N3A4F0EHKBR","","924.1000000238419","img/flower6.png","75","924.8999999761581","2","0","1","1","1,0.333,0.333,0.333,1,0.333,0.333,0.333,1","1,0.333,0.333,0.333,1,0.333,0.333,0.333,1","1",""
"","html-keyboard-response","181","173043","0.0-181.0","32EYX73OY1VFU7DQQZ1HYVE5S8HURX","AMVBT3XDCQBHI","3PEG1BH7AEDCPKTV9M6N3A4F0EHKBR","","null","<img src=""img/flower6.png"" style=""width:200px;border:14px solid red;"">","null","","","","","","","","",""
"","html-keyboard-response","182","178836","0.0-182.0","32EYX73OY1VFU7DQQZ1HYVE5S8HURX","AMVBT3XDCQBHI","3PEG1BH7AEDCPKTV9M6N3A4F0EHKBR","","","","","","","","","","","","",""
"","image-keyboard-response","183","180838","0.0-183.0","32EYX73OY1VFU7DQQZ1HYVE5S8HURX","AMVBT3XDCQBHI","3PEG1BH7AEDCPKTV9M6N3A4F0EHKBR","","","img/flower3.png","","2001.3999999761581","-1","0","2","2","1,0,0,1,1,0,1,0,1","0,1,0,0,1,1,1,1,0","3",""
"","html-keyboard-response","184","181152","0.0-184.0","32EYX73OY1VFU7DQQZ1HYVE5S8HURX","AMVBT3XDCQBHI","3PEG1BH7AEDCPKTV9M6N3A4F0EHKBR","","null","<img src=""img/flower3.png"" style=""width:200px;border:14px solid red;"">","null","","","","","","","","",""
"","image-keyboard-response","185","182567","0.0-185.0","32EYX73OY1VFU7DQQZ1HYVE5S8HURX","AMVBT3XDCQBHI","3PEG1BH7AEDCPKTV9M6N3A4F0EHKBR","","1414","img/flower2.png","75","1415","2","1","1","2","1,0,0,1,1,0,1,0,1","0,1,0,0,1,1,1,1,0","3",""
"","html-keyboard-response","186","182868","0.0-186.0","32EYX73OY1VFU7DQQZ1HYVE5S8HURX","AMVBT3XDCQBHI","3PEG1BH7AEDCPKTV9M6N3A4F0EHKBR","","null","<img src=""img/flower2.png"" style=""width:200px; border:14px solid green;"">","null","","","","","","","","",""
"","image-keyboard-response","187","183468","0.0-187.0","32EYX73OY1VFU7DQQZ1HYVE5S8HURX","AMVBT3XDCQBHI","3PEG1BH7AEDCPKTV9M6N3A4F0EHKBR","","598.6000000238419","img/flower2.png","75","599.5","2","1","1","2","1,0,0,1,1,0,1,0,1","0,1,0,0,1,1,1,1,0","3",""
"","html-keyboard-response","188","183770","0.0-188.0","32EYX73OY1VFU7DQQZ1HYVE5S8HURX","AMVBT3XDCQBHI","3PEG1BH7AEDCPKTV9M6N3A4F0EHKBR","","null","<img src=""img/flower2.png"" style=""width:200px; border:14px solid green;"">","null","","","","","","","","",""
"","image-keyboard-response","189","185027","0.0-189.0","32EYX73OY1VFU7DQQZ1HYVE5S8HURX","AMVBT3XDCQBHI","3PEG1BH7AEDCPKTV9M6N3A4F0EHKBR","","1255.9000000357628","img/flower3.png","76","1256.8999999761581","3","1","2","2","1,0,0,1,1,0,1,0,1","0,1,0,0,1,1,1,1,0","3",""
"","html-keyboard-response","190","185328","0.0-190.0","32EYX73OY1VFU7DQQZ1HYVE5S8HURX","AMVBT3XDCQBHI","3PEG1BH7AEDCPKTV9M6N3A4F0EHKBR","","null","<img src=""img/flower3.png"" style=""width:200px; border:14px solid green;"">","null","","","","","","","","",""
"","image-keyboard-response","191","186308","0.0-191.0","32EYX73OY1VFU7DQQZ1HYVE5S8HURX","AMVBT3XDCQBHI","3PEG1BH7AEDCPKTV9M6N3A4F0EHKBR","","979","img/flower3.png","76","979.6999999880791","3","1","2","2","1,0,0,1,1,0,1,0,1","0,1,0,0,1,1,1,1,0","3",""
"","html-keyboard-response","192","186610","0.0-192.0","32EYX73OY1VFU7DQQZ1HYVE5S8HURX","AMVBT3XDCQBHI","3PEG1BH7AEDCPKTV9M6N3A4F0EHKBR","","null","<img src=""img/flower3.png"" style=""width:200px; border:14px solid green;"">","null","","","","","","","","",""
"","image-keyboard-response","193","187271","0.0-193.0","32EYX73OY1VFU7DQQZ1HYVE5S8HURX","AMVBT3XDCQBHI","3PEG1BH7AEDCPKTV9M6N3A4F0EHKBR","","659.6999999880791","img/flower3.png","76","660.6000000238419","3","1","2","2","1,0,0,1,1,0,1,0,1","0,1,0,0,1,1,1,1,0","3",""
"","html-keyboard-response","194","187573","0.0-194.0","32EYX73OY1VFU7DQQZ1HYVE5S8HURX","AMVBT3XDCQBHI","3PEG1BH7AEDCPKTV9M6N3A4F0EHKBR","","null","<img src=""img/flower3.png"" style=""width:200px; border:14px solid green;"">","null","","","","","","","","",""
"","image-keyboard-response","195","188208","0.0-195.0","32EYX73OY1VFU7DQQZ1HYVE5S8HURX","AMVBT3XDCQBHI","3PEG1BH7AEDCPKTV9M6N3A4F0EHKBR","","633.6000000238419","img/flower3.png","76","634.3999999761581","3","1","2","2","1,0,0,1,1,0,1,0,1","0,1,0,0,1,1,1,1,0","3",""
"","html-keyboard-response","196","188510","0.0-196.0","32EYX73OY1VFU7DQQZ1HYVE5S8HURX","AMVBT3XDCQBHI","3PEG1BH7AEDCPKTV9M6N3A4F0EHKBR","","null","<img src=""img/flower3.png"" style=""width:200px; border:14px solid green;"">","null","","","","","","","","",""
"","image-keyboard-response","197","189206","0.0-197.0","32EYX73OY1VFU7DQQZ1HYVE5S8HURX","AMVBT3XDCQBHI","3PEG1BH7AEDCPKTV9M6N3A4F0EHKBR","","695.5","img/flower2.png","75","696.1999999880791","2","1","1","2","1,0,0,1,1,0,1,0,1","0,1,0,0,1,1,1,1,0","3",""
"","html-keyboard-response","198","189508","0.0-198.0","32EYX73OY1VFU7DQQZ1HYVE5S8HURX","AMVBT3XDCQBHI","3PEG1BH7AEDCPKTV9M6N3A4F0EHKBR","","null","<img src=""img/flower2.png"" style=""width:200px; border:14px solid green;"">","null","","","","","","","","",""
"","image-keyboard-response","199","190496","0.0-199.0","32EYX73OY1VFU7DQQZ1HYVE5S8HURX","AMVBT3XDCQBHI","3PEG1BH7AEDCPKTV9M6N3A4F0EHKBR","","986","img/flower3.png","76","986.8000000119209","3","1","2","2","1,0,0,1,1,0,1,0,1","0,1,0,0,1,1,1,1,0","3",""
"","html-keyboard-response","200","190797","0.0-200.0","32EYX73OY1VFU7DQQZ1HYVE5S8HURX","AMVBT3XDCQBHI","3PEG1BH7AEDCPKTV9M6N3A4F0EHKBR","","null","<img src=""img/flower3.png"" style=""width:200px; border:14px solid green;"">","null","","","","","","","","",""
"","image-keyboard-response","201","191327","0.0-201.0","32EYX73OY1VFU7DQQZ1HYVE5S8HURX","AMVBT3XDCQBHI","3PEG1BH7AEDCPKTV9M6N3A4F0EHKBR","","529.6000000238419","img/flower3.png","76","530.8000000119209","3","1","2","2","1,0,0,1,1,0,1,0,1","0,1,0,0,1,1,1,1,0","3",""
"","html-keyboard-response","202","191629","0.0-202.0","32EYX73OY1VFU7DQQZ1HYVE5S8HURX","AMVBT3XDCQBHI","3PEG1BH7AEDCPKTV9M6N3A4F0EHKBR","","null","<img src=""img/flower3.png"" style=""width:200px; border:14px solid green;"">","null","","","","","","","","",""
"","image-keyboard-response","203","192431","0.0-203.0","32EYX73OY1VFU7DQQZ1HYVE5S8HURX","AMVBT3XDCQBHI","3PEG1BH7AEDCPKTV9M6N3A4F0EHKBR","","800.5","img/flower2.png","75","801.3999999761581","2","1","1","2","1,0,0,1,1,0,1,0,1","0,1,0,0,1,1,1,1,0","3",""
"","html-keyboard-response","204","192732","0.0-204.0","32EYX73OY1VFU7DQQZ1HYVE5S8HURX","AMVBT3XDCQBHI","3PEG1BH7AEDCPKTV9M6N3A4F0EHKBR","","null","<img src=""img/flower2.png"" style=""width:200px; border:14px solid green;"">","null","","","","","","","","",""
"","image-keyboard-response","205","193428","0.0-205.0","32EYX73OY1VFU7DQQZ1HYVE5S8HURX","AMVBT3XDCQBHI","3PEG1BH7AEDCPKTV9M6N3A4F0EHKBR","","694.5","img/flower2.png","75","695.1999999880791","2","1","1","2","1,0,0,1,1,0,1,0,1","0,1,0,0,1,1,1,1,0","3",""
"","html-keyboard-response","206","193730","0.0-206.0","32EYX73OY1VFU7DQQZ1HYVE5S8HURX","AMVBT3XDCQBHI","3PEG1BH7AEDCPKTV9M6N3A4F0EHKBR","","null","<img src=""img/flower2.png"" style=""width:200px; border:14px solid green;"">","null","","","","","","","","",""
"","image-keyboard-response","207","194790","0.0-207.0","32EYX73OY1VFU7DQQZ1HYVE5S8HURX","AMVBT3XDCQBHI","3PEG1BH7AEDCPKTV9M6N3A4F0EHKBR","","1058.9000000357628","img/flower3.png","76","1059.9000000357628","3","1","2","2","1,0,0,1,1,0,1,0,1","0,1,0,0,1,1,1,1,0","3",""
"","html-keyboard-response","208","195092","0.0-208.0","32EYX73OY1VFU7DQQZ1HYVE5S8HURX","AMVBT3XDCQBHI","3PEG1BH7AEDCPKTV9M6N3A4F0EHKBR","","null","<img src=""img/flower3.png"" style=""width:200px; border:14px solid green;"">","null","","","","","","","","",""
"","image-keyboard-response","209","195897","0.0-209.0","32EYX73OY1VFU7DQQZ1HYVE5S8HURX","AMVBT3XDCQBHI","3PEG1BH7AEDCPKTV9M6N3A4F0EHKBR","","804.1999999880791","img/flower2.png","75","805","2","1","1","2","1,0,0,1,1,0,1,0,1","0,1,0,0,1,1,1,1,0","3",""
"","html-keyboard-response","210","196199","0.0-210.0","32EYX73OY1VFU7DQQZ1HYVE5S8HURX","AMVBT3XDCQBHI","3PEG1BH7AEDCPKTV9M6N3A4F0EHKBR","","null","<img src=""img/flower2.png"" style=""width:200px; border:14px solid green;"">","null","","","","","","","","",""
"","image-keyboard-response","211","197170","0.0-211.0","32EYX73OY1VFU7DQQZ1HYVE5S8HURX","AMVBT3XDCQBHI","3PEG1BH7AEDCPKTV9M6N3A4F0EHKBR","","970","img/flower1.png","74","970.8999999761581","1","1","3","2","1,0,0,1,1,0,1,0,1","0,1,0,0,1,1,1,1,0","3",""
"","html-keyboard-response","212","197472","0.0-212.0","32EYX73OY1VFU7DQQZ1HYVE5S8HURX","AMVBT3XDCQBHI","3PEG1BH7AEDCPKTV9M6N3A4F0EHKBR","","null","<img src=""img/flower1.png"" style=""width:200px; border:14px solid green;"">","null","","","","","","","","",""
"","image-keyboard-response","213","198050","0.0-213.0","32EYX73OY1VFU7DQQZ1HYVE5S8HURX","AMVBT3XDCQBHI","3PEG1BH7AEDCPKTV9M6N3A4F0EHKBR","","577.2000000476837","img/flower1.png","74","578.1000000238419","1","1","3","2","1,0,0,1,1,0,1,0,1","0,1,0,0,1,1,1,1,0","3",""
"","html-keyboard-response","214","198352","0.0-214.0","32EYX73OY1VFU7DQQZ1HYVE5S8HURX","AMVBT3XDCQBHI","3PEG1BH7AEDCPKTV9M6N3A4F0EHKBR","","null","<img src=""img/flower1.png"" style=""width:200px; border:14px solid green;"">","null","","","","","","","","",""
"","image-keyboard-response","215","199553","0.0-215.0","32EYX73OY1VFU7DQQZ1HYVE5S8HURX","AMVBT3XDCQBHI","3PEG1BH7AEDCPKTV9M6N3A4F0EHKBR","","1199.4000000357628","img/flower2.png","75","1200.2000000476837","2","1","1","2","1,0,0,1,1,0,1,0,1","0,1,0,0,1,1,1,1,0","3",""
"","html-keyboard-response","216","199854","0.0-216.0","32EYX73OY1VFU7DQQZ1HYVE5S8HURX","AMVBT3XDCQBHI","3PEG1BH7AEDCPKTV9M6N3A4F0EHKBR","","null","<img src=""img/flower2.png"" style=""width:200px; border:14px solid green;"">","null","","","","","","","","",""
"","image-keyboard-response","217","200507","0.0-217.0","32EYX73OY1VFU7DQQZ1HYVE5S8HURX","AMVBT3XDCQBHI","3PEG1BH7AEDCPKTV9M6N3A4F0EHKBR","","651.4000000357628","img/flower2.png","75","652.0999999642372","2","1","1","2","1,0,0,1,1,0,1,0,1","0,1,0,0,1,1,1,1,0","3",""
"","html-keyboard-response","218","200808","0.0-218.0","32EYX73OY1VFU7DQQZ1HYVE5S8HURX","AMVBT3XDCQBHI","3PEG1BH7AEDCPKTV9M6N3A4F0EHKBR","","null","<img src=""img/flower2.png"" style=""width:200px; border:14px solid green;"">","null","","","","","","","","",""
"","image-keyboard-response","219","201604","0.0-219.0","32EYX73OY1VFU7DQQZ1HYVE5S8HURX","AMVBT3XDCQBHI","3PEG1BH7AEDCPKTV9M6N3A4F0EHKBR","","795","img/flower1.png","74","795.8999999761581","1","1","3","2","1,0,0,1,1,0,1,0,1","0,1,0,0,1,1,1,1,0","3",""
"","html-keyboard-response","220","201906","0.0-220.0","32EYX73OY1VFU7DQQZ1HYVE5S8HURX","AMVBT3XDCQBHI","3PEG1BH7AEDCPKTV9M6N3A4F0EHKBR","","null","<img src=""img/flower1.png"" style=""width:200px; border:14px solid green;"">","null","","","","","","","","",""
"","image-keyboard-response","221","202509","0.0-221.0","32EYX73OY1VFU7DQQZ1HYVE5S8HURX","AMVBT3XDCQBHI","3PEG1BH7AEDCPKTV9M6N3A4F0EHKBR","","603","img/flower1.png","74","603.8000000119209","1","1","3","2","1,0,0,1,1,0,1,0,1","0,1,0,0,1,1,1,1,0","3",""
"","html-keyboard-response","222","202811","0.0-222.0","32EYX73OY1VFU7DQQZ1HYVE5S8HURX","AMVBT3XDCQBHI","3PEG1BH7AEDCPKTV9M6N3A4F0EHKBR","","null","<img src=""img/flower1.png"" style=""width:200px; border:14px solid green;"">","null","","","","","","","","",""
"","image-keyboard-response","223","203436","0.0-223.0","32EYX73OY1VFU7DQQZ1HYVE5S8HURX","AMVBT3XDCQBHI","3PEG1BH7AEDCPKTV9M6N3A4F0EHKBR","","623.8000000119209","img/flower1.png","74","624.6000000238419","1","1","3","2","1,0,0,1,1,0,1,0,1","0,1,0,0,1,1,1,1,0","3",""
"","html-keyboard-response","224","203737","0.0-224.0","32EYX73OY1VFU7DQQZ1HYVE5S8HURX","AMVBT3XDCQBHI","3PEG1BH7AEDCPKTV9M6N3A4F0EHKBR","","null","<img src=""img/flower1.png"" style=""width:200px; border:14px solid green;"">","null","","","","","","","","",""
"","image-keyboard-response","225","204348","0.0-225.0","32EYX73OY1VFU7DQQZ1HYVE5S8HURX","AMVBT3XDCQBHI","3PEG1BH7AEDCPKTV9M6N3A4F0EHKBR","","609.2999999523163","img/flower1.png","74","610.2999999523163","1","1","3","2","1,0,0,1,1,0,1,0,1","0,1,0,0,1,1,1,1,0","3",""
"","html-keyboard-response","226","204650","0.0-226.0","32EYX73OY1VFU7DQQZ1HYVE5S8HURX","AMVBT3XDCQBHI","3PEG1BH7AEDCPKTV9M6N3A4F0EHKBR","","null","<img src=""img/flower1.png"" style=""width:200px; border:14px solid green;"">","null","","","","","","","","",""
"","image-keyboard-response","227","205321","0.0-227.0","32EYX73OY1VFU7DQQZ1HYVE5S8HURX","AMVBT3XDCQBHI","3PEG1BH7AEDCPKTV9M6N3A4F0EHKBR","","669.8999999761581","img/flower2.png","75","671","2","1","1","2","1,0,0,1,1,0,1,0,1","0,1,0,0,1,1,1,1,0","3",""
"","html-keyboard-response","228","205622","0.0-228.0","32EYX73OY1VFU7DQQZ1HYVE5S8HURX","AMVBT3XDCQBHI","3PEG1BH7AEDCPKTV9M6N3A4F0EHKBR","","null","<img src=""img/flower2.png"" style=""width:200px; border:14px solid green;"">","null","","","","","","","","",""
"","image-keyboard-response","229","206461","0.0-229.0","32EYX73OY1VFU7DQQZ1HYVE5S8HURX","AMVBT3XDCQBHI","3PEG1BH7AEDCPKTV9M6N3A4F0EHKBR","","838.0999999642372","img/flower1.png","74","839.1000000238419","1","1","3","2","1,0,0,1,1,0,1,0,1","0,1,0,0,1,1,1,1,0","3",""
"","html-keyboard-response","230","206763","0.0-230.0","32EYX73OY1VFU7DQQZ1HYVE5S8HURX","AMVBT3XDCQBHI","3PEG1BH7AEDCPKTV9M6N3A4F0EHKBR","","null","<img src=""img/flower1.png"" style=""width:200px; border:14px solid green;"">","null","","","","","","","","",""
"","image-keyboard-response","231","207414","0.0-231.0","32EYX73OY1VFU7DQQZ1HYVE5S8HURX","AMVBT3XDCQBHI","3PEG1BH7AEDCPKTV9M6N3A4F0EHKBR","","650","img/flower2.png","75","650.7999999523163","2","1","1","2","1,0,0,1,1,0,1,0,1","0,1,0,0,1,1,1,1,0","3",""
"","html-keyboard-response","232","207716","0.0-232.0","32EYX73OY1VFU7DQQZ1HYVE5S8HURX","AMVBT3XDCQBHI","3PEG1BH7AEDCPKTV9M6N3A4F0EHKBR","","null","<img src=""img/flower2.png"" style=""width:200px; border:14px solid green;"">","null","","","","","","","","",""
"","image-keyboard-response","233","208429","0.0-233.0","32EYX73OY1VFU7DQQZ1HYVE5S8HURX","AMVBT3XDCQBHI","3PEG1BH7AEDCPKTV9M6N3A4F0EHKBR","","712.8000000119209","img/flower3.png","76","713.6000000238419","3","1","2","2","1,0,0,1,1,0,1,0,1","0,1,0,0,1,1,1,1,0","3",""
"","html-keyboard-response","234","208731","0.0-234.0","32EYX73OY1VFU7DQQZ1HYVE5S8HURX","AMVBT3XDCQBHI","3PEG1BH7AEDCPKTV9M6N3A4F0EHKBR","","null","<img src=""img/flower3.png"" style=""width:200px; border:14px solid green;"">","null","","","","","","","","",""
"","image-keyboard-response","235","209368","0.0-235.0","32EYX73OY1VFU7DQQZ1HYVE5S8HURX","AMVBT3XDCQBHI","3PEG1BH7AEDCPKTV9M6N3A4F0EHKBR","","635","img/flower3.png","76","635.8999999761581","3","1","2","2","1,0,0,1,1,0,1,0,1","0,1,0,0,1,1,1,1,0","3",""
"","html-keyboard-response","236","209669","0.0-236.0","32EYX73OY1VFU7DQQZ1HYVE5S8HURX","AMVBT3XDCQBHI","3PEG1BH7AEDCPKTV9M6N3A4F0EHKBR","","null","<img src=""img/flower3.png"" style=""width:200px; border:14px solid green;"">","null","","","","","","","","",""
"","image-keyboard-response","237","210413","0.0-237.0","32EYX73OY1VFU7DQQZ1HYVE5S8HURX","AMVBT3XDCQBHI","3PEG1BH7AEDCPKTV9M6N3A4F0EHKBR","","742.3000000119209","img/flower3.png","76","743.1999999880791","3","1","2","2","1,0,0,1,1,0,1,0,1","0,1,0,0,1,1,1,1,0","3",""
"","html-keyboard-response","238","210715","0.0-238.0","32EYX73OY1VFU7DQQZ1HYVE5S8HURX","AMVBT3XDCQBHI","3PEG1BH7AEDCPKTV9M6N3A4F0EHKBR","","null","<img src=""img/flower3.png"" style=""width:200px; border:14px solid green;"">","null","","","","","","","","",""
"","image-keyboard-response","239","211709","0.0-239.0","32EYX73OY1VFU7DQQZ1HYVE5S8HURX","AMVBT3XDCQBHI","3PEG1BH7AEDCPKTV9M6N3A4F0EHKBR","","993.1999999880791","img/flower1.png","74","994.1000000238419","1","1","3","2","1,0,0,1,1,0,1,0,1","0,1,0,0,1,1,1,1,0","3",""
"","html-keyboard-response","240","212010","0.0-240.0","32EYX73OY1VFU7DQQZ1HYVE5S8HURX","AMVBT3XDCQBHI","3PEG1BH7AEDCPKTV9M6N3A4F0EHKBR","","null","<img src=""img/flower1.png"" style=""width:200px; border:14px solid green;"">","null","","","","","","","","",""
"","image-keyboard-response","241","212827","0.0-241.0","32EYX73OY1VFU7DQQZ1HYVE5S8HURX","AMVBT3XDCQBHI","3PEG1BH7AEDCPKTV9M6N3A4F0EHKBR","","815.5999999642372","img/flower2.png","75","816.5","2","1","1","2","1,0,0,1,1,0,1,0,1","0,1,0,0,1,1,1,1,0","3",""
"","html-keyboard-response","242","213128","0.0-242.0","32EYX73OY1VFU7DQQZ1HYVE5S8HURX","AMVBT3XDCQBHI","3PEG1BH7AEDCPKTV9M6N3A4F0EHKBR","","null","<img src=""img/flower2.png"" style=""width:200px; border:14px solid green;"">","null","","","","","","","","",""
"","image-keyboard-response","243","214012","0.0-243.0","32EYX73OY1VFU7DQQZ1HYVE5S8HURX","AMVBT3XDCQBHI","3PEG1BH7AEDCPKTV9M6N3A4F0EHKBR","","882.8999999761581","img/flower1.png","74","883.7999999523163","1","1","3","2","1,0,0,1,1,0,1,0,1","0,1,0,0,1,1,1,1,0","3",""
"","html-keyboard-response","244","214315","0.0-244.0","32EYX73OY1VFU7DQQZ1HYVE5S8HURX","AMVBT3XDCQBHI","3PEG1BH7AEDCPKTV9M6N3A4F0EHKBR","","null","<img src=""img/flower1.png"" style=""width:200px; border:14px solid green;"">","null","","","","","","","","",""
"","image-keyboard-response","245","214902","0.0-245.0","32EYX73OY1VFU7DQQZ1HYVE5S8HURX","AMVBT3XDCQBHI","3PEG1BH7AEDCPKTV9M6N3A4F0EHKBR","","584.6999999880791","img/flower1.png","74","586.0999999642372","1","1","3","2","1,0,0,1,1,0,1,0,1","0,1,0,0,1,1,1,1,0","3",""
"","html-keyboard-response","246","215203","0.0-246.0","32EYX73OY1VFU7DQQZ1HYVE5S8HURX","AMVBT3XDCQBHI","3PEG1BH7AEDCPKTV9M6N3A4F0EHKBR","","null","<img src=""img/flower1.png"" style=""width:200px; border:14px solid green;"">","null","","","","","","","","",""
"","image-keyboard-response","247","216233","0.0-247.0","32EYX73OY1VFU7DQQZ1HYVE5S8HURX","AMVBT3XDCQBHI","3PEG1BH7AEDCPKTV9M6N3A4F0EHKBR","","1028.9000000357628","img/flower3.png","76","1029.800000011921","3","1","2","2","1,0,0,1,1,0,1,0,1","0,1,0,0,1,1,1,1,0","3",""
"","html-keyboard-response","248","216535","0.0-248.0","32EYX73OY1VFU7DQQZ1HYVE5S8HURX","AMVBT3XDCQBHI","3PEG1BH7AEDCPKTV9M6N3A4F0EHKBR","","null","<img src=""img/flower3.png"" style=""width:200px; border:14px solid green;"">","null","","","","","","","","",""
"","image-keyboard-response","249","217538","0.0-249.0","32EYX73OY1VFU7DQQZ1HYVE5S8HURX","AMVBT3XDCQBHI","3PEG1BH7AEDCPKTV9M6N3A4F0EHKBR","","1002.8000000119209","img/flower2.png","75","1003.6999999880791","2","1","1","2","1,0,0,1,1,0,1,0,1","0,1,0,0,1,1,1,1,0","3",""
"","html-keyboard-response","250","217851","0.0-250.0","32EYX73OY1VFU7DQQZ1HYVE5S8HURX","AMVBT3XDCQBHI","3PEG1BH7AEDCPKTV9M6N3A4F0EHKBR","","null","<img src=""img/flower2.png"" style=""width:200px; border:14px solid green;"">","null","","","","","","","","",""
"","image-keyboard-response","251","218776","0.0-251.0","32EYX73OY1VFU7DQQZ1HYVE5S8HURX","AMVBT3XDCQBHI","3PEG1BH7AEDCPKTV9M6N3A4F0EHKBR","","924.5","img/flower1.png","74","925.5","1","1","3","2","1,0,0,1,1,0,1,0,1","0,1,0,0,1,1,1,1,0","3",""
"","html-keyboard-response","252","219079","0.0-252.0","32EYX73OY1VFU7DQQZ1HYVE5S8HURX","AMVBT3XDCQBHI","3PEG1BH7AEDCPKTV9M6N3A4F0EHKBR","","null","<img src=""img/flower1.png"" style=""width:200px; border:14px solid green;"">","null","","","","","","","","",""
"","image-keyboard-response","253","219739","0.0-253.0","32EYX73OY1VFU7DQQZ1HYVE5S8HURX","AMVBT3XDCQBHI","3PEG1BH7AEDCPKTV9M6N3A4F0EHKBR","","658.8999999761581","img/flower1.png","74","659.9000000357628","1","1","3","2","1,0,0,1,1,0,1,0,1","0,1,0,0,1,1,1,1,0","3",""
"","html-keyboard-response","254","220041","0.0-254.0","32EYX73OY1VFU7DQQZ1HYVE5S8HURX","AMVBT3XDCQBHI","3PEG1BH7AEDCPKTV9M6N3A4F0EHKBR","","null","<img src=""img/flower1.png"" style=""width:200px; border:14px solid green;"">","null","","","","","","","","",""
"","image-keyboard-response","255","220842","0.0-255.0","32EYX73OY1VFU7DQQZ1HYVE5S8HURX","AMVBT3XDCQBHI","3PEG1BH7AEDCPKTV9M6N3A4F0EHKBR","","800","img/flower2.png","75","801","2","1","1","2","1,0,0,1,1,0,1,0,1","0,1,0,0,1,1,1,1,0","3",""
"","html-keyboard-response","256","221144","0.0-256.0","32EYX73OY1VFU7DQQZ1HYVE5S8HURX","AMVBT3XDCQBHI","3PEG1BH7AEDCPKTV9M6N3A4F0EHKBR","","null","<img src=""img/flower2.png"" style=""width:200px; border:14px solid green;"">","null","","","","","","","","",""
"","image-keyboard-response","257","222505","0.0-257.0","32EYX73OY1VFU7DQQZ1HYVE5S8HURX","AMVBT3XDCQBHI","3PEG1BH7AEDCPKTV9M6N3A4F0EHKBR","","1360.2999999523163","img/flower1.png","74","1361.199999988079","1","1","3","2","1,0,0,1,1,0,1,0,1","0,1,0,0,1,1,1,1,0","3",""
"","html-keyboard-response","258","222807","0.0-258.0","32EYX73OY1VFU7DQQZ1HYVE5S8HURX","AMVBT3XDCQBHI","3PEG1BH7AEDCPKTV9M6N3A4F0EHKBR","","null","<img src=""img/flower1.png"" style=""width:200px; border:14px solid green;"">","null","","","","","","","","",""
"","image-keyboard-response","259","223691","0.0-259.0","32EYX73OY1VFU7DQQZ1HYVE5S8HURX","AMVBT3XDCQBHI","3PEG1BH7AEDCPKTV9M6N3A4F0EHKBR","","883.1999999880791","img/flower2.png","75","884","2","1","1","2","1,0,0,1,1,0,1,0,1","0,1,0,0,1,1,1,1,0","3",""
"","html-keyboard-response","260","223992","0.0-260.0","32EYX73OY1VFU7DQQZ1HYVE5S8HURX","AMVBT3XDCQBHI","3PEG1BH7AEDCPKTV9M6N3A4F0EHKBR","","null","<img src=""img/flower2.png"" style=""width:200px; border:14px solid green;"">","null","","","","","","","","",""
"","image-keyboard-response","261","224865","0.0-261.0","32EYX73OY1VFU7DQQZ1HYVE5S8HURX","AMVBT3XDCQBHI","3PEG1BH7AEDCPKTV9M6N3A4F0EHKBR","","872","img/flower3.png","76","872.9000000357628","3","1","2","2","1,0,0,1,1,0,1,0,1","0,1,0,0,1,1,1,1,0","3",""
"","html-keyboard-response","262","225168","0.0-262.0","32EYX73OY1VFU7DQQZ1HYVE5S8HURX","AMVBT3XDCQBHI","3PEG1BH7AEDCPKTV9M6N3A4F0EHKBR","","null","<img src=""img/flower3.png"" style=""width:200px; border:14px solid green;"">","null","","","","","","","","",""
"","image-keyboard-response","263","226593","0.0-263.0","32EYX73OY1VFU7DQQZ1HYVE5S8HURX","AMVBT3XDCQBHI","3PEG1BH7AEDCPKTV9M6N3A4F0EHKBR","","1423.9000000357628","img/flower1.png","74","1424.699999988079","1","1","3","2","1,0,0,1,1,0,1,0,1","0,1,0,0,1,1,1,1,0","3",""
"","html-keyboard-response","264","226895","0.0-264.0","32EYX73OY1VFU7DQQZ1HYVE5S8HURX","AMVBT3XDCQBHI","3PEG1BH7AEDCPKTV9M6N3A4F0EHKBR","","null","<img src=""img/flower1.png"" style=""width:200px; border:14px solid green;"">","null","","","","","","","","",""
"","image-keyboard-response","265","227436","0.0-265.0","32EYX73OY1VFU7DQQZ1HYVE5S8HURX","AMVBT3XDCQBHI","3PEG1BH7AEDCPKTV9M6N3A4F0EHKBR","","540.3000000119209","img/flower1.png","74","541.3000000119209","1","1","3","2","1,0,0,1,1,0,1,0,1","0,1,0,0,1,1,1,1,0","3",""
"","html-keyboard-response","266","227738","0.0-266.0","32EYX73OY1VFU7DQQZ1HYVE5S8HURX","AMVBT3XDCQBHI","3PEG1BH7AEDCPKTV9M6N3A4F0EHKBR","","null","<img src=""img/flower1.png"" style=""width:200px; border:14px solid green;"">","null","","","","","","","","",""
"","image-keyboard-response","267","228706","0.0-267.0","32EYX73OY1VFU7DQQZ1HYVE5S8HURX","AMVBT3XDCQBHI","3PEG1BH7AEDCPKTV9M6N3A4F0EHKBR","","966.3000000119209","img/flower3.png","76","967","3","1","2","2","1,0,0,1,1,0,1,0,1","0,1,0,0,1,1,1,1,0","3",""
"","html-keyboard-response","268","229007","0.0-268.0","32EYX73OY1VFU7DQQZ1HYVE5S8HURX","AMVBT3XDCQBHI","3PEG1BH7AEDCPKTV9M6N3A4F0EHKBR","","null","<img src=""img/flower3.png"" style=""width:200px; border:14px solid green;"">","null","","","","","","","","",""
"","image-keyboard-response","269","230030","0.0-269.0","32EYX73OY1VFU7DQQZ1HYVE5S8HURX","AMVBT3XDCQBHI","3PEG1BH7AEDCPKTV9M6N3A4F0EHKBR","","1021.7999999523163","img/flower1.png","74","1022.5","1","1","3","2","1,0,0,1,1,0,1,0,1","0,1,0,0,1,1,1,1,0","3",""
"","html-keyboard-response","270","230331","0.0-270.0","32EYX73OY1VFU7DQQZ1HYVE5S8HURX","AMVBT3XDCQBHI","3PEG1BH7AEDCPKTV9M6N3A4F0EHKBR","","null","<img src=""img/flower1.png"" style=""width:200px; border:14px solid green;"">","null","","","","","","","","",""
"","image-keyboard-response","271","231435","0.0-271.0","32EYX73OY1VFU7DQQZ1HYVE5S8HURX","AMVBT3XDCQBHI","3PEG1BH7AEDCPKTV9M6N3A4F0EHKBR","","1102.5999999642372","img/flower2.png","75","1103.8999999761581","2","1","1","2","1,0,0,1,1,0,1,0,1","0,1,0,0,1,1,1,1,0","3",""
"","html-keyboard-response","272","231737","0.0-272.0","32EYX73OY1VFU7DQQZ1HYVE5S8HURX","AMVBT3XDCQBHI","3PEG1BH7AEDCPKTV9M6N3A4F0EHKBR","","null","<img src=""img/flower2.png"" style=""width:200px; border:14px solid green;"">","null","","","","","","","","",""
"","image-keyboard-response","273","232654","0.0-273.0","32EYX73OY1VFU7DQQZ1HYVE5S8HURX","AMVBT3XDCQBHI","3PEG1BH7AEDCPKTV9M6N3A4F0EHKBR","","916.1999999880791","img/flower1.png","74","917.1000000238419","1","1","3","2","1,0,0,1,1,0,1,0,1","0,1,0,0,1,1,1,1,0","3",""
"","html-keyboard-response","274","232956","0.0-274.0","32EYX73OY1VFU7DQQZ1HYVE5S8HURX","AMVBT3XDCQBHI","3PEG1BH7AEDCPKTV9M6N3A4F0EHKBR","","null","<img src=""img/flower1.png"" style=""width:200px; border:14px solid green;"">","null","","","","","","","","",""
"","image-keyboard-response","275","233447","0.0-275.0","32EYX73OY1VFU7DQQZ1HYVE5S8HURX","AMVBT3XDCQBHI","3PEG1BH7AEDCPKTV9M6N3A4F0EHKBR","","490.19999998807907","img/flower1.png","74","491.19999998807907","1","1","3","2","1,0,0,1,1,0,1,0,1","0,1,0,0,1,1,1,1,0","3",""
"","html-keyboard-response","276","233761","0.0-276.0","32EYX73OY1VFU7DQQZ1HYVE5S8HURX","AMVBT3XDCQBHI","3PEG1BH7AEDCPKTV9M6N3A4F0EHKBR","","null","<img src=""img/flower1.png"" style=""width:200px; border:14px solid green;"">","null","","","","","","","","",""
"","image-keyboard-response","277","234563","0.0-277.0","32EYX73OY1VFU7DQQZ1HYVE5S8HURX","AMVBT3XDCQBHI","3PEG1BH7AEDCPKTV9M6N3A4F0EHKBR","","801.1999999880791","img/flower2.png","75","802.1999999880791","2","1","1","2","1,0,0,1,1,0,1,0,1","0,1,0,0,1,1,1,1,0","3",""
"","html-keyboard-response","278","234865","0.0-278.0","32EYX73OY1VFU7DQQZ1HYVE5S8HURX","AMVBT3XDCQBHI","3PEG1BH7AEDCPKTV9M6N3A4F0EHKBR","","null","<img src=""img/flower2.png"" style=""width:200px; border:14px solid green;"">","null","","","","","","","","",""
"","image-keyboard-response","279","235744","0.0-279.0","32EYX73OY1VFU7DQQZ1HYVE5S8HURX","AMVBT3XDCQBHI","3PEG1BH7AEDCPKTV9M6N3A4F0EHKBR","","878.0999999642372","img/flower1.png","74","878.8999999761581","1","1","3","2","1,0,0,1,1,0,1,0,1","0,1,0,0,1,1,1,1,0","3",""
"","html-keyboard-response","280","236045","0.0-280.0","32EYX73OY1VFU7DQQZ1HYVE5S8HURX","AMVBT3XDCQBHI","3PEG1BH7AEDCPKTV9M6N3A4F0EHKBR","","null","<img src=""img/flower1.png"" style=""width:200px; border:14px solid green;"">","null","","","","","","","","",""
"","image-keyboard-response","281","236835","0.0-281.0","32EYX73OY1VFU7DQQZ1HYVE5S8HURX","AMVBT3XDCQBHI","3PEG1BH7AEDCPKTV9M6N3A4F0EHKBR","","789.4000000357628","img/flower2.png","75","790.3000000119209","2","1","1","2","1,0,0,1,1,0,1,0,1","0,1,0,0,1,1,1,1,0","3",""
"","html-keyboard-response","282","237136","0.0-282.0","32EYX73OY1VFU7DQQZ1HYVE5S8HURX","AMVBT3XDCQBHI","3PEG1BH7AEDCPKTV9M6N3A4F0EHKBR","","null","<img src=""img/flower2.png"" style=""width:200px; border:14px solid green;"">","null","","","","","","","","",""
"","image-keyboard-response","283","237972","0.0-283.0","32EYX73OY1VFU7DQQZ1HYVE5S8HURX","AMVBT3XDCQBHI","3PEG1BH7AEDCPKTV9M6N3A4F0EHKBR","","834.7999999523163","img/flower3.png","76","835.5999999642372","3","1","2","2","1,0,0,1,1,0,1,0,1","0,1,0,0,1,1,1,1,0","3",""
"","html-keyboard-response","284","238281","0.0-284.0","32EYX73OY1VFU7DQQZ1HYVE5S8HURX","AMVBT3XDCQBHI","3PEG1BH7AEDCPKTV9M6N3A4F0EHKBR","","null","<img src=""img/flower3.png"" style=""width:200px; border:14px solid green;"">","null","","","","","","","","",""
"","image-keyboard-response","285","239270","0.0-285.0","32EYX73OY1VFU7DQQZ1HYVE5S8HURX","AMVBT3XDCQBHI","3PEG1BH7AEDCPKTV9M6N3A4F0EHKBR","","987.3000000119209","img/flower2.png","75","988.5999999642372","2","1","1","2","1,0,0,1,1,0,1,0,1","0,1,0,0,1,1,1,1,0","3",""
"","html-keyboard-response","286","239572","0.0-286.0","32EYX73OY1VFU7DQQZ1HYVE5S8HURX","AMVBT3XDCQBHI","3PEG1BH7AEDCPKTV9M6N3A4F0EHKBR","","null","<img src=""img/flower2.png"" style=""width:200px; border:14px solid green;"">","null","","","","","","","","",""
"","image-keyboard-response","287","240374","0.0-287.0","32EYX73OY1VFU7DQQZ1HYVE5S8HURX","AMVBT3XDCQBHI","3PEG1BH7AEDCPKTV9M6N3A4F0EHKBR","","800.3999999761581","img/flower2.png","75","801.1999999880791","2","1","1","2","1,0,0,1,1,0,1,0,1","0,1,0,0,1,1,1,1,0","3",""
"","html-keyboard-response","288","240675","0.0-288.0","32EYX73OY1VFU7DQQZ1HYVE5S8HURX","AMVBT3XDCQBHI","3PEG1BH7AEDCPKTV9M6N3A4F0EHKBR","","null","<img src=""img/flower2.png"" style=""width:200px; border:14px solid green;"">","null","","","","","","","","",""
"","image-keyboard-response","289","241431","0.0-289.0","32EYX73OY1VFU7DQQZ1HYVE5S8HURX","AMVBT3XDCQBHI","3PEG1BH7AEDCPKTV9M6N3A4F0EHKBR","","754.8999999761581","img/flower3.png","76","755.7999999523163","3","1","2","2","1,0,0,1,1,0,1,0,1","0,1,0,0,1,1,1,1,0","3",""
"","html-keyboard-response","290","241732","0.0-290.0","32EYX73OY1VFU7DQQZ1HYVE5S8HURX","AMVBT3XDCQBHI","3PEG1BH7AEDCPKTV9M6N3A4F0EHKBR","","null","<img src=""img/flower3.png"" style=""width:200px; border:14px solid green;"">","null","","","","","","","","",""
"","image-keyboard-response","291","242744","0.0-291.0","32EYX73OY1VFU7DQQZ1HYVE5S8HURX","AMVBT3XDCQBHI","3PEG1BH7AEDCPKTV9M6N3A4F0EHKBR","","1010.8000000119209","img/flower2.png","75","1011.5","2","1","1","2","1,0,0,1,1,0,1,0,1","0,1,0,0,1,1,1,1,0","3",""
"","html-keyboard-response","292","243045","0.0-292.0","32EYX73OY1VFU7DQQZ1HYVE5S8HURX","AMVBT3XDCQBHI","3PEG1BH7AEDCPKTV9M6N3A4F0EHKBR","","null","<img src=""img/flower2.png"" style=""width:200px; border:14px solid green;"">","null","","","","","","","","",""
"","image-keyboard-response","293","244071","0.0-293.0","32EYX73OY1VFU7DQQZ1HYVE5S8HURX","AMVBT3XDCQBHI","3PEG1BH7AEDCPKTV9M6N3A4F0EHKBR","","1025.0999999642372","img/flower3.png","76","1026","3","1","2","2","1,0,0,1,1,0,1,0,1","0,1,0,0,1,1,1,1,0","3",""
"","html-keyboard-response","294","244373","0.0-294.0","32EYX73OY1VFU7DQQZ1HYVE5S8HURX","AMVBT3XDCQBHI","3PEG1BH7AEDCPKTV9M6N3A4F0EHKBR","","null","<img src=""img/flower3.png"" style=""width:200px; border:14px solid green;"">","null","","","","","","","","",""
"","image-keyboard-response","295","245569","0.0-295.0","32EYX73OY1VFU7DQQZ1HYVE5S8HURX","AMVBT3XDCQBHI","3PEG1BH7AEDCPKTV9M6N3A4F0EHKBR","","1195.199999988079","img/flower3.png","76","1196.1000000238419","3","1","2","2","1,0,0,1,1,0,1,0,1","0,1,0,0,1,1,1,1,0","3",""
"","html-keyboard-response","296","245872","0.0-296.0","32EYX73OY1VFU7DQQZ1HYVE5S8HURX","AMVBT3XDCQBHI","3PEG1BH7AEDCPKTV9M6N3A4F0EHKBR","","null","<img src=""img/flower3.png"" style=""width:200px; border:14px solid green;"">","null","","","","","","","","",""
"","image-keyboard-response","297","246906","0.0-297.0","32EYX73OY1VFU7DQQZ1HYVE5S8HURX","AMVBT3XDCQBHI","3PEG1BH7AEDCPKTV9M6N3A4F0EHKBR","","1032.6000000238419","img/flower1.png","74","1033.9000000357628","1","1","3","2","1,0,0,1,1,0,1,0,1","0,1,0,0,1,1,1,1,0","3",""
"","html-keyboard-response","298","247208","0.0-298.0","32EYX73OY1VFU7DQQZ1HYVE5S8HURX","AMVBT3XDCQBHI","3PEG1BH7AEDCPKTV9M6N3A4F0EHKBR","","null","<img src=""img/flower1.png"" style=""width:200px; border:14px solid green;"">","null","","","","","","","","",""
"","image-keyboard-response","299","249211","0.0-299.0","32EYX73OY1VFU7DQQZ1HYVE5S8HURX","AMVBT3XDCQBHI","3PEG1BH7AEDCPKTV9M6N3A4F0EHKBR","","","img/flower3.png","","2002.5","-1","0","2","2","1,0,0,1,1,0,1,0,1","0,1,0,0,1,1,1,1,0","3",""
"","html-keyboard-response","300","249513","0.0-300.0","32EYX73OY1VFU7DQQZ1HYVE5S8HURX","AMVBT3XDCQBHI","3PEG1BH7AEDCPKTV9M6N3A4F0EHKBR","","null","<img src=""img/flower3.png"" style=""width:200px;border:14px solid red;"">","null","","","","","","","","",""
"","image-keyboard-response","301","249525","0.0-301.0","32EYX73OY1VFU7DQQZ1HYVE5S8HURX","AMVBT3XDCQBHI","3PEG1BH7AEDCPKTV9M6N3A4F0EHKBR","","11.5","img/flower2.png","76","12.199999988079071","3","0","1","2","1,0,0,1,1,0,1,0,1","0,1,0,0,1,1,1,1,0","3",""
"","html-keyboard-response","302","249827","0.0-302.0","32EYX73OY1VFU7DQQZ1HYVE5S8HURX","AMVBT3XDCQBHI","3PEG1BH7AEDCPKTV9M6N3A4F0EHKBR","","null","<img src=""img/flower2.png"" style=""width:200px;border:14px solid red;"">","null","","","","","","","","",""
"","image-keyboard-response","303","250858","0.0-303.0","32EYX73OY1VFU7DQQZ1HYVE5S8HURX","AMVBT3XDCQBHI","3PEG1BH7AEDCPKTV9M6N3A4F0EHKBR","","1031","img/flower2.png","75","1031.9000000357628","2","1","1","2","1,0,0,1,1,0,1,0,1","0,1,0,0,1,1,1,1,0","3",""
"","html-keyboard-response","304","251161","0.0-304.0","32EYX73OY1VFU7DQQZ1HYVE5S8HURX","AMVBT3XDCQBHI","3PEG1BH7AEDCPKTV9M6N3A4F0EHKBR","","null","<img src=""img/flower2.png"" style=""width:200px; border:14px solid green;"">","null","","","","","","","","",""
"","image-keyboard-response","305","252085","0.0-305.0","32EYX73OY1VFU7DQQZ1HYVE5S8HURX","AMVBT3XDCQBHI","3PEG1BH7AEDCPKTV9M6N3A4F0EHKBR","","922.6999999880791","img/flower3.png","76","923.8000000119209","3","1","2","2","1,0,0,1,1,0,1,0,1","0,1,0,0,1,1,1,1,0","3",""
"","html-keyboard-response","306","252387","0.0-306.0","32EYX73OY1VFU7DQQZ1HYVE5S8HURX","AMVBT3XDCQBHI","3PEG1BH7AEDCPKTV9M6N3A4F0EHKBR","","null","<img src=""img/flower3.png"" style=""width:200px; border:14px solid green;"">","null","","","","","","","","",""
"","image-keyboard-response","307","253258","0.0-307.0","32EYX73OY1VFU7DQQZ1HYVE5S8HURX","AMVBT3XDCQBHI","3PEG1BH7AEDCPKTV9M6N3A4F0EHKBR","","869.3999999761581","img/flower2.png","75","870.1999999880791","2","1","1","2","1,0,0,1,1,0,1,0,1","0,1,0,0,1,1,1,1,0","3",""
"","html-keyboard-response","308","253559","0.0-308.0","32EYX73OY1VFU7DQQZ1HYVE5S8HURX","AMVBT3XDCQBHI","3PEG1BH7AEDCPKTV9M6N3A4F0EHKBR","","null","<img src=""img/flower2.png"" style=""width:200px; border:14px solid green;"">","null","","","","","","","","",""
"","image-keyboard-response","309","254139","0.0-309.0","32EYX73OY1VFU7DQQZ1HYVE5S8HURX","AMVBT3XDCQBHI","3PEG1BH7AEDCPKTV9M6N3A4F0EHKBR","","579.2999999523163","img/flower2.png","75","580.1000000238419","2","1","1","2","1,0,0,1,1,0,1,0,1","0,1,0,0,1,1,1,1,0","3",""
"","html-keyboard-response","310","254441","0.0-310.0","32EYX73OY1VFU7DQQZ1HYVE5S8HURX","AMVBT3XDCQBHI","3PEG1BH7AEDCPKTV9M6N3A4F0EHKBR","","null","<img src=""img/flower2.png"" style=""width:200px; border:14px solid green;"">","null","","","","","","","","",""
"","image-keyboard-response","311","255243","0.0-311.0","32EYX73OY1VFU7DQQZ1HYVE5S8HURX","AMVBT3XDCQBHI","3PEG1BH7AEDCPKTV9M6N3A4F0EHKBR","","801.1000000238419","img/flower1.png","74","801.9000000357628","1","1","3","2","1,0,0,1,1,0,1,0,1","0,1,0,0,1,1,1,1,0","3",""
"","html-keyboard-response","312","255545","0.0-312.0","32EYX73OY1VFU7DQQZ1HYVE5S8HURX","AMVBT3XDCQBHI","3PEG1BH7AEDCPKTV9M6N3A4F0EHKBR","","null","<img src=""img/flower1.png"" style=""width:200px; border:14px solid green;"">","null","","","","","","","","",""
"","image-keyboard-response","313","256278","0.0-313.0","32EYX73OY1VFU7DQQZ1HYVE5S8HURX","AMVBT3XDCQBHI","3PEG1BH7AEDCPKTV9M6N3A4F0EHKBR","","732.3000000119209","img/flower2.png","75","733.3000000119209","2","1","1","2","1,0,0,1,1,0,1,0,1","0,1,0,0,1,1,1,1,0","3",""
"","html-keyboard-response","314","256580","0.0-314.0","32EYX73OY1VFU7DQQZ1HYVE5S8HURX","AMVBT3XDCQBHI","3PEG1BH7AEDCPKTV9M6N3A4F0EHKBR","","null","<img src=""img/flower2.png"" style=""width:200px; border:14px solid green;"">","null","","","","","","","","",""
"","image-keyboard-response","315","257273","0.0-315.0","32EYX73OY1VFU7DQQZ1HYVE5S8HURX","AMVBT3XDCQBHI","3PEG1BH7AEDCPKTV9M6N3A4F0EHKBR","","692.3000000119209","img/flower2.png","75","693.0999999642372","2","1","1","2","1,0,0,1,1,0,1,0,1","0,1,0,0,1,1,1,1,0","3",""
"","html-keyboard-response","316","257575","0.0-316.0","32EYX73OY1VFU7DQQZ1HYVE5S8HURX","AMVBT3XDCQBHI","3PEG1BH7AEDCPKTV9M6N3A4F0EHKBR","","null","<img src=""img/flower2.png"" style=""width:200px; border:14px solid green;"">","null","","","","","","","","",""
"","image-keyboard-response","317","258478","0.0-317.0","32EYX73OY1VFU7DQQZ1HYVE5S8HURX","AMVBT3XDCQBHI","3PEG1BH7AEDCPKTV9M6N3A4F0EHKBR","","901.9000000357628","img/flower3.png","76","902.8000000119209","3","1","2","2","1,0,0,1,1,0,1,0,1","0,1,0,0,1,1,1,1,0","3",""
"","html-keyboard-response","318","258780","0.0-318.0","32EYX73OY1VFU7DQQZ1HYVE5S8HURX","AMVBT3XDCQBHI","3PEG1BH7AEDCPKTV9M6N3A4F0EHKBR","","null","<img src=""img/flower3.png"" style=""width:200px; border:14px solid green;"">","null","","","","","","","","",""
"","image-keyboard-response","319","259571","0.0-319.0","32EYX73OY1VFU7DQQZ1HYVE5S8HURX","AMVBT3XDCQBHI","3PEG1BH7AEDCPKTV9M6N3A4F0EHKBR","","790.1000000238419","img/flower3.png","76","790.7999999523163","3","1","2","2","1,0,0,1,1,0,1,0,1","0,1,0,0,1,1,1,1,0","3",""
"","html-keyboard-response","320","259872","0.0-320.0","32EYX73OY1VFU7DQQZ1HYVE5S8HURX","AMVBT3XDCQBHI","3PEG1BH7AEDCPKTV9M6N3A4F0EHKBR","","null","<img src=""img/flower3.png"" style=""width:200px; border:14px solid green;"">","null","","","","","","","","",""
"","image-keyboard-response","321","260698","0.0-321.0","32EYX73OY1VFU7DQQZ1HYVE5S8HURX","AMVBT3XDCQBHI","3PEG1BH7AEDCPKTV9M6N3A4F0EHKBR","","825","img/flower3.png","76","825.8000000119209","3","1","2","2","1,0,0,1,1,0,1,0,1","0,1,0,0,1,1,1,1,0","3",""
"","html-keyboard-response","322","261000","0.0-322.0","32EYX73OY1VFU7DQQZ1HYVE5S8HURX","AMVBT3XDCQBHI","3PEG1BH7AEDCPKTV9M6N3A4F0EHKBR","","null","<img src=""img/flower3.png"" style=""width:200px; border:14px solid green;"">","null","","","","","","","","",""
"","image-keyboard-response","323","261743","0.0-323.0","32EYX73OY1VFU7DQQZ1HYVE5S8HURX","AMVBT3XDCQBHI","3PEG1BH7AEDCPKTV9M6N3A4F0EHKBR","","742.2999999523163","img/flower3.png","76","743.1000000238419","3","1","2","2","1,0,0,1,1,0,1,0,1","0,1,0,0,1,1,1,1,0","3",""
"","html-keyboard-response","324","262045","0.0-324.0","32EYX73OY1VFU7DQQZ1HYVE5S8HURX","AMVBT3XDCQBHI","3PEG1BH7AEDCPKTV9M6N3A4F0EHKBR","","null","<img src=""img/flower3.png"" style=""width:200px; border:14px solid green;"">","null","","","","","","","","",""
"","image-keyboard-response","325","262804","0.0-325.0","32EYX73OY1VFU7DQQZ1HYVE5S8HURX","AMVBT3XDCQBHI","3PEG1BH7AEDCPKTV9M6N3A4F0EHKBR","","757.2999999523163","img/flower1.png","74","758.1999999880791","1","1","3","2","1,0,0,1,1,0,1,0,1","0,1,0,0,1,1,1,1,0","3",""
"","html-keyboard-response","326","263106","0.0-326.0","32EYX73OY1VFU7DQQZ1HYVE5S8HURX","AMVBT3XDCQBHI","3PEG1BH7AEDCPKTV9M6N3A4F0EHKBR","","null","<img src=""img/flower1.png"" style=""width:200px; border:14px solid green;"">","null","","","","","","","","",""
"","image-keyboard-response","327","264055","0.0-327.0","32EYX73OY1VFU7DQQZ1HYVE5S8HURX","AMVBT3XDCQBHI","3PEG1BH7AEDCPKTV9M6N3A4F0EHKBR","","948.3000000119209","img/flower3.png","76","949.1999999880791","3","1","2","2","1,0,0,1,1,0,1,0,1","0,1,0,0,1,1,1,1,0","3",""
"","html-keyboard-response","328","264357","0.0-328.0","32EYX73OY1VFU7DQQZ1HYVE5S8HURX","AMVBT3XDCQBHI","3PEG1BH7AEDCPKTV9M6N3A4F0EHKBR","","null","<img src=""img/flower3.png"" style=""width:200px; border:14px solid green;"">","null","","","","","","","","",""
"","image-keyboard-response","329","265454","0.0-329.0","32EYX73OY1VFU7DQQZ1HYVE5S8HURX","AMVBT3XDCQBHI","3PEG1BH7AEDCPKTV9M6N3A4F0EHKBR","","1095.6000000238419","img/flower2.png","75","1096.5","2","1","1","2","1,0,0,1,1,0,1,0,1","0,1,0,0,1,1,1,1,0","3",""
"","html-keyboard-response","330","265756","0.0-330.0","32EYX73OY1VFU7DQQZ1HYVE5S8HURX","AMVBT3XDCQBHI","3PEG1BH7AEDCPKTV9M6N3A4F0EHKBR","","null","<img src=""img/flower2.png"" style=""width:200px; border:14px solid green;"">","null","","","","","","","","",""
"","image-keyboard-response","331","266828","0.0-331.0","32EYX73OY1VFU7DQQZ1HYVE5S8HURX","AMVBT3XDCQBHI","3PEG1BH7AEDCPKTV9M6N3A4F0EHKBR","","1070.8999999761581","img/flower1.png","74","1071.8999999761581","1","1","3","2","1,0,0,1,1,0,1,0,1","0,1,0,0,1,1,1,1,0","3",""
"","html-keyboard-response","332","267129","0.0-332.0","32EYX73OY1VFU7DQQZ1HYVE5S8HURX","AMVBT3XDCQBHI","3PEG1BH7AEDCPKTV9M6N3A4F0EHKBR","","null","<img src=""img/flower1.png"" style=""width:200px; border:14px solid green;"">","null","","","","","","","","",""
"","image-keyboard-response","333","267645","0.0-333.0","32EYX73OY1VFU7DQQZ1HYVE5S8HURX","AMVBT3XDCQBHI","3PEG1BH7AEDCPKTV9M6N3A4F0EHKBR","","515","img/flower1.png","74","515.8000000119209","1","1","3","2","1,0,0,1,1,0,1,0,1","0,1,0,0,1,1,1,1,0","3",""
"","html-keyboard-response","334","267947","0.0-334.0","32EYX73OY1VFU7DQQZ1HYVE5S8HURX","AMVBT3XDCQBHI","3PEG1BH7AEDCPKTV9M6N3A4F0EHKBR","","null","<img src=""img/flower1.png"" style=""width:200px; border:14px solid green;"">","null","","","","","","","","",""
"","image-keyboard-response","335","268718","0.0-335.0","32EYX73OY1VFU7DQQZ1HYVE5S8HURX","AMVBT3XDCQBHI","3PEG1BH7AEDCPKTV9M6N3A4F0EHKBR","","770.1000000238419","img/flower3.png","76","770.8999999761581","3","1","2","2","1,0,0,1,1,0,1,0,1","0,1,0,0,1,1,1,1,0","3",""
"","html-keyboard-response","336","269020","0.0-336.0","32EYX73OY1VFU7DQQZ1HYVE5S8HURX","AMVBT3XDCQBHI","3PEG1BH7AEDCPKTV9M6N3A4F0EHKBR","","null","<img src=""img/flower3.png"" style=""width:200px; border:14px solid green;"">","null","","","","","","","","",""
"","image-keyboard-response","337","270473","0.0-337.0","32EYX73OY1VFU7DQQZ1HYVE5S8HURX","AMVBT3XDCQBHI","3PEG1BH7AEDCPKTV9M6N3A4F0EHKBR","","1452.699999988079","img/flower2.png","75","1453.6000000238419","2","1","1","2","1,0,0,1,1,0,1,0,1","0,1,0,0,1,1,1,1,0","3",""
"","html-keyboard-response","338","270775","0.0-338.0","32EYX73OY1VFU7DQQZ1HYVE5S8HURX","AMVBT3XDCQBHI","3PEG1BH7AEDCPKTV9M6N3A4F0EHKBR","","null","<img src=""img/flower2.png"" style=""width:200px; border:14px solid green;"">","null","","","","","","","","",""
"","image-keyboard-response","339","271680","0.0-339.0","32EYX73OY1VFU7DQQZ1HYVE5S8HURX","AMVBT3XDCQBHI","3PEG1BH7AEDCPKTV9M6N3A4F0EHKBR","","904","img/flower1.png","74","904.9000000357628","1","1","3","2","1,0,0,1,1,0,1,0,1","0,1,0,0,1,1,1,1,0","3",""
"","html-keyboard-response","340","271981","0.0-340.0","32EYX73OY1VFU7DQQZ1HYVE5S8HURX","AMVBT3XDCQBHI","3PEG1BH7AEDCPKTV9M6N3A4F0EHKBR","","null","<img src=""img/flower1.png"" style=""width:200px; border:14px solid green;"">","null","","","","","","","","",""
"","image-keyboard-response","341","272551","0.0-341.0","32EYX73OY1VFU7DQQZ1HYVE5S8HURX","AMVBT3XDCQBHI","3PEG1BH7AEDCPKTV9M6N3A4F0EHKBR","","569","img/flower1.png","74","569.8000000119209","1","1","3","2","1,0,0,1,1,0,1,0,1","0,1,0,0,1,1,1,1,0","3",""
"","html-keyboard-response","342","272854","0.0-342.0","32EYX73OY1VFU7DQQZ1HYVE5S8HURX","AMVBT3XDCQBHI","3PEG1BH7AEDCPKTV9M6N3A4F0EHKBR","","null","<img src=""img/flower1.png"" style=""width:200px; border:14px solid green;"">","null","","","","","","","","",""
"","image-keyboard-response","343","273940","0.0-343.0","32EYX73OY1VFU7DQQZ1HYVE5S8HURX","AMVBT3XDCQBHI","3PEG1BH7AEDCPKTV9M6N3A4F0EHKBR","","1085.199999988079","img/flower2.png","75","1086","2","1","1","2","1,0,0,1,1,0,1,0,1","0,1,0,0,1,1,1,1,0","3",""
"","html-keyboard-response","344","274242","0.0-344.0","32EYX73OY1VFU7DQQZ1HYVE5S8HURX","AMVBT3XDCQBHI","3PEG1BH7AEDCPKTV9M6N3A4F0EHKBR","","null","<img src=""img/flower2.png"" style=""width:200px; border:14px solid green;"">","null","","","","","","","","",""
"","image-keyboard-response","345","274959","0.0-345.0","32EYX73OY1VFU7DQQZ1HYVE5S8HURX","AMVBT3XDCQBHI","3PEG1BH7AEDCPKTV9M6N3A4F0EHKBR","","716.4000000357628","img/flower3.png","76","717.3000000119209","3","1","2","2","1,0,0,1,1,0,1,0,1","0,1,0,0,1,1,1,1,0","3",""
"","html-keyboard-response","346","275261","0.0-346.0","32EYX73OY1VFU7DQQZ1HYVE5S8HURX","AMVBT3XDCQBHI","3PEG1BH7AEDCPKTV9M6N3A4F0EHKBR","","null","<img src=""img/flower3.png"" style=""width:200px; border:14px solid green;"">","null","","","","","","","","",""
"","image-keyboard-response","347","275864","0.0-347.0","32EYX73OY1VFU7DQQZ1HYVE5S8HURX","AMVBT3XDCQBHI","3PEG1BH7AEDCPKTV9M6N3A4F0EHKBR","","601.8000000119209","img/flower3.png","76","602.8999999761581","3","1","2","2","1,0,0,1,1,0,1,0,1","0,1,0,0,1,1,1,1,0","3",""
"","html-keyboard-response","348","276166","0.0-348.0","32EYX73OY1VFU7DQQZ1HYVE5S8HURX","AMVBT3XDCQBHI","3PEG1BH7AEDCPKTV9M6N3A4F0EHKBR","","null","<img src=""img/flower3.png"" style=""width:200px; border:14px solid green;"">","null","","","","","","","","",""
"","image-keyboard-response","349","276950","0.0-349.0","32EYX73OY1VFU7DQQZ1HYVE5S8HURX","AMVBT3XDCQBHI","3PEG1BH7AEDCPKTV9M6N3A4F0EHKBR","","782.8999999761581","img/flower2.png","75","783.6000000238419","2","1","1","2","1,0,0,1,1,0,1,0,1","0,1,0,0,1,1,1,1,0","3",""
"","html-keyboard-response","350","277251","0.0-350.0","32EYX73OY1VFU7DQQZ1HYVE5S8HURX","AMVBT3XDCQBHI","3PEG1BH7AEDCPKTV9M6N3A4F0EHKBR","","null","<img src=""img/flower2.png"" style=""width:200px; border:14px solid green;"">","null","","","","","","","","",""
"","image-keyboard-response","351","278043","0.0-351.0","32EYX73OY1VFU7DQQZ1HYVE5S8HURX","AMVBT3XDCQBHI","3PEG1BH7AEDCPKTV9M6N3A4F0EHKBR","","790.1999999880791","img/flower1.png","74","791.3999999761581","1","1","3","2","1,0,0,1,1,0,1,0,1","0,1,0,0,1,1,1,1,0","3",""
"","html-keyboard-response","352","278344","0.0-352.0","32EYX73OY1VFU7DQQZ1HYVE5S8HURX","AMVBT3XDCQBHI","3PEG1BH7AEDCPKTV9M6N3A4F0EHKBR","","null","<img src=""img/flower1.png"" style=""width:200px; border:14px solid green;"">","null","","","","","","","","",""
"","image-keyboard-response","353","278957","0.0-353.0","32EYX73OY1VFU7DQQZ1HYVE5S8HURX","AMVBT3XDCQBHI","3PEG1BH7AEDCPKTV9M6N3A4F0EHKBR","","611.6000000238419","img/flower1.png","74","612.4000000357628","1","1","3","2","1,0,0,1,1,0,1,0,1","0,1,0,0,1,1,1,1,0","3",""
"","html-keyboard-response","354","279258","0.0-354.0","32EYX73OY1VFU7DQQZ1HYVE5S8HURX","AMVBT3XDCQBHI","3PEG1BH7AEDCPKTV9M6N3A4F0EHKBR","","null","<img src=""img/flower1.png"" style=""width:200px; border:14px solid green;"">","null","","","","","","","","",""
"","image-keyboard-response","355","279817","0.0-355.0","32EYX73OY1VFU7DQQZ1HYVE5S8HURX","AMVBT3XDCQBHI","3PEG1BH7AEDCPKTV9M6N3A4F0EHKBR","","557.8999999761581","img/flower1.png","74","558.8000000119209","1","1","3","2","1,0,0,1,1,0,1,0,1","0,1,0,0,1,1,1,1,0","3",""
"","html-keyboard-response","356","280119","0.0-356.0","32EYX73OY1VFU7DQQZ1HYVE5S8HURX","AMVBT3XDCQBHI","3PEG1BH7AEDCPKTV9M6N3A4F0EHKBR","","null","<img src=""img/flower1.png"" style=""width:200px; border:14px solid green;"">","null","","","","","","","","",""
"","image-keyboard-response","357","280866","0.0-357.0","32EYX73OY1VFU7DQQZ1HYVE5S8HURX","AMVBT3XDCQBHI","3PEG1BH7AEDCPKTV9M6N3A4F0EHKBR","","745.8999999761581","img/flower3.png","76","746.6000000238419","3","1","2","2","1,0,0,1,1,0,1,0,1","0,1,0,0,1,1,1,1,0","3",""
"","html-keyboard-response","358","281167","0.0-358.0","32EYX73OY1VFU7DQQZ1HYVE5S8HURX","AMVBT3XDCQBHI","3PEG1BH7AEDCPKTV9M6N3A4F0EHKBR","","null","<img src=""img/flower3.png"" style=""width:200px; border:14px solid green;"">","null","","","","","","","","",""
"","image-keyboard-response","359","281718","0.0-359.0","32EYX73OY1VFU7DQQZ1HYVE5S8HURX","AMVBT3XDCQBHI","3PEG1BH7AEDCPKTV9M6N3A4F0EHKBR","","549.8000000119209","img/flower3.png","76","550.6999999880791","3","1","2","2","1,0,0,1,1,0,1,0,1","0,1,0,0,1,1,1,1,0","3",""
"","html-keyboard-response","360","282019","0.0-360.0","32EYX73OY1VFU7DQQZ1HYVE5S8HURX","AMVBT3XDCQBHI","3PEG1BH7AEDCPKTV9M6N3A4F0EHKBR","","null","<img src=""img/flower3.png"" style=""width:200px; border:14px solid green;"">","null","","","","","","","","",""
"","image-keyboard-response","361","282794","0.0-361.0","32EYX73OY1VFU7DQQZ1HYVE5S8HURX","AMVBT3XDCQBHI","3PEG1BH7AEDCPKTV9M6N3A4F0EHKBR","","774","img/flower1.png","74","774.7999999523163","1","1","3","2","1,0,0,1,1,0,1,0,1","0,1,0,0,1,1,1,1,0","3",""
"","html-keyboard-response","362","283095","0.0-362.0","32EYX73OY1VFU7DQQZ1HYVE5S8HURX","AMVBT3XDCQBHI","3PEG1BH7AEDCPKTV9M6N3A4F0EHKBR","","null","<img src=""img/flower1.png"" style=""width:200px; border:14px solid green;"">","null","","","","","","","","",""
"","instructions","363","289443","0.0-363.0","32EYX73OY1VFU7DQQZ1HYVE5S8HURX","AMVBT3XDCQBHI","3PEG1BH7AEDCPKTV9M6N3A4F0EHKBR","[{""page_index"":0,""viewing_time"":6347.099999964237}]","6347.399999976158","","","","","","","","","","",""
"","survey-text","364","295850","0.0-364.0","32EYX73OY1VFU7DQQZ1HYVE5S8HURX","AMVBT3XDCQBHI","3PEG1BH7AEDCPKTV9M6N3A4F0EHKBR","","6401.699999988079","","","","","","","","","","","{""Q0"":""AMVBT3XDCQBHI""}"
