"success","trial_type","trial_index","time_elapsed","internal_node_id","assignmentID","mturkID","hitID","view_history","rt","stimulus","key_press","reactionTime","a","r","s","cond","reward_cond","reward_cond_actual","reward_matrix_idx","responses"
"true","fullscreen","0","4702","0.0-0.0","3A4NIXBJ77LLE1D4CDDZL9OC9RHLMS","ANGJEGCCP3AO2","3TKXBROM5TWR181JXBYSOI8FGFVJIU","","","","","","","","","","","","",""
"","instructions","1","84918","0.0-1.0","3A4NIXBJ77LLE1D4CDDZL9OC9RHLMS","ANGJEGCCP3AO2","3TKXBROM5TWR181JXBYSOI8FGFVJIU","[{""page_index"":0,""viewing_time"":15157.59999999404},{""page_index"":1,""viewing_time"":2028.2999999970198},{""page_index"":2,""viewing_time"":445.5},{""page_index"":3,""viewing_time"":2288.2000000029802},{""page_index"":4,""viewing_time"":5235.5999999940395},{""page_index"":5,""viewing_time"":8262.40000000596},{""page_index"":6,""viewing_time"":2875.7999999970198},{""page_index"":7,""viewing_time"":43918.60000000894}]","80213.59999999404","","","","","","","","","","",""
"","image-keyboard-response","2","86923","0.0-2.0","3A4NIXBJ77LLE1D4CDDZL9OC9RHLMS","ANGJEGCCP3AO2","3TKXBROM5TWR181JXBYSOI8FGFVJIU","","","img/flower5.png","","2004","-1","0","3","2","1,0,0,1,1,0,1,0,1","0,1,0,0,1,1,1,1,0","3",""
"","html-keyboard-response","3","87229","0.0-3.0","3A4NIXBJ77LLE1D4CDDZL9OC9RHLMS","ANGJEGCCP3AO2","3TKXBROM5TWR181JXBYSOI8FGFVJIU","","null","<img src=""img/flower5.png"" style=""width:200px;border:14px solid red;"">","null","","","","","","","","",""
"","image-keyboard-response","4","89232","0.0-4.0","3A4NIXBJ77LLE1D4CDDZL9OC9RHLMS","ANGJEGCCP3AO2","3TKXBROM5TWR181JXBYSOI8FGFVJIU","","","img/flower3.png","","2003.1000000089407","-1","0","2","2","1,0,0,1,1,0,1,0,1","0,1,0,0,1,1,1,1,0","3",""
"","html-keyboard-response","5","89542","0.0-5.0","3A4NIXBJ77LLE1D4CDDZL9OC9RHLMS","ANGJEGCCP3AO2","3TKXBROM5TWR181JXBYSOI8FGFVJIU","","null","<img src=""img/flower3.png"" style=""width:200px;border:14px solid red;"">","null","","","","","","","","",""
"","image-keyboard-response","6","90263","0.0-6.0","3A4NIXBJ77LLE1D4CDDZL9OC9RHLMS","ANGJEGCCP3AO2","3TKXBROM5TWR181JXBYSOI8FGFVJIU","","718.7999999970198","img/flower6.png","74","721.0999999940395","1","0","1","2","1,0,0,1,1,0,1,0,1","0,1,0,0,1,1,1,1,0","3",""
"","html-keyboard-response","7","90567","0.0-7.0","3A4NIXBJ77LLE1D4CDDZL9OC9RHLMS","ANGJEGCCP3AO2","3TKXBROM5TWR181JXBYSOI8FGFVJIU","","null","<img src=""img/flower6.png"" style=""width:200px;border:14px solid red;"">","null","","","","","","","","",""
"","image-keyboard-response","8","91288","0.0-8.0","3A4NIXBJ77LLE1D4CDDZL9OC9RHLMS","ANGJEGCCP3AO2","3TKXBROM5TWR181JXBYSOI8FGFVJIU","","717.7000000029802","img/flower3.png","74","720","1","0","2","2","1,0,0,1,1,0,1,0,1","0,1,0,0,1,1,1,1,0","3",""
"","html-keyboard-response","9","91603","0.0-9.0","3A4NIXBJ77LLE1D4CDDZL9OC9RHLMS","ANGJEGCCP3AO2","3TKXBROM5TWR181JXBYSOI8FGFVJIU","","null","<img src=""img/flower3.png"" style=""width:200px;border:14px solid red;"">","null","","","","","","","","",""
"","image-keyboard-response","10","93573","0.0-10.0","3A4NIXBJ77LLE1D4CDDZL9OC9RHLMS","ANGJEGCCP3AO2","3TKXBROM5TWR181JXBYSOI8FGFVJIU","","1968.199999988079","img/flower3.png","75","1970","2","1","2","2","1,0,0,1,1,0,1,0,1","0,1,0,0,1,1,1,1,0","3",""
"","html-keyboard-response","11","93876","0.0-11.0","3A4NIXBJ77LLE1D4CDDZL9OC9RHLMS","ANGJEGCCP3AO2","3TKXBROM5TWR181JXBYSOI8FGFVJIU","","null","<img src=""img/flower3.png"" style=""width:200px; border:14px solid green;"">","null","","","","","","","","",""
"","image-keyboard-response","12","94798","0.0-12.0","3A4NIXBJ77LLE1D4CDDZL9OC9RHLMS","ANGJEGCCP3AO2","3TKXBROM5TWR181JXBYSOI8FGFVJIU","","919.2999999970198","img/flower5.png","74","921.2000000029802","1","1","3","2","1,0,0,1,1,0,1,0,1","0,1,0,0,1,1,1,1,0","3",""
"","html-keyboard-response","13","95100","0.0-13.0","3A4NIXBJ77LLE1D4CDDZL9OC9RHLMS","ANGJEGCCP3AO2","3TKXBROM5TWR181JXBYSOI8FGFVJIU","","null","<img src=""img/flower5.png"" style=""width:200px; border:14px solid green;"">","null","","","","","","","","",""
"","image-keyboard-response","14","96689","0.0-14.0","3A4NIXBJ77LLE1D4CDDZL9OC9RHLMS","ANGJEGCCP3AO2","3TKXBROM5TWR181JXBYSOI8FGFVJIU","","1585.6000000089407","img/flower5.png","74","1587.9000000059605","1","1","3","2","1,0,0,1,1,0,1,0,1","0,1,0,0,1,1,1,1,0","3",""
"","html-keyboard-response","15","96992","0.0-15.0","3A4NIXBJ77LLE1D4CDDZL9OC9RHLMS","ANGJEGCCP3AO2","3TKXBROM5TWR181JXBYSOI8FGFVJIU","","null","<img src=""img/flower5.png"" style=""width:200px; border:14px solid green;"">","null","","","","","","","","",""
"","image-keyboard-response","16","98995","0.0-16.0","3A4NIXBJ77LLE1D4CDDZL9OC9RHLMS","ANGJEGCCP3AO2","3TKXBROM5TWR181JXBYSOI8FGFVJIU","","","img/flower5.png","","2002.5","-1","0","3","2","1,0,0,1,1,0,1,0,1","0,1,0,0,1,1,1,1,0","3",""
"","html-keyboard-response","17","99297","0.0-17.0","3A4NIXBJ77LLE1D4CDDZL9OC9RHLMS","ANGJEGCCP3AO2","3TKXBROM5TWR181JXBYSOI8FGFVJIU","","null","<img src=""img/flower5.png"" style=""width:200px;border:14px solid red;"">","null","","","","","","","","",""
"","image-keyboard-response","18","100789","0.0-18.0","3A4NIXBJ77LLE1D4CDDZL9OC9RHLMS","ANGJEGCCP3AO2","3TKXBROM5TWR181JXBYSOI8FGFVJIU","","1489.0999999940395","img/flower5.png","74","1491.5","1","1","3","2","1,0,0,1,1,0,1,0,1","0,1,0,0,1,1,1,1,0","3",""
"","html-keyboard-response","19","101092","0.0-19.0","3A4NIXBJ77LLE1D4CDDZL9OC9RHLMS","ANGJEGCCP3AO2","3TKXBROM5TWR181JXBYSOI8FGFVJIU","","null","<img src=""img/flower5.png"" style=""width:200px; border:14px solid green;"">","null","","","","","","","","",""
"","image-keyboard-response","20","102152","0.0-20.0","3A4NIXBJ77LLE1D4CDDZL9OC9RHLMS","ANGJEGCCP3AO2","3TKXBROM5TWR181JXBYSOI8FGFVJIU","","1057.5","img/flower3.png","75","1059.6000000089407","2","1","2","2","1,0,0,1,1,0,1,0,1","0,1,0,0,1,1,1,1,0","3",""
"","html-keyboard-response","21","102456","0.0-21.0","3A4NIXBJ77LLE1D4CDDZL9OC9RHLMS","ANGJEGCCP3AO2","3TKXBROM5TWR181JXBYSOI8FGFVJIU","","null","<img src=""img/flower3.png"" style=""width:200px; border:14px solid green;"">","null","","","","","","","","",""
"","image-keyboard-response","22","103770","0.0-22.0","3A4NIXBJ77LLE1D4CDDZL9OC9RHLMS","ANGJEGCCP3AO2","3TKXBROM5TWR181JXBYSOI8FGFVJIU","","1311.0999999940395","img/flower6.png","74","1313.5999999940395","1","0","1","2","1,0,0,1,1,0,1,0,1","0,1,0,0,1,1,1,1,0","3",""
"","html-keyboard-response","23","104074","0.0-23.0","3A4NIXBJ77LLE1D4CDDZL9OC9RHLMS","ANGJEGCCP3AO2","3TKXBROM5TWR181JXBYSOI8FGFVJIU","","null","<img src=""img/flower6.png"" style=""width:200px;border:14px solid red;"">","null","","","","","","","","",""
"","image-keyboard-response","24","105061","0.0-24.0","3A4NIXBJ77LLE1D4CDDZL9OC9RHLMS","ANGJEGCCP3AO2","3TKXBROM5TWR181JXBYSOI8FGFVJIU","","984.8000000119209","img/flower5.png","75","986.6999999880791","2","1","3","2","1,0,0,1,1,0,1,0,1","0,1,0,0,1,1,1,1,0","3",""
"","html-keyboard-response","25","105363","0.0-25.0","3A4NIXBJ77LLE1D4CDDZL9OC9RHLMS","ANGJEGCCP3AO2","3TKXBROM5TWR181JXBYSOI8FGFVJIU","","null","<img src=""img/flower5.png"" style=""width:200px; border:14px solid green;"">","null","","","","","","","","",""
"","image-keyboard-response","26","106057","0.0-26.0","3A4NIXBJ77LLE1D4CDDZL9OC9RHLMS","ANGJEGCCP3AO2","3TKXBROM5TWR181JXBYSOI8FGFVJIU","","691.1000000089407","img/flower3.png","74","693.2999999970198","1","0","2","2","1,0,0,1,1,0,1,0,1","0,1,0,0,1,1,1,1,0","3",""
"","html-keyboard-response","27","106362","0.0-27.0","3A4NIXBJ77LLE1D4CDDZL9OC9RHLMS","ANGJEGCCP3AO2","3TKXBROM5TWR181JXBYSOI8FGFVJIU","","null","<img src=""img/flower3.png"" style=""width:200px;border:14px solid red;"">","null","","","","","","","","",""
"","image-keyboard-response","28","107386","0.0-28.0","3A4NIXBJ77LLE1D4CDDZL9OC9RHLMS","ANGJEGCCP3AO2","3TKXBROM5TWR181JXBYSOI8FGFVJIU","","1021.9000000059605","img/flower5.png","74","1023.9000000059605","1","1","3","2","1,0,0,1,1,0,1,0,1","0,1,0,0,1,1,1,1,0","3",""
"","html-keyboard-response","29","107692","0.0-29.0","3A4NIXBJ77LLE1D4CDDZL9OC9RHLMS","ANGJEGCCP3AO2","3TKXBROM5TWR181JXBYSOI8FGFVJIU","","null","<img src=""img/flower5.png"" style=""width:200px; border:14px solid green;"">","null","","","","","","","","",""
"","image-keyboard-response","30","108795","0.0-30.0","3A4NIXBJ77LLE1D4CDDZL9OC9RHLMS","ANGJEGCCP3AO2","3TKXBROM5TWR181JXBYSOI8FGFVJIU","","1100.2999999970198","img/flower6.png","75","1102","2","1","1","2","1,0,0,1,1,0,1,0,1","0,1,0,0,1,1,1,1,0","3",""
"","html-keyboard-response","31","109101","0.0-31.0","3A4NIXBJ77LLE1D4CDDZL9OC9RHLMS","ANGJEGCCP3AO2","3TKXBROM5TWR181JXBYSOI8FGFVJIU","","null","<img src=""img/flower6.png"" style=""width:200px; border:14px solid green;"">","null","","","","","","","","",""
"","image-keyboard-response","32","109881","0.0-32.0","3A4NIXBJ77LLE1D4CDDZL9OC9RHLMS","ANGJEGCCP3AO2","3TKXBROM5TWR181JXBYSOI8FGFVJIU","","777.1999999880791","img/flower3.png","74","779.2000000029802","1","0","2","2","1,0,0,1,1,0,1,0,1","0,1,0,0,1,1,1,1,0","3",""
"","html-keyboard-response","33","110185","0.0-33.0","3A4NIXBJ77LLE1D4CDDZL9OC9RHLMS","ANGJEGCCP3AO2","3TKXBROM5TWR181JXBYSOI8FGFVJIU","","null","<img src=""img/flower3.png"" style=""width:200px;border:14px solid red;"">","null","","","","","","","","",""
"","image-keyboard-response","34","111024","0.0-34.0","3A4NIXBJ77LLE1D4CDDZL9OC9RHLMS","ANGJEGCCP3AO2","3TKXBROM5TWR181JXBYSOI8FGFVJIU","","837.0999999940395","img/flower6.png","75","838.8000000119209","2","1","1","2","1,0,0,1,1,0,1,0,1","0,1,0,0,1,1,1,1,0","3",""
"","html-keyboard-response","35","111328","0.0-35.0","3A4NIXBJ77LLE1D4CDDZL9OC9RHLMS","ANGJEGCCP3AO2","3TKXBROM5TWR181JXBYSOI8FGFVJIU","","null","<img src=""img/flower6.png"" style=""width:200px; border:14px solid green;"">","null","","","","","","","","",""
"","image-keyboard-response","36","112189","0.0-36.0","3A4NIXBJ77LLE1D4CDDZL9OC9RHLMS","ANGJEGCCP3AO2","3TKXBROM5TWR181JXBYSOI8FGFVJIU","","858.9000000059605","img/flower3.png","75","860.9000000059605","2","1","2","2","1,0,0,1,1,0,1,0,1","0,1,0,0,1,1,1,1,0","3",""
"","html-keyboard-response","37","112493","0.0-37.0","3A4NIXBJ77LLE1D4CDDZL9OC9RHLMS","ANGJEGCCP3AO2","3TKXBROM5TWR181JXBYSOI8FGFVJIU","","null","<img src=""img/flower3.png"" style=""width:200px; border:14px solid green;"">","null","","","","","","","","",""
"","image-keyboard-response","38","113377","0.0-38.0","3A4NIXBJ77LLE1D4CDDZL9OC9RHLMS","ANGJEGCCP3AO2","3TKXBROM5TWR181JXBYSOI8FGFVJIU","","881.5","img/flower3.png","75","883.5","2","1","2","2","1,0,0,1,1,0,1,0,1","0,1,0,0,1,1,1,1,0","3",""
"","html-keyboard-response","39","113680","0.0-39.0","3A4NIXBJ77LLE1D4CDDZL9OC9RHLMS","ANGJEGCCP3AO2","3TKXBROM5TWR181JXBYSOI8FGFVJIU","","null","<img src=""img/flower3.png"" style=""width:200px; border:14px solid green;"">","null","","","","","","","","",""
"","image-keyboard-response","40","114431","0.0-40.0","3A4NIXBJ77LLE1D4CDDZL9OC9RHLMS","ANGJEGCCP3AO2","3TKXBROM5TWR181JXBYSOI8FGFVJIU","","748.5","img/flower3.png","75","750.6000000089407","2","1","2","2","1,0,0,1,1,0,1,0,1","0,1,0,0,1,1,1,1,0","3",""
"","html-keyboard-response","41","114739","0.0-41.0","3A4NIXBJ77LLE1D4CDDZL9OC9RHLMS","ANGJEGCCP3AO2","3TKXBROM5TWR181JXBYSOI8FGFVJIU","","null","<img src=""img/flower3.png"" style=""width:200px; border:14px solid green;"">","null","","","","","","","","",""
"","image-keyboard-response","42","115556","0.0-42.0","3A4NIXBJ77LLE1D4CDDZL9OC9RHLMS","ANGJEGCCP3AO2","3TKXBROM5TWR181JXBYSOI8FGFVJIU","","815.0999999940395","img/flower5.png","74","816.7999999970198","1","1","3","2","1,0,0,1,1,0,1,0,1","0,1,0,0,1,1,1,1,0","3",""
"","html-keyboard-response","43","115859","0.0-43.0","3A4NIXBJ77LLE1D4CDDZL9OC9RHLMS","ANGJEGCCP3AO2","3TKXBROM5TWR181JXBYSOI8FGFVJIU","","null","<img src=""img/flower5.png"" style=""width:200px; border:14px solid green;"">","null","","","","","","","","",""
"","image-keyboard-response","44","116429","0.0-44.0","3A4NIXBJ77LLE1D4CDDZL9OC9RHLMS","ANGJEGCCP3AO2","3TKXBROM5TWR181JXBYSOI8FGFVJIU","","568.3999999910593","img/flower3.png","74","570.1000000089407","1","0","2","2","1,0,0,1,1,0,1,0,1","0,1,0,0,1,1,1,1,0","3",""
"","html-keyboard-response","45","116733","0.0-45.0","3A4NIXBJ77LLE1D4CDDZL9OC9RHLMS","ANGJEGCCP3AO2","3TKXBROM5TWR181JXBYSOI8FGFVJIU","","null","<img src=""img/flower3.png"" style=""width:200px;border:14px solid red;"">","null","","","","","","","","",""
"","image-keyboard-response","46","116958","0.0-46.0","3A4NIXBJ77LLE1D4CDDZL9OC9RHLMS","ANGJEGCCP3AO2","3TKXBROM5TWR181JXBYSOI8FGFVJIU","","222.79999999701977","img/flower5.png","75","224.6000000089407","2","1","3","2","1,0,0,1,1,0,1,0,1","0,1,0,0,1,1,1,1,0","3",""
"","html-keyboard-response","47","117261","0.0-47.0","3A4NIXBJ77LLE1D4CDDZL9OC9RHLMS","ANGJEGCCP3AO2","3TKXBROM5TWR181JXBYSOI8FGFVJIU","","null","<img src=""img/flower5.png"" style=""width:200px; border:14px solid green;"">","null","","","","","","","","",""
"","image-keyboard-response","48","117873","0.0-48.0","3A4NIXBJ77LLE1D4CDDZL9OC9RHLMS","ANGJEGCCP3AO2","3TKXBROM5TWR181JXBYSOI8FGFVJIU","","610.1000000089407","img/flower6.png","74","611.8000000119209","1","0","1","2","1,0,0,1,1,0,1,0,1","0,1,0,0,1,1,1,1,0","3",""
"","html-keyboard-response","49","118183","0.0-49.0","3A4NIXBJ77LLE1D4CDDZL9OC9RHLMS","ANGJEGCCP3AO2","3TKXBROM5TWR181JXBYSOI8FGFVJIU","","null","<img src=""img/flower6.png"" style=""width:200px;border:14px solid red;"">","null","","","","","","","","",""
"","image-keyboard-response","50","118743","0.0-50.0","3A4NIXBJ77LLE1D4CDDZL9OC9RHLMS","ANGJEGCCP3AO2","3TKXBROM5TWR181JXBYSOI8FGFVJIU","","557.5","img/flower3.png","75","559.4000000059605","2","1","2","2","1,0,0,1,1,0,1,0,1","0,1,0,0,1,1,1,1,0","3",""
"","html-keyboard-response","51","119047","0.0-51.0","3A4NIXBJ77LLE1D4CDDZL9OC9RHLMS","ANGJEGCCP3AO2","3TKXBROM5TWR181JXBYSOI8FGFVJIU","","null","<img src=""img/flower3.png"" style=""width:200px; border:14px solid green;"">","null","","","","","","","","",""
"","image-keyboard-response","52","119602","0.0-52.0","3A4NIXBJ77LLE1D4CDDZL9OC9RHLMS","ANGJEGCCP3AO2","3TKXBROM5TWR181JXBYSOI8FGFVJIU","","553.5","img/flower5.png","74","555.2999999970198","1","1","3","2","1,0,0,1,1,0,1,0,1","0,1,0,0,1,1,1,1,0","3",""
"","html-keyboard-response","53","119919","0.0-53.0","3A4NIXBJ77LLE1D4CDDZL9OC9RHLMS","ANGJEGCCP3AO2","3TKXBROM5TWR181JXBYSOI8FGFVJIU","","null","<img src=""img/flower5.png"" style=""width:200px; border:14px solid green;"">","null","","","","","","","","",""
"","image-keyboard-response","54","120405","0.0-54.0","3A4NIXBJ77LLE1D4CDDZL9OC9RHLMS","ANGJEGCCP3AO2","3TKXBROM5TWR181JXBYSOI8FGFVJIU","","484.5","img/flower5.png","74","486.29999999701977","1","1","3","2","1,0,0,1,1,0,1,0,1","0,1,0,0,1,1,1,1,0","3",""
"","html-keyboard-response","55","120709","0.0-55.0","3A4NIXBJ77LLE1D4CDDZL9OC9RHLMS","ANGJEGCCP3AO2","3TKXBROM5TWR181JXBYSOI8FGFVJIU","","null","<img src=""img/flower5.png"" style=""width:200px; border:14px solid green;"">","null","","","","","","","","",""
"","image-keyboard-response","56","121116","0.0-56.0","3A4NIXBJ77LLE1D4CDDZL9OC9RHLMS","ANGJEGCCP3AO2","3TKXBROM5TWR181JXBYSOI8FGFVJIU","","405.6000000089407","img/flower6.png","74","407.5","1","0","1","2","1,0,0,1,1,0,1,0,1","0,1,0,0,1,1,1,1,0","3",""
"","html-keyboard-response","57","121419","0.0-57.0","3A4NIXBJ77LLE1D4CDDZL9OC9RHLMS","ANGJEGCCP3AO2","3TKXBROM5TWR181JXBYSOI8FGFVJIU","","null","<img src=""img/flower6.png"" style=""width:200px;border:14px solid red;"">","null","","","","","","","","",""
"","image-keyboard-response","58","122090","0.0-58.0","3A4NIXBJ77LLE1D4CDDZL9OC9RHLMS","ANGJEGCCP3AO2","3TKXBROM5TWR181JXBYSOI8FGFVJIU","","668.5999999940395","img/flower5.png","74","670.5999999940395","1","1","3","2","1,0,0,1,1,0,1,0,1","0,1,0,0,1,1,1,1,0","3",""
"","html-keyboard-response","59","122408","0.0-59.0","3A4NIXBJ77LLE1D4CDDZL9OC9RHLMS","ANGJEGCCP3AO2","3TKXBROM5TWR181JXBYSOI8FGFVJIU","","null","<img src=""img/flower5.png"" style=""width:200px; border:14px solid green;"">","null","","","","","","","","",""
"","image-keyboard-response","60","122759","0.0-60.0","3A4NIXBJ77LLE1D4CDDZL9OC9RHLMS","ANGJEGCCP3AO2","3TKXBROM5TWR181JXBYSOI8FGFVJIU","","349.1000000089407","img/flower3.png","75","351.29999999701977","2","1","2","2","1,0,0,1,1,0,1,0,1","0,1,0,0,1,1,1,1,0","3",""
"","html-keyboard-response","61","123063","0.0-61.0","3A4NIXBJ77LLE1D4CDDZL9OC9RHLMS","ANGJEGCCP3AO2","3TKXBROM5TWR181JXBYSOI8FGFVJIU","","null","<img src=""img/flower3.png"" style=""width:200px; border:14px solid green;"">","null","","","","","","","","",""
"","image-keyboard-response","62","123744","0.0-62.0","3A4NIXBJ77LLE1D4CDDZL9OC9RHLMS","ANGJEGCCP3AO2","3TKXBROM5TWR181JXBYSOI8FGFVJIU","","679.2000000029802","img/flower3.png","75","681.2000000029802","2","1","2","2","1,0,0,1,1,0,1,0,1","0,1,0,0,1,1,1,1,0","3",""
"","html-keyboard-response","63","124047","0.0-63.0","3A4NIXBJ77LLE1D4CDDZL9OC9RHLMS","ANGJEGCCP3AO2","3TKXBROM5TWR181JXBYSOI8FGFVJIU","","null","<img src=""img/flower3.png"" style=""width:200px; border:14px solid green;"">","null","","","","","","","","",""
"","image-keyboard-response","64","124641","0.0-64.0","3A4NIXBJ77LLE1D4CDDZL9OC9RHLMS","ANGJEGCCP3AO2","3TKXBROM5TWR181JXBYSOI8FGFVJIU","","591.2000000029802","img/flower5.png","74","593.1000000089407","1","1","3","2","1,0,0,1,1,0,1,0,1","0,1,0,0,1,1,1,1,0","3",""
"","html-keyboard-response","65","124945","0.0-65.0","3A4NIXBJ77LLE1D4CDDZL9OC9RHLMS","ANGJEGCCP3AO2","3TKXBROM5TWR181JXBYSOI8FGFVJIU","","null","<img src=""img/flower5.png"" style=""width:200px; border:14px solid green;"">","null","","","","","","","","",""
"","image-keyboard-response","66","125624","0.0-66.0","3A4NIXBJ77LLE1D4CDDZL9OC9RHLMS","ANGJEGCCP3AO2","3TKXBROM5TWR181JXBYSOI8FGFVJIU","","676.2000000029802","img/flower6.png","74","678.4000000059605","1","0","1","2","1,0,0,1,1,0,1,0,1","0,1,0,0,1,1,1,1,0","3",""
"","html-keyboard-response","67","125927","0.0-67.0","3A4NIXBJ77LLE1D4CDDZL9OC9RHLMS","ANGJEGCCP3AO2","3TKXBROM5TWR181JXBYSOI8FGFVJIU","","null","<img src=""img/flower6.png"" style=""width:200px;border:14px solid red;"">","null","","","","","","","","",""
"","image-keyboard-response","68","126667","0.0-68.0","3A4NIXBJ77LLE1D4CDDZL9OC9RHLMS","ANGJEGCCP3AO2","3TKXBROM5TWR181JXBYSOI8FGFVJIU","","737","img/flower5.png","75","739.0999999940395","2","1","3","2","1,0,0,1,1,0,1,0,1","0,1,0,0,1,1,1,1,0","3",""
"","html-keyboard-response","69","126970","0.0-69.0","3A4NIXBJ77LLE1D4CDDZL9OC9RHLMS","ANGJEGCCP3AO2","3TKXBROM5TWR181JXBYSOI8FGFVJIU","","null","<img src=""img/flower5.png"" style=""width:200px; border:14px solid green;"">","null","","","","","","","","",""
"","image-keyboard-response","70","127732","0.0-70.0","3A4NIXBJ77LLE1D4CDDZL9OC9RHLMS","ANGJEGCCP3AO2","3TKXBROM5TWR181JXBYSOI8FGFVJIU","","759.5","img/flower3.png","74","761.7000000029802","1","0","2","2","1,0,0,1,1,0,1,0,1","0,1,0,0,1,1,1,1,0","3",""
"","html-keyboard-response","71","128048","0.0-71.0","3A4NIXBJ77LLE1D4CDDZL9OC9RHLMS","ANGJEGCCP3AO2","3TKXBROM5TWR181JXBYSOI8FGFVJIU","","null","<img src=""img/flower3.png"" style=""width:200px;border:14px solid red;"">","null","","","","","","","","",""
"","image-keyboard-response","72","128854","0.0-72.0","3A4NIXBJ77LLE1D4CDDZL9OC9RHLMS","ANGJEGCCP3AO2","3TKXBROM5TWR181JXBYSOI8FGFVJIU","","803.0999999940395","img/flower6.png","74","805","1","0","1","2","1,0,0,1,1,0,1,0,1","0,1,0,0,1,1,1,1,0","3",""
"","html-keyboard-response","73","129156","0.0-73.0","3A4NIXBJ77LLE1D4CDDZL9OC9RHLMS","ANGJEGCCP3AO2","3TKXBROM5TWR181JXBYSOI8FGFVJIU","","null","<img src=""img/flower6.png"" style=""width:200px;border:14px solid red;"">","null","","","","","","","","",""
"","image-keyboard-response","74","129889","0.0-74.0","3A4NIXBJ77LLE1D4CDDZL9OC9RHLMS","ANGJEGCCP3AO2","3TKXBROM5TWR181JXBYSOI8FGFVJIU","","730.5","img/flower6.png","75","732.4000000059605","2","1","1","2","1,0,0,1,1,0,1,0,1","0,1,0,0,1,1,1,1,0","3",""
"","html-keyboard-response","75","130191","0.0-75.0","3A4NIXBJ77LLE1D4CDDZL9OC9RHLMS","ANGJEGCCP3AO2","3TKXBROM5TWR181JXBYSOI8FGFVJIU","","null","<img src=""img/flower6.png"" style=""width:200px; border:14px solid green;"">","null","","","","","","","","",""
"","image-keyboard-response","76","130903","0.0-76.0","3A4NIXBJ77LLE1D4CDDZL9OC9RHLMS","ANGJEGCCP3AO2","3TKXBROM5TWR181JXBYSOI8FGFVJIU","","709","img/flower6.png","75","711.2999999970198","2","1","1","2","1,0,0,1,1,0,1,0,1","0,1,0,0,1,1,1,1,0","3",""
"","html-keyboard-response","77","131205","0.0-77.0","3A4NIXBJ77LLE1D4CDDZL9OC9RHLMS","ANGJEGCCP3AO2","3TKXBROM5TWR181JXBYSOI8FGFVJIU","","null","<img src=""img/flower6.png"" style=""width:200px; border:14px solid green;"">","null","","","","","","","","",""
"","image-keyboard-response","78","131792","0.0-78.0","3A4NIXBJ77LLE1D4CDDZL9OC9RHLMS","ANGJEGCCP3AO2","3TKXBROM5TWR181JXBYSOI8FGFVJIU","","584.8999999910593","img/flower5.png","74","586.8999999910593","1","1","3","2","1,0,0,1,1,0,1,0,1","0,1,0,0,1,1,1,1,0","3",""
"","html-keyboard-response","79","132096","0.0-79.0","3A4NIXBJ77LLE1D4CDDZL9OC9RHLMS","ANGJEGCCP3AO2","3TKXBROM5TWR181JXBYSOI8FGFVJIU","","null","<img src=""img/flower5.png"" style=""width:200px; border:14px solid green;"">","null","","","","","","","","",""
"","image-keyboard-response","80","132818","0.0-80.0","3A4NIXBJ77LLE1D4CDDZL9OC9RHLMS","ANGJEGCCP3AO2","3TKXBROM5TWR181JXBYSOI8FGFVJIU","","719.2999999970198","img/flower6.png","74","721.3999999910593","1","0","1","2","1,0,0,1,1,0,1,0,1","0,1,0,0,1,1,1,1,0","3",""
"","html-keyboard-response","81","133122","0.0-81.0","3A4NIXBJ77LLE1D4CDDZL9OC9RHLMS","ANGJEGCCP3AO2","3TKXBROM5TWR181JXBYSOI8FGFVJIU","","null","<img src=""img/flower6.png"" style=""width:200px;border:14px solid red;"">","null","","","","","","","","",""
"","image-keyboard-response","82","133965","0.0-82.0","3A4NIXBJ77LLE1D4CDDZL9OC9RHLMS","ANGJEGCCP3AO2","3TKXBROM5TWR181JXBYSOI8FGFVJIU","","840.3000000119209","img/flower5.png","75","842.2999999970198","2","1","3","2","1,0,0,1,1,0,1,0,1","0,1,0,0,1,1,1,1,0","3",""
"","html-keyboard-response","83","134268","0.0-83.0","3A4NIXBJ77LLE1D4CDDZL9OC9RHLMS","ANGJEGCCP3AO2","3TKXBROM5TWR181JXBYSOI8FGFVJIU","","null","<img src=""img/flower5.png"" style=""width:200px; border:14px solid green;"">","null","","","","","","","","",""
"","image-keyboard-response","84","134711","0.0-84.0","3A4NIXBJ77LLE1D4CDDZL9OC9RHLMS","ANGJEGCCP3AO2","3TKXBROM5TWR181JXBYSOI8FGFVJIU","","440.20000000298023","img/flower5.png","75","442.5","2","1","3","2","1,0,0,1,1,0,1,0,1","0,1,0,0,1,1,1,1,0","3",""
"","html-keyboard-response","85","135017","0.0-85.0","3A4NIXBJ77LLE1D4CDDZL9OC9RHLMS","ANGJEGCCP3AO2","3TKXBROM5TWR181JXBYSOI8FGFVJIU","","null","<img src=""img/flower5.png"" style=""width:200px; border:14px solid green;"">","null","","","","","","","","",""
"","image-keyboard-response","86","135593","0.0-86.0","3A4NIXBJ77LLE1D4CDDZL9OC9RHLMS","ANGJEGCCP3AO2","3TKXBROM5TWR181JXBYSOI8FGFVJIU","","574","img/flower6.png","74","576.1000000089407","1","0","1","2","1,0,0,1,1,0,1,0,1","0,1,0,0,1,1,1,1,0","3",""
"","html-keyboard-response","87","135896","0.0-87.0","3A4NIXBJ77LLE1D4CDDZL9OC9RHLMS","ANGJEGCCP3AO2","3TKXBROM5TWR181JXBYSOI8FGFVJIU","","null","<img src=""img/flower6.png"" style=""width:200px;border:14px solid red;"">","null","","","","","","","","",""
"","image-keyboard-response","88","136448","0.0-88.0","3A4NIXBJ77LLE1D4CDDZL9OC9RHLMS","ANGJEGCCP3AO2","3TKXBROM5TWR181JXBYSOI8FGFVJIU","","550.1000000089407","img/flower6.png","74","552.2000000029802","1","0","1","2","1,0,0,1,1,0,1,0,1","0,1,0,0,1,1,1,1,0","3",""
"","html-keyboard-response","89","136752","0.0-89.0","3A4NIXBJ77LLE1D4CDDZL9OC9RHLMS","ANGJEGCCP3AO2","3TKXBROM5TWR181JXBYSOI8FGFVJIU","","null","<img src=""img/flower6.png"" style=""width:200px;border:14px solid red;"">","null","","","","","","","","",""
"","image-keyboard-response","90","137147","0.0-90.0","3A4NIXBJ77LLE1D4CDDZL9OC9RHLMS","ANGJEGCCP3AO2","3TKXBROM5TWR181JXBYSOI8FGFVJIU","","392.79999999701977","img/flower6.png","75","394.79999999701977","2","1","1","2","1,0,0,1,1,0,1,0,1","0,1,0,0,1,1,1,1,0","3",""
"","html-keyboard-response","91","137451","0.0-91.0","3A4NIXBJ77LLE1D4CDDZL9OC9RHLMS","ANGJEGCCP3AO2","3TKXBROM5TWR181JXBYSOI8FGFVJIU","","null","<img src=""img/flower6.png"" style=""width:200px; border:14px solid green;"">","null","","","","","","","","",""
"","image-keyboard-response","92","137900","0.0-92.0","3A4NIXBJ77LLE1D4CDDZL9OC9RHLMS","ANGJEGCCP3AO2","3TKXBROM5TWR181JXBYSOI8FGFVJIU","","446.90000000596046","img/flower6.png","74","448.79999999701977","1","0","1","2","1,0,0,1,1,0,1,0,1","0,1,0,0,1,1,1,1,0","3",""
"","html-keyboard-response","93","138204","0.0-93.0","3A4NIXBJ77LLE1D4CDDZL9OC9RHLMS","ANGJEGCCP3AO2","3TKXBROM5TWR181JXBYSOI8FGFVJIU","","null","<img src=""img/flower6.png"" style=""width:200px;border:14px solid red;"">","null","","","","","","","","",""
"","image-keyboard-response","94","138676","0.0-94.0","3A4NIXBJ77LLE1D4CDDZL9OC9RHLMS","ANGJEGCCP3AO2","3TKXBROM5TWR181JXBYSOI8FGFVJIU","","469.3999999910593","img/flower6.png","74","471.3999999910593","1","0","1","2","1,0,0,1,1,0,1,0,1","0,1,0,0,1,1,1,1,0","3",""
"","html-keyboard-response","95","138978","0.0-95.0","3A4NIXBJ77LLE1D4CDDZL9OC9RHLMS","ANGJEGCCP3AO2","3TKXBROM5TWR181JXBYSOI8FGFVJIU","","null","<img src=""img/flower6.png"" style=""width:200px;border:14px solid red;"">","null","","","","","","","","",""
"","image-keyboard-response","96","139391","0.0-96.0","3A4NIXBJ77LLE1D4CDDZL9OC9RHLMS","ANGJEGCCP3AO2","3TKXBROM5TWR181JXBYSOI8FGFVJIU","","410.19999998807907","img/flower6.png","75","412.3999999910593","2","1","1","2","1,0,0,1,1,0,1,0,1","0,1,0,0,1,1,1,1,0","3",""
"","html-keyboard-response","97","139694","0.0-97.0","3A4NIXBJ77LLE1D4CDDZL9OC9RHLMS","ANGJEGCCP3AO2","3TKXBROM5TWR181JXBYSOI8FGFVJIU","","null","<img src=""img/flower6.png"" style=""width:200px; border:14px solid green;"">","null","","","","","","","","",""
"","image-keyboard-response","98","140240","0.0-98.0","3A4NIXBJ77LLE1D4CDDZL9OC9RHLMS","ANGJEGCCP3AO2","3TKXBROM5TWR181JXBYSOI8FGFVJIU","","544.4000000059605","img/flower3.png","75","546.2999999970198","2","1","2","2","1,0,0,1,1,0,1,0,1","0,1,0,0,1,1,1,1,0","3",""
"","html-keyboard-response","99","140544","0.0-99.0","3A4NIXBJ77LLE1D4CDDZL9OC9RHLMS","ANGJEGCCP3AO2","3TKXBROM5TWR181JXBYSOI8FGFVJIU","","null","<img src=""img/flower3.png"" style=""width:200px; border:14px solid green;"">","null","","","","","","","","",""
"","image-keyboard-response","100","141033","0.0-100.0","3A4NIXBJ77LLE1D4CDDZL9OC9RHLMS","ANGJEGCCP3AO2","3TKXBROM5TWR181JXBYSOI8FGFVJIU","","487.29999999701977","img/flower6.png","75","489.1000000089407","2","1","1","2","1,0,0,1,1,0,1,0,1","0,1,0,0,1,1,1,1,0","3",""
"","html-keyboard-response","101","141336","0.0-101.0","3A4NIXBJ77LLE1D4CDDZL9OC9RHLMS","ANGJEGCCP3AO2","3TKXBROM5TWR181JXBYSOI8FGFVJIU","","null","<img src=""img/flower6.png"" style=""width:200px; border:14px solid green;"">","null","","","","","","","","",""
"","image-keyboard-response","102","141619","0.0-102.0","3A4NIXBJ77LLE1D4CDDZL9OC9RHLMS","ANGJEGCCP3AO2","3TKXBROM5TWR181JXBYSOI8FGFVJIU","","280.90000000596046","img/flower3.png","74","282.79999999701977","1","0","2","2","1,0,0,1,1,0,1,0,1","0,1,0,0,1,1,1,1,0","3",""
"","html-keyboard-response","103","141923","0.0-103.0","3A4NIXBJ77LLE1D4CDDZL9OC9RHLMS","ANGJEGCCP3AO2","3TKXBROM5TWR181JXBYSOI8FGFVJIU","","null","<img src=""img/flower3.png"" style=""width:200px;border:14px solid red;"">","null","","","","","","","","",""
"","image-keyboard-response","104","142604","0.0-104.0","3A4NIXBJ77LLE1D4CDDZL9OC9RHLMS","ANGJEGCCP3AO2","3TKXBROM5TWR181JXBYSOI8FGFVJIU","","678.5","img/flower5.png","75","680.7000000029802","2","1","3","2","1,0,0,1,1,0,1,0,1","0,1,0,0,1,1,1,1,0","3",""
"","html-keyboard-response","105","142905","0.0-105.0","3A4NIXBJ77LLE1D4CDDZL9OC9RHLMS","ANGJEGCCP3AO2","3TKXBROM5TWR181JXBYSOI8FGFVJIU","","null","<img src=""img/flower5.png"" style=""width:200px; border:14px solid green;"">","null","","","","","","","","",""
"","image-keyboard-response","106","143414","0.0-106.0","3A4NIXBJ77LLE1D4CDDZL9OC9RHLMS","ANGJEGCCP3AO2","3TKXBROM5TWR181JXBYSOI8FGFVJIU","","506.79999999701977","img/flower3.png","74","508.5","1","0","2","2","1,0,0,1,1,0,1,0,1","0,1,0,0,1,1,1,1,0","3",""
"","html-keyboard-response","107","143730","0.0-107.0","3A4NIXBJ77LLE1D4CDDZL9OC9RHLMS","ANGJEGCCP3AO2","3TKXBROM5TWR181JXBYSOI8FGFVJIU","","null","<img src=""img/flower3.png"" style=""width:200px;border:14px solid red;"">","null","","","","","","","","",""
"","image-keyboard-response","108","144288","0.0-108.0","3A4NIXBJ77LLE1D4CDDZL9OC9RHLMS","ANGJEGCCP3AO2","3TKXBROM5TWR181JXBYSOI8FGFVJIU","","556.7000000029802","img/flower6.png","75","558.5999999940395","2","1","1","2","1,0,0,1,1,0,1,0,1","0,1,0,0,1,1,1,1,0","3",""
"","html-keyboard-response","109","144592","0.0-109.0","3A4NIXBJ77LLE1D4CDDZL9OC9RHLMS","ANGJEGCCP3AO2","3TKXBROM5TWR181JXBYSOI8FGFVJIU","","null","<img src=""img/flower6.png"" style=""width:200px; border:14px solid green;"">","null","","","","","","","","",""
"","image-keyboard-response","110","145079","0.0-110.0","3A4NIXBJ77LLE1D4CDDZL9OC9RHLMS","ANGJEGCCP3AO2","3TKXBROM5TWR181JXBYSOI8FGFVJIU","","484.5","img/flower5.png","74","486.5","1","1","3","2","1,0,0,1,1,0,1,0,1","0,1,0,0,1,1,1,1,0","3",""
"","html-keyboard-response","111","145381","0.0-111.0","3A4NIXBJ77LLE1D4CDDZL9OC9RHLMS","ANGJEGCCP3AO2","3TKXBROM5TWR181JXBYSOI8FGFVJIU","","null","<img src=""img/flower5.png"" style=""width:200px; border:14px solid green;"">","null","","","","","","","","",""
"","image-keyboard-response","112","145779","0.0-112.0","3A4NIXBJ77LLE1D4CDDZL9OC9RHLMS","ANGJEGCCP3AO2","3TKXBROM5TWR181JXBYSOI8FGFVJIU","","395.40000000596046","img/flower5.png","75","397.29999999701977","2","1","3","2","1,0,0,1,1,0,1,0,1","0,1,0,0,1,1,1,1,0","3",""
"","html-keyboard-response","113","146081","0.0-113.0","3A4NIXBJ77LLE1D4CDDZL9OC9RHLMS","ANGJEGCCP3AO2","3TKXBROM5TWR181JXBYSOI8FGFVJIU","","null","<img src=""img/flower5.png"" style=""width:200px; border:14px solid green;"">","null","","","","","","","","",""
"","image-keyboard-response","114","146538","0.0-114.0","3A4NIXBJ77LLE1D4CDDZL9OC9RHLMS","ANGJEGCCP3AO2","3TKXBROM5TWR181JXBYSOI8FGFVJIU","","454.29999999701977","img/flower3.png","74","456.3999999910593","1","0","2","2","1,0,0,1,1,0,1,0,1","0,1,0,0,1,1,1,1,0","3",""
"","html-keyboard-response","115","146841","0.0-115.0","3A4NIXBJ77LLE1D4CDDZL9OC9RHLMS","ANGJEGCCP3AO2","3TKXBROM5TWR181JXBYSOI8FGFVJIU","","null","<img src=""img/flower3.png"" style=""width:200px;border:14px solid red;"">","null","","","","","","","","",""
"","image-keyboard-response","116","147321","0.0-116.0","3A4NIXBJ77LLE1D4CDDZL9OC9RHLMS","ANGJEGCCP3AO2","3TKXBROM5TWR181JXBYSOI8FGFVJIU","","478.29999999701977","img/flower6.png","74","480","1","0","1","2","1,0,0,1,1,0,1,0,1","0,1,0,0,1,1,1,1,0","3",""
"","html-keyboard-response","117","147629","0.0-117.0","3A4NIXBJ77LLE1D4CDDZL9OC9RHLMS","ANGJEGCCP3AO2","3TKXBROM5TWR181JXBYSOI8FGFVJIU","","null","<img src=""img/flower6.png"" style=""width:200px;border:14px solid red;"">","null","","","","","","","","",""
"","image-keyboard-response","118","147819","0.0-118.0","3A4NIXBJ77LLE1D4CDDZL9OC9RHLMS","ANGJEGCCP3AO2","3TKXBROM5TWR181JXBYSOI8FGFVJIU","","187.6000000089407","img/flower5.png","75","189.59999999403954","2","1","3","2","1,0,0,1,1,0,1,0,1","0,1,0,0,1,1,1,1,0","3",""
"","html-keyboard-response","119","148123","0.0-119.0","3A4NIXBJ77LLE1D4CDDZL9OC9RHLMS","ANGJEGCCP3AO2","3TKXBROM5TWR181JXBYSOI8FGFVJIU","","null","<img src=""img/flower5.png"" style=""width:200px; border:14px solid green;"">","null","","","","","","","","",""
"","image-keyboard-response","120","148648","0.0-120.0","3A4NIXBJ77LLE1D4CDDZL9OC9RHLMS","ANGJEGCCP3AO2","3TKXBROM5TWR181JXBYSOI8FGFVJIU","","522.3999999910593","img/flower3.png","75","524.1000000089407","2","1","2","2","1,0,0,1,1,0,1,0,1","0,1,0,0,1,1,1,1,0","3",""
"","html-keyboard-response","121","148951","0.0-121.0","3A4NIXBJ77LLE1D4CDDZL9OC9RHLMS","ANGJEGCCP3AO2","3TKXBROM5TWR181JXBYSOI8FGFVJIU","","null","<img src=""img/flower3.png"" style=""width:200px; border:14px solid green;"">","null","","","","","","","","",""
"","image-keyboard-response","122","149146","0.0-122.0","3A4NIXBJ77LLE1D4CDDZL9OC9RHLMS","ANGJEGCCP3AO2","3TKXBROM5TWR181JXBYSOI8FGFVJIU","","193","img/flower5.png","74","194.70000000298023","1","1","3","2","1,0,0,1,1,0,1,0,1","0,1,0,0,1,1,1,1,0","3",""
"","html-keyboard-response","123","149450","0.0-123.0","3A4NIXBJ77LLE1D4CDDZL9OC9RHLMS","ANGJEGCCP3AO2","3TKXBROM5TWR181JXBYSOI8FGFVJIU","","null","<img src=""img/flower5.png"" style=""width:200px; border:14px solid green;"">","null","","","","","","","","",""
"","image-keyboard-response","124","149870","0.0-124.0","3A4NIXBJ77LLE1D4CDDZL9OC9RHLMS","ANGJEGCCP3AO2","3TKXBROM5TWR181JXBYSOI8FGFVJIU","","417.90000000596046","img/flower3.png","74","419.70000000298023","1","0","2","2","1,0,0,1,1,0,1,0,1","0,1,0,0,1,1,1,1,0","3",""
"","html-keyboard-response","125","150173","0.0-125.0","3A4NIXBJ77LLE1D4CDDZL9OC9RHLMS","ANGJEGCCP3AO2","3TKXBROM5TWR181JXBYSOI8FGFVJIU","","null","<img src=""img/flower3.png"" style=""width:200px;border:14px solid red;"">","null","","","","","","","","",""
"","image-keyboard-response","126","150394","0.0-126.0","3A4NIXBJ77LLE1D4CDDZL9OC9RHLMS","ANGJEGCCP3AO2","3TKXBROM5TWR181JXBYSOI8FGFVJIU","","218.5","img/flower5.png","75","220.70000000298023","2","1","3","2","1,0,0,1,1,0,1,0,1","0,1,0,0,1,1,1,1,0","3",""
"","html-keyboard-response","127","150697","0.0-127.0","3A4NIXBJ77LLE1D4CDDZL9OC9RHLMS","ANGJEGCCP3AO2","3TKXBROM5TWR181JXBYSOI8FGFVJIU","","null","<img src=""img/flower5.png"" style=""width:200px; border:14px solid green;"">","null","","","","","","","","",""
"","image-keyboard-response","128","151095","0.0-128.0","3A4NIXBJ77LLE1D4CDDZL9OC9RHLMS","ANGJEGCCP3AO2","3TKXBROM5TWR181JXBYSOI8FGFVJIU","","396.29999999701977","img/flower6.png","74","398","1","0","1","2","1,0,0,1,1,0,1,0,1","0,1,0,0,1,1,1,1,0","3",""
"","html-keyboard-response","129","151399","0.0-129.0","3A4NIXBJ77LLE1D4CDDZL9OC9RHLMS","ANGJEGCCP3AO2","3TKXBROM5TWR181JXBYSOI8FGFVJIU","","null","<img src=""img/flower6.png"" style=""width:200px;border:14px solid red;"">","null","","","","","","","","",""
"","image-keyboard-response","130","151661","0.0-130.0","3A4NIXBJ77LLE1D4CDDZL9OC9RHLMS","ANGJEGCCP3AO2","3TKXBROM5TWR181JXBYSOI8FGFVJIU","","259.3999999910593","img/flower6.png","75","261.20000000298023","2","1","1","2","1,0,0,1,1,0,1,0,1","0,1,0,0,1,1,1,1,0","3",""
"","html-keyboard-response","131","151964","0.0-131.0","3A4NIXBJ77LLE1D4CDDZL9OC9RHLMS","ANGJEGCCP3AO2","3TKXBROM5TWR181JXBYSOI8FGFVJIU","","null","<img src=""img/flower6.png"" style=""width:200px; border:14px solid green;"">","null","","","","","","","","",""
"","image-keyboard-response","132","152284","0.0-132.0","3A4NIXBJ77LLE1D4CDDZL9OC9RHLMS","ANGJEGCCP3AO2","3TKXBROM5TWR181JXBYSOI8FGFVJIU","","317.40000000596046","img/flower5.png","74","319.40000000596046","1","1","3","2","1,0,0,1,1,0,1,0,1","0,1,0,0,1,1,1,1,0","3",""
"","html-keyboard-response","133","152587","0.0-133.0","3A4NIXBJ77LLE1D4CDDZL9OC9RHLMS","ANGJEGCCP3AO2","3TKXBROM5TWR181JXBYSOI8FGFVJIU","","null","<img src=""img/flower5.png"" style=""width:200px; border:14px solid green;"">","null","","","","","","","","",""
"","image-keyboard-response","134","152830","0.0-134.0","3A4NIXBJ77LLE1D4CDDZL9OC9RHLMS","ANGJEGCCP3AO2","3TKXBROM5TWR181JXBYSOI8FGFVJIU","","240.29999999701977","img/flower3.png","75","242.30000001192093","2","1","2","2","1,0,0,1,1,0,1,0,1","0,1,0,0,1,1,1,1,0","3",""
"","html-keyboard-response","135","153141","0.0-135.0","3A4NIXBJ77LLE1D4CDDZL9OC9RHLMS","ANGJEGCCP3AO2","3TKXBROM5TWR181JXBYSOI8FGFVJIU","","null","<img src=""img/flower3.png"" style=""width:200px; border:14px solid green;"">","null","","","","","","","","",""
"","image-keyboard-response","136","153498","0.0-136.0","3A4NIXBJ77LLE1D4CDDZL9OC9RHLMS","ANGJEGCCP3AO2","3TKXBROM5TWR181JXBYSOI8FGFVJIU","","354.90000000596046","img/flower3.png","75","356.59999999403954","2","1","2","2","1,0,0,1,1,0,1,0,1","0,1,0,0,1,1,1,1,0","3",""
"","html-keyboard-response","137","153801","0.0-137.0","3A4NIXBJ77LLE1D4CDDZL9OC9RHLMS","ANGJEGCCP3AO2","3TKXBROM5TWR181JXBYSOI8FGFVJIU","","null","<img src=""img/flower3.png"" style=""width:200px; border:14px solid green;"">","null","","","","","","","","",""
"","image-keyboard-response","138","154069","0.0-138.0","3A4NIXBJ77LLE1D4CDDZL9OC9RHLMS","ANGJEGCCP3AO2","3TKXBROM5TWR181JXBYSOI8FGFVJIU","","265.3999999910593","img/flower5.png","74","267.59999999403954","1","1","3","2","1,0,0,1,1,0,1,0,1","0,1,0,0,1,1,1,1,0","3",""
"","html-keyboard-response","139","154372","0.0-139.0","3A4NIXBJ77LLE1D4CDDZL9OC9RHLMS","ANGJEGCCP3AO2","3TKXBROM5TWR181JXBYSOI8FGFVJIU","","null","<img src=""img/flower5.png"" style=""width:200px; border:14px solid green;"">","null","","","","","","","","",""
"","image-keyboard-response","140","154778","0.0-140.0","3A4NIXBJ77LLE1D4CDDZL9OC9RHLMS","ANGJEGCCP3AO2","3TKXBROM5TWR181JXBYSOI8FGFVJIU","","404.20000000298023","img/flower6.png","74","406.09999999403954","1","0","1","2","1,0,0,1,1,0,1,0,1","0,1,0,0,1,1,1,1,0","3",""
"","html-keyboard-response","141","155082","0.0-141.0","3A4NIXBJ77LLE1D4CDDZL9OC9RHLMS","ANGJEGCCP3AO2","3TKXBROM5TWR181JXBYSOI8FGFVJIU","","null","<img src=""img/flower6.png"" style=""width:200px;border:14px solid red;"">","null","","","","","","","","",""
"","image-keyboard-response","142","155347","0.0-142.0","3A4NIXBJ77LLE1D4CDDZL9OC9RHLMS","ANGJEGCCP3AO2","3TKXBROM5TWR181JXBYSOI8FGFVJIU","","263.19999998807907","img/flower3.png","75","265.1000000089407","2","1","2","2","1,0,0,1,1,0,1,0,1","0,1,0,0,1,1,1,1,0","3",""
"","html-keyboard-response","143","155651","0.0-143.0","3A4NIXBJ77LLE1D4CDDZL9OC9RHLMS","ANGJEGCCP3AO2","3TKXBROM5TWR181JXBYSOI8FGFVJIU","","null","<img src=""img/flower3.png"" style=""width:200px; border:14px solid green;"">","null","","","","","","","","",""
"","image-keyboard-response","144","156187","0.0-144.0","3A4NIXBJ77LLE1D4CDDZL9OC9RHLMS","ANGJEGCCP3AO2","3TKXBROM5TWR181JXBYSOI8FGFVJIU","","533.9000000059605","img/flower6.png","75","535.6999999880791","2","1","1","2","1,0,0,1,1,0,1,0,1","0,1,0,0,1,1,1,1,0","3",""
"","html-keyboard-response","145","156491","0.0-145.0","3A4NIXBJ77LLE1D4CDDZL9OC9RHLMS","ANGJEGCCP3AO2","3TKXBROM5TWR181JXBYSOI8FGFVJIU","","null","<img src=""img/flower6.png"" style=""width:200px; border:14px solid green;"">","null","","","","","","","","",""
"","image-keyboard-response","146","156789","0.0-146.0","3A4NIXBJ77LLE1D4CDDZL9OC9RHLMS","ANGJEGCCP3AO2","3TKXBROM5TWR181JXBYSOI8FGFVJIU","","295.70000000298023","img/flower5.png","74","297.70000000298023","1","1","3","2","1,0,0,1,1,0,1,0,1","0,1,0,0,1,1,1,1,0","3",""
"","html-keyboard-response","147","157092","0.0-147.0","3A4NIXBJ77LLE1D4CDDZL9OC9RHLMS","ANGJEGCCP3AO2","3TKXBROM5TWR181JXBYSOI8FGFVJIU","","null","<img src=""img/flower5.png"" style=""width:200px; border:14px solid green;"">","null","","","","","","","","",""
"","image-keyboard-response","148","157547","0.0-148.0","3A4NIXBJ77LLE1D4CDDZL9OC9RHLMS","ANGJEGCCP3AO2","3TKXBROM5TWR181JXBYSOI8FGFVJIU","","453.59999999403954","img/flower6.png","75","455.5","2","1","1","2","1,0,0,1,1,0,1,0,1","0,1,0,0,1,1,1,1,0","3",""
"","html-keyboard-response","149","157850","0.0-149.0","3A4NIXBJ77LLE1D4CDDZL9OC9RHLMS","ANGJEGCCP3AO2","3TKXBROM5TWR181JXBYSOI8FGFVJIU","","null","<img src=""img/flower6.png"" style=""width:200px; border:14px solid green;"">","null","","","","","","","","",""
"","image-keyboard-response","150","158186","0.0-150.0","3A4NIXBJ77LLE1D4CDDZL9OC9RHLMS","ANGJEGCCP3AO2","3TKXBROM5TWR181JXBYSOI8FGFVJIU","","334.70000000298023","img/flower6.png","75","336.40000000596046","2","1","1","2","1,0,0,1,1,0,1,0,1","0,1,0,0,1,1,1,1,0","3",""
"","html-keyboard-response","151","158490","0.0-151.0","3A4NIXBJ77LLE1D4CDDZL9OC9RHLMS","ANGJEGCCP3AO2","3TKXBROM5TWR181JXBYSOI8FGFVJIU","","null","<img src=""img/flower6.png"" style=""width:200px; border:14px solid green;"">","null","","","","","","","","",""
"","image-keyboard-response","152","158722","0.0-152.0","3A4NIXBJ77LLE1D4CDDZL9OC9RHLMS","ANGJEGCCP3AO2","3TKXBROM5TWR181JXBYSOI8FGFVJIU","","230.09999999403954","img/flower3.png","74","231.79999999701977","1","0","2","2","1,0,0,1,1,0,1,0,1","0,1,0,0,1,1,1,1,0","3",""
"","html-keyboard-response","153","159026","0.0-153.0","3A4NIXBJ77LLE1D4CDDZL9OC9RHLMS","ANGJEGCCP3AO2","3TKXBROM5TWR181JXBYSOI8FGFVJIU","","null","<img src=""img/flower3.png"" style=""width:200px;border:14px solid red;"">","null","","","","","","","","",""
"","image-keyboard-response","154","159325","0.0-154.0","3A4NIXBJ77LLE1D4CDDZL9OC9RHLMS","ANGJEGCCP3AO2","3TKXBROM5TWR181JXBYSOI8FGFVJIU","","296.90000000596046","img/flower6.png","75","298.80000001192093","2","1","1","2","1,0,0,1,1,0,1,0,1","0,1,0,0,1,1,1,1,0","3",""
"","html-keyboard-response","155","159629","0.0-155.0","3A4NIXBJ77LLE1D4CDDZL9OC9RHLMS","ANGJEGCCP3AO2","3TKXBROM5TWR181JXBYSOI8FGFVJIU","","null","<img src=""img/flower6.png"" style=""width:200px; border:14px solid green;"">","null","","","","","","","","",""
"","image-keyboard-response","156","160076","0.0-156.0","3A4NIXBJ77LLE1D4CDDZL9OC9RHLMS","ANGJEGCCP3AO2","3TKXBROM5TWR181JXBYSOI8FGFVJIU","","445","img/flower3.png","74","446.90000000596046","1","0","2","2","1,0,0,1,1,0,1,0,1","0,1,0,0,1,1,1,1,0","3",""
"","html-keyboard-response","157","160380","0.0-157.0","3A4NIXBJ77LLE1D4CDDZL9OC9RHLMS","ANGJEGCCP3AO2","3TKXBROM5TWR181JXBYSOI8FGFVJIU","","null","<img src=""img/flower3.png"" style=""width:200px;border:14px solid red;"">","null","","","","","","","","",""
"","image-keyboard-response","158","160641","0.0-158.0","3A4NIXBJ77LLE1D4CDDZL9OC9RHLMS","ANGJEGCCP3AO2","3TKXBROM5TWR181JXBYSOI8FGFVJIU","","259.29999999701977","img/flower6.png","75","261.40000000596046","2","1","1","2","1,0,0,1,1,0,1,0,1","0,1,0,0,1,1,1,1,0","3",""
"","html-keyboard-response","159","160944","0.0-159.0","3A4NIXBJ77LLE1D4CDDZL9OC9RHLMS","ANGJEGCCP3AO2","3TKXBROM5TWR181JXBYSOI8FGFVJIU","","null","<img src=""img/flower6.png"" style=""width:200px; border:14px solid green;"">","null","","","","","","","","",""
"","image-keyboard-response","160","161294","0.0-160.0","3A4NIXBJ77LLE1D4CDDZL9OC9RHLMS","ANGJEGCCP3AO2","3TKXBROM5TWR181JXBYSOI8FGFVJIU","","347.29999999701977","img/flower5.png","74","349.20000000298023","1","1","3","2","1,0,0,1,1,0,1,0,1","0,1,0,0,1,1,1,1,0","3",""
"","html-keyboard-response","161","161597","0.0-161.0","3A4NIXBJ77LLE1D4CDDZL9OC9RHLMS","ANGJEGCCP3AO2","3TKXBROM5TWR181JXBYSOI8FGFVJIU","","null","<img src=""img/flower5.png"" style=""width:200px; border:14px solid green;"">","null","","","","","","","","",""
"","image-keyboard-response","162","161981","0.0-162.0","3A4NIXBJ77LLE1D4CDDZL9OC9RHLMS","ANGJEGCCP3AO2","3TKXBROM5TWR181JXBYSOI8FGFVJIU","","381.19999998807907","img/flower6.png","75","383.3999999910593","2","1","1","2","1,0,0,1,1,0,1,0,1","0,1,0,0,1,1,1,1,0","3",""
"","html-keyboard-response","163","162284","0.0-163.0","3A4NIXBJ77LLE1D4CDDZL9OC9RHLMS","ANGJEGCCP3AO2","3TKXBROM5TWR181JXBYSOI8FGFVJIU","","null","<img src=""img/flower6.png"" style=""width:200px; border:14px solid green;"">","null","","","","","","","","",""
"","image-keyboard-response","164","162607","0.0-164.0","3A4NIXBJ77LLE1D4CDDZL9OC9RHLMS","ANGJEGCCP3AO2","3TKXBROM5TWR181JXBYSOI8FGFVJIU","","320.30000001192093","img/flower3.png","74","322.29999999701977","1","0","2","2","1,0,0,1,1,0,1,0,1","0,1,0,0,1,1,1,1,0","3",""
"","html-keyboard-response","165","162910","0.0-165.0","3A4NIXBJ77LLE1D4CDDZL9OC9RHLMS","ANGJEGCCP3AO2","3TKXBROM5TWR181JXBYSOI8FGFVJIU","","null","<img src=""img/flower3.png"" style=""width:200px;border:14px solid red;"">","null","","","","","","","","",""
"","image-keyboard-response","166","163207","0.0-166.0","3A4NIXBJ77LLE1D4CDDZL9OC9RHLMS","ANGJEGCCP3AO2","3TKXBROM5TWR181JXBYSOI8FGFVJIU","","294.70000000298023","img/flower3.png","75","296.59999999403954","2","1","2","2","1,0,0,1,1,0,1,0,1","0,1,0,0,1,1,1,1,0","3",""
"","html-keyboard-response","167","163510","0.0-167.0","3A4NIXBJ77LLE1D4CDDZL9OC9RHLMS","ANGJEGCCP3AO2","3TKXBROM5TWR181JXBYSOI8FGFVJIU","","null","<img src=""img/flower3.png"" style=""width:200px; border:14px solid green;"">","null","","","","","","","","",""
"","image-keyboard-response","168","163827","0.0-168.0","3A4NIXBJ77LLE1D4CDDZL9OC9RHLMS","ANGJEGCCP3AO2","3TKXBROM5TWR181JXBYSOI8FGFVJIU","","314.70000000298023","img/flower5.png","75","316.59999999403954","2","1","3","2","1,0,0,1,1,0,1,0,1","0,1,0,0,1,1,1,1,0","3",""
"","html-keyboard-response","169","164130","0.0-169.0","3A4NIXBJ77LLE1D4CDDZL9OC9RHLMS","ANGJEGCCP3AO2","3TKXBROM5TWR181JXBYSOI8FGFVJIU","","null","<img src=""img/flower5.png"" style=""width:200px; border:14px solid green;"">","null","","","","","","","","",""
"","image-keyboard-response","170","164446","0.0-170.0","3A4NIXBJ77LLE1D4CDDZL9OC9RHLMS","ANGJEGCCP3AO2","3TKXBROM5TWR181JXBYSOI8FGFVJIU","","313.59999999403954","img/flower5.png","74","315.6000000089407","1","1","3","2","1,0,0,1,1,0,1,0,1","0,1,0,0,1,1,1,1,0","3",""
"","html-keyboard-response","171","164749","0.0-171.0","3A4NIXBJ77LLE1D4CDDZL9OC9RHLMS","ANGJEGCCP3AO2","3TKXBROM5TWR181JXBYSOI8FGFVJIU","","null","<img src=""img/flower5.png"" style=""width:200px; border:14px solid green;"">","null","","","","","","","","",""
"","image-keyboard-response","172","165084","0.0-172.0","3A4NIXBJ77LLE1D4CDDZL9OC9RHLMS","ANGJEGCCP3AO2","3TKXBROM5TWR181JXBYSOI8FGFVJIU","","332.80000001192093","img/flower3.png","75","334.6000000089407","2","1","2","2","1,0,0,1,1,0,1,0,1","0,1,0,0,1,1,1,1,0","3",""
"","html-keyboard-response","173","165386","0.0-173.0","3A4NIXBJ77LLE1D4CDDZL9OC9RHLMS","ANGJEGCCP3AO2","3TKXBROM5TWR181JXBYSOI8FGFVJIU","","null","<img src=""img/flower3.png"" style=""width:200px; border:14px solid green;"">","null","","","","","","","","",""
"","image-keyboard-response","174","165783","0.0-174.0","3A4NIXBJ77LLE1D4CDDZL9OC9RHLMS","ANGJEGCCP3AO2","3TKXBROM5TWR181JXBYSOI8FGFVJIU","","394.19999998807907","img/flower3.png","74","396","1","0","2","2","1,0,0,1,1,0,1,0,1","0,1,0,0,1,1,1,1,0","3",""
"","html-keyboard-response","175","166097","0.0-175.0","3A4NIXBJ77LLE1D4CDDZL9OC9RHLMS","ANGJEGCCP3AO2","3TKXBROM5TWR181JXBYSOI8FGFVJIU","","null","<img src=""img/flower3.png"" style=""width:200px;border:14px solid red;"">","null","","","","","","","","",""
"","image-keyboard-response","176","166525","0.0-176.0","3A4NIXBJ77LLE1D4CDDZL9OC9RHLMS","ANGJEGCCP3AO2","3TKXBROM5TWR181JXBYSOI8FGFVJIU","","426.19999998807907","img/flower3.png","75","428","2","1","2","2","1,0,0,1,1,0,1,0,1","0,1,0,0,1,1,1,1,0","3",""
"","html-keyboard-response","177","166833","0.0-177.0","3A4NIXBJ77LLE1D4CDDZL9OC9RHLMS","ANGJEGCCP3AO2","3TKXBROM5TWR181JXBYSOI8FGFVJIU","","null","<img src=""img/flower3.png"" style=""width:200px; border:14px solid green;"">","null","","","","","","","","",""
"","image-keyboard-response","178","167197","0.0-178.0","3A4NIXBJ77LLE1D4CDDZL9OC9RHLMS","ANGJEGCCP3AO2","3TKXBROM5TWR181JXBYSOI8FGFVJIU","","358.79999999701977","img/flower6.png","74","363.5","1","0","1","2","1,0,0,1,1,0,1,0,1","0,1,0,0,1,1,1,1,0","3",""
"","html-keyboard-response","179","167501","0.0-179.0","3A4NIXBJ77LLE1D4CDDZL9OC9RHLMS","ANGJEGCCP3AO2","3TKXBROM5TWR181JXBYSOI8FGFVJIU","","null","<img src=""img/flower6.png"" style=""width:200px;border:14px solid red;"">","null","","","","","","","","",""
"","image-keyboard-response","180","167814","0.0-180.0","3A4NIXBJ77LLE1D4CDDZL9OC9RHLMS","ANGJEGCCP3AO2","3TKXBROM5TWR181JXBYSOI8FGFVJIU","","310.79999999701977","img/flower5.png","75","313.1000000089407","2","1","3","2","1,0,0,1,1,0,1,0,1","0,1,0,0,1,1,1,1,0","3",""
"","html-keyboard-response","181","168118","0.0-181.0","3A4NIXBJ77LLE1D4CDDZL9OC9RHLMS","ANGJEGCCP3AO2","3TKXBROM5TWR181JXBYSOI8FGFVJIU","","null","<img src=""img/flower5.png"" style=""width:200px; border:14px solid green;"">","null","","","","","","","","",""
"","image-keyboard-response","182","168533","0.0-182.0","3A4NIXBJ77LLE1D4CDDZL9OC9RHLMS","ANGJEGCCP3AO2","3TKXBROM5TWR181JXBYSOI8FGFVJIU","","412.40000000596046","img/flower1.png","74","414.8999999910593","1","1","1","1","1,0.333,0.333,0.333,1,0.333,0.333,0.333,1","1,0.333,0.333,0.333,1,0.333,0.333,0.333,1","1",""
"","html-keyboard-response","183","168837","0.0-183.0","3A4NIXBJ77LLE1D4CDDZL9OC9RHLMS","ANGJEGCCP3AO2","3TKXBROM5TWR181JXBYSOI8FGFVJIU","","null","<img src=""img/flower1.png"" style=""width:200px; border:14px solid green;"">","null","","","","","","","","",""
"","image-keyboard-response","184","169274","0.0-184.0","3A4NIXBJ77LLE1D4CDDZL9OC9RHLMS","ANGJEGCCP3AO2","3TKXBROM5TWR181JXBYSOI8FGFVJIU","","434.79999999701977","img/flower1.png","75","436.80000001192093","2","0","1","1","1,0.333,0.333,0.333,1,0.333,0.333,0.333,1","1,0.333,0.333,0.333,1,0.333,0.333,0.333,1","1",""
"","html-keyboard-response","185","169589","0.0-185.0","3A4NIXBJ77LLE1D4CDDZL9OC9RHLMS","ANGJEGCCP3AO2","3TKXBROM5TWR181JXBYSOI8FGFVJIU","","null","<img src=""img/flower1.png"" style=""width:200px;border:14px solid red;"">","null","","","","","","","","",""
"","image-keyboard-response","186","169739","0.0-186.0","3A4NIXBJ77LLE1D4CDDZL9OC9RHLMS","ANGJEGCCP3AO2","3TKXBROM5TWR181JXBYSOI8FGFVJIU","","148.1000000089407","img/flower4.png","74","149.8999999910593","1","0","2","1","1,0.333,0.333,0.333,1,0.333,0.333,0.333,1","1,0.333,0.333,0.333,1,0.333,0.333,0.333,1","1",""
"","html-keyboard-response","187","170042","0.0-187.0","3A4NIXBJ77LLE1D4CDDZL9OC9RHLMS","ANGJEGCCP3AO2","3TKXBROM5TWR181JXBYSOI8FGFVJIU","","null","<img src=""img/flower4.png"" style=""width:200px;border:14px solid red;"">","null","","","","","","","","",""
"","image-keyboard-response","188","170403","0.0-188.0","3A4NIXBJ77LLE1D4CDDZL9OC9RHLMS","ANGJEGCCP3AO2","3TKXBROM5TWR181JXBYSOI8FGFVJIU","","358.5","img/flower4.png","75","360.5","2","1","2","1","1,0.333,0.333,0.333,1,0.333,0.333,0.333,1","1,0.333,0.333,0.333,1,0.333,0.333,0.333,1","1",""
"","html-keyboard-response","189","170720","0.0-189.0","3A4NIXBJ77LLE1D4CDDZL9OC9RHLMS","ANGJEGCCP3AO2","3TKXBROM5TWR181JXBYSOI8FGFVJIU","","null","<img src=""img/flower4.png"" style=""width:200px; border:14px solid green;"">","null","","","","","","","","",""
"","image-keyboard-response","190","171061","0.0-190.0","3A4NIXBJ77LLE1D4CDDZL9OC9RHLMS","ANGJEGCCP3AO2","3TKXBROM5TWR181JXBYSOI8FGFVJIU","","338.40000000596046","img/flower4.png","75","340.5","2","1","2","1","1,0.333,0.333,0.333,1,0.333,0.333,0.333,1","1,0.333,0.333,0.333,1,0.333,0.333,0.333,1","1",""
"","html-keyboard-response","191","171363","0.0-191.0","3A4NIXBJ77LLE1D4CDDZL9OC9RHLMS","ANGJEGCCP3AO2","3TKXBROM5TWR181JXBYSOI8FGFVJIU","","null","<img src=""img/flower4.png"" style=""width:200px; border:14px solid green;"">","null","","","","","","","","",""
"","image-keyboard-response","192","171749","0.0-192.0","3A4NIXBJ77LLE1D4CDDZL9OC9RHLMS","ANGJEGCCP3AO2","3TKXBROM5TWR181JXBYSOI8FGFVJIU","","383.40000000596046","img/flower2.png","75","385.5","2","0","3","1","1,0.333,0.333,0.333,1,0.333,0.333,0.333,1","1,0.333,0.333,0.333,1,0.333,0.333,0.333,1","1",""
"","html-keyboard-response","193","172052","0.0-193.0","3A4NIXBJ77LLE1D4CDDZL9OC9RHLMS","ANGJEGCCP3AO2","3TKXBROM5TWR181JXBYSOI8FGFVJIU","","null","<img src=""img/flower2.png"" style=""width:200px;border:14px solid red;"">","null","","","","","","","","",""
"","image-keyboard-response","194","172311","0.0-194.0","3A4NIXBJ77LLE1D4CDDZL9OC9RHLMS","ANGJEGCCP3AO2","3TKXBROM5TWR181JXBYSOI8FGFVJIU","","257.20000000298023","img/flower1.png","74","258.90000000596046","1","1","1","1","1,0.333,0.333,0.333,1,0.333,0.333,0.333,1","1,0.333,0.333,0.333,1,0.333,0.333,0.333,1","1",""
"","html-keyboard-response","195","172614","0.0-195.0","3A4NIXBJ77LLE1D4CDDZL9OC9RHLMS","ANGJEGCCP3AO2","3TKXBROM5TWR181JXBYSOI8FGFVJIU","","null","<img src=""img/flower1.png"" style=""width:200px; border:14px solid green;"">","null","","","","","","","","",""
"","image-keyboard-response","196","172991","0.0-196.0","3A4NIXBJ77LLE1D4CDDZL9OC9RHLMS","ANGJEGCCP3AO2","3TKXBROM5TWR181JXBYSOI8FGFVJIU","","375.29999999701977","img/flower1.png","75","377.09999999403954","2","1","1","1","1,0.333,0.333,0.333,1,0.333,0.333,0.333,1","1,0.333,0.333,0.333,1,0.333,0.333,0.333,1","1",""
"","html-keyboard-response","197","173295","0.0-197.0","3A4NIXBJ77LLE1D4CDDZL9OC9RHLMS","ANGJEGCCP3AO2","3TKXBROM5TWR181JXBYSOI8FGFVJIU","","null","<img src=""img/flower1.png"" style=""width:200px; border:14px solid green;"">","null","","","","","","","","",""
"","image-keyboard-response","198","173647","0.0-198.0","3A4NIXBJ77LLE1D4CDDZL9OC9RHLMS","ANGJEGCCP3AO2","3TKXBROM5TWR181JXBYSOI8FGFVJIU","","349.79999999701977","img/flower1.png","74","351.40000000596046","1","1","1","1","1,0.333,0.333,0.333,1,0.333,0.333,0.333,1","1,0.333,0.333,0.333,1,0.333,0.333,0.333,1","1",""
"","html-keyboard-response","199","173950","0.0-199.0","3A4NIXBJ77LLE1D4CDDZL9OC9RHLMS","ANGJEGCCP3AO2","3TKXBROM5TWR181JXBYSOI8FGFVJIU","","null","<img src=""img/flower1.png"" style=""width:200px; border:14px solid green;"">","null","","","","","","","","",""
"","image-keyboard-response","200","174311","0.0-200.0","3A4NIXBJ77LLE1D4CDDZL9OC9RHLMS","ANGJEGCCP3AO2","3TKXBROM5TWR181JXBYSOI8FGFVJIU","","357.40000000596046","img/flower2.png","75","360","2","0","3","1","1,0.333,0.333,0.333,1,0.333,0.333,0.333,1","1,0.333,0.333,0.333,1,0.333,0.333,0.333,1","1",""
"","html-keyboard-response","201","174614","0.0-201.0","3A4NIXBJ77LLE1D4CDDZL9OC9RHLMS","ANGJEGCCP3AO2","3TKXBROM5TWR181JXBYSOI8FGFVJIU","","null","<img src=""img/flower2.png"" style=""width:200px;border:14px solid red;"">","null","","","","","","","","",""
"","image-keyboard-response","202","174898","0.0-202.0","3A4NIXBJ77LLE1D4CDDZL9OC9RHLMS","ANGJEGCCP3AO2","3TKXBROM5TWR181JXBYSOI8FGFVJIU","","281.5","img/flower4.png","74","283.40000000596046","1","0","2","1","1,0.333,0.333,0.333,1,0.333,0.333,0.333,1","1,0.333,0.333,0.333,1,0.333,0.333,0.333,1","1",""
"","html-keyboard-response","203","175205","0.0-203.0","3A4NIXBJ77LLE1D4CDDZL9OC9RHLMS","ANGJEGCCP3AO2","3TKXBROM5TWR181JXBYSOI8FGFVJIU","","null","<img src=""img/flower4.png"" style=""width:200px;border:14px solid red;"">","null","","","","","","","","",""
"","image-keyboard-response","204","175657","0.0-204.0","3A4NIXBJ77LLE1D4CDDZL9OC9RHLMS","ANGJEGCCP3AO2","3TKXBROM5TWR181JXBYSOI8FGFVJIU","","449.5","img/flower2.png","74","451.40000000596046","1","0","3","1","1,0.333,0.333,0.333,1,0.333,0.333,0.333,1","1,0.333,0.333,0.333,1,0.333,0.333,0.333,1","1",""
"","html-keyboard-response","205","175959","0.0-205.0","3A4NIXBJ77LLE1D4CDDZL9OC9RHLMS","ANGJEGCCP3AO2","3TKXBROM5TWR181JXBYSOI8FGFVJIU","","null","<img src=""img/flower2.png"" style=""width:200px;border:14px solid red;"">","null","","","","","","","","",""
"","image-keyboard-response","206","176235","0.0-206.0","3A4NIXBJ77LLE1D4CDDZL9OC9RHLMS","ANGJEGCCP3AO2","3TKXBROM5TWR181JXBYSOI8FGFVJIU","","273.80000001192093","img/flower2.png","75","275.69999998807907","2","1","3","1","1,0.333,0.333,0.333,1,0.333,0.333,0.333,1","1,0.333,0.333,0.333,1,0.333,0.333,0.333,1","1",""
"","html-keyboard-response","207","176540","0.0-207.0","3A4NIXBJ77LLE1D4CDDZL9OC9RHLMS","ANGJEGCCP3AO2","3TKXBROM5TWR181JXBYSOI8FGFVJIU","","null","<img src=""img/flower2.png"" style=""width:200px; border:14px solid green;"">","null","","","","","","","","",""
"","image-keyboard-response","208","176925","0.0-208.0","3A4NIXBJ77LLE1D4CDDZL9OC9RHLMS","ANGJEGCCP3AO2","3TKXBROM5TWR181JXBYSOI8FGFVJIU","","382.90000000596046","img/flower2.png","74","385","1","1","3","1","1,0.333,0.333,0.333,1,0.333,0.333,0.333,1","1,0.333,0.333,0.333,1,0.333,0.333,0.333,1","1",""
"","html-keyboard-response","209","177228","0.0-209.0","3A4NIXBJ77LLE1D4CDDZL9OC9RHLMS","ANGJEGCCP3AO2","3TKXBROM5TWR181JXBYSOI8FGFVJIU","","null","<img src=""img/flower2.png"" style=""width:200px; border:14px solid green;"">","null","","","","","","","","",""
"","image-keyboard-response","210","177504","0.0-210.0","3A4NIXBJ77LLE1D4CDDZL9OC9RHLMS","ANGJEGCCP3AO2","3TKXBROM5TWR181JXBYSOI8FGFVJIU","","273.40000000596046","img/flower4.png","75","275.40000000596046","2","1","2","1","1,0.333,0.333,0.333,1,0.333,0.333,0.333,1","1,0.333,0.333,0.333,1,0.333,0.333,0.333,1","1",""
"","html-keyboard-response","211","177807","0.0-211.0","3A4NIXBJ77LLE1D4CDDZL9OC9RHLMS","ANGJEGCCP3AO2","3TKXBROM5TWR181JXBYSOI8FGFVJIU","","null","<img src=""img/flower4.png"" style=""width:200px; border:14px solid green;"">","null","","","","","","","","",""
"","image-keyboard-response","212","178125","0.0-212.0","3A4NIXBJ77LLE1D4CDDZL9OC9RHLMS","ANGJEGCCP3AO2","3TKXBROM5TWR181JXBYSOI8FGFVJIU","","315.20000000298023","img/flower1.png","74","317.1000000089407","1","1","1","1","1,0.333,0.333,0.333,1,0.333,0.333,0.333,1","1,0.333,0.333,0.333,1,0.333,0.333,0.333,1","1",""
"","html-keyboard-response","213","178428","0.0-213.0","3A4NIXBJ77LLE1D4CDDZL9OC9RHLMS","ANGJEGCCP3AO2","3TKXBROM5TWR181JXBYSOI8FGFVJIU","","null","<img src=""img/flower1.png"" style=""width:200px; border:14px solid green;"">","null","","","","","","","","",""
"","image-keyboard-response","214","178805","0.0-214.0","3A4NIXBJ77LLE1D4CDDZL9OC9RHLMS","ANGJEGCCP3AO2","3TKXBROM5TWR181JXBYSOI8FGFVJIU","","375","img/flower4.png","75","377","2","1","2","1","1,0.333,0.333,0.333,1,0.333,0.333,0.333,1","1,0.333,0.333,0.333,1,0.333,0.333,0.333,1","1",""
"","html-keyboard-response","215","179109","0.0-215.0","3A4NIXBJ77LLE1D4CDDZL9OC9RHLMS","ANGJEGCCP3AO2","3TKXBROM5TWR181JXBYSOI8FGFVJIU","","null","<img src=""img/flower4.png"" style=""width:200px; border:14px solid green;"">","null","","","","","","","","",""
"","image-keyboard-response","216","179503","0.0-216.0","3A4NIXBJ77LLE1D4CDDZL9OC9RHLMS","ANGJEGCCP3AO2","3TKXBROM5TWR181JXBYSOI8FGFVJIU","","391.79999999701977","img/flower2.png","74","393.79999999701977","1","1","3","1","1,0.333,0.333,0.333,1,0.333,0.333,0.333,1","1,0.333,0.333,0.333,1,0.333,0.333,0.333,1","1",""
"","html-keyboard-response","217","179807","0.0-217.0","3A4NIXBJ77LLE1D4CDDZL9OC9RHLMS","ANGJEGCCP3AO2","3TKXBROM5TWR181JXBYSOI8FGFVJIU","","null","<img src=""img/flower2.png"" style=""width:200px; border:14px solid green;"">","null","","","","","","","","",""
"","image-keyboard-response","218","180282","0.0-218.0","3A4NIXBJ77LLE1D4CDDZL9OC9RHLMS","ANGJEGCCP3AO2","3TKXBROM5TWR181JXBYSOI8FGFVJIU","","471.8999999910593","img/flower2.png","74","474.5","1","1","3","1","1,0.333,0.333,0.333,1,0.333,0.333,0.333,1","1,0.333,0.333,0.333,1,0.333,0.333,0.333,1","1",""
"","html-keyboard-response","219","180595","0.0-219.0","3A4NIXBJ77LLE1D4CDDZL9OC9RHLMS","ANGJEGCCP3AO2","3TKXBROM5TWR181JXBYSOI8FGFVJIU","","null","<img src=""img/flower2.png"" style=""width:200px; border:14px solid green;"">","null","","","","","","","","",""
"","image-keyboard-response","220","180975","0.0-220.0","3A4NIXBJ77LLE1D4CDDZL9OC9RHLMS","ANGJEGCCP3AO2","3TKXBROM5TWR181JXBYSOI8FGFVJIU","","378.30000001192093","img/flower2.png","75","380.20000000298023","2","1","3","1","1,0.333,0.333,0.333,1,0.333,0.333,0.333,1","1,0.333,0.333,0.333,1,0.333,0.333,0.333,1","1",""
"","html-keyboard-response","221","181279","0.0-221.0","3A4NIXBJ77LLE1D4CDDZL9OC9RHLMS","ANGJEGCCP3AO2","3TKXBROM5TWR181JXBYSOI8FGFVJIU","","null","<img src=""img/flower2.png"" style=""width:200px; border:14px solid green;"">","null","","","","","","","","",""
"","image-keyboard-response","222","181968","0.0-222.0","3A4NIXBJ77LLE1D4CDDZL9OC9RHLMS","ANGJEGCCP3AO2","3TKXBROM5TWR181JXBYSOI8FGFVJIU","","687","img/flower4.png","74","688.9000000059605","1","0","2","1","1,0.333,0.333,0.333,1,0.333,0.333,0.333,1","1,0.333,0.333,0.333,1,0.333,0.333,0.333,1","1",""
"","html-keyboard-response","223","182271","0.0-223.0","3A4NIXBJ77LLE1D4CDDZL9OC9RHLMS","ANGJEGCCP3AO2","3TKXBROM5TWR181JXBYSOI8FGFVJIU","","null","<img src=""img/flower4.png"" style=""width:200px;border:14px solid red;"">","null","","","","","","","","",""
"","image-keyboard-response","224","182654","0.0-224.0","3A4NIXBJ77LLE1D4CDDZL9OC9RHLMS","ANGJEGCCP3AO2","3TKXBROM5TWR181JXBYSOI8FGFVJIU","","381","img/flower4.png","75","383","2","1","2","1","1,0.333,0.333,0.333,1,0.333,0.333,0.333,1","1,0.333,0.333,0.333,1,0.333,0.333,0.333,1","1",""
"","html-keyboard-response","225","182964","0.0-225.0","3A4NIXBJ77LLE1D4CDDZL9OC9RHLMS","ANGJEGCCP3AO2","3TKXBROM5TWR181JXBYSOI8FGFVJIU","","null","<img src=""img/flower4.png"" style=""width:200px; border:14px solid green;"">","null","","","","","","","","",""
"","image-keyboard-response","226","183323","0.0-226.0","3A4NIXBJ77LLE1D4CDDZL9OC9RHLMS","ANGJEGCCP3AO2","3TKXBROM5TWR181JXBYSOI8FGFVJIU","","356.70000000298023","img/flower2.png","74","358.59999999403954","1","1","3","1","1,0.333,0.333,0.333,1,0.333,0.333,0.333,1","1,0.333,0.333,0.333,1,0.333,0.333,0.333,1","1",""
"","html-keyboard-response","227","183627","0.0-227.0","3A4NIXBJ77LLE1D4CDDZL9OC9RHLMS","ANGJEGCCP3AO2","3TKXBROM5TWR181JXBYSOI8FGFVJIU","","null","<img src=""img/flower2.png"" style=""width:200px; border:14px solid green;"">","null","","","","","","","","",""
"","image-keyboard-response","228","184028","0.0-228.0","3A4NIXBJ77LLE1D4CDDZL9OC9RHLMS","ANGJEGCCP3AO2","3TKXBROM5TWR181JXBYSOI8FGFVJIU","","398.5","img/flower4.png","75","400.3999999910593","2","1","2","1","1,0.333,0.333,0.333,1,0.333,0.333,0.333,1","1,0.333,0.333,0.333,1,0.333,0.333,0.333,1","1",""
"","html-keyboard-response","229","184331","0.0-229.0","3A4NIXBJ77LLE1D4CDDZL9OC9RHLMS","ANGJEGCCP3AO2","3TKXBROM5TWR181JXBYSOI8FGFVJIU","","null","<img src=""img/flower4.png"" style=""width:200px; border:14px solid green;"">","null","","","","","","","","",""
"","image-keyboard-response","230","184623","0.0-230.0","3A4NIXBJ77LLE1D4CDDZL9OC9RHLMS","ANGJEGCCP3AO2","3TKXBROM5TWR181JXBYSOI8FGFVJIU","","290.40000000596046","img/flower2.png","74","292.5","1","0","3","1","1,0.333,0.333,0.333,1,0.333,0.333,0.333,1","1,0.333,0.333,0.333,1,0.333,0.333,0.333,1","1",""
"","html-keyboard-response","231","184939","0.0-231.0","3A4NIXBJ77LLE1D4CDDZL9OC9RHLMS","ANGJEGCCP3AO2","3TKXBROM5TWR181JXBYSOI8FGFVJIU","","null","<img src=""img/flower2.png"" style=""width:200px;border:14px solid red;"">","null","","","","","","","","",""
"","image-keyboard-response","232","185313","0.0-232.0","3A4NIXBJ77LLE1D4CDDZL9OC9RHLMS","ANGJEGCCP3AO2","3TKXBROM5TWR181JXBYSOI8FGFVJIU","","371.90000000596046","img/flower1.png","74","373.80000001192093","1","1","1","1","1,0.333,0.333,0.333,1,0.333,0.333,0.333,1","1,0.333,0.333,0.333,1,0.333,0.333,0.333,1","1",""
"","html-keyboard-response","233","185617","0.0-233.0","3A4NIXBJ77LLE1D4CDDZL9OC9RHLMS","ANGJEGCCP3AO2","3TKXBROM5TWR181JXBYSOI8FGFVJIU","","null","<img src=""img/flower1.png"" style=""width:200px; border:14px solid green;"">","null","","","","","","","","",""
"","image-keyboard-response","234","186116","0.0-234.0","3A4NIXBJ77LLE1D4CDDZL9OC9RHLMS","ANGJEGCCP3AO2","3TKXBROM5TWR181JXBYSOI8FGFVJIU","","496.90000000596046","img/flower2.png","75","499.20000000298023","2","0","3","1","1,0.333,0.333,0.333,1,0.333,0.333,0.333,1","1,0.333,0.333,0.333,1,0.333,0.333,0.333,1","1",""
"","html-keyboard-response","235","186419","0.0-235.0","3A4NIXBJ77LLE1D4CDDZL9OC9RHLMS","ANGJEGCCP3AO2","3TKXBROM5TWR181JXBYSOI8FGFVJIU","","null","<img src=""img/flower2.png"" style=""width:200px;border:14px solid red;"">","null","","","","","","","","",""
"","image-keyboard-response","236","186562","0.0-236.0","3A4NIXBJ77LLE1D4CDDZL9OC9RHLMS","ANGJEGCCP3AO2","3TKXBROM5TWR181JXBYSOI8FGFVJIU","","140.59999999403954","img/flower1.png","74","142.59999999403954","1","1","1","1","1,0.333,0.333,0.333,1,0.333,0.333,0.333,1","1,0.333,0.333,0.333,1,0.333,0.333,0.333,1","1",""
"","html-keyboard-response","237","186867","0.0-237.0","3A4NIXBJ77LLE1D4CDDZL9OC9RHLMS","ANGJEGCCP3AO2","3TKXBROM5TWR181JXBYSOI8FGFVJIU","","null","<img src=""img/flower1.png"" style=""width:200px; border:14px solid green;"">","null","","","","","","","","",""
"","image-keyboard-response","238","187202","0.0-238.0","3A4NIXBJ77LLE1D4CDDZL9OC9RHLMS","ANGJEGCCP3AO2","3TKXBROM5TWR181JXBYSOI8FGFVJIU","","332.40000000596046","img/flower2.png","74","335","1","0","3","1","1,0.333,0.333,0.333,1,0.333,0.333,0.333,1","1,0.333,0.333,0.333,1,0.333,0.333,0.333,1","1",""
"","html-keyboard-response","239","187520","0.0-239.0","3A4NIXBJ77LLE1D4CDDZL9OC9RHLMS","ANGJEGCCP3AO2","3TKXBROM5TWR181JXBYSOI8FGFVJIU","","null","<img src=""img/flower2.png"" style=""width:200px;border:14px solid red;"">","null","","","","","","","","",""
"","image-keyboard-response","240","187882","0.0-240.0","3A4NIXBJ77LLE1D4CDDZL9OC9RHLMS","ANGJEGCCP3AO2","3TKXBROM5TWR181JXBYSOI8FGFVJIU","","360","img/flower4.png","74","362.20000000298023","1","1","2","1","1,0.333,0.333,0.333,1,0.333,0.333,0.333,1","1,0.333,0.333,0.333,1,0.333,0.333,0.333,1","1",""
"","html-keyboard-response","241","188185","0.0-241.0","3A4NIXBJ77LLE1D4CDDZL9OC9RHLMS","ANGJEGCCP3AO2","3TKXBROM5TWR181JXBYSOI8FGFVJIU","","null","<img src=""img/flower4.png"" style=""width:200px; border:14px solid green;"">","null","","","","","","","","",""
"","image-keyboard-response","242","188571","0.0-242.0","3A4NIXBJ77LLE1D4CDDZL9OC9RHLMS","ANGJEGCCP3AO2","3TKXBROM5TWR181JXBYSOI8FGFVJIU","","383.6000000089407","img/flower1.png","74","385.70000000298023","1","1","1","1","1,0.333,0.333,0.333,1,0.333,0.333,0.333,1","1,0.333,0.333,0.333,1,0.333,0.333,0.333,1","1",""
"","html-keyboard-response","243","188875","0.0-243.0","3A4NIXBJ77LLE1D4CDDZL9OC9RHLMS","ANGJEGCCP3AO2","3TKXBROM5TWR181JXBYSOI8FGFVJIU","","null","<img src=""img/flower1.png"" style=""width:200px; border:14px solid green;"">","null","","","","","","","","",""
"","image-keyboard-response","244","189374","0.0-244.0","3A4NIXBJ77LLE1D4CDDZL9OC9RHLMS","ANGJEGCCP3AO2","3TKXBROM5TWR181JXBYSOI8FGFVJIU","","496.09999999403954","img/flower1.png","74","498.8999999910593","1","1","1","1","1,0.333,0.333,0.333,1,0.333,0.333,0.333,1","1,0.333,0.333,0.333,1,0.333,0.333,0.333,1","1",""
"","html-keyboard-response","245","189679","0.0-245.0","3A4NIXBJ77LLE1D4CDDZL9OC9RHLMS","ANGJEGCCP3AO2","3TKXBROM5TWR181JXBYSOI8FGFVJIU","","null","<img src=""img/flower1.png"" style=""width:200px; border:14px solid green;"">","null","","","","","","","","",""
"","image-keyboard-response","246","190095","0.0-246.0","3A4NIXBJ77LLE1D4CDDZL9OC9RHLMS","ANGJEGCCP3AO2","3TKXBROM5TWR181JXBYSOI8FGFVJIU","","413.70000000298023","img/flower4.png","74","415.6000000089407","1","1","2","1","1,0.333,0.333,0.333,1,0.333,0.333,0.333,1","1,0.333,0.333,0.333,1,0.333,0.333,0.333,1","1",""
"","html-keyboard-response","247","190405","0.0-247.0","3A4NIXBJ77LLE1D4CDDZL9OC9RHLMS","ANGJEGCCP3AO2","3TKXBROM5TWR181JXBYSOI8FGFVJIU","","null","<img src=""img/flower4.png"" style=""width:200px; border:14px solid green;"">","null","","","","","","","","",""
"","image-keyboard-response","248","191049","0.0-248.0","3A4NIXBJ77LLE1D4CDDZL9OC9RHLMS","ANGJEGCCP3AO2","3TKXBROM5TWR181JXBYSOI8FGFVJIU","","640.8999999910593","img/flower1.png","74","643.2000000029802","1","1","1","1","1,0.333,0.333,0.333,1,0.333,0.333,0.333,1","1,0.333,0.333,0.333,1,0.333,0.333,0.333,1","1",""
"","html-keyboard-response","249","191352","0.0-249.0","3A4NIXBJ77LLE1D4CDDZL9OC9RHLMS","ANGJEGCCP3AO2","3TKXBROM5TWR181JXBYSOI8FGFVJIU","","null","<img src=""img/flower1.png"" style=""width:200px; border:14px solid green;"">","null","","","","","","","","",""
"","image-keyboard-response","250","191624","0.0-250.0","3A4NIXBJ77LLE1D4CDDZL9OC9RHLMS","ANGJEGCCP3AO2","3TKXBROM5TWR181JXBYSOI8FGFVJIU","","269.59999999403954","img/flower2.png","75","271.5","2","1","3","1","1,0.333,0.333,0.333,1,0.333,0.333,0.333,1","1,0.333,0.333,0.333,1,0.333,0.333,0.333,1","1",""
"","html-keyboard-response","251","191928","0.0-251.0","3A4NIXBJ77LLE1D4CDDZL9OC9RHLMS","ANGJEGCCP3AO2","3TKXBROM5TWR181JXBYSOI8FGFVJIU","","null","<img src=""img/flower2.png"" style=""width:200px; border:14px solid green;"">","null","","","","","","","","",""
"","image-keyboard-response","252","192263","0.0-252.0","3A4NIXBJ77LLE1D4CDDZL9OC9RHLMS","ANGJEGCCP3AO2","3TKXBROM5TWR181JXBYSOI8FGFVJIU","","332.40000000596046","img/flower1.png","74","334.5","1","1","1","1","1,0.333,0.333,0.333,1,0.333,0.333,0.333,1","1,0.333,0.333,0.333,1,0.333,0.333,0.333,1","1",""
"","html-keyboard-response","253","192566","0.0-253.0","3A4NIXBJ77LLE1D4CDDZL9OC9RHLMS","ANGJEGCCP3AO2","3TKXBROM5TWR181JXBYSOI8FGFVJIU","","null","<img src=""img/flower1.png"" style=""width:200px; border:14px solid green;"">","null","","","","","","","","",""
"","image-keyboard-response","254","193128","0.0-254.0","3A4NIXBJ77LLE1D4CDDZL9OC9RHLMS","ANGJEGCCP3AO2","3TKXBROM5TWR181JXBYSOI8FGFVJIU","","559.7999999970198","img/flower4.png","74","561.9000000059605","1","0","2","1","1,0.333,0.333,0.333,1,0.333,0.333,0.333,1","1,0.333,0.333,0.333,1,0.333,0.333,0.333,1","1",""
"","html-keyboard-response","255","193432","0.0-255.0","3A4NIXBJ77LLE1D4CDDZL9OC9RHLMS","ANGJEGCCP3AO2","3TKXBROM5TWR181JXBYSOI8FGFVJIU","","null","<img src=""img/flower4.png"" style=""width:200px;border:14px solid red;"">","null","","","","","","","","",""
"","image-keyboard-response","256","193735","0.0-256.0","3A4NIXBJ77LLE1D4CDDZL9OC9RHLMS","ANGJEGCCP3AO2","3TKXBROM5TWR181JXBYSOI8FGFVJIU","","300.29999999701977","img/flower4.png","75","302.30000001192093","2","1","2","1","1,0.333,0.333,0.333,1,0.333,0.333,0.333,1","1,0.333,0.333,0.333,1,0.333,0.333,0.333,1","1",""
"","html-keyboard-response","257","194039","0.0-257.0","3A4NIXBJ77LLE1D4CDDZL9OC9RHLMS","ANGJEGCCP3AO2","3TKXBROM5TWR181JXBYSOI8FGFVJIU","","null","<img src=""img/flower4.png"" style=""width:200px; border:14px solid green;"">","null","","","","","","","","",""
"","image-keyboard-response","258","194324","0.0-258.0","3A4NIXBJ77LLE1D4CDDZL9OC9RHLMS","ANGJEGCCP3AO2","3TKXBROM5TWR181JXBYSOI8FGFVJIU","","283.09999999403954","img/flower4.png","74","285.09999999403954","1","1","2","1","1,0.333,0.333,0.333,1,0.333,0.333,0.333,1","1,0.333,0.333,0.333,1,0.333,0.333,0.333,1","1",""
"","html-keyboard-response","259","194628","0.0-259.0","3A4NIXBJ77LLE1D4CDDZL9OC9RHLMS","ANGJEGCCP3AO2","3TKXBROM5TWR181JXBYSOI8FGFVJIU","","null","<img src=""img/flower4.png"" style=""width:200px; border:14px solid green;"">","null","","","","","","","","",""
"","image-keyboard-response","260","195077","0.0-260.0","3A4NIXBJ77LLE1D4CDDZL9OC9RHLMS","ANGJEGCCP3AO2","3TKXBROM5TWR181JXBYSOI8FGFVJIU","","447.09999999403954","img/flower4.png","75","449.29999999701977","2","1","2","1","1,0.333,0.333,0.333,1,0.333,0.333,0.333,1","1,0.333,0.333,0.333,1,0.333,0.333,0.333,1","1",""
"","html-keyboard-response","261","195382","0.0-261.0","3A4NIXBJ77LLE1D4CDDZL9OC9RHLMS","ANGJEGCCP3AO2","3TKXBROM5TWR181JXBYSOI8FGFVJIU","","null","<img src=""img/flower4.png"" style=""width:200px; border:14px solid green;"">","null","","","","","","","","",""
"","image-keyboard-response","262","195593","0.0-262.0","3A4NIXBJ77LLE1D4CDDZL9OC9RHLMS","ANGJEGCCP3AO2","3TKXBROM5TWR181JXBYSOI8FGFVJIU","","208.5","img/flower4.png","74","210.40000000596046","1","1","2","1","1,0.333,0.333,0.333,1,0.333,0.333,0.333,1","1,0.333,0.333,0.333,1,0.333,0.333,0.333,1","1",""
"","html-keyboard-response","263","195896","0.0-263.0","3A4NIXBJ77LLE1D4CDDZL9OC9RHLMS","ANGJEGCCP3AO2","3TKXBROM5TWR181JXBYSOI8FGFVJIU","","null","<img src=""img/flower4.png"" style=""width:200px; border:14px solid green;"">","null","","","","","","","","",""
"","image-keyboard-response","264","196174","0.0-264.0","3A4NIXBJ77LLE1D4CDDZL9OC9RHLMS","ANGJEGCCP3AO2","3TKXBROM5TWR181JXBYSOI8FGFVJIU","","275.8999999910593","img/flower2.png","75","278.1000000089407","2","0","3","1","1,0.333,0.333,0.333,1,0.333,0.333,0.333,1","1,0.333,0.333,0.333,1,0.333,0.333,0.333,1","1",""
"","html-keyboard-response","265","196478","0.0-265.0","3A4NIXBJ77LLE1D4CDDZL9OC9RHLMS","ANGJEGCCP3AO2","3TKXBROM5TWR181JXBYSOI8FGFVJIU","","null","<img src=""img/flower2.png"" style=""width:200px;border:14px solid red;"">","null","","","","","","","","",""
"","image-keyboard-response","266","196770","0.0-266.0","3A4NIXBJ77LLE1D4CDDZL9OC9RHLMS","ANGJEGCCP3AO2","3TKXBROM5TWR181JXBYSOI8FGFVJIU","","289.19999998807907","img/flower4.png","74","291.40000000596046","1","1","2","1","1,0.333,0.333,0.333,1,0.333,0.333,0.333,1","1,0.333,0.333,0.333,1,0.333,0.333,0.333,1","1",""
"","html-keyboard-response","267","197073","0.0-267.0","3A4NIXBJ77LLE1D4CDDZL9OC9RHLMS","ANGJEGCCP3AO2","3TKXBROM5TWR181JXBYSOI8FGFVJIU","","null","<img src=""img/flower4.png"" style=""width:200px; border:14px solid green;"">","null","","","","","","","","",""
"","image-keyboard-response","268","197563","0.0-268.0","3A4NIXBJ77LLE1D4CDDZL9OC9RHLMS","ANGJEGCCP3AO2","3TKXBROM5TWR181JXBYSOI8FGFVJIU","","487.40000000596046","img/flower4.png","75","489.5","2","1","2","1","1,0.333,0.333,0.333,1,0.333,0.333,0.333,1","1,0.333,0.333,0.333,1,0.333,0.333,0.333,1","1",""
"","html-keyboard-response","269","197865","0.0-269.0","3A4NIXBJ77LLE1D4CDDZL9OC9RHLMS","ANGJEGCCP3AO2","3TKXBROM5TWR181JXBYSOI8FGFVJIU","","null","<img src=""img/flower4.png"" style=""width:200px; border:14px solid green;"">","null","","","","","","","","",""
"","image-keyboard-response","270","198077","0.0-270.0","3A4NIXBJ77LLE1D4CDDZL9OC9RHLMS","ANGJEGCCP3AO2","3TKXBROM5TWR181JXBYSOI8FGFVJIU","","209.79999999701977","img/flower2.png","74","211.8999999910593","1","1","3","1","1,0.333,0.333,0.333,1,0.333,0.333,0.333,1","1,0.333,0.333,0.333,1,0.333,0.333,0.333,1","1",""
"","html-keyboard-response","271","198381","0.0-271.0","3A4NIXBJ77LLE1D4CDDZL9OC9RHLMS","ANGJEGCCP3AO2","3TKXBROM5TWR181JXBYSOI8FGFVJIU","","null","<img src=""img/flower2.png"" style=""width:200px; border:14px solid green;"">","null","","","","","","","","",""
"","image-keyboard-response","272","198790","0.0-272.0","3A4NIXBJ77LLE1D4CDDZL9OC9RHLMS","ANGJEGCCP3AO2","3TKXBROM5TWR181JXBYSOI8FGFVJIU","","406.09999999403954","img/flower1.png","75","408.3999999910593","2","0","1","1","1,0.333,0.333,0.333,1,0.333,0.333,0.333,1","1,0.333,0.333,0.333,1,0.333,0.333,0.333,1","1",""
"","html-keyboard-response","273","199092","0.0-273.0","3A4NIXBJ77LLE1D4CDDZL9OC9RHLMS","ANGJEGCCP3AO2","3TKXBROM5TWR181JXBYSOI8FGFVJIU","","null","<img src=""img/flower1.png"" style=""width:200px;border:14px solid red;"">","null","","","","","","","","",""
"","image-keyboard-response","274","199368","0.0-274.0","3A4NIXBJ77LLE1D4CDDZL9OC9RHLMS","ANGJEGCCP3AO2","3TKXBROM5TWR181JXBYSOI8FGFVJIU","","273.70000000298023","img/flower4.png","74","275.70000000298023","1","0","2","1","1,0.333,0.333,0.333,1,0.333,0.333,0.333,1","1,0.333,0.333,0.333,1,0.333,0.333,0.333,1","1",""
"","html-keyboard-response","275","199671","0.0-275.0","3A4NIXBJ77LLE1D4CDDZL9OC9RHLMS","ANGJEGCCP3AO2","3TKXBROM5TWR181JXBYSOI8FGFVJIU","","null","<img src=""img/flower4.png"" style=""width:200px;border:14px solid red;"">","null","","","","","","","","",""
"","image-keyboard-response","276","200019","0.0-276.0","3A4NIXBJ77LLE1D4CDDZL9OC9RHLMS","ANGJEGCCP3AO2","3TKXBROM5TWR181JXBYSOI8FGFVJIU","","345.79999999701977","img/flower1.png","75","350.59999999403954","2","0","1","1","1,0.333,0.333,0.333,1,0.333,0.333,0.333,1","1,0.333,0.333,0.333,1,0.333,0.333,0.333,1","1",""
"","html-keyboard-response","277","200326","0.0-277.0","3A4NIXBJ77LLE1D4CDDZL9OC9RHLMS","ANGJEGCCP3AO2","3TKXBROM5TWR181JXBYSOI8FGFVJIU","","null","<img src=""img/flower1.png"" style=""width:200px;border:14px solid red;"">","null","","","","","","","","",""
"","image-keyboard-response","278","200815","0.0-278.0","3A4NIXBJ77LLE1D4CDDZL9OC9RHLMS","ANGJEGCCP3AO2","3TKXBROM5TWR181JXBYSOI8FGFVJIU","","486.8999999910593","img/flower1.png","74","488.90000000596046","1","1","1","1","1,0.333,0.333,0.333,1,0.333,0.333,0.333,1","1,0.333,0.333,0.333,1,0.333,0.333,0.333,1","1",""
"","html-keyboard-response","279","201119","0.0-279.0","3A4NIXBJ77LLE1D4CDDZL9OC9RHLMS","ANGJEGCCP3AO2","3TKXBROM5TWR181JXBYSOI8FGFVJIU","","null","<img src=""img/flower1.png"" style=""width:200px; border:14px solid green;"">","null","","","","","","","","",""
"","image-keyboard-response","280","201508","0.0-280.0","3A4NIXBJ77LLE1D4CDDZL9OC9RHLMS","ANGJEGCCP3AO2","3TKXBROM5TWR181JXBYSOI8FGFVJIU","","386.79999999701977","img/flower1.png","75","388.90000000596046","2","0","1","1","1,0.333,0.333,0.333,1,0.333,0.333,0.333,1","1,0.333,0.333,0.333,1,0.333,0.333,0.333,1","1",""
"","html-keyboard-response","281","201812","0.0-281.0","3A4NIXBJ77LLE1D4CDDZL9OC9RHLMS","ANGJEGCCP3AO2","3TKXBROM5TWR181JXBYSOI8FGFVJIU","","null","<img src=""img/flower1.png"" style=""width:200px;border:14px solid red;"">","null","","","","","","","","",""
"","image-keyboard-response","282","202038","0.0-282.0","3A4NIXBJ77LLE1D4CDDZL9OC9RHLMS","ANGJEGCCP3AO2","3TKXBROM5TWR181JXBYSOI8FGFVJIU","","223.90000000596046","img/flower4.png","74","226","1","0","2","1","1,0.333,0.333,0.333,1,0.333,0.333,0.333,1","1,0.333,0.333,0.333,1,0.333,0.333,0.333,1","1",""
"","html-keyboard-response","283","202342","0.0-283.0","3A4NIXBJ77LLE1D4CDDZL9OC9RHLMS","ANGJEGCCP3AO2","3TKXBROM5TWR181JXBYSOI8FGFVJIU","","null","<img src=""img/flower4.png"" style=""width:200px;border:14px solid red;"">","null","","","","","","","","",""
"","image-keyboard-response","284","202815","0.0-284.0","3A4NIXBJ77LLE1D4CDDZL9OC9RHLMS","ANGJEGCCP3AO2","3TKXBROM5TWR181JXBYSOI8FGFVJIU","","470.5","img/flower1.png","75","472.5","2","0","1","1","1,0.333,0.333,0.333,1,0.333,0.333,0.333,1","1,0.333,0.333,0.333,1,0.333,0.333,0.333,1","1",""
"","html-keyboard-response","285","203119","0.0-285.0","3A4NIXBJ77LLE1D4CDDZL9OC9RHLMS","ANGJEGCCP3AO2","3TKXBROM5TWR181JXBYSOI8FGFVJIU","","null","<img src=""img/flower1.png"" style=""width:200px;border:14px solid red;"">","null","","","","","","","","",""
"","image-keyboard-response","286","203427","0.0-286.0","3A4NIXBJ77LLE1D4CDDZL9OC9RHLMS","ANGJEGCCP3AO2","3TKXBROM5TWR181JXBYSOI8FGFVJIU","","305.8999999910593","img/flower4.png","74","308","1","0","2","1","1,0.333,0.333,0.333,1,0.333,0.333,0.333,1","1,0.333,0.333,0.333,1,0.333,0.333,0.333,1","1",""
"","html-keyboard-response","287","203745","0.0-287.0","3A4NIXBJ77LLE1D4CDDZL9OC9RHLMS","ANGJEGCCP3AO2","3TKXBROM5TWR181JXBYSOI8FGFVJIU","","null","<img src=""img/flower4.png"" style=""width:200px;border:14px solid red;"">","null","","","","","","","","",""
"","image-keyboard-response","288","204158","0.0-288.0","3A4NIXBJ77LLE1D4CDDZL9OC9RHLMS","ANGJEGCCP3AO2","3TKXBROM5TWR181JXBYSOI8FGFVJIU","","410.09999999403954","img/flower2.png","75","412.20000000298023","2","0","3","1","1,0.333,0.333,0.333,1,0.333,0.333,0.333,1","1,0.333,0.333,0.333,1,0.333,0.333,0.333,1","1",""
"","html-keyboard-response","289","204461","0.0-289.0","3A4NIXBJ77LLE1D4CDDZL9OC9RHLMS","ANGJEGCCP3AO2","3TKXBROM5TWR181JXBYSOI8FGFVJIU","","null","<img src=""img/flower2.png"" style=""width:200px;border:14px solid red;"">","null","","","","","","","","",""
"","image-keyboard-response","290","204795","0.0-290.0","3A4NIXBJ77LLE1D4CDDZL9OC9RHLMS","ANGJEGCCP3AO2","3TKXBROM5TWR181JXBYSOI8FGFVJIU","","332","img/flower1.png","75","334","2","0","1","1","1,0.333,0.333,0.333,1,0.333,0.333,0.333,1","1,0.333,0.333,0.333,1,0.333,0.333,0.333,1","1",""
"","html-keyboard-response","291","205099","0.0-291.0","3A4NIXBJ77LLE1D4CDDZL9OC9RHLMS","ANGJEGCCP3AO2","3TKXBROM5TWR181JXBYSOI8FGFVJIU","","null","<img src=""img/flower1.png"" style=""width:200px;border:14px solid red;"">","null","","","","","","","","",""
"","image-keyboard-response","292","205334","0.0-292.0","3A4NIXBJ77LLE1D4CDDZL9OC9RHLMS","ANGJEGCCP3AO2","3TKXBROM5TWR181JXBYSOI8FGFVJIU","","232.5","img/flower2.png","75","234.40000000596046","2","0","3","1","1,0.333,0.333,0.333,1,0.333,0.333,0.333,1","1,0.333,0.333,0.333,1,0.333,0.333,0.333,1","1",""
"","html-keyboard-response","293","205638","0.0-293.0","3A4NIXBJ77LLE1D4CDDZL9OC9RHLMS","ANGJEGCCP3AO2","3TKXBROM5TWR181JXBYSOI8FGFVJIU","","null","<img src=""img/flower2.png"" style=""width:200px;border:14px solid red;"">","null","","","","","","","","",""
"","image-keyboard-response","294","205934","0.0-294.0","3A4NIXBJ77LLE1D4CDDZL9OC9RHLMS","ANGJEGCCP3AO2","3TKXBROM5TWR181JXBYSOI8FGFVJIU","","293.1000000089407","img/flower4.png","74","295.29999999701977","1","0","2","1","1,0.333,0.333,0.333,1,0.333,0.333,0.333,1","1,0.333,0.333,0.333,1,0.333,0.333,0.333,1","1",""
"","html-keyboard-response","295","206237","0.0-295.0","3A4NIXBJ77LLE1D4CDDZL9OC9RHLMS","ANGJEGCCP3AO2","3TKXBROM5TWR181JXBYSOI8FGFVJIU","","null","<img src=""img/flower4.png"" style=""width:200px;border:14px solid red;"">","null","","","","","","","","",""
"","image-keyboard-response","296","206712","0.0-296.0","3A4NIXBJ77LLE1D4CDDZL9OC9RHLMS","ANGJEGCCP3AO2","3TKXBROM5TWR181JXBYSOI8FGFVJIU","","473.09999999403954","img/flower2.png","74","475.29999999701977","1","1","3","1","1,0.333,0.333,0.333,1,0.333,0.333,0.333,1","1,0.333,0.333,0.333,1,0.333,0.333,0.333,1","1",""
"","html-keyboard-response","297","207016","0.0-297.0","3A4NIXBJ77LLE1D4CDDZL9OC9RHLMS","ANGJEGCCP3AO2","3TKXBROM5TWR181JXBYSOI8FGFVJIU","","null","<img src=""img/flower2.png"" style=""width:200px; border:14px solid green;"">","null","","","","","","","","",""
"","image-keyboard-response","298","207506","0.0-298.0","3A4NIXBJ77LLE1D4CDDZL9OC9RHLMS","ANGJEGCCP3AO2","3TKXBROM5TWR181JXBYSOI8FGFVJIU","","488","img/flower2.png","75","490","2","0","3","1","1,0.333,0.333,0.333,1,0.333,0.333,0.333,1","1,0.333,0.333,0.333,1,0.333,0.333,0.333,1","1",""
"","html-keyboard-response","299","207810","0.0-299.0","3A4NIXBJ77LLE1D4CDDZL9OC9RHLMS","ANGJEGCCP3AO2","3TKXBROM5TWR181JXBYSOI8FGFVJIU","","null","<img src=""img/flower2.png"" style=""width:200px;border:14px solid red;"">","null","","","","","","","","",""
"","image-keyboard-response","300","208147","0.0-300.0","3A4NIXBJ77LLE1D4CDDZL9OC9RHLMS","ANGJEGCCP3AO2","3TKXBROM5TWR181JXBYSOI8FGFVJIU","","334.5","img/flower2.png","74","336.80000001192093","1","0","3","1","1,0.333,0.333,0.333,1,0.333,0.333,0.333,1","1,0.333,0.333,0.333,1,0.333,0.333,0.333,1","1",""
"","html-keyboard-response","301","208450","0.0-301.0","3A4NIXBJ77LLE1D4CDDZL9OC9RHLMS","ANGJEGCCP3AO2","3TKXBROM5TWR181JXBYSOI8FGFVJIU","","null","<img src=""img/flower2.png"" style=""width:200px;border:14px solid red;"">","null","","","","","","","","",""
"","image-keyboard-response","302","208692","0.0-302.0","3A4NIXBJ77LLE1D4CDDZL9OC9RHLMS","ANGJEGCCP3AO2","3TKXBROM5TWR181JXBYSOI8FGFVJIU","","240","img/flower4.png","74","241.79999999701977","1","1","2","1","1,0.333,0.333,0.333,1,0.333,0.333,0.333,1","1,0.333,0.333,0.333,1,0.333,0.333,0.333,1","1",""
"","html-keyboard-response","303","208995","0.0-303.0","3A4NIXBJ77LLE1D4CDDZL9OC9RHLMS","ANGJEGCCP3AO2","3TKXBROM5TWR181JXBYSOI8FGFVJIU","","null","<img src=""img/flower4.png"" style=""width:200px; border:14px solid green;"">","null","","","","","","","","",""
"","image-keyboard-response","304","209456","0.0-304.0","3A4NIXBJ77LLE1D4CDDZL9OC9RHLMS","ANGJEGCCP3AO2","3TKXBROM5TWR181JXBYSOI8FGFVJIU","","458.40000000596046","img/flower1.png","75","460.59999999403954","2","0","1","1","1,0.333,0.333,0.333,1,0.333,0.333,0.333,1","1,0.333,0.333,0.333,1,0.333,0.333,0.333,1","1",""
"","html-keyboard-response","305","209758","0.0-305.0","3A4NIXBJ77LLE1D4CDDZL9OC9RHLMS","ANGJEGCCP3AO2","3TKXBROM5TWR181JXBYSOI8FGFVJIU","","null","<img src=""img/flower1.png"" style=""width:200px;border:14px solid red;"">","null","","","","","","","","",""
"","image-keyboard-response","306","210035","0.0-306.0","3A4NIXBJ77LLE1D4CDDZL9OC9RHLMS","ANGJEGCCP3AO2","3TKXBROM5TWR181JXBYSOI8FGFVJIU","","273.70000000298023","img/flower1.png","75","275.8999999910593","2","0","1","1","1,0.333,0.333,0.333,1,0.333,0.333,0.333,1","1,0.333,0.333,0.333,1,0.333,0.333,0.333,1","1",""
"","html-keyboard-response","307","210338","0.0-307.0","3A4NIXBJ77LLE1D4CDDZL9OC9RHLMS","ANGJEGCCP3AO2","3TKXBROM5TWR181JXBYSOI8FGFVJIU","","null","<img src=""img/flower1.png"" style=""width:200px;border:14px solid red;"">","null","","","","","","","","",""
"","image-keyboard-response","308","210571","0.0-308.0","3A4NIXBJ77LLE1D4CDDZL9OC9RHLMS","ANGJEGCCP3AO2","3TKXBROM5TWR181JXBYSOI8FGFVJIU","","229.70000000298023","img/flower1.png","74","232.1000000089407","1","1","1","1","1,0.333,0.333,0.333,1,0.333,0.333,0.333,1","1,0.333,0.333,0.333,1,0.333,0.333,0.333,1","1",""
"","html-keyboard-response","309","210875","0.0-309.0","3A4NIXBJ77LLE1D4CDDZL9OC9RHLMS","ANGJEGCCP3AO2","3TKXBROM5TWR181JXBYSOI8FGFVJIU","","null","<img src=""img/flower1.png"" style=""width:200px; border:14px solid green;"">","null","","","","","","","","",""
"","image-keyboard-response","310","211271","0.0-310.0","3A4NIXBJ77LLE1D4CDDZL9OC9RHLMS","ANGJEGCCP3AO2","3TKXBROM5TWR181JXBYSOI8FGFVJIU","","393.59999999403954","img/flower1.png","75","395.70000000298023","2","0","1","1","1,0.333,0.333,0.333,1,0.333,0.333,0.333,1","1,0.333,0.333,0.333,1,0.333,0.333,0.333,1","1",""
"","html-keyboard-response","311","211575","0.0-311.0","3A4NIXBJ77LLE1D4CDDZL9OC9RHLMS","ANGJEGCCP3AO2","3TKXBROM5TWR181JXBYSOI8FGFVJIU","","null","<img src=""img/flower1.png"" style=""width:200px;border:14px solid red;"">","null","","","","","","","","",""
"","image-keyboard-response","312","211807","0.0-312.0","3A4NIXBJ77LLE1D4CDDZL9OC9RHLMS","ANGJEGCCP3AO2","3TKXBROM5TWR181JXBYSOI8FGFVJIU","","228.90000000596046","img/flower2.png","74","231.6000000089407","1","0","3","1","1,0.333,0.333,0.333,1,0.333,0.333,0.333,1","1,0.333,0.333,0.333,1,0.333,0.333,0.333,1","1",""
"","html-keyboard-response","313","212110","0.0-313.0","3A4NIXBJ77LLE1D4CDDZL9OC9RHLMS","ANGJEGCCP3AO2","3TKXBROM5TWR181JXBYSOI8FGFVJIU","","null","<img src=""img/flower2.png"" style=""width:200px;border:14px solid red;"">","null","","","","","","","","",""
"","image-keyboard-response","314","212345","0.0-314.0","3A4NIXBJ77LLE1D4CDDZL9OC9RHLMS","ANGJEGCCP3AO2","3TKXBROM5TWR181JXBYSOI8FGFVJIU","","233.29999999701977","img/flower4.png","75","235","2","1","2","1","1,0.333,0.333,0.333,1,0.333,0.333,0.333,1","1,0.333,0.333,0.333,1,0.333,0.333,0.333,1","1",""
"","html-keyboard-response","315","212652","0.0-315.0","3A4NIXBJ77LLE1D4CDDZL9OC9RHLMS","ANGJEGCCP3AO2","3TKXBROM5TWR181JXBYSOI8FGFVJIU","","null","<img src=""img/flower4.png"" style=""width:200px; border:14px solid green;"">","null","","","","","","","","",""
"","image-keyboard-response","316","213047","0.0-316.0","3A4NIXBJ77LLE1D4CDDZL9OC9RHLMS","ANGJEGCCP3AO2","3TKXBROM5TWR181JXBYSOI8FGFVJIU","","392.29999999701977","img/flower1.png","74","394.5","1","1","1","1","1,0.333,0.333,0.333,1,0.333,0.333,0.333,1","1,0.333,0.333,0.333,1,0.333,0.333,0.333,1","1",""
"","html-keyboard-response","317","213350","0.0-317.0","3A4NIXBJ77LLE1D4CDDZL9OC9RHLMS","ANGJEGCCP3AO2","3TKXBROM5TWR181JXBYSOI8FGFVJIU","","null","<img src=""img/flower1.png"" style=""width:200px; border:14px solid green;"">","null","","","","","","","","",""
"","image-keyboard-response","318","213845","0.0-318.0","3A4NIXBJ77LLE1D4CDDZL9OC9RHLMS","ANGJEGCCP3AO2","3TKXBROM5TWR181JXBYSOI8FGFVJIU","","493","img/flower1.png","74","494.59999999403954","1","1","1","1","1,0.333,0.333,0.333,1,0.333,0.333,0.333,1","1,0.333,0.333,0.333,1,0.333,0.333,0.333,1","1",""
"","html-keyboard-response","319","214148","0.0-319.0","3A4NIXBJ77LLE1D4CDDZL9OC9RHLMS","ANGJEGCCP3AO2","3TKXBROM5TWR181JXBYSOI8FGFVJIU","","null","<img src=""img/flower1.png"" style=""width:200px; border:14px solid green;"">","null","","","","","","","","",""
"","image-keyboard-response","320","214314","0.0-320.0","3A4NIXBJ77LLE1D4CDDZL9OC9RHLMS","ANGJEGCCP3AO2","3TKXBROM5TWR181JXBYSOI8FGFVJIU","","163.70000000298023","img/flower4.png","75","165.6000000089407","2","1","2","1","1,0.333,0.333,0.333,1,0.333,0.333,0.333,1","1,0.333,0.333,0.333,1,0.333,0.333,0.333,1","1",""
"","html-keyboard-response","321","214618","0.0-321.0","3A4NIXBJ77LLE1D4CDDZL9OC9RHLMS","ANGJEGCCP3AO2","3TKXBROM5TWR181JXBYSOI8FGFVJIU","","null","<img src=""img/flower4.png"" style=""width:200px; border:14px solid green;"">","null","","","","","","","","",""
"","image-keyboard-response","322","215037","0.0-322.0","3A4NIXBJ77LLE1D4CDDZL9OC9RHLMS","ANGJEGCCP3AO2","3TKXBROM5TWR181JXBYSOI8FGFVJIU","","416.5","img/flower2.png","75","418.6000000089407","2","0","3","1","1,0.333,0.333,0.333,1,0.333,0.333,0.333,1","1,0.333,0.333,0.333,1,0.333,0.333,0.333,1","1",""
"","html-keyboard-response","323","215341","0.0-323.0","3A4NIXBJ77LLE1D4CDDZL9OC9RHLMS","ANGJEGCCP3AO2","3TKXBROM5TWR181JXBYSOI8FGFVJIU","","null","<img src=""img/flower2.png"" style=""width:200px;border:14px solid red;"">","null","","","","","","","","",""
"","image-keyboard-response","324","215683","0.0-324.0","3A4NIXBJ77LLE1D4CDDZL9OC9RHLMS","ANGJEGCCP3AO2","3TKXBROM5TWR181JXBYSOI8FGFVJIU","","339.3999999910593","img/flower1.png","74","341.5","1","1","1","1","1,0.333,0.333,0.333,1,0.333,0.333,0.333,1","1,0.333,0.333,0.333,1,0.333,0.333,0.333,1","1",""
"","html-keyboard-response","325","215986","0.0-325.0","3A4NIXBJ77LLE1D4CDDZL9OC9RHLMS","ANGJEGCCP3AO2","3TKXBROM5TWR181JXBYSOI8FGFVJIU","","null","<img src=""img/flower1.png"" style=""width:200px; border:14px solid green;"">","null","","","","","","","","",""
"","image-keyboard-response","326","216332","0.0-326.0","3A4NIXBJ77LLE1D4CDDZL9OC9RHLMS","ANGJEGCCP3AO2","3TKXBROM5TWR181JXBYSOI8FGFVJIU","","343.09999999403954","img/flower1.png","75","345.09999999403954","2","1","1","1","1,0.333,0.333,0.333,1,0.333,0.333,0.333,1","1,0.333,0.333,0.333,1,0.333,0.333,0.333,1","1",""
"","html-keyboard-response","327","216635","0.0-327.0","3A4NIXBJ77LLE1D4CDDZL9OC9RHLMS","ANGJEGCCP3AO2","3TKXBROM5TWR181JXBYSOI8FGFVJIU","","null","<img src=""img/flower1.png"" style=""width:200px; border:14px solid green;"">","null","","","","","","","","",""
"","image-keyboard-response","328","217077","0.0-328.0","3A4NIXBJ77LLE1D4CDDZL9OC9RHLMS","ANGJEGCCP3AO2","3TKXBROM5TWR181JXBYSOI8FGFVJIU","","436.90000000596046","img/flower4.png","75","439.29999999701977","2","1","2","1","1,0.333,0.333,0.333,1,0.333,0.333,0.333,1","1,0.333,0.333,0.333,1,0.333,0.333,0.333,1","1",""
"","html-keyboard-response","329","217380","0.0-329.0","3A4NIXBJ77LLE1D4CDDZL9OC9RHLMS","ANGJEGCCP3AO2","3TKXBROM5TWR181JXBYSOI8FGFVJIU","","null","<img src=""img/flower4.png"" style=""width:200px; border:14px solid green;"">","null","","","","","","","","",""
"","image-keyboard-response","330","217663","0.0-330.0","3A4NIXBJ77LLE1D4CDDZL9OC9RHLMS","ANGJEGCCP3AO2","3TKXBROM5TWR181JXBYSOI8FGFVJIU","","280.59999999403954","img/flower4.png","74","282.70000000298023","1","0","2","1","1,0.333,0.333,0.333,1,0.333,0.333,0.333,1","1,0.333,0.333,0.333,1,0.333,0.333,0.333,1","1",""
"","html-keyboard-response","331","217979","0.0-331.0","3A4NIXBJ77LLE1D4CDDZL9OC9RHLMS","ANGJEGCCP3AO2","3TKXBROM5TWR181JXBYSOI8FGFVJIU","","null","<img src=""img/flower4.png"" style=""width:200px;border:14px solid red;"">","null","","","","","","","","",""
"","image-keyboard-response","332","218323","0.0-332.0","3A4NIXBJ77LLE1D4CDDZL9OC9RHLMS","ANGJEGCCP3AO2","3TKXBROM5TWR181JXBYSOI8FGFVJIU","","341.29999999701977","img/flower2.png","75","343.3999999910593","2","1","3","1","1,0.333,0.333,0.333,1,0.333,0.333,0.333,1","1,0.333,0.333,0.333,1,0.333,0.333,0.333,1","1",""
"","html-keyboard-response","333","218625","0.0-333.0","3A4NIXBJ77LLE1D4CDDZL9OC9RHLMS","ANGJEGCCP3AO2","3TKXBROM5TWR181JXBYSOI8FGFVJIU","","null","<img src=""img/flower2.png"" style=""width:200px; border:14px solid green;"">","null","","","","","","","","",""
"","image-keyboard-response","334","218887","0.0-334.0","3A4NIXBJ77LLE1D4CDDZL9OC9RHLMS","ANGJEGCCP3AO2","3TKXBROM5TWR181JXBYSOI8FGFVJIU","","258.90000000596046","img/flower2.png","74","261.20000000298023","1","0","3","1","1,0.333,0.333,0.333,1,0.333,0.333,0.333,1","1,0.333,0.333,0.333,1,0.333,0.333,0.333,1","1",""
"","html-keyboard-response","335","219190","0.0-335.0","3A4NIXBJ77LLE1D4CDDZL9OC9RHLMS","ANGJEGCCP3AO2","3TKXBROM5TWR181JXBYSOI8FGFVJIU","","null","<img src=""img/flower2.png"" style=""width:200px;border:14px solid red;"">","null","","","","","","","","",""
"","image-keyboard-response","336","219557","0.0-336.0","3A4NIXBJ77LLE1D4CDDZL9OC9RHLMS","ANGJEGCCP3AO2","3TKXBROM5TWR181JXBYSOI8FGFVJIU","","365.20000000298023","img/flower2.png","74","367.09999999403954","1","0","3","1","1,0.333,0.333,0.333,1,0.333,0.333,0.333,1","1,0.333,0.333,0.333,1,0.333,0.333,0.333,1","1",""
"","html-keyboard-response","337","219861","0.0-337.0","3A4NIXBJ77LLE1D4CDDZL9OC9RHLMS","ANGJEGCCP3AO2","3TKXBROM5TWR181JXBYSOI8FGFVJIU","","null","<img src=""img/flower2.png"" style=""width:200px;border:14px solid red;"">","null","","","","","","","","",""
"","image-keyboard-response","338","220178","0.0-338.0","3A4NIXBJ77LLE1D4CDDZL9OC9RHLMS","ANGJEGCCP3AO2","3TKXBROM5TWR181JXBYSOI8FGFVJIU","","313.70000000298023","img/flower2.png","74","316.20000000298023","1","0","3","1","1,0.333,0.333,0.333,1,0.333,0.333,0.333,1","1,0.333,0.333,0.333,1,0.333,0.333,0.333,1","1",""
"","html-keyboard-response","339","220482","0.0-339.0","3A4NIXBJ77LLE1D4CDDZL9OC9RHLMS","ANGJEGCCP3AO2","3TKXBROM5TWR181JXBYSOI8FGFVJIU","","null","<img src=""img/flower2.png"" style=""width:200px;border:14px solid red;"">","null","","","","","","","","",""
"","image-keyboard-response","340","220624","0.0-340.0","3A4NIXBJ77LLE1D4CDDZL9OC9RHLMS","ANGJEGCCP3AO2","3TKXBROM5TWR181JXBYSOI8FGFVJIU","","139.29999999701977","img/flower1.png","75","141.40000000596046","2","0","1","1","1,0.333,0.333,0.333,1,0.333,0.333,0.333,1","1,0.333,0.333,0.333,1,0.333,0.333,0.333,1","1",""
"","html-keyboard-response","341","220928","0.0-341.0","3A4NIXBJ77LLE1D4CDDZL9OC9RHLMS","ANGJEGCCP3AO2","3TKXBROM5TWR181JXBYSOI8FGFVJIU","","null","<img src=""img/flower1.png"" style=""width:200px;border:14px solid red;"">","null","","","","","","","","",""
"","image-keyboard-response","342","221262","0.0-342.0","3A4NIXBJ77LLE1D4CDDZL9OC9RHLMS","ANGJEGCCP3AO2","3TKXBROM5TWR181JXBYSOI8FGFVJIU","","332","img/flower4.png","75","334.09999999403954","2","1","2","1","1,0.333,0.333,0.333,1,0.333,0.333,0.333,1","1,0.333,0.333,0.333,1,0.333,0.333,0.333,1","1",""
"","html-keyboard-response","343","221569","0.0-343.0","3A4NIXBJ77LLE1D4CDDZL9OC9RHLMS","ANGJEGCCP3AO2","3TKXBROM5TWR181JXBYSOI8FGFVJIU","","null","<img src=""img/flower4.png"" style=""width:200px; border:14px solid green;"">","null","","","","","","","","",""
"","image-keyboard-response","344","221868","0.0-344.0","3A4NIXBJ77LLE1D4CDDZL9OC9RHLMS","ANGJEGCCP3AO2","3TKXBROM5TWR181JXBYSOI8FGFVJIU","","297.1000000089407","img/flower4.png","74","299.1000000089407","1","0","2","1","1,0.333,0.333,0.333,1,0.333,0.333,0.333,1","1,0.333,0.333,0.333,1,0.333,0.333,0.333,1","1",""
"","html-keyboard-response","345","222173","0.0-345.0","3A4NIXBJ77LLE1D4CDDZL9OC9RHLMS","ANGJEGCCP3AO2","3TKXBROM5TWR181JXBYSOI8FGFVJIU","","null","<img src=""img/flower4.png"" style=""width:200px;border:14px solid red;"">","null","","","","","","","","",""
"","image-keyboard-response","346","222368","0.0-346.0","3A4NIXBJ77LLE1D4CDDZL9OC9RHLMS","ANGJEGCCP3AO2","3TKXBROM5TWR181JXBYSOI8FGFVJIU","","192.70000000298023","img/flower1.png","75","194.70000000298023","2","1","1","1","1,0.333,0.333,0.333,1,0.333,0.333,0.333,1","1,0.333,0.333,0.333,1,0.333,0.333,0.333,1","1",""
"","html-keyboard-response","347","222672","0.0-347.0","3A4NIXBJ77LLE1D4CDDZL9OC9RHLMS","ANGJEGCCP3AO2","3TKXBROM5TWR181JXBYSOI8FGFVJIU","","null","<img src=""img/flower1.png"" style=""width:200px; border:14px solid green;"">","null","","","","","","","","",""
"","image-keyboard-response","348","222920","0.0-348.0","3A4NIXBJ77LLE1D4CDDZL9OC9RHLMS","ANGJEGCCP3AO2","3TKXBROM5TWR181JXBYSOI8FGFVJIU","","245","img/flower1.png","74","247.20000000298023","1","1","1","1","1,0.333,0.333,0.333,1,0.333,0.333,0.333,1","1,0.333,0.333,0.333,1,0.333,0.333,0.333,1","1",""
"","html-keyboard-response","349","223223","0.0-349.0","3A4NIXBJ77LLE1D4CDDZL9OC9RHLMS","ANGJEGCCP3AO2","3TKXBROM5TWR181JXBYSOI8FGFVJIU","","null","<img src=""img/flower1.png"" style=""width:200px; border:14px solid green;"">","null","","","","","","","","",""
"","image-keyboard-response","350","223509","0.0-350.0","3A4NIXBJ77LLE1D4CDDZL9OC9RHLMS","ANGJEGCCP3AO2","3TKXBROM5TWR181JXBYSOI8FGFVJIU","","283.79999999701977","img/flower2.png","75","286.1000000089407","2","1","3","1","1,0.333,0.333,0.333,1,0.333,0.333,0.333,1","1,0.333,0.333,0.333,1,0.333,0.333,0.333,1","1",""
"","html-keyboard-response","351","223813","0.0-351.0","3A4NIXBJ77LLE1D4CDDZL9OC9RHLMS","ANGJEGCCP3AO2","3TKXBROM5TWR181JXBYSOI8FGFVJIU","","null","<img src=""img/flower2.png"" style=""width:200px; border:14px solid green;"">","null","","","","","","","","",""
"","image-keyboard-response","352","224068","0.0-352.0","3A4NIXBJ77LLE1D4CDDZL9OC9RHLMS","ANGJEGCCP3AO2","3TKXBROM5TWR181JXBYSOI8FGFVJIU","","252.1000000089407","img/flower2.png","74","254.20000000298023","1","0","3","1","1,0.333,0.333,0.333,1,0.333,0.333,0.333,1","1,0.333,0.333,0.333,1,0.333,0.333,0.333,1","1",""
"","html-keyboard-response","353","224371","0.0-353.0","3A4NIXBJ77LLE1D4CDDZL9OC9RHLMS","ANGJEGCCP3AO2","3TKXBROM5TWR181JXBYSOI8FGFVJIU","","null","<img src=""img/flower2.png"" style=""width:200px;border:14px solid red;"">","null","","","","","","","","",""
"","image-keyboard-response","354","224613","0.0-354.0","3A4NIXBJ77LLE1D4CDDZL9OC9RHLMS","ANGJEGCCP3AO2","3TKXBROM5TWR181JXBYSOI8FGFVJIU","","240","img/flower2.png","75","242.20000000298023","2","1","3","1","1,0.333,0.333,0.333,1,0.333,0.333,0.333,1","1,0.333,0.333,0.333,1,0.333,0.333,0.333,1","1",""
"","html-keyboard-response","355","224917","0.0-355.0","3A4NIXBJ77LLE1D4CDDZL9OC9RHLMS","ANGJEGCCP3AO2","3TKXBROM5TWR181JXBYSOI8FGFVJIU","","null","<img src=""img/flower2.png"" style=""width:200px; border:14px solid green;"">","null","","","","","","","","",""
"","image-keyboard-response","356","225142","0.0-356.0","3A4NIXBJ77LLE1D4CDDZL9OC9RHLMS","ANGJEGCCP3AO2","3TKXBROM5TWR181JXBYSOI8FGFVJIU","","221.69999998807907","img/flower2.png","74","224.5","1","0","3","1","1,0.333,0.333,0.333,1,0.333,0.333,0.333,1","1,0.333,0.333,0.333,1,0.333,0.333,0.333,1","1",""
"","html-keyboard-response","357","225457","0.0-357.0","3A4NIXBJ77LLE1D4CDDZL9OC9RHLMS","ANGJEGCCP3AO2","3TKXBROM5TWR181JXBYSOI8FGFVJIU","","null","<img src=""img/flower2.png"" style=""width:200px;border:14px solid red;"">","null","","","","","","","","",""
"","image-keyboard-response","358","225519","0.0-358.0","3A4NIXBJ77LLE1D4CDDZL9OC9RHLMS","ANGJEGCCP3AO2","3TKXBROM5TWR181JXBYSOI8FGFVJIU","","58.900000005960464","img/flower1.png","75","61.099999994039536","2","1","1","1","1,0.333,0.333,0.333,1,0.333,0.333,0.333,1","1,0.333,0.333,0.333,1,0.333,0.333,0.333,1","1",""
"","html-keyboard-response","359","225822","0.0-359.0","3A4NIXBJ77LLE1D4CDDZL9OC9RHLMS","ANGJEGCCP3AO2","3TKXBROM5TWR181JXBYSOI8FGFVJIU","","null","<img src=""img/flower1.png"" style=""width:200px; border:14px solid green;"">","null","","","","","","","","",""
"","image-keyboard-response","360","226180","0.0-360.0","3A4NIXBJ77LLE1D4CDDZL9OC9RHLMS","ANGJEGCCP3AO2","3TKXBROM5TWR181JXBYSOI8FGFVJIU","","355.3999999910593","img/flower4.png","74","357.6000000089407","1","0","2","1","1,0.333,0.333,0.333,1,0.333,0.333,0.333,1","1,0.333,0.333,0.333,1,0.333,0.333,0.333,1","1",""
"","html-keyboard-response","361","226483","0.0-361.0","3A4NIXBJ77LLE1D4CDDZL9OC9RHLMS","ANGJEGCCP3AO2","3TKXBROM5TWR181JXBYSOI8FGFVJIU","","null","<img src=""img/flower4.png"" style=""width:200px;border:14px solid red;"">","null","","","","","","","","",""
"","html-keyboard-response","362","235936","0.0-362.0","3A4NIXBJ77LLE1D4CDDZL9OC9RHLMS","ANGJEGCCP3AO2","3TKXBROM5TWR181JXBYSOI8FGFVJIU","","","","","","","","","","","","",""
"","instructions","363","253165","0.0-363.0","3A4NIXBJ77LLE1D4CDDZL9OC9RHLMS","ANGJEGCCP3AO2","3TKXBROM5TWR181JXBYSOI8FGFVJIU","[{""page_index"":0,""viewing_time"":17226.79999999702}]","17227.20000000298","","","","","","","","","","",""
"","survey-text","364","257518","0.0-364.0","3A4NIXBJ77LLE1D4CDDZL9OC9RHLMS","ANGJEGCCP3AO2","3TKXBROM5TWR181JXBYSOI8FGFVJIU","","4346.20000000298","","","","","","","","","","","{""Q0"":""ANGJEGCCP3AO2""}"
