"success","trial_type","trial_index","time_elapsed","internal_node_id","assignmentID","mturkID","hitID","view_history","rt","stimulus","key_press","reactionTime","a","r","s","cond","reward_cond","reward_cond_actual","reward_matrix_idx","responses"
"true","fullscreen","0","24714","0.0-0.0","3GA6AFUKOPAI6JM4FATMXIMZSNHH3Z","ANK8K5WTHJ61C","3UUIU9GZC5R93N292LT21FRJ9VS5TN","","","","","","","","","","","","",""
"","instructions","1","131663","0.0-1.0","3GA6AFUKOPAI6JM4FATMXIMZSNHH3Z","ANK8K5WTHJ61C","3UUIU9GZC5R93N292LT21FRJ9VS5TN","[{""page_index"":0,""viewing_time"":5343.599999904633},{""page_index"":1,""viewing_time"":5617.300000071526},{""page_index"":2,""viewing_time"":9234.299999952316},{""page_index"":3,""viewing_time"":48218.10000002384},{""page_index"":4,""viewing_time"":25984.299999952316},{""page_index"":5,""viewing_time"":3048.9000000953674},{""page_index"":6,""viewing_time"":3684},{""page_index"":7,""viewing_time"":5816.099999904633}]","106947.59999990463","","","","","","","","","","",""
"","image-keyboard-response","2","132466","0.0-2.0","3GA6AFUKOPAI6JM4FATMXIMZSNHH3Z","ANK8K5WTHJ61C","3UUIU9GZC5R93N292LT21FRJ9VS5TN","","801","img/flower1.png","74","803.3000000715256","1","1","2","2","1,0,0,1,1,0,1,0,1","0,0,1,1,0,1,0,1,1","2",""
"","html-keyboard-response","3","132775","0.0-3.0","3GA6AFUKOPAI6JM4FATMXIMZSNHH3Z","ANK8K5WTHJ61C","3UUIU9GZC5R93N292LT21FRJ9VS5TN","","null","<img src=""img/flower1.png"" style=""width:200px; border:14px solid green;"">","null","","","","","","","","",""
"","image-keyboard-response","4","133299","0.0-4.0","3GA6AFUKOPAI6JM4FATMXIMZSNHH3Z","ANK8K5WTHJ61C","3UUIU9GZC5R93N292LT21FRJ9VS5TN","","522.2999999523163","img/flower1.png","74","523.6000000238419","1","1","2","2","1,0,0,1,1,0,1,0,1","0,0,1,1,0,1,0,1,1","2",""
"","html-keyboard-response","5","133604","0.0-5.0","3GA6AFUKOPAI6JM4FATMXIMZSNHH3Z","ANK8K5WTHJ61C","3UUIU9GZC5R93N292LT21FRJ9VS5TN","","null","<img src=""img/flower1.png"" style=""width:200px; border:14px solid green;"">","null","","","","","","","","",""
"","image-keyboard-response","6","134295","0.0-6.0","3GA6AFUKOPAI6JM4FATMXIMZSNHH3Z","ANK8K5WTHJ61C","3UUIU9GZC5R93N292LT21FRJ9VS5TN","","689.4000000953674","img/flower4.png","75","691.1000000238419","2","0","1","2","1,0,0,1,1,0,1,0,1","0,0,1,1,0,1,0,1,1","2",""
"","html-keyboard-response","7","134602","0.0-7.0","3GA6AFUKOPAI6JM4FATMXIMZSNHH3Z","ANK8K5WTHJ61C","3UUIU9GZC5R93N292LT21FRJ9VS5TN","","null","<img src=""img/flower4.png"" style=""width:200px;border:14px solid red;"">","null","","","","","","","","",""
"","image-keyboard-response","8","135736","0.0-8.0","3GA6AFUKOPAI6JM4FATMXIMZSNHH3Z","ANK8K5WTHJ61C","3UUIU9GZC5R93N292LT21FRJ9VS5TN","","1131.8999999761581","img/flower6.png","75","1133.5","2","1","3","2","1,0,0,1,1,0,1,0,1","0,0,1,1,0,1,0,1,1","2",""
"","html-keyboard-response","9","136043","0.0-9.0","3GA6AFUKOPAI6JM4FATMXIMZSNHH3Z","ANK8K5WTHJ61C","3UUIU9GZC5R93N292LT21FRJ9VS5TN","","null","<img src=""img/flower6.png"" style=""width:200px; border:14px solid green;"">","null","","","","","","","","",""
"","image-keyboard-response","10","136933","0.0-10.0","3GA6AFUKOPAI6JM4FATMXIMZSNHH3Z","ANK8K5WTHJ61C","3UUIU9GZC5R93N292LT21FRJ9VS5TN","","888.5","img/flower4.png","76","889.8000000715256","3","1","1","2","1,0,0,1,1,0,1,0,1","0,0,1,1,0,1,0,1,1","2",""
"","html-keyboard-response","11","137239","0.0-11.0","3GA6AFUKOPAI6JM4FATMXIMZSNHH3Z","ANK8K5WTHJ61C","3UUIU9GZC5R93N292LT21FRJ9VS5TN","","null","<img src=""img/flower4.png"" style=""width:200px; border:14px solid green;"">","null","","","","","","","","",""
"","image-keyboard-response","12","138102","0.0-12.0","3GA6AFUKOPAI6JM4FATMXIMZSNHH3Z","ANK8K5WTHJ61C","3UUIU9GZC5R93N292LT21FRJ9VS5TN","","862.6000000238419","img/flower1.png","75","863.1999999284744","2","0","2","2","1,0,0,1,1,0,1,0,1","0,0,1,1,0,1,0,1,1","2",""
"","html-keyboard-response","13","138406","0.0-13.0","3GA6AFUKOPAI6JM4FATMXIMZSNHH3Z","ANK8K5WTHJ61C","3UUIU9GZC5R93N292LT21FRJ9VS5TN","","null","<img src=""img/flower1.png"" style=""width:200px;border:14px solid red;"">","null","","","","","","","","",""
"","image-keyboard-response","14","139259","0.0-14.0","3GA6AFUKOPAI6JM4FATMXIMZSNHH3Z","ANK8K5WTHJ61C","3UUIU9GZC5R93N292LT21FRJ9VS5TN","","850.6000000238419","img/flower6.png","75","852.3999999761581","2","1","3","2","1,0,0,1,1,0,1,0,1","0,0,1,1,0,1,0,1,1","2",""
"","html-keyboard-response","15","139566","0.0-15.0","3GA6AFUKOPAI6JM4FATMXIMZSNHH3Z","ANK8K5WTHJ61C","3UUIU9GZC5R93N292LT21FRJ9VS5TN","","null","<img src=""img/flower6.png"" style=""width:200px; border:14px solid green;"">","null","","","","","","","","",""
"","image-keyboard-response","16","140141","0.0-16.0","3GA6AFUKOPAI6JM4FATMXIMZSNHH3Z","ANK8K5WTHJ61C","3UUIU9GZC5R93N292LT21FRJ9VS5TN","","574.5","img/flower6.png","75","575.2000000476837","2","1","3","2","1,0,0,1,1,0,1,0,1","0,0,1,1,0,1,0,1,1","2",""
"","html-keyboard-response","17","140447","0.0-17.0","3GA6AFUKOPAI6JM4FATMXIMZSNHH3Z","ANK8K5WTHJ61C","3UUIU9GZC5R93N292LT21FRJ9VS5TN","","null","<img src=""img/flower6.png"" style=""width:200px; border:14px solid green;"">","null","","","","","","","","",""
"","image-keyboard-response","18","140952","0.0-18.0","3GA6AFUKOPAI6JM4FATMXIMZSNHH3Z","ANK8K5WTHJ61C","3UUIU9GZC5R93N292LT21FRJ9VS5TN","","503.60000002384186","img/flower6.png","75","505.10000002384186","2","1","3","2","1,0,0,1,1,0,1,0,1","0,0,1,1,0,1,0,1,1","2",""
"","html-keyboard-response","19","141255","0.0-19.0","3GA6AFUKOPAI6JM4FATMXIMZSNHH3Z","ANK8K5WTHJ61C","3UUIU9GZC5R93N292LT21FRJ9VS5TN","","null","<img src=""img/flower6.png"" style=""width:200px; border:14px solid green;"">","null","","","","","","","","",""
"","image-keyboard-response","20","141885","0.0-20.0","3GA6AFUKOPAI6JM4FATMXIMZSNHH3Z","ANK8K5WTHJ61C","3UUIU9GZC5R93N292LT21FRJ9VS5TN","","627.8000000715256","img/flower4.png","76","628.6999999284744","3","1","1","2","1,0,0,1,1,0,1,0,1","0,0,1,1,0,1,0,1,1","2",""
"","html-keyboard-response","21","142191","0.0-21.0","3GA6AFUKOPAI6JM4FATMXIMZSNHH3Z","ANK8K5WTHJ61C","3UUIU9GZC5R93N292LT21FRJ9VS5TN","","null","<img src=""img/flower4.png"" style=""width:200px; border:14px solid green;"">","null","","","","","","","","",""
"","image-keyboard-response","22","142755","0.0-22.0","3GA6AFUKOPAI6JM4FATMXIMZSNHH3Z","ANK8K5WTHJ61C","3UUIU9GZC5R93N292LT21FRJ9VS5TN","","562.1000000238419","img/flower1.png","75","563.7000000476837","2","0","2","2","1,0,0,1,1,0,1,0,1","0,0,1,1,0,1,0,1,1","2",""
"","html-keyboard-response","23","143062","0.0-23.0","3GA6AFUKOPAI6JM4FATMXIMZSNHH3Z","ANK8K5WTHJ61C","3UUIU9GZC5R93N292LT21FRJ9VS5TN","","null","<img src=""img/flower1.png"" style=""width:200px;border:14px solid red;"">","null","","","","","","","","",""
"","image-keyboard-response","24","143804","0.0-24.0","3GA6AFUKOPAI6JM4FATMXIMZSNHH3Z","ANK8K5WTHJ61C","3UUIU9GZC5R93N292LT21FRJ9VS5TN","","739.6000000238419","img/flower1.png","74","741.1000000238419","1","1","2","2","1,0,0,1,1,0,1,0,1","0,0,1,1,0,1,0,1,1","2",""
"","html-keyboard-response","25","144110","0.0-25.0","3GA6AFUKOPAI6JM4FATMXIMZSNHH3Z","ANK8K5WTHJ61C","3UUIU9GZC5R93N292LT21FRJ9VS5TN","","null","<img src=""img/flower1.png"" style=""width:200px; border:14px solid green;"">","null","","","","","","","","",""
"","image-keyboard-response","26","144765","0.0-26.0","3GA6AFUKOPAI6JM4FATMXIMZSNHH3Z","ANK8K5WTHJ61C","3UUIU9GZC5R93N292LT21FRJ9VS5TN","","653.5999999046326","img/flower1.png","74","654.6000000238419","1","1","2","2","1,0,0,1,1,0,1,0,1","0,0,1,1,0,1,0,1,1","2",""
"","html-keyboard-response","27","145071","0.0-27.0","3GA6AFUKOPAI6JM4FATMXIMZSNHH3Z","ANK8K5WTHJ61C","3UUIU9GZC5R93N292LT21FRJ9VS5TN","","null","<img src=""img/flower1.png"" style=""width:200px; border:14px solid green;"">","null","","","","","","","","",""
"","image-keyboard-response","28","145753","0.0-28.0","3GA6AFUKOPAI6JM4FATMXIMZSNHH3Z","ANK8K5WTHJ61C","3UUIU9GZC5R93N292LT21FRJ9VS5TN","","680.6000000238419","img/flower6.png","76","682.2999999523163","3","1","3","2","1,0,0,1,1,0,1,0,1","0,0,1,1,0,1,0,1,1","2",""
"","html-keyboard-response","29","146061","0.0-29.0","3GA6AFUKOPAI6JM4FATMXIMZSNHH3Z","ANK8K5WTHJ61C","3UUIU9GZC5R93N292LT21FRJ9VS5TN","","null","<img src=""img/flower6.png"" style=""width:200px; border:14px solid green;"">","null","","","","","","","","",""
"","image-keyboard-response","30","146654","0.0-30.0","3GA6AFUKOPAI6JM4FATMXIMZSNHH3Z","ANK8K5WTHJ61C","3UUIU9GZC5R93N292LT21FRJ9VS5TN","","592.6999999284744","img/flower1.png","74","593.6000000238419","1","1","2","2","1,0,0,1,1,0,1,0,1","0,0,1,1,0,1,0,1,1","2",""
"","html-keyboard-response","31","146962","0.0-31.0","3GA6AFUKOPAI6JM4FATMXIMZSNHH3Z","ANK8K5WTHJ61C","3UUIU9GZC5R93N292LT21FRJ9VS5TN","","null","<img src=""img/flower1.png"" style=""width:200px; border:14px solid green;"">","null","","","","","","","","",""
"","image-keyboard-response","32","147555","0.0-32.0","3GA6AFUKOPAI6JM4FATMXIMZSNHH3Z","ANK8K5WTHJ61C","3UUIU9GZC5R93N292LT21FRJ9VS5TN","","591.3999999761581","img/flower4.png","75","592.8999999761581","2","0","1","2","1,0,0,1,1,0,1,0,1","0,0,1,1,0,1,0,1,1","2",""
"","html-keyboard-response","33","147863","0.0-33.0","3GA6AFUKOPAI6JM4FATMXIMZSNHH3Z","ANK8K5WTHJ61C","3UUIU9GZC5R93N292LT21FRJ9VS5TN","","null","<img src=""img/flower4.png"" style=""width:200px;border:14px solid red;"">","null","","","","","","","","",""
"","image-keyboard-response","34","148904","0.0-34.0","3GA6AFUKOPAI6JM4FATMXIMZSNHH3Z","ANK8K5WTHJ61C","3UUIU9GZC5R93N292LT21FRJ9VS5TN","","1039.6000000238419","img/flower1.png","74","1041.1000000238419","1","1","2","2","1,0,0,1,1,0,1,0,1","0,0,1,1,0,1,0,1,1","2",""
"","html-keyboard-response","35","149208","0.0-35.0","3GA6AFUKOPAI6JM4FATMXIMZSNHH3Z","ANK8K5WTHJ61C","3UUIU9GZC5R93N292LT21FRJ9VS5TN","","null","<img src=""img/flower1.png"" style=""width:200px; border:14px solid green;"">","null","","","","","","","","",""
"","image-keyboard-response","36","149982","0.0-36.0","3GA6AFUKOPAI6JM4FATMXIMZSNHH3Z","ANK8K5WTHJ61C","3UUIU9GZC5R93N292LT21FRJ9VS5TN","","773.7000000476837","img/flower6.png","76","774.3999999761581","3","1","3","2","1,0,0,1,1,0,1,0,1","0,0,1,1,0,1,0,1,1","2",""
"","html-keyboard-response","37","150287","0.0-37.0","3GA6AFUKOPAI6JM4FATMXIMZSNHH3Z","ANK8K5WTHJ61C","3UUIU9GZC5R93N292LT21FRJ9VS5TN","","null","<img src=""img/flower6.png"" style=""width:200px; border:14px solid green;"">","null","","","","","","","","",""
"","image-keyboard-response","38","151154","0.0-38.0","3GA6AFUKOPAI6JM4FATMXIMZSNHH3Z","ANK8K5WTHJ61C","3UUIU9GZC5R93N292LT21FRJ9VS5TN","","865.5","img/flower1.png","74","866.9000000953674","1","1","2","2","1,0,0,1,1,0,1,0,1","0,0,1,1,0,1,0,1,1","2",""
"","html-keyboard-response","39","151460","0.0-39.0","3GA6AFUKOPAI6JM4FATMXIMZSNHH3Z","ANK8K5WTHJ61C","3UUIU9GZC5R93N292LT21FRJ9VS5TN","","null","<img src=""img/flower1.png"" style=""width:200px; border:14px solid green;"">","null","","","","","","","","",""
"","image-keyboard-response","40","152110","0.0-40.0","3GA6AFUKOPAI6JM4FATMXIMZSNHH3Z","ANK8K5WTHJ61C","3UUIU9GZC5R93N292LT21FRJ9VS5TN","","649.7999999523163","img/flower1.png","74","650.3999999761581","1","1","2","2","1,0,0,1,1,0,1,0,1","0,0,1,1,0,1,0,1,1","2",""
"","html-keyboard-response","41","152416","0.0-41.0","3GA6AFUKOPAI6JM4FATMXIMZSNHH3Z","ANK8K5WTHJ61C","3UUIU9GZC5R93N292LT21FRJ9VS5TN","","null","<img src=""img/flower1.png"" style=""width:200px; border:14px solid green;"">","null","","","","","","","","",""
"","image-keyboard-response","42","153012","0.0-42.0","3GA6AFUKOPAI6JM4FATMXIMZSNHH3Z","ANK8K5WTHJ61C","3UUIU9GZC5R93N292LT21FRJ9VS5TN","","594","img/flower6.png","75","595.6999999284744","2","1","3","2","1,0,0,1,1,0,1,0,1","0,0,1,1,0,1,0,1,1","2",""
"","html-keyboard-response","43","153319","0.0-43.0","3GA6AFUKOPAI6JM4FATMXIMZSNHH3Z","ANK8K5WTHJ61C","3UUIU9GZC5R93N292LT21FRJ9VS5TN","","null","<img src=""img/flower6.png"" style=""width:200px; border:14px solid green;"">","null","","","","","","","","",""
"","image-keyboard-response","44","153944","0.0-44.0","3GA6AFUKOPAI6JM4FATMXIMZSNHH3Z","ANK8K5WTHJ61C","3UUIU9GZC5R93N292LT21FRJ9VS5TN","","623.8000000715256","img/flower4.png","74","624.6999999284744","1","0","1","2","1,0,0,1,1,0,1,0,1","0,0,1,1,0,1,0,1,1","2",""
"","html-keyboard-response","45","154252","0.0-45.0","3GA6AFUKOPAI6JM4FATMXIMZSNHH3Z","ANK8K5WTHJ61C","3UUIU9GZC5R93N292LT21FRJ9VS5TN","","null","<img src=""img/flower4.png"" style=""width:200px;border:14px solid red;"">","null","","","","","","","","",""
"","image-keyboard-response","46","155024","0.0-46.0","3GA6AFUKOPAI6JM4FATMXIMZSNHH3Z","ANK8K5WTHJ61C","3UUIU9GZC5R93N292LT21FRJ9VS5TN","","769.7000000476837","img/flower1.png","74","771.2999999523163","1","1","2","2","1,0,0,1,1,0,1,0,1","0,0,1,1,0,1,0,1,1","2",""
"","html-keyboard-response","47","155326","0.0-47.0","3GA6AFUKOPAI6JM4FATMXIMZSNHH3Z","ANK8K5WTHJ61C","3UUIU9GZC5R93N292LT21FRJ9VS5TN","","null","<img src=""img/flower1.png"" style=""width:200px; border:14px solid green;"">","null","","","","","","","","",""
"","image-keyboard-response","48","155924","0.0-48.0","3GA6AFUKOPAI6JM4FATMXIMZSNHH3Z","ANK8K5WTHJ61C","3UUIU9GZC5R93N292LT21FRJ9VS5TN","","596.8999999761581","img/flower4.png","75","597.7000000476837","2","0","1","2","1,0,0,1,1,0,1,0,1","0,0,1,1,0,1,0,1,1","2",""
"","html-keyboard-response","49","156232","0.0-49.0","3GA6AFUKOPAI6JM4FATMXIMZSNHH3Z","ANK8K5WTHJ61C","3UUIU9GZC5R93N292LT21FRJ9VS5TN","","null","<img src=""img/flower4.png"" style=""width:200px;border:14px solid red;"">","null","","","","","","","","",""
"","image-keyboard-response","50","156952","0.0-50.0","3GA6AFUKOPAI6JM4FATMXIMZSNHH3Z","ANK8K5WTHJ61C","3UUIU9GZC5R93N292LT21FRJ9VS5TN","","718.2000000476837","img/flower1.png","74","719.6000000238419","1","1","2","2","1,0,0,1,1,0,1,0,1","0,0,1,1,0,1,0,1,1","2",""
"","html-keyboard-response","51","157257","0.0-51.0","3GA6AFUKOPAI6JM4FATMXIMZSNHH3Z","ANK8K5WTHJ61C","3UUIU9GZC5R93N292LT21FRJ9VS5TN","","null","<img src=""img/flower1.png"" style=""width:200px; border:14px solid green;"">","null","","","","","","","","",""
"","image-keyboard-response","52","157991","0.0-52.0","3GA6AFUKOPAI6JM4FATMXIMZSNHH3Z","ANK8K5WTHJ61C","3UUIU9GZC5R93N292LT21FRJ9VS5TN","","733.7000000476837","img/flower4.png","75","734","2","0","1","2","1,0,0,1,1,0,1,0,1","0,0,1,1,0,1,0,1,1","2",""
"","html-keyboard-response","53","158297","0.0-53.0","3GA6AFUKOPAI6JM4FATMXIMZSNHH3Z","ANK8K5WTHJ61C","3UUIU9GZC5R93N292LT21FRJ9VS5TN","","null","<img src=""img/flower4.png"" style=""width:200px;border:14px solid red;"">","null","","","","","","","","",""
"","image-keyboard-response","54","158805","0.0-54.0","3GA6AFUKOPAI6JM4FATMXIMZSNHH3Z","ANK8K5WTHJ61C","3UUIU9GZC5R93N292LT21FRJ9VS5TN","","505.2999999523163","img/flower4.png","74","507.10000002384186","1","0","1","2","1,0,0,1,1,0,1,0,1","0,0,1,1,0,1,0,1,1","2",""
"","html-keyboard-response","55","159108","0.0-55.0","3GA6AFUKOPAI6JM4FATMXIMZSNHH3Z","ANK8K5WTHJ61C","3UUIU9GZC5R93N292LT21FRJ9VS5TN","","null","<img src=""img/flower4.png"" style=""width:200px;border:14px solid red;"">","null","","","","","","","","",""
"","image-keyboard-response","56","159615","0.0-56.0","3GA6AFUKOPAI6JM4FATMXIMZSNHH3Z","ANK8K5WTHJ61C","3UUIU9GZC5R93N292LT21FRJ9VS5TN","","504.8000000715256","img/flower4.png","76","506.60000002384186","3","1","1","2","1,0,0,1,1,0,1,0,1","0,0,1,1,0,1,0,1,1","2",""
"","html-keyboard-response","57","159922","0.0-57.0","3GA6AFUKOPAI6JM4FATMXIMZSNHH3Z","ANK8K5WTHJ61C","3UUIU9GZC5R93N292LT21FRJ9VS5TN","","null","<img src=""img/flower4.png"" style=""width:200px; border:14px solid green;"">","null","","","","","","","","",""
"","image-keyboard-response","58","160992","0.0-58.0","3GA6AFUKOPAI6JM4FATMXIMZSNHH3Z","ANK8K5WTHJ61C","3UUIU9GZC5R93N292LT21FRJ9VS5TN","","1068","img/flower1.png","74","1069.3999999761581","1","1","2","2","1,0,0,1,1,0,1,0,1","0,0,1,1,0,1,0,1,1","2",""
"","html-keyboard-response","59","161294","0.0-59.0","3GA6AFUKOPAI6JM4FATMXIMZSNHH3Z","ANK8K5WTHJ61C","3UUIU9GZC5R93N292LT21FRJ9VS5TN","","null","<img src=""img/flower1.png"" style=""width:200px; border:14px solid green;"">","null","","","","","","","","",""
"","image-keyboard-response","60","161864","0.0-60.0","3GA6AFUKOPAI6JM4FATMXIMZSNHH3Z","ANK8K5WTHJ61C","3UUIU9GZC5R93N292LT21FRJ9VS5TN","","569.7999999523163","img/flower1.png","74","570.1999999284744","1","1","2","2","1,0,0,1,1,0,1,0,1","0,0,1,1,0,1,0,1,1","2",""
"","html-keyboard-response","61","162171","0.0-61.0","3GA6AFUKOPAI6JM4FATMXIMZSNHH3Z","ANK8K5WTHJ61C","3UUIU9GZC5R93N292LT21FRJ9VS5TN","","null","<img src=""img/flower1.png"" style=""width:200px; border:14px solid green;"">","null","","","","","","","","",""
"","image-keyboard-response","62","162884","0.0-62.0","3GA6AFUKOPAI6JM4FATMXIMZSNHH3Z","ANK8K5WTHJ61C","3UUIU9GZC5R93N292LT21FRJ9VS5TN","","711.3000000715256","img/flower6.png","76","712.8000000715256","3","1","3","2","1,0,0,1,1,0,1,0,1","0,0,1,1,0,1,0,1,1","2",""
"","html-keyboard-response","63","163191","0.0-63.0","3GA6AFUKOPAI6JM4FATMXIMZSNHH3Z","ANK8K5WTHJ61C","3UUIU9GZC5R93N292LT21FRJ9VS5TN","","null","<img src=""img/flower6.png"" style=""width:200px; border:14px solid green;"">","null","","","","","","","","",""
"","image-keyboard-response","64","163815","0.0-64.0","3GA6AFUKOPAI6JM4FATMXIMZSNHH3Z","ANK8K5WTHJ61C","3UUIU9GZC5R93N292LT21FRJ9VS5TN","","622.8000000715256","img/flower6.png","74","623.8999999761581","1","0","3","2","1,0,0,1,1,0,1,0,1","0,0,1,1,0,1,0,1,1","2",""
"","html-keyboard-response","65","164122","0.0-65.0","3GA6AFUKOPAI6JM4FATMXIMZSNHH3Z","ANK8K5WTHJ61C","3UUIU9GZC5R93N292LT21FRJ9VS5TN","","null","<img src=""img/flower6.png"" style=""width:200px;border:14px solid red;"">","null","","","","","","","","",""
"","image-keyboard-response","66","165164","0.0-66.0","3GA6AFUKOPAI6JM4FATMXIMZSNHH3Z","ANK8K5WTHJ61C","3UUIU9GZC5R93N292LT21FRJ9VS5TN","","1041.1000000238419","img/flower1.png","74","1041.8999999761581","1","1","2","2","1,0,0,1,1,0,1,0,1","0,0,1,1,0,1,0,1,1","2",""
"","html-keyboard-response","67","165471","0.0-67.0","3GA6AFUKOPAI6JM4FATMXIMZSNHH3Z","ANK8K5WTHJ61C","3UUIU9GZC5R93N292LT21FRJ9VS5TN","","null","<img src=""img/flower1.png"" style=""width:200px; border:14px solid green;"">","null","","","","","","","","",""
"","image-keyboard-response","68","166455","0.0-68.0","3GA6AFUKOPAI6JM4FATMXIMZSNHH3Z","ANK8K5WTHJ61C","3UUIU9GZC5R93N292LT21FRJ9VS5TN","","983.3000000715256","img/flower4.png","75","984.3000000715256","2","0","1","2","1,0,0,1,1,0,1,0,1","0,0,1,1,0,1,0,1,1","2",""
"","html-keyboard-response","69","166761","0.0-69.0","3GA6AFUKOPAI6JM4FATMXIMZSNHH3Z","ANK8K5WTHJ61C","3UUIU9GZC5R93N292LT21FRJ9VS5TN","","null","<img src=""img/flower4.png"" style=""width:200px;border:14px solid red;"">","null","","","","","","","","",""
"","image-keyboard-response","70","167319","0.0-70.0","3GA6AFUKOPAI6JM4FATMXIMZSNHH3Z","ANK8K5WTHJ61C","3UUIU9GZC5R93N292LT21FRJ9VS5TN","","556.1000000238419","img/flower4.png","76","557.2999999523163","3","1","1","2","1,0,0,1,1,0,1,0,1","0,0,1,1,0,1,0,1,1","2",""
"","html-keyboard-response","71","167625","0.0-71.0","3GA6AFUKOPAI6JM4FATMXIMZSNHH3Z","ANK8K5WTHJ61C","3UUIU9GZC5R93N292LT21FRJ9VS5TN","","null","<img src=""img/flower4.png"" style=""width:200px; border:14px solid green;"">","null","","","","","","","","",""
"","image-keyboard-response","72","168374","0.0-72.0","3GA6AFUKOPAI6JM4FATMXIMZSNHH3Z","ANK8K5WTHJ61C","3UUIU9GZC5R93N292LT21FRJ9VS5TN","","746","img/flower1.png","74","747.7000000476837","1","1","2","2","1,0,0,1,1,0,1,0,1","0,0,1,1,0,1,0,1,1","2",""
"","html-keyboard-response","73","168678","0.0-73.0","3GA6AFUKOPAI6JM4FATMXIMZSNHH3Z","ANK8K5WTHJ61C","3UUIU9GZC5R93N292LT21FRJ9VS5TN","","null","<img src=""img/flower1.png"" style=""width:200px; border:14px solid green;"">","null","","","","","","","","",""
"","image-keyboard-response","74","169154","0.0-74.0","3GA6AFUKOPAI6JM4FATMXIMZSNHH3Z","ANK8K5WTHJ61C","3UUIU9GZC5R93N292LT21FRJ9VS5TN","","473.7999999523163","img/flower4.png","76","475.5","3","1","1","2","1,0,0,1,1,0,1,0,1","0,0,1,1,0,1,0,1,1","2",""
"","html-keyboard-response","75","169462","0.0-75.0","3GA6AFUKOPAI6JM4FATMXIMZSNHH3Z","ANK8K5WTHJ61C","3UUIU9GZC5R93N292LT21FRJ9VS5TN","","null","<img src=""img/flower4.png"" style=""width:200px; border:14px solid green;"">","null","","","","","","","","",""
"","image-keyboard-response","76","170172","0.0-76.0","3GA6AFUKOPAI6JM4FATMXIMZSNHH3Z","ANK8K5WTHJ61C","3UUIU9GZC5R93N292LT21FRJ9VS5TN","","709.1999999284744","img/flower1.png","74","709.7999999523163","1","1","2","2","1,0,0,1,1,0,1,0,1","0,0,1,1,0,1,0,1,1","2",""
"","html-keyboard-response","77","170477","0.0-77.0","3GA6AFUKOPAI6JM4FATMXIMZSNHH3Z","ANK8K5WTHJ61C","3UUIU9GZC5R93N292LT21FRJ9VS5TN","","null","<img src=""img/flower1.png"" style=""width:200px; border:14px solid green;"">","null","","","","","","","","",""
"","image-keyboard-response","78","171044","0.0-78.0","3GA6AFUKOPAI6JM4FATMXIMZSNHH3Z","ANK8K5WTHJ61C","3UUIU9GZC5R93N292LT21FRJ9VS5TN","","564.6000000238419","img/flower6.png","76","566.2000000476837","3","1","3","2","1,0,0,1,1,0,1,0,1","0,0,1,1,0,1,0,1,1","2",""
"","html-keyboard-response","79","171351","0.0-79.0","3GA6AFUKOPAI6JM4FATMXIMZSNHH3Z","ANK8K5WTHJ61C","3UUIU9GZC5R93N292LT21FRJ9VS5TN","","null","<img src=""img/flower6.png"" style=""width:200px; border:14px solid green;"">","null","","","","","","","","",""
"","image-keyboard-response","80","172396","0.0-80.0","3GA6AFUKOPAI6JM4FATMXIMZSNHH3Z","ANK8K5WTHJ61C","3UUIU9GZC5R93N292LT21FRJ9VS5TN","","1043.8000000715256","img/flower4.png","76","1044.5","3","1","1","2","1,0,0,1,1,0,1,0,1","0,0,1,1,0,1,0,1,1","2",""
"","html-keyboard-response","81","172703","0.0-81.0","3GA6AFUKOPAI6JM4FATMXIMZSNHH3Z","ANK8K5WTHJ61C","3UUIU9GZC5R93N292LT21FRJ9VS5TN","","null","<img src=""img/flower4.png"" style=""width:200px; border:14px solid green;"">","null","","","","","","","","",""
"","image-keyboard-response","82","173503","0.0-82.0","3GA6AFUKOPAI6JM4FATMXIMZSNHH3Z","ANK8K5WTHJ61C","3UUIU9GZC5R93N292LT21FRJ9VS5TN","","798.2000000476837","img/flower1.png","74","799.6999999284744","1","1","2","2","1,0,0,1,1,0,1,0,1","0,0,1,1,0,1,0,1,1","2",""
"","html-keyboard-response","83","173806","0.0-83.0","3GA6AFUKOPAI6JM4FATMXIMZSNHH3Z","ANK8K5WTHJ61C","3UUIU9GZC5R93N292LT21FRJ9VS5TN","","null","<img src=""img/flower1.png"" style=""width:200px; border:14px solid green;"">","null","","","","","","","","",""
"","image-keyboard-response","84","174494","0.0-84.0","3GA6AFUKOPAI6JM4FATMXIMZSNHH3Z","ANK8K5WTHJ61C","3UUIU9GZC5R93N292LT21FRJ9VS5TN","","685.9000000953674","img/flower1.png","74","687.5999999046326","1","1","2","2","1,0,0,1,1,0,1,0,1","0,0,1,1,0,1,0,1,1","2",""
"","html-keyboard-response","85","174801","0.0-85.0","3GA6AFUKOPAI6JM4FATMXIMZSNHH3Z","ANK8K5WTHJ61C","3UUIU9GZC5R93N292LT21FRJ9VS5TN","","null","<img src=""img/flower1.png"" style=""width:200px; border:14px solid green;"">","null","","","","","","","","",""
"","image-keyboard-response","86","175419","0.0-86.0","3GA6AFUKOPAI6JM4FATMXIMZSNHH3Z","ANK8K5WTHJ61C","3UUIU9GZC5R93N292LT21FRJ9VS5TN","","616.7999999523163","img/flower6.png","76","618","3","1","3","2","1,0,0,1,1,0,1,0,1","0,0,1,1,0,1,0,1,1","2",""
"","html-keyboard-response","87","175726","0.0-87.0","3GA6AFUKOPAI6JM4FATMXIMZSNHH3Z","ANK8K5WTHJ61C","3UUIU9GZC5R93N292LT21FRJ9VS5TN","","null","<img src=""img/flower6.png"" style=""width:200px; border:14px solid green;"">","null","","","","","","","","",""
"","image-keyboard-response","88","176415","0.0-88.0","3GA6AFUKOPAI6JM4FATMXIMZSNHH3Z","ANK8K5WTHJ61C","3UUIU9GZC5R93N292LT21FRJ9VS5TN","","687","img/flower1.png","74","688.7999999523163","1","1","2","2","1,0,0,1,1,0,1,0,1","0,0,1,1,0,1,0,1,1","2",""
"","html-keyboard-response","89","176722","0.0-89.0","3GA6AFUKOPAI6JM4FATMXIMZSNHH3Z","ANK8K5WTHJ61C","3UUIU9GZC5R93N292LT21FRJ9VS5TN","","null","<img src=""img/flower1.png"" style=""width:200px; border:14px solid green;"">","null","","","","","","","","",""
"","image-keyboard-response","90","177523","0.0-90.0","3GA6AFUKOPAI6JM4FATMXIMZSNHH3Z","ANK8K5WTHJ61C","3UUIU9GZC5R93N292LT21FRJ9VS5TN","","798.7000000476837","img/flower1.png","74","800.2000000476837","1","1","2","2","1,0,0,1,1,0,1,0,1","0,0,1,1,0,1,0,1,1","2",""
"","html-keyboard-response","91","177830","0.0-91.0","3GA6AFUKOPAI6JM4FATMXIMZSNHH3Z","ANK8K5WTHJ61C","3UUIU9GZC5R93N292LT21FRJ9VS5TN","","null","<img src=""img/flower1.png"" style=""width:200px; border:14px solid green;"">","null","","","","","","","","",""
"","image-keyboard-response","92","178455","0.0-92.0","3GA6AFUKOPAI6JM4FATMXIMZSNHH3Z","ANK8K5WTHJ61C","3UUIU9GZC5R93N292LT21FRJ9VS5TN","","623.3999999761581","img/flower6.png","76","625.1000000238419","3","1","3","2","1,0,0,1,1,0,1,0,1","0,0,1,1,0,1,0,1,1","2",""
"","html-keyboard-response","93","178758","0.0-93.0","3GA6AFUKOPAI6JM4FATMXIMZSNHH3Z","ANK8K5WTHJ61C","3UUIU9GZC5R93N292LT21FRJ9VS5TN","","null","<img src=""img/flower6.png"" style=""width:200px; border:14px solid green;"">","null","","","","","","","","",""
"","image-keyboard-response","94","179259","0.0-94.0","3GA6AFUKOPAI6JM4FATMXIMZSNHH3Z","ANK8K5WTHJ61C","3UUIU9GZC5R93N292LT21FRJ9VS5TN","","499.3000000715256","img/flower6.png","76","500.60000002384186","3","1","3","2","1,0,0,1,1,0,1,0,1","0,0,1,1,0,1,0,1,1","2",""
"","html-keyboard-response","95","179561","0.0-95.0","3GA6AFUKOPAI6JM4FATMXIMZSNHH3Z","ANK8K5WTHJ61C","3UUIU9GZC5R93N292LT21FRJ9VS5TN","","null","<img src=""img/flower6.png"" style=""width:200px; border:14px solid green;"">","null","","","","","","","","",""
"","image-keyboard-response","96","180194","0.0-96.0","3GA6AFUKOPAI6JM4FATMXIMZSNHH3Z","ANK8K5WTHJ61C","3UUIU9GZC5R93N292LT21FRJ9VS5TN","","630.6999999284744","img/flower1.png","74","632.5","1","1","2","2","1,0,0,1,1,0,1,0,1","0,0,1,1,0,1,0,1,1","2",""
"","html-keyboard-response","97","180501","0.0-97.0","3GA6AFUKOPAI6JM4FATMXIMZSNHH3Z","ANK8K5WTHJ61C","3UUIU9GZC5R93N292LT21FRJ9VS5TN","","null","<img src=""img/flower1.png"" style=""width:200px; border:14px solid green;"">","null","","","","","","","","",""
"","image-keyboard-response","98","181180","0.0-98.0","3GA6AFUKOPAI6JM4FATMXIMZSNHH3Z","ANK8K5WTHJ61C","3UUIU9GZC5R93N292LT21FRJ9VS5TN","","677","img/flower6.png","76","678.3999999761581","3","1","3","2","1,0,0,1,1,0,1,0,1","0,0,1,1,0,1,0,1,1","2",""
"","html-keyboard-response","99","181486","0.0-99.0","3GA6AFUKOPAI6JM4FATMXIMZSNHH3Z","ANK8K5WTHJ61C","3UUIU9GZC5R93N292LT21FRJ9VS5TN","","null","<img src=""img/flower6.png"" style=""width:200px; border:14px solid green;"">","null","","","","","","","","",""
"","image-keyboard-response","100","182143","0.0-100.0","3GA6AFUKOPAI6JM4FATMXIMZSNHH3Z","ANK8K5WTHJ61C","3UUIU9GZC5R93N292LT21FRJ9VS5TN","","655","img/flower4.png","76","656.2000000476837","3","1","1","2","1,0,0,1,1,0,1,0,1","0,0,1,1,0,1,0,1,1","2",""
"","html-keyboard-response","101","182449","0.0-101.0","3GA6AFUKOPAI6JM4FATMXIMZSNHH3Z","ANK8K5WTHJ61C","3UUIU9GZC5R93N292LT21FRJ9VS5TN","","null","<img src=""img/flower4.png"" style=""width:200px; border:14px solid green;"">","null","","","","","","","","",""
"","image-keyboard-response","102","182984","0.0-102.0","3GA6AFUKOPAI6JM4FATMXIMZSNHH3Z","ANK8K5WTHJ61C","3UUIU9GZC5R93N292LT21FRJ9VS5TN","","532.7000000476837","img/flower4.png","76","534.3000000715256","3","1","1","2","1,0,0,1,1,0,1,0,1","0,0,1,1,0,1,0,1,1","2",""
"","html-keyboard-response","103","183288","0.0-103.0","3GA6AFUKOPAI6JM4FATMXIMZSNHH3Z","ANK8K5WTHJ61C","3UUIU9GZC5R93N292LT21FRJ9VS5TN","","null","<img src=""img/flower4.png"" style=""width:200px; border:14px solid green;"">","null","","","","","","","","",""
"","image-keyboard-response","104","183915","0.0-104.0","3GA6AFUKOPAI6JM4FATMXIMZSNHH3Z","ANK8K5WTHJ61C","3UUIU9GZC5R93N292LT21FRJ9VS5TN","","625.7999999523163","img/flower6.png","76","626.5","3","1","3","2","1,0,0,1,1,0,1,0,1","0,0,1,1,0,1,0,1,1","2",""
"","html-keyboard-response","105","184222","0.0-105.0","3GA6AFUKOPAI6JM4FATMXIMZSNHH3Z","ANK8K5WTHJ61C","3UUIU9GZC5R93N292LT21FRJ9VS5TN","","null","<img src=""img/flower6.png"" style=""width:200px; border:14px solid green;"">","null","","","","","","","","",""
"","image-keyboard-response","106","184754","0.0-106.0","3GA6AFUKOPAI6JM4FATMXIMZSNHH3Z","ANK8K5WTHJ61C","3UUIU9GZC5R93N292LT21FRJ9VS5TN","","529.6000000238419","img/flower6.png","76","531.2999999523163","3","1","3","2","1,0,0,1,1,0,1,0,1","0,0,1,1,0,1,0,1,1","2",""
"","html-keyboard-response","107","185061","0.0-107.0","3GA6AFUKOPAI6JM4FATMXIMZSNHH3Z","ANK8K5WTHJ61C","3UUIU9GZC5R93N292LT21FRJ9VS5TN","","null","<img src=""img/flower6.png"" style=""width:200px; border:14px solid green;"">","null","","","","","","","","",""
"","image-keyboard-response","108","185622","0.0-108.0","3GA6AFUKOPAI6JM4FATMXIMZSNHH3Z","ANK8K5WTHJ61C","3UUIU9GZC5R93N292LT21FRJ9VS5TN","","559.5","img/flower6.png","76","560.8000000715256","3","1","3","2","1,0,0,1,1,0,1,0,1","0,0,1,1,0,1,0,1,1","2",""
"","html-keyboard-response","109","185927","0.0-109.0","3GA6AFUKOPAI6JM4FATMXIMZSNHH3Z","ANK8K5WTHJ61C","3UUIU9GZC5R93N292LT21FRJ9VS5TN","","null","<img src=""img/flower6.png"" style=""width:200px; border:14px solid green;"">","null","","","","","","","","",""
"","image-keyboard-response","110","186644","0.0-110.0","3GA6AFUKOPAI6JM4FATMXIMZSNHH3Z","ANK8K5WTHJ61C","3UUIU9GZC5R93N292LT21FRJ9VS5TN","","714.3999999761581","img/flower4.png","76","715.8999999761581","3","1","1","2","1,0,0,1,1,0,1,0,1","0,0,1,1,0,1,0,1,1","2",""
"","html-keyboard-response","111","186951","0.0-111.0","3GA6AFUKOPAI6JM4FATMXIMZSNHH3Z","ANK8K5WTHJ61C","3UUIU9GZC5R93N292LT21FRJ9VS5TN","","null","<img src=""img/flower4.png"" style=""width:200px; border:14px solid green;"">","null","","","","","","","","",""
"","image-keyboard-response","112","187514","0.0-112.0","3GA6AFUKOPAI6JM4FATMXIMZSNHH3Z","ANK8K5WTHJ61C","3UUIU9GZC5R93N292LT21FRJ9VS5TN","","560.8999999761581","img/flower6.png","76","562.5","3","1","3","2","1,0,0,1,1,0,1,0,1","0,0,1,1,0,1,0,1,1","2",""
"","html-keyboard-response","113","187817","0.0-113.0","3GA6AFUKOPAI6JM4FATMXIMZSNHH3Z","ANK8K5WTHJ61C","3UUIU9GZC5R93N292LT21FRJ9VS5TN","","null","<img src=""img/flower6.png"" style=""width:200px; border:14px solid green;"">","null","","","","","","","","",""
"","image-keyboard-response","114","188414","0.0-114.0","3GA6AFUKOPAI6JM4FATMXIMZSNHH3Z","ANK8K5WTHJ61C","3UUIU9GZC5R93N292LT21FRJ9VS5TN","","595","img/flower6.png","76","596.7000000476837","3","1","3","2","1,0,0,1,1,0,1,0,1","0,0,1,1,0,1,0,1,1","2",""
"","html-keyboard-response","115","188721","0.0-115.0","3GA6AFUKOPAI6JM4FATMXIMZSNHH3Z","ANK8K5WTHJ61C","3UUIU9GZC5R93N292LT21FRJ9VS5TN","","null","<img src=""img/flower6.png"" style=""width:200px; border:14px solid green;"">","null","","","","","","","","",""
"","image-keyboard-response","116","189370","0.0-116.0","3GA6AFUKOPAI6JM4FATMXIMZSNHH3Z","ANK8K5WTHJ61C","3UUIU9GZC5R93N292LT21FRJ9VS5TN","","648.2000000476837","img/flower4.png","76","649.4000000953674","3","1","1","2","1,0,0,1,1,0,1,0,1","0,0,1,1,0,1,0,1,1","2",""
"","html-keyboard-response","117","189673","0.0-117.0","3GA6AFUKOPAI6JM4FATMXIMZSNHH3Z","ANK8K5WTHJ61C","3UUIU9GZC5R93N292LT21FRJ9VS5TN","","null","<img src=""img/flower4.png"" style=""width:200px; border:14px solid green;"">","null","","","","","","","","",""
"","image-keyboard-response","118","190364","0.0-118.0","3GA6AFUKOPAI6JM4FATMXIMZSNHH3Z","ANK8K5WTHJ61C","3UUIU9GZC5R93N292LT21FRJ9VS5TN","","689.7000000476837","img/flower1.png","74","691.3000000715256","1","1","2","2","1,0,0,1,1,0,1,0,1","0,0,1,1,0,1,0,1,1","2",""
"","html-keyboard-response","119","190670","0.0-119.0","3GA6AFUKOPAI6JM4FATMXIMZSNHH3Z","ANK8K5WTHJ61C","3UUIU9GZC5R93N292LT21FRJ9VS5TN","","null","<img src=""img/flower1.png"" style=""width:200px; border:14px solid green;"">","null","","","","","","","","",""
"","image-keyboard-response","120","191261","0.0-120.0","3GA6AFUKOPAI6JM4FATMXIMZSNHH3Z","ANK8K5WTHJ61C","3UUIU9GZC5R93N292LT21FRJ9VS5TN","","589.1000000238419","img/flower4.png","76","590.1000000238419","3","1","1","2","1,0,0,1,1,0,1,0,1","0,0,1,1,0,1,0,1,1","2",""
"","html-keyboard-response","121","191566","0.0-121.0","3GA6AFUKOPAI6JM4FATMXIMZSNHH3Z","ANK8K5WTHJ61C","3UUIU9GZC5R93N292LT21FRJ9VS5TN","","null","<img src=""img/flower4.png"" style=""width:200px; border:14px solid green;"">","null","","","","","","","","",""
"","image-keyboard-response","122","192072","0.0-122.0","3GA6AFUKOPAI6JM4FATMXIMZSNHH3Z","ANK8K5WTHJ61C","3UUIU9GZC5R93N292LT21FRJ9VS5TN","","504.60000002384186","img/flower4.png","76","505.10000002384186","3","1","1","2","1,0,0,1,1,0,1,0,1","0,0,1,1,0,1,0,1,1","2",""
"","html-keyboard-response","123","192378","0.0-123.0","3GA6AFUKOPAI6JM4FATMXIMZSNHH3Z","ANK8K5WTHJ61C","3UUIU9GZC5R93N292LT21FRJ9VS5TN","","null","<img src=""img/flower4.png"" style=""width:200px; border:14px solid green;"">","null","","","","","","","","",""
"","image-keyboard-response","124","192854","0.0-124.0","3GA6AFUKOPAI6JM4FATMXIMZSNHH3Z","ANK8K5WTHJ61C","3UUIU9GZC5R93N292LT21FRJ9VS5TN","","473.39999997615814","img/flower4.png","76","474.7999999523163","3","1","1","2","1,0,0,1,1,0,1,0,1","0,0,1,1,0,1,0,1,1","2",""
"","html-keyboard-response","125","193160","0.0-125.0","3GA6AFUKOPAI6JM4FATMXIMZSNHH3Z","ANK8K5WTHJ61C","3UUIU9GZC5R93N292LT21FRJ9VS5TN","","null","<img src=""img/flower4.png"" style=""width:200px; border:14px solid green;"">","null","","","","","","","","",""
"","image-keyboard-response","126","193695","0.0-126.0","3GA6AFUKOPAI6JM4FATMXIMZSNHH3Z","ANK8K5WTHJ61C","3UUIU9GZC5R93N292LT21FRJ9VS5TN","","533.5","img/flower6.png","76","534.2999999523163","3","1","3","2","1,0,0,1,1,0,1,0,1","0,0,1,1,0,1,0,1,1","2",""
"","html-keyboard-response","127","193998","0.0-127.0","3GA6AFUKOPAI6JM4FATMXIMZSNHH3Z","ANK8K5WTHJ61C","3UUIU9GZC5R93N292LT21FRJ9VS5TN","","null","<img src=""img/flower6.png"" style=""width:200px; border:14px solid green;"">","null","","","","","","","","",""
"","image-keyboard-response","128","194505","0.0-128.0","3GA6AFUKOPAI6JM4FATMXIMZSNHH3Z","ANK8K5WTHJ61C","3UUIU9GZC5R93N292LT21FRJ9VS5TN","","506","img/flower4.png","76","506.89999997615814","3","1","1","2","1,0,0,1,1,0,1,0,1","0,0,1,1,0,1,0,1,1","2",""
"","html-keyboard-response","129","194813","0.0-129.0","3GA6AFUKOPAI6JM4FATMXIMZSNHH3Z","ANK8K5WTHJ61C","3UUIU9GZC5R93N292LT21FRJ9VS5TN","","null","<img src=""img/flower4.png"" style=""width:200px; border:14px solid green;"">","null","","","","","","","","",""
"","image-keyboard-response","130","195279","0.0-130.0","3GA6AFUKOPAI6JM4FATMXIMZSNHH3Z","ANK8K5WTHJ61C","3UUIU9GZC5R93N292LT21FRJ9VS5TN","","465.10000002384186","img/flower1.png","74","466.3000000715256","1","1","2","2","1,0,0,1,1,0,1,0,1","0,0,1,1,0,1,0,1,1","2",""
"","html-keyboard-response","131","195584","0.0-131.0","3GA6AFUKOPAI6JM4FATMXIMZSNHH3Z","ANK8K5WTHJ61C","3UUIU9GZC5R93N292LT21FRJ9VS5TN","","null","<img src=""img/flower1.png"" style=""width:200px; border:14px solid green;"">","null","","","","","","","","",""
"","image-keyboard-response","132","196154","0.0-132.0","3GA6AFUKOPAI6JM4FATMXIMZSNHH3Z","ANK8K5WTHJ61C","3UUIU9GZC5R93N292LT21FRJ9VS5TN","","568.6000000238419","img/flower6.png","76","570.4000000953674","3","1","3","2","1,0,0,1,1,0,1,0,1","0,0,1,1,0,1,0,1,1","2",""
"","html-keyboard-response","133","196461","0.0-133.0","3GA6AFUKOPAI6JM4FATMXIMZSNHH3Z","ANK8K5WTHJ61C","3UUIU9GZC5R93N292LT21FRJ9VS5TN","","null","<img src=""img/flower6.png"" style=""width:200px; border:14px solid green;"">","null","","","","","","","","",""
"","image-keyboard-response","134","197114","0.0-134.0","3GA6AFUKOPAI6JM4FATMXIMZSNHH3Z","ANK8K5WTHJ61C","3UUIU9GZC5R93N292LT21FRJ9VS5TN","","650.8999999761581","img/flower4.png","76","652.5","3","1","1","2","1,0,0,1,1,0,1,0,1","0,0,1,1,0,1,0,1,1","2",""
"","html-keyboard-response","135","197421","0.0-135.0","3GA6AFUKOPAI6JM4FATMXIMZSNHH3Z","ANK8K5WTHJ61C","3UUIU9GZC5R93N292LT21FRJ9VS5TN","","null","<img src=""img/flower4.png"" style=""width:200px; border:14px solid green;"">","null","","","","","","","","",""
"","image-keyboard-response","136","198228","0.0-136.0","3GA6AFUKOPAI6JM4FATMXIMZSNHH3Z","ANK8K5WTHJ61C","3UUIU9GZC5R93N292LT21FRJ9VS5TN","","805.7000000476837","img/flower1.png","74","806.6999999284744","1","1","2","2","1,0,0,1,1,0,1,0,1","0,0,1,1,0,1,0,1,1","2",""
"","html-keyboard-response","137","198535","0.0-137.0","3GA6AFUKOPAI6JM4FATMXIMZSNHH3Z","ANK8K5WTHJ61C","3UUIU9GZC5R93N292LT21FRJ9VS5TN","","null","<img src=""img/flower1.png"" style=""width:200px; border:14px solid green;"">","null","","","","","","","","",""
"","image-keyboard-response","138","199154","0.0-138.0","3GA6AFUKOPAI6JM4FATMXIMZSNHH3Z","ANK8K5WTHJ61C","3UUIU9GZC5R93N292LT21FRJ9VS5TN","","617.2000000476837","img/flower6.png","76","618.9000000953674","3","1","3","2","1,0,0,1,1,0,1,0,1","0,0,1,1,0,1,0,1,1","2",""
"","html-keyboard-response","139","199461","0.0-139.0","3GA6AFUKOPAI6JM4FATMXIMZSNHH3Z","ANK8K5WTHJ61C","3UUIU9GZC5R93N292LT21FRJ9VS5TN","","null","<img src=""img/flower6.png"" style=""width:200px; border:14px solid green;"">","null","","","","","","","","",""
"","image-keyboard-response","140","200265","0.0-140.0","3GA6AFUKOPAI6JM4FATMXIMZSNHH3Z","ANK8K5WTHJ61C","3UUIU9GZC5R93N292LT21FRJ9VS5TN","","803.4000000953674","img/flower4.png","76","804.2000000476837","3","1","1","2","1,0,0,1,1,0,1,0,1","0,0,1,1,0,1,0,1,1","2",""
"","html-keyboard-response","141","200569","0.0-141.0","3GA6AFUKOPAI6JM4FATMXIMZSNHH3Z","ANK8K5WTHJ61C","3UUIU9GZC5R93N292LT21FRJ9VS5TN","","null","<img src=""img/flower4.png"" style=""width:200px; border:14px solid green;"">","null","","","","","","","","",""
"","image-keyboard-response","142","201341","0.0-142.0","3GA6AFUKOPAI6JM4FATMXIMZSNHH3Z","ANK8K5WTHJ61C","3UUIU9GZC5R93N292LT21FRJ9VS5TN","","770.3999999761581","img/flower6.png","76","771.3999999761581","3","1","3","2","1,0,0,1,1,0,1,0,1","0,0,1,1,0,1,0,1,1","2",""
"","html-keyboard-response","143","201647","0.0-143.0","3GA6AFUKOPAI6JM4FATMXIMZSNHH3Z","ANK8K5WTHJ61C","3UUIU9GZC5R93N292LT21FRJ9VS5TN","","null","<img src=""img/flower6.png"" style=""width:200px; border:14px solid green;"">","null","","","","","","","","",""
"","image-keyboard-response","144","202335","0.0-144.0","3GA6AFUKOPAI6JM4FATMXIMZSNHH3Z","ANK8K5WTHJ61C","3UUIU9GZC5R93N292LT21FRJ9VS5TN","","685.2000000476837","img/flower1.png","74","686.8999999761581","1","1","2","2","1,0,0,1,1,0,1,0,1","0,0,1,1,0,1,0,1,1","2",""
"","html-keyboard-response","145","202642","0.0-145.0","3GA6AFUKOPAI6JM4FATMXIMZSNHH3Z","ANK8K5WTHJ61C","3UUIU9GZC5R93N292LT21FRJ9VS5TN","","null","<img src=""img/flower1.png"" style=""width:200px; border:14px solid green;"">","null","","","","","","","","",""
"","image-keyboard-response","146","203259","0.0-146.0","3GA6AFUKOPAI6JM4FATMXIMZSNHH3Z","ANK8K5WTHJ61C","3UUIU9GZC5R93N292LT21FRJ9VS5TN","","615.7000000476837","img/flower4.png","76","616.8999999761581","3","1","1","2","1,0,0,1,1,0,1,0,1","0,0,1,1,0,1,0,1,1","2",""
"","html-keyboard-response","147","203560","0.0-147.0","3GA6AFUKOPAI6JM4FATMXIMZSNHH3Z","ANK8K5WTHJ61C","3UUIU9GZC5R93N292LT21FRJ9VS5TN","","null","<img src=""img/flower4.png"" style=""width:200px; border:14px solid green;"">","null","","","","","","","","",""
"","image-keyboard-response","148","203980","0.0-148.0","3GA6AFUKOPAI6JM4FATMXIMZSNHH3Z","ANK8K5WTHJ61C","3UUIU9GZC5R93N292LT21FRJ9VS5TN","","419.2000000476837","img/flower4.png","76","419.8000000715256","3","1","1","2","1,0,0,1,1,0,1,0,1","0,0,1,1,0,1,0,1,1","2",""
"","html-keyboard-response","149","204287","0.0-149.0","3GA6AFUKOPAI6JM4FATMXIMZSNHH3Z","ANK8K5WTHJ61C","3UUIU9GZC5R93N292LT21FRJ9VS5TN","","null","<img src=""img/flower4.png"" style=""width:200px; border:14px solid green;"">","null","","","","","","","","",""
"","image-keyboard-response","150","204796","0.0-150.0","3GA6AFUKOPAI6JM4FATMXIMZSNHH3Z","ANK8K5WTHJ61C","3UUIU9GZC5R93N292LT21FRJ9VS5TN","","506.5","img/flower6.png","76","508.10000002384186","3","1","3","2","1,0,0,1,1,0,1,0,1","0,0,1,1,0,1,0,1,1","2",""
"","html-keyboard-response","151","205103","0.0-151.0","3GA6AFUKOPAI6JM4FATMXIMZSNHH3Z","ANK8K5WTHJ61C","3UUIU9GZC5R93N292LT21FRJ9VS5TN","","null","<img src=""img/flower6.png"" style=""width:200px; border:14px solid green;"">","null","","","","","","","","",""
"","image-keyboard-response","152","205695","0.0-152.0","3GA6AFUKOPAI6JM4FATMXIMZSNHH3Z","ANK8K5WTHJ61C","3UUIU9GZC5R93N292LT21FRJ9VS5TN","","589.5999999046326","img/flower4.png","76","591.1000000238419","3","1","1","2","1,0,0,1,1,0,1,0,1","0,0,1,1,0,1,0,1,1","2",""
"","html-keyboard-response","153","206002","0.0-153.0","3GA6AFUKOPAI6JM4FATMXIMZSNHH3Z","ANK8K5WTHJ61C","3UUIU9GZC5R93N292LT21FRJ9VS5TN","","null","<img src=""img/flower4.png"" style=""width:200px; border:14px solid green;"">","null","","","","","","","","",""
"","image-keyboard-response","154","206505","0.0-154.0","3GA6AFUKOPAI6JM4FATMXIMZSNHH3Z","ANK8K5WTHJ61C","3UUIU9GZC5R93N292LT21FRJ9VS5TN","","501","img/flower6.png","76","502.7999999523163","3","1","3","2","1,0,0,1,1,0,1,0,1","0,0,1,1,0,1,0,1,1","2",""
"","html-keyboard-response","155","206809","0.0-155.0","3GA6AFUKOPAI6JM4FATMXIMZSNHH3Z","ANK8K5WTHJ61C","3UUIU9GZC5R93N292LT21FRJ9VS5TN","","null","<img src=""img/flower6.png"" style=""width:200px; border:14px solid green;"">","null","","","","","","","","",""
"","image-keyboard-response","156","207224","0.0-156.0","3GA6AFUKOPAI6JM4FATMXIMZSNHH3Z","ANK8K5WTHJ61C","3UUIU9GZC5R93N292LT21FRJ9VS5TN","","414","img/flower6.png","76","415.60000002384186","3","1","3","2","1,0,0,1,1,0,1,0,1","0,0,1,1,0,1,0,1,1","2",""
"","html-keyboard-response","157","207532","0.0-157.0","3GA6AFUKOPAI6JM4FATMXIMZSNHH3Z","ANK8K5WTHJ61C","3UUIU9GZC5R93N292LT21FRJ9VS5TN","","null","<img src=""img/flower6.png"" style=""width:200px; border:14px solid green;"">","null","","","","","","","","",""
"","image-keyboard-response","158","208032","0.0-158.0","3GA6AFUKOPAI6JM4FATMXIMZSNHH3Z","ANK8K5WTHJ61C","3UUIU9GZC5R93N292LT21FRJ9VS5TN","","499.59999990463257","img/flower4.png","76","500.10000002384186","3","1","1","2","1,0,0,1,1,0,1,0,1","0,0,1,1,0,1,0,1,1","2",""
"","html-keyboard-response","159","208334","0.0-159.0","3GA6AFUKOPAI6JM4FATMXIMZSNHH3Z","ANK8K5WTHJ61C","3UUIU9GZC5R93N292LT21FRJ9VS5TN","","null","<img src=""img/flower4.png"" style=""width:200px; border:14px solid green;"">","null","","","","","","","","",""
"","image-keyboard-response","160","208844","0.0-160.0","3GA6AFUKOPAI6JM4FATMXIMZSNHH3Z","ANK8K5WTHJ61C","3UUIU9GZC5R93N292LT21FRJ9VS5TN","","507.89999997615814","img/flower1.png","74","509.60000002384186","1","1","2","2","1,0,0,1,1,0,1,0,1","0,0,1,1,0,1,0,1,1","2",""
"","html-keyboard-response","161","209147","0.0-161.0","3GA6AFUKOPAI6JM4FATMXIMZSNHH3Z","ANK8K5WTHJ61C","3UUIU9GZC5R93N292LT21FRJ9VS5TN","","null","<img src=""img/flower1.png"" style=""width:200px; border:14px solid green;"">","null","","","","","","","","",""
"","image-keyboard-response","162","209655","0.0-162.0","3GA6AFUKOPAI6JM4FATMXIMZSNHH3Z","ANK8K5WTHJ61C","3UUIU9GZC5R93N292LT21FRJ9VS5TN","","507.7000000476837","img/flower1.png","74","508.7000000476837","1","1","2","2","1,0,0,1,1,0,1,0,1","0,0,1,1,0,1,0,1,1","2",""
"","html-keyboard-response","163","209960","0.0-163.0","3GA6AFUKOPAI6JM4FATMXIMZSNHH3Z","ANK8K5WTHJ61C","3UUIU9GZC5R93N292LT21FRJ9VS5TN","","null","<img src=""img/flower1.png"" style=""width:200px; border:14px solid green;"">","null","","","","","","","","",""
"","image-keyboard-response","164","210450","0.0-164.0","3GA6AFUKOPAI6JM4FATMXIMZSNHH3Z","ANK8K5WTHJ61C","3UUIU9GZC5R93N292LT21FRJ9VS5TN","","487.60000002384186","img/flower4.png","76","489.2999999523163","3","1","1","2","1,0,0,1,1,0,1,0,1","0,0,1,1,0,1,0,1,1","2",""
"","html-keyboard-response","165","210758","0.0-165.0","3GA6AFUKOPAI6JM4FATMXIMZSNHH3Z","ANK8K5WTHJ61C","3UUIU9GZC5R93N292LT21FRJ9VS5TN","","null","<img src=""img/flower4.png"" style=""width:200px; border:14px solid green;"">","null","","","","","","","","",""
"","image-keyboard-response","166","211390","0.0-166.0","3GA6AFUKOPAI6JM4FATMXIMZSNHH3Z","ANK8K5WTHJ61C","3UUIU9GZC5R93N292LT21FRJ9VS5TN","","630.8999999761581","img/flower1.png","74","632","1","1","2","2","1,0,0,1,1,0,1,0,1","0,0,1,1,0,1,0,1,1","2",""
"","html-keyboard-response","167","211696","0.0-167.0","3GA6AFUKOPAI6JM4FATMXIMZSNHH3Z","ANK8K5WTHJ61C","3UUIU9GZC5R93N292LT21FRJ9VS5TN","","null","<img src=""img/flower1.png"" style=""width:200px; border:14px solid green;"">","null","","","","","","","","",""
"","image-keyboard-response","168","212235","0.0-168.0","3GA6AFUKOPAI6JM4FATMXIMZSNHH3Z","ANK8K5WTHJ61C","3UUIU9GZC5R93N292LT21FRJ9VS5TN","","537.5","img/flower6.png","76","539.3000000715256","3","1","3","2","1,0,0,1,1,0,1,0,1","0,0,1,1,0,1,0,1,1","2",""
"","html-keyboard-response","169","212542","0.0-169.0","3GA6AFUKOPAI6JM4FATMXIMZSNHH3Z","ANK8K5WTHJ61C","3UUIU9GZC5R93N292LT21FRJ9VS5TN","","null","<img src=""img/flower6.png"" style=""width:200px; border:14px solid green;"">","null","","","","","","","","",""
"","image-keyboard-response","170","213280","0.0-170.0","3GA6AFUKOPAI6JM4FATMXIMZSNHH3Z","ANK8K5WTHJ61C","3UUIU9GZC5R93N292LT21FRJ9VS5TN","","735.2000000476837","img/flower4.png","76","736.2999999523163","3","1","1","2","1,0,0,1,1,0,1,0,1","0,0,1,1,0,1,0,1,1","2",""
"","html-keyboard-response","171","213586","0.0-171.0","3GA6AFUKOPAI6JM4FATMXIMZSNHH3Z","ANK8K5WTHJ61C","3UUIU9GZC5R93N292LT21FRJ9VS5TN","","null","<img src=""img/flower4.png"" style=""width:200px; border:14px solid green;"">","null","","","","","","","","",""
"","image-keyboard-response","172","214123","0.0-172.0","3GA6AFUKOPAI6JM4FATMXIMZSNHH3Z","ANK8K5WTHJ61C","3UUIU9GZC5R93N292LT21FRJ9VS5TN","","535.2000000476837","img/flower1.png","76","536.7999999523163","3","1","2","2","1,0,0,1,1,0,1,0,1","0,0,1,1,0,1,0,1,1","2",""
"","html-keyboard-response","173","214429","0.0-173.0","3GA6AFUKOPAI6JM4FATMXIMZSNHH3Z","ANK8K5WTHJ61C","3UUIU9GZC5R93N292LT21FRJ9VS5TN","","null","<img src=""img/flower1.png"" style=""width:200px; border:14px solid green;"">","null","","","","","","","","",""
"","image-keyboard-response","174","215261","0.0-174.0","3GA6AFUKOPAI6JM4FATMXIMZSNHH3Z","ANK8K5WTHJ61C","3UUIU9GZC5R93N292LT21FRJ9VS5TN","","830.7999999523163","img/flower4.png","76","831.7999999523163","3","1","1","2","1,0,0,1,1,0,1,0,1","0,0,1,1,0,1,0,1,1","2",""
"","html-keyboard-response","175","215567","0.0-175.0","3GA6AFUKOPAI6JM4FATMXIMZSNHH3Z","ANK8K5WTHJ61C","3UUIU9GZC5R93N292LT21FRJ9VS5TN","","null","<img src=""img/flower4.png"" style=""width:200px; border:14px solid green;"">","null","","","","","","","","",""
"","image-keyboard-response","176","216195","0.0-176.0","3GA6AFUKOPAI6JM4FATMXIMZSNHH3Z","ANK8K5WTHJ61C","3UUIU9GZC5R93N292LT21FRJ9VS5TN","","625.5","img/flower6.png","76","627.0999999046326","3","1","3","2","1,0,0,1,1,0,1,0,1","0,0,1,1,0,1,0,1,1","2",""
"","html-keyboard-response","177","216502","0.0-177.0","3GA6AFUKOPAI6JM4FATMXIMZSNHH3Z","ANK8K5WTHJ61C","3UUIU9GZC5R93N292LT21FRJ9VS5TN","","null","<img src=""img/flower6.png"" style=""width:200px; border:14px solid green;"">","null","","","","","","","","",""
"","image-keyboard-response","178","217180","0.0-178.0","3GA6AFUKOPAI6JM4FATMXIMZSNHH3Z","ANK8K5WTHJ61C","3UUIU9GZC5R93N292LT21FRJ9VS5TN","","676.5","img/flower6.png","76","677.7000000476837","3","1","3","2","1,0,0,1,1,0,1,0,1","0,0,1,1,0,1,0,1,1","2",""
"","html-keyboard-response","179","217485","0.0-179.0","3GA6AFUKOPAI6JM4FATMXIMZSNHH3Z","ANK8K5WTHJ61C","3UUIU9GZC5R93N292LT21FRJ9VS5TN","","null","<img src=""img/flower6.png"" style=""width:200px; border:14px solid green;"">","null","","","","","","","","",""
"","image-keyboard-response","180","218022","0.0-180.0","3GA6AFUKOPAI6JM4FATMXIMZSNHH3Z","ANK8K5WTHJ61C","3UUIU9GZC5R93N292LT21FRJ9VS5TN","","535.8999999761581","img/flower6.png","76","536.5","3","1","3","2","1,0,0,1,1,0,1,0,1","0,0,1,1,0,1,0,1,1","2",""
"","html-keyboard-response","181","218323","0.0-181.0","3GA6AFUKOPAI6JM4FATMXIMZSNHH3Z","ANK8K5WTHJ61C","3UUIU9GZC5R93N292LT21FRJ9VS5TN","","null","<img src=""img/flower6.png"" style=""width:200px; border:14px solid green;"">","null","","","","","","","","",""
"","image-keyboard-response","182","219645","0.0-182.0","3GA6AFUKOPAI6JM4FATMXIMZSNHH3Z","ANK8K5WTHJ61C","3UUIU9GZC5R93N292LT21FRJ9VS5TN","","1320.0999999046326","img/flower3.png","74","1321.5999999046326","1","1","1","1","1,0.333,0.333,0.333,1,0.333,0.333,0.333,1","1,0.333,0.333,0.333,1,0.333,0.333,0.333,1","1",""
"","html-keyboard-response","183","219949","0.0-183.0","3GA6AFUKOPAI6JM4FATMXIMZSNHH3Z","ANK8K5WTHJ61C","3UUIU9GZC5R93N292LT21FRJ9VS5TN","","null","<img src=""img/flower3.png"" style=""width:200px; border:14px solid green;"">","null","","","","","","","","",""
"","image-keyboard-response","184","220575","0.0-184.0","3GA6AFUKOPAI6JM4FATMXIMZSNHH3Z","ANK8K5WTHJ61C","3UUIU9GZC5R93N292LT21FRJ9VS5TN","","624.5","img/flower3.png","74","626.1000000238419","1","1","1","1","1,0.333,0.333,0.333,1,0.333,0.333,0.333,1","1,0.333,0.333,0.333,1,0.333,0.333,0.333,1","1",""
"","html-keyboard-response","185","220883","0.0-185.0","3GA6AFUKOPAI6JM4FATMXIMZSNHH3Z","ANK8K5WTHJ61C","3UUIU9GZC5R93N292LT21FRJ9VS5TN","","null","<img src=""img/flower3.png"" style=""width:200px; border:14px solid green;"">","null","","","","","","","","",""
"","image-keyboard-response","186","221535","0.0-186.0","3GA6AFUKOPAI6JM4FATMXIMZSNHH3Z","ANK8K5WTHJ61C","3UUIU9GZC5R93N292LT21FRJ9VS5TN","","650.3999999761581","img/flower3.png","74","652.2000000476837","1","1","1","1","1,0.333,0.333,0.333,1,0.333,0.333,0.333,1","1,0.333,0.333,0.333,1,0.333,0.333,0.333,1","1",""
"","html-keyboard-response","187","221843","0.0-187.0","3GA6AFUKOPAI6JM4FATMXIMZSNHH3Z","ANK8K5WTHJ61C","3UUIU9GZC5R93N292LT21FRJ9VS5TN","","null","<img src=""img/flower3.png"" style=""width:200px; border:14px solid green;"">","null","","","","","","","","",""
"","image-keyboard-response","188","223034","0.0-188.0","3GA6AFUKOPAI6JM4FATMXIMZSNHH3Z","ANK8K5WTHJ61C","3UUIU9GZC5R93N292LT21FRJ9VS5TN","","1188.7000000476837","img/flower5.png","75","1190.6000000238419","2","1","2","1","1,0.333,0.333,0.333,1,0.333,0.333,0.333,1","1,0.333,0.333,0.333,1,0.333,0.333,0.333,1","1",""
"","html-keyboard-response","189","223341","0.0-189.0","3GA6AFUKOPAI6JM4FATMXIMZSNHH3Z","ANK8K5WTHJ61C","3UUIU9GZC5R93N292LT21FRJ9VS5TN","","null","<img src=""img/flower5.png"" style=""width:200px; border:14px solid green;"">","null","","","","","","","","",""
"","image-keyboard-response","190","224325","0.0-190.0","3GA6AFUKOPAI6JM4FATMXIMZSNHH3Z","ANK8K5WTHJ61C","3UUIU9GZC5R93N292LT21FRJ9VS5TN","","983.7999999523163","img/flower2.png","76","984.7000000476837","3","1","3","1","1,0.333,0.333,0.333,1,0.333,0.333,0.333,1","1,0.333,0.333,0.333,1,0.333,0.333,0.333,1","1",""
"","html-keyboard-response","191","224632","0.0-191.0","3GA6AFUKOPAI6JM4FATMXIMZSNHH3Z","ANK8K5WTHJ61C","3UUIU9GZC5R93N292LT21FRJ9VS5TN","","null","<img src=""img/flower2.png"" style=""width:200px; border:14px solid green;"">","null","","","","","","","","",""
"","image-keyboard-response","192","225164","0.0-192.0","3GA6AFUKOPAI6JM4FATMXIMZSNHH3Z","ANK8K5WTHJ61C","3UUIU9GZC5R93N292LT21FRJ9VS5TN","","530.1000000238419","img/flower2.png","76","531.7000000476837","3","1","3","1","1,0.333,0.333,0.333,1,0.333,0.333,0.333,1","1,0.333,0.333,0.333,1,0.333,0.333,0.333,1","1",""
"","html-keyboard-response","193","225469","0.0-193.0","3GA6AFUKOPAI6JM4FATMXIMZSNHH3Z","ANK8K5WTHJ61C","3UUIU9GZC5R93N292LT21FRJ9VS5TN","","null","<img src=""img/flower2.png"" style=""width:200px; border:14px solid green;"">","null","","","","","","","","",""
"","image-keyboard-response","194","226000","0.0-194.0","3GA6AFUKOPAI6JM4FATMXIMZSNHH3Z","ANK8K5WTHJ61C","3UUIU9GZC5R93N292LT21FRJ9VS5TN","","530.2000000476837","img/flower2.png","76","530.8999999761581","3","1","3","1","1,0.333,0.333,0.333,1,0.333,0.333,0.333,1","1,0.333,0.333,0.333,1,0.333,0.333,0.333,1","1",""
"","html-keyboard-response","195","226305","0.0-195.0","3GA6AFUKOPAI6JM4FATMXIMZSNHH3Z","ANK8K5WTHJ61C","3UUIU9GZC5R93N292LT21FRJ9VS5TN","","null","<img src=""img/flower2.png"" style=""width:200px; border:14px solid green;"">","null","","","","","","","","",""
"","image-keyboard-response","196","227174","0.0-196.0","3GA6AFUKOPAI6JM4FATMXIMZSNHH3Z","ANK8K5WTHJ61C","3UUIU9GZC5R93N292LT21FRJ9VS5TN","","867.1000000238419","img/flower3.png","74","868.6999999284744","1","1","1","1","1,0.333,0.333,0.333,1,0.333,0.333,0.333,1","1,0.333,0.333,0.333,1,0.333,0.333,0.333,1","1",""
"","html-keyboard-response","197","227482","0.0-197.0","3GA6AFUKOPAI6JM4FATMXIMZSNHH3Z","ANK8K5WTHJ61C","3UUIU9GZC5R93N292LT21FRJ9VS5TN","","null","<img src=""img/flower3.png"" style=""width:200px; border:14px solid green;"">","null","","","","","","","","",""
"","image-keyboard-response","198","228132","0.0-198.0","3GA6AFUKOPAI6JM4FATMXIMZSNHH3Z","ANK8K5WTHJ61C","3UUIU9GZC5R93N292LT21FRJ9VS5TN","","649.5","img/flower2.png","76","650.1000000238419","3","1","3","1","1,0.333,0.333,0.333,1,0.333,0.333,0.333,1","1,0.333,0.333,0.333,1,0.333,0.333,0.333,1","1",""
"","html-keyboard-response","199","228434","0.0-199.0","3GA6AFUKOPAI6JM4FATMXIMZSNHH3Z","ANK8K5WTHJ61C","3UUIU9GZC5R93N292LT21FRJ9VS5TN","","null","<img src=""img/flower2.png"" style=""width:200px; border:14px solid green;"">","null","","","","","","","","",""
"","image-keyboard-response","200","229034","0.0-200.0","3GA6AFUKOPAI6JM4FATMXIMZSNHH3Z","ANK8K5WTHJ61C","3UUIU9GZC5R93N292LT21FRJ9VS5TN","","598.1000000238419","img/flower2.png","76","599.7000000476837","3","1","3","1","1,0.333,0.333,0.333,1,0.333,0.333,0.333,1","1,0.333,0.333,0.333,1,0.333,0.333,0.333,1","1",""
"","html-keyboard-response","201","229342","0.0-201.0","3GA6AFUKOPAI6JM4FATMXIMZSNHH3Z","ANK8K5WTHJ61C","3UUIU9GZC5R93N292LT21FRJ9VS5TN","","null","<img src=""img/flower2.png"" style=""width:200px; border:14px solid green;"">","null","","","","","","","","",""
"","image-keyboard-response","202","229991","0.0-202.0","3GA6AFUKOPAI6JM4FATMXIMZSNHH3Z","ANK8K5WTHJ61C","3UUIU9GZC5R93N292LT21FRJ9VS5TN","","648.7999999523163","img/flower5.png","75","649.2000000476837","2","1","2","1","1,0.333,0.333,0.333,1,0.333,0.333,0.333,1","1,0.333,0.333,0.333,1,0.333,0.333,0.333,1","1",""
"","html-keyboard-response","203","230297","0.0-203.0","3GA6AFUKOPAI6JM4FATMXIMZSNHH3Z","ANK8K5WTHJ61C","3UUIU9GZC5R93N292LT21FRJ9VS5TN","","null","<img src=""img/flower5.png"" style=""width:200px; border:14px solid green;"">","null","","","","","","","","",""
"","image-keyboard-response","204","230894","0.0-204.0","3GA6AFUKOPAI6JM4FATMXIMZSNHH3Z","ANK8K5WTHJ61C","3UUIU9GZC5R93N292LT21FRJ9VS5TN","","594.8000000715256","img/flower3.png","74","596.5","1","1","1","1","1,0.333,0.333,0.333,1,0.333,0.333,0.333,1","1,0.333,0.333,0.333,1,0.333,0.333,0.333,1","1",""
"","html-keyboard-response","205","231197","0.0-205.0","3GA6AFUKOPAI6JM4FATMXIMZSNHH3Z","ANK8K5WTHJ61C","3UUIU9GZC5R93N292LT21FRJ9VS5TN","","null","<img src=""img/flower3.png"" style=""width:200px; border:14px solid green;"">","null","","","","","","","","",""
"","image-keyboard-response","206","231825","0.0-206.0","3GA6AFUKOPAI6JM4FATMXIMZSNHH3Z","ANK8K5WTHJ61C","3UUIU9GZC5R93N292LT21FRJ9VS5TN","","627.3000000715256","img/flower5.png","75","628.2999999523163","2","1","2","1","1,0.333,0.333,0.333,1,0.333,0.333,0.333,1","1,0.333,0.333,0.333,1,0.333,0.333,0.333,1","1",""
"","html-keyboard-response","207","232133","0.0-207.0","3GA6AFUKOPAI6JM4FATMXIMZSNHH3Z","ANK8K5WTHJ61C","3UUIU9GZC5R93N292LT21FRJ9VS5TN","","null","<img src=""img/flower5.png"" style=""width:200px; border:14px solid green;"">","null","","","","","","","","",""
"","image-keyboard-response","208","232696","0.0-208.0","3GA6AFUKOPAI6JM4FATMXIMZSNHH3Z","ANK8K5WTHJ61C","3UUIU9GZC5R93N292LT21FRJ9VS5TN","","561.1000000238419","img/flower5.png","75","562.5","2","1","2","1","1,0.333,0.333,0.333,1,0.333,0.333,0.333,1","1,0.333,0.333,0.333,1,0.333,0.333,0.333,1","1",""
"","html-keyboard-response","209","233004","0.0-209.0","3GA6AFUKOPAI6JM4FATMXIMZSNHH3Z","ANK8K5WTHJ61C","3UUIU9GZC5R93N292LT21FRJ9VS5TN","","null","<img src=""img/flower5.png"" style=""width:200px; border:14px solid green;"">","null","","","","","","","","",""
"","image-keyboard-response","210","233594","0.0-210.0","3GA6AFUKOPAI6JM4FATMXIMZSNHH3Z","ANK8K5WTHJ61C","3UUIU9GZC5R93N292LT21FRJ9VS5TN","","587.8999999761581","img/flower2.png","76","589.6000000238419","3","1","3","1","1,0.333,0.333,0.333,1,0.333,0.333,0.333,1","1,0.333,0.333,0.333,1,0.333,0.333,0.333,1","1",""
"","html-keyboard-response","211","233901","0.0-211.0","3GA6AFUKOPAI6JM4FATMXIMZSNHH3Z","ANK8K5WTHJ61C","3UUIU9GZC5R93N292LT21FRJ9VS5TN","","null","<img src=""img/flower2.png"" style=""width:200px; border:14px solid green;"">","null","","","","","","","","",""
"","image-keyboard-response","212","234462","0.0-212.0","3GA6AFUKOPAI6JM4FATMXIMZSNHH3Z","ANK8K5WTHJ61C","3UUIU9GZC5R93N292LT21FRJ9VS5TN","","559.2000000476837","img/flower2.png","76","560.8999999761581","3","1","3","1","1,0.333,0.333,0.333,1,0.333,0.333,0.333,1","1,0.333,0.333,0.333,1,0.333,0.333,0.333,1","1",""
"","html-keyboard-response","213","234769","0.0-213.0","3GA6AFUKOPAI6JM4FATMXIMZSNHH3Z","ANK8K5WTHJ61C","3UUIU9GZC5R93N292LT21FRJ9VS5TN","","null","<img src=""img/flower2.png"" style=""width:200px; border:14px solid green;"">","null","","","","","","","","",""
"","image-keyboard-response","214","235364","0.0-214.0","3GA6AFUKOPAI6JM4FATMXIMZSNHH3Z","ANK8K5WTHJ61C","3UUIU9GZC5R93N292LT21FRJ9VS5TN","","592.7000000476837","img/flower5.png","75","594.3000000715256","2","1","2","1","1,0.333,0.333,0.333,1,0.333,0.333,0.333,1","1,0.333,0.333,0.333,1,0.333,0.333,0.333,1","1",""
"","html-keyboard-response","215","235671","0.0-215.0","3GA6AFUKOPAI6JM4FATMXIMZSNHH3Z","ANK8K5WTHJ61C","3UUIU9GZC5R93N292LT21FRJ9VS5TN","","null","<img src=""img/flower5.png"" style=""width:200px; border:14px solid green;"">","null","","","","","","","","",""
"","image-keyboard-response","216","236249","0.0-216.0","3GA6AFUKOPAI6JM4FATMXIMZSNHH3Z","ANK8K5WTHJ61C","3UUIU9GZC5R93N292LT21FRJ9VS5TN","","577.7000000476837","img/flower5.png","75","578.5","2","1","2","1","1,0.333,0.333,0.333,1,0.333,0.333,0.333,1","1,0.333,0.333,0.333,1,0.333,0.333,0.333,1","1",""
"","html-keyboard-response","217","236552","0.0-217.0","3GA6AFUKOPAI6JM4FATMXIMZSNHH3Z","ANK8K5WTHJ61C","3UUIU9GZC5R93N292LT21FRJ9VS5TN","","null","<img src=""img/flower5.png"" style=""width:200px; border:14px solid green;"">","null","","","","","","","","",""
"","image-keyboard-response","218","237254","0.0-218.0","3GA6AFUKOPAI6JM4FATMXIMZSNHH3Z","ANK8K5WTHJ61C","3UUIU9GZC5R93N292LT21FRJ9VS5TN","","699.8999999761581","img/flower3.png","74","701.5999999046326","1","1","1","1","1,0.333,0.333,0.333,1,0.333,0.333,0.333,1","1,0.333,0.333,0.333,1,0.333,0.333,0.333,1","1",""
"","html-keyboard-response","219","237560","0.0-219.0","3GA6AFUKOPAI6JM4FATMXIMZSNHH3Z","ANK8K5WTHJ61C","3UUIU9GZC5R93N292LT21FRJ9VS5TN","","null","<img src=""img/flower3.png"" style=""width:200px; border:14px solid green;"">","null","","","","","","","","",""
"","image-keyboard-response","220","238106","0.0-220.0","3GA6AFUKOPAI6JM4FATMXIMZSNHH3Z","ANK8K5WTHJ61C","3UUIU9GZC5R93N292LT21FRJ9VS5TN","","544.6000000238419","img/flower3.png","74","545.2999999523163","1","1","1","1","1,0.333,0.333,0.333,1,0.333,0.333,0.333,1","1,0.333,0.333,0.333,1,0.333,0.333,0.333,1","1",""
"","html-keyboard-response","221","238413","0.0-221.0","3GA6AFUKOPAI6JM4FATMXIMZSNHH3Z","ANK8K5WTHJ61C","3UUIU9GZC5R93N292LT21FRJ9VS5TN","","null","<img src=""img/flower3.png"" style=""width:200px; border:14px solid green;"">","null","","","","","","","","",""
"","image-keyboard-response","222","239082","0.0-222.0","3GA6AFUKOPAI6JM4FATMXIMZSNHH3Z","ANK8K5WTHJ61C","3UUIU9GZC5R93N292LT21FRJ9VS5TN","","667.2999999523163","img/flower5.png","75","668.8999999761581","2","1","2","1","1,0.333,0.333,0.333,1,0.333,0.333,0.333,1","1,0.333,0.333,0.333,1,0.333,0.333,0.333,1","1",""
"","html-keyboard-response","223","239387","0.0-223.0","3GA6AFUKOPAI6JM4FATMXIMZSNHH3Z","ANK8K5WTHJ61C","3UUIU9GZC5R93N292LT21FRJ9VS5TN","","null","<img src=""img/flower5.png"" style=""width:200px; border:14px solid green;"">","null","","","","","","","","",""
"","image-keyboard-response","224","239984","0.0-224.0","3GA6AFUKOPAI6JM4FATMXIMZSNHH3Z","ANK8K5WTHJ61C","3UUIU9GZC5R93N292LT21FRJ9VS5TN","","595.1999999284744","img/flower3.png","74","596.8999999761581","1","1","1","1","1,0.333,0.333,0.333,1,0.333,0.333,0.333,1","1,0.333,0.333,0.333,1,0.333,0.333,0.333,1","1",""
"","html-keyboard-response","225","240292","0.0-225.0","3GA6AFUKOPAI6JM4FATMXIMZSNHH3Z","ANK8K5WTHJ61C","3UUIU9GZC5R93N292LT21FRJ9VS5TN","","null","<img src=""img/flower3.png"" style=""width:200px; border:14px solid green;"">","null","","","","","","","","",""
"","image-keyboard-response","226","240854","0.0-226.0","3GA6AFUKOPAI6JM4FATMXIMZSNHH3Z","ANK8K5WTHJ61C","3UUIU9GZC5R93N292LT21FRJ9VS5TN","","560.1000000238419","img/flower5.png","75","561.6000000238419","2","1","2","1","1,0.333,0.333,0.333,1,0.333,0.333,0.333,1","1,0.333,0.333,0.333,1,0.333,0.333,0.333,1","1",""
"","html-keyboard-response","227","241158","0.0-227.0","3GA6AFUKOPAI6JM4FATMXIMZSNHH3Z","ANK8K5WTHJ61C","3UUIU9GZC5R93N292LT21FRJ9VS5TN","","null","<img src=""img/flower5.png"" style=""width:200px; border:14px solid green;"">","null","","","","","","","","",""
"","image-keyboard-response","228","241665","0.0-228.0","3GA6AFUKOPAI6JM4FATMXIMZSNHH3Z","ANK8K5WTHJ61C","3UUIU9GZC5R93N292LT21FRJ9VS5TN","","505.60000002384186","img/flower5.png","75","506.8000000715256","2","1","2","1","1,0.333,0.333,0.333,1,0.333,0.333,0.333,1","1,0.333,0.333,0.333,1,0.333,0.333,0.333,1","1",""
"","html-keyboard-response","229","241972","0.0-229.0","3GA6AFUKOPAI6JM4FATMXIMZSNHH3Z","ANK8K5WTHJ61C","3UUIU9GZC5R93N292LT21FRJ9VS5TN","","null","<img src=""img/flower5.png"" style=""width:200px; border:14px solid green;"">","null","","","","","","","","",""
"","image-keyboard-response","230","242504","0.0-230.0","3GA6AFUKOPAI6JM4FATMXIMZSNHH3Z","ANK8K5WTHJ61C","3UUIU9GZC5R93N292LT21FRJ9VS5TN","","529.6999999284744","img/flower5.png","75","531.3999999761581","2","1","2","1","1,0.333,0.333,0.333,1,0.333,0.333,0.333,1","1,0.333,0.333,0.333,1,0.333,0.333,0.333,1","1",""
"","html-keyboard-response","231","242811","0.0-231.0","3GA6AFUKOPAI6JM4FATMXIMZSNHH3Z","ANK8K5WTHJ61C","3UUIU9GZC5R93N292LT21FRJ9VS5TN","","null","<img src=""img/flower5.png"" style=""width:200px; border:14px solid green;"">","null","","","","","","","","",""
"","image-keyboard-response","232","243404","0.0-232.0","3GA6AFUKOPAI6JM4FATMXIMZSNHH3Z","ANK8K5WTHJ61C","3UUIU9GZC5R93N292LT21FRJ9VS5TN","","590.8999999761581","img/flower2.png","76","592.7000000476837","3","1","3","1","1,0.333,0.333,0.333,1,0.333,0.333,0.333,1","1,0.333,0.333,0.333,1,0.333,0.333,0.333,1","1",""
"","html-keyboard-response","233","243707","0.0-233.0","3GA6AFUKOPAI6JM4FATMXIMZSNHH3Z","ANK8K5WTHJ61C","3UUIU9GZC5R93N292LT21FRJ9VS5TN","","null","<img src=""img/flower2.png"" style=""width:200px; border:14px solid green;"">","null","","","","","","","","",""
"","image-keyboard-response","234","244394","0.0-234.0","3GA6AFUKOPAI6JM4FATMXIMZSNHH3Z","ANK8K5WTHJ61C","3UUIU9GZC5R93N292LT21FRJ9VS5TN","","686.5","img/flower3.png","74","687.3000000715256","1","1","1","1","1,0.333,0.333,0.333,1,0.333,0.333,0.333,1","1,0.333,0.333,0.333,1,0.333,0.333,0.333,1","1",""
"","html-keyboard-response","235","244701","0.0-235.0","3GA6AFUKOPAI6JM4FATMXIMZSNHH3Z","ANK8K5WTHJ61C","3UUIU9GZC5R93N292LT21FRJ9VS5TN","","null","<img src=""img/flower3.png"" style=""width:200px; border:14px solid green;"">","null","","","","","","","","",""
"","image-keyboard-response","236","245321","0.0-236.0","3GA6AFUKOPAI6JM4FATMXIMZSNHH3Z","ANK8K5WTHJ61C","3UUIU9GZC5R93N292LT21FRJ9VS5TN","","618.3000000715256","img/flower3.png","74","619.5","1","1","1","1","1,0.333,0.333,0.333,1,0.333,0.333,0.333,1","1,0.333,0.333,0.333,1,0.333,0.333,0.333,1","1",""
"","html-keyboard-response","237","245624","0.0-237.0","3GA6AFUKOPAI6JM4FATMXIMZSNHH3Z","ANK8K5WTHJ61C","3UUIU9GZC5R93N292LT21FRJ9VS5TN","","null","<img src=""img/flower3.png"" style=""width:200px; border:14px solid green;"">","null","","","","","","","","",""
"","image-keyboard-response","238","246190","0.0-238.0","3GA6AFUKOPAI6JM4FATMXIMZSNHH3Z","ANK8K5WTHJ61C","3UUIU9GZC5R93N292LT21FRJ9VS5TN","","564.5","img/flower5.png","75","565.7999999523163","2","1","2","1","1,0.333,0.333,0.333,1,0.333,0.333,0.333,1","1,0.333,0.333,0.333,1,0.333,0.333,0.333,1","1",""
"","html-keyboard-response","239","246493","0.0-239.0","3GA6AFUKOPAI6JM4FATMXIMZSNHH3Z","ANK8K5WTHJ61C","3UUIU9GZC5R93N292LT21FRJ9VS5TN","","null","<img src=""img/flower5.png"" style=""width:200px; border:14px solid green;"">","null","","","","","","","","",""
"","image-keyboard-response","240","247005","0.0-240.0","3GA6AFUKOPAI6JM4FATMXIMZSNHH3Z","ANK8K5WTHJ61C","3UUIU9GZC5R93N292LT21FRJ9VS5TN","","509.39999997615814","img/flower5.png","75","511.10000002384186","2","1","2","1","1,0.333,0.333,0.333,1,0.333,0.333,0.333,1","1,0.333,0.333,0.333,1,0.333,0.333,0.333,1","1",""
"","html-keyboard-response","241","247312","0.0-241.0","3GA6AFUKOPAI6JM4FATMXIMZSNHH3Z","ANK8K5WTHJ61C","3UUIU9GZC5R93N292LT21FRJ9VS5TN","","null","<img src=""img/flower5.png"" style=""width:200px; border:14px solid green;"">","null","","","","","","","","",""
"","image-keyboard-response","242","247814","0.0-242.0","3GA6AFUKOPAI6JM4FATMXIMZSNHH3Z","ANK8K5WTHJ61C","3UUIU9GZC5R93N292LT21FRJ9VS5TN","","501.1999999284744","img/flower2.png","76","502.1999999284744","3","1","3","1","1,0.333,0.333,0.333,1,0.333,0.333,0.333,1","1,0.333,0.333,0.333,1,0.333,0.333,0.333,1","1",""
"","html-keyboard-response","243","248122","0.0-243.0","3GA6AFUKOPAI6JM4FATMXIMZSNHH3Z","ANK8K5WTHJ61C","3UUIU9GZC5R93N292LT21FRJ9VS5TN","","null","<img src=""img/flower2.png"" style=""width:200px; border:14px solid green;"">","null","","","","","","","","",""
"","image-keyboard-response","244","248714","0.0-244.0","3GA6AFUKOPAI6JM4FATMXIMZSNHH3Z","ANK8K5WTHJ61C","3UUIU9GZC5R93N292LT21FRJ9VS5TN","","590.6999999284744","img/flower5.png","75","592.1000000238419","2","1","2","1","1,0.333,0.333,0.333,1,0.333,0.333,0.333,1","1,0.333,0.333,0.333,1,0.333,0.333,0.333,1","1",""
"","html-keyboard-response","245","249021","0.0-245.0","3GA6AFUKOPAI6JM4FATMXIMZSNHH3Z","ANK8K5WTHJ61C","3UUIU9GZC5R93N292LT21FRJ9VS5TN","","null","<img src=""img/flower5.png"" style=""width:200px; border:14px solid green;"">","null","","","","","","","","",""
"","image-keyboard-response","246","249580","0.0-246.0","3GA6AFUKOPAI6JM4FATMXIMZSNHH3Z","ANK8K5WTHJ61C","3UUIU9GZC5R93N292LT21FRJ9VS5TN","","557.1000000238419","img/flower3.png","74","558.3999999761581","1","1","1","1","1,0.333,0.333,0.333,1,0.333,0.333,0.333,1","1,0.333,0.333,0.333,1,0.333,0.333,0.333,1","1",""
"","html-keyboard-response","247","249884","0.0-247.0","3GA6AFUKOPAI6JM4FATMXIMZSNHH3Z","ANK8K5WTHJ61C","3UUIU9GZC5R93N292LT21FRJ9VS5TN","","null","<img src=""img/flower3.png"" style=""width:200px; border:14px solid green;"">","null","","","","","","","","",""
"","image-keyboard-response","248","250394","0.0-248.0","3GA6AFUKOPAI6JM4FATMXIMZSNHH3Z","ANK8K5WTHJ61C","3UUIU9GZC5R93N292LT21FRJ9VS5TN","","507.7999999523163","img/flower3.png","74","509.5","1","1","1","1","1,0.333,0.333,0.333,1,0.333,0.333,0.333,1","1,0.333,0.333,0.333,1,0.333,0.333,0.333,1","1",""
"","html-keyboard-response","249","250702","0.0-249.0","3GA6AFUKOPAI6JM4FATMXIMZSNHH3Z","ANK8K5WTHJ61C","3UUIU9GZC5R93N292LT21FRJ9VS5TN","","null","<img src=""img/flower3.png"" style=""width:200px; border:14px solid green;"">","null","","","","","","","","",""
"","image-keyboard-response","250","251204","0.0-250.0","3GA6AFUKOPAI6JM4FATMXIMZSNHH3Z","ANK8K5WTHJ61C","3UUIU9GZC5R93N292LT21FRJ9VS5TN","","500.2000000476837","img/flower5.png","75","501.90000009536743","2","1","2","1","1,0.333,0.333,0.333,1,0.333,0.333,0.333,1","1,0.333,0.333,0.333,1,0.333,0.333,0.333,1","1",""
"","html-keyboard-response","251","251508","0.0-251.0","3GA6AFUKOPAI6JM4FATMXIMZSNHH3Z","ANK8K5WTHJ61C","3UUIU9GZC5R93N292LT21FRJ9VS5TN","","null","<img src=""img/flower5.png"" style=""width:200px; border:14px solid green;"">","null","","","","","","","","",""
"","image-keyboard-response","252","252133","0.0-252.0","3GA6AFUKOPAI6JM4FATMXIMZSNHH3Z","ANK8K5WTHJ61C","3UUIU9GZC5R93N292LT21FRJ9VS5TN","","624.2000000476837","img/flower2.png","76","625","3","1","3","1","1,0.333,0.333,0.333,1,0.333,0.333,0.333,1","1,0.333,0.333,0.333,1,0.333,0.333,0.333,1","1",""
"","html-keyboard-response","253","252439","0.0-253.0","3GA6AFUKOPAI6JM4FATMXIMZSNHH3Z","ANK8K5WTHJ61C","3UUIU9GZC5R93N292LT21FRJ9VS5TN","","null","<img src=""img/flower2.png"" style=""width:200px; border:14px solid green;"">","null","","","","","","","","",""
"","image-keyboard-response","254","253064","0.0-254.0","3GA6AFUKOPAI6JM4FATMXIMZSNHH3Z","ANK8K5WTHJ61C","3UUIU9GZC5R93N292LT21FRJ9VS5TN","","622.8999999761581","img/flower5.png","75","624.5","2","1","2","1","1,0.333,0.333,0.333,1,0.333,0.333,0.333,1","1,0.333,0.333,0.333,1,0.333,0.333,0.333,1","1",""
"","html-keyboard-response","255","253369","0.0-255.0","3GA6AFUKOPAI6JM4FATMXIMZSNHH3Z","ANK8K5WTHJ61C","3UUIU9GZC5R93N292LT21FRJ9VS5TN","","null","<img src=""img/flower5.png"" style=""width:200px; border:14px solid green;"">","null","","","","","","","","",""
"","image-keyboard-response","256","253873","0.0-256.0","3GA6AFUKOPAI6JM4FATMXIMZSNHH3Z","ANK8K5WTHJ61C","3UUIU9GZC5R93N292LT21FRJ9VS5TN","","502.89999997615814","img/flower2.png","76","503.7000000476837","3","1","3","1","1,0.333,0.333,0.333,1,0.333,0.333,0.333,1","1,0.333,0.333,0.333,1,0.333,0.333,0.333,1","1",""
"","html-keyboard-response","257","254180","0.0-257.0","3GA6AFUKOPAI6JM4FATMXIMZSNHH3Z","ANK8K5WTHJ61C","3UUIU9GZC5R93N292LT21FRJ9VS5TN","","null","<img src=""img/flower2.png"" style=""width:200px; border:14px solid green;"">","null","","","","","","","","",""
"","image-keyboard-response","258","254714","0.0-258.0","3GA6AFUKOPAI6JM4FATMXIMZSNHH3Z","ANK8K5WTHJ61C","3UUIU9GZC5R93N292LT21FRJ9VS5TN","","532.8999999761581","img/flower2.png","76","534","3","1","3","1","1,0.333,0.333,0.333,1,0.333,0.333,0.333,1","1,0.333,0.333,0.333,1,0.333,0.333,0.333,1","1",""
"","html-keyboard-response","259","255022","0.0-259.0","3GA6AFUKOPAI6JM4FATMXIMZSNHH3Z","ANK8K5WTHJ61C","3UUIU9GZC5R93N292LT21FRJ9VS5TN","","null","<img src=""img/flower2.png"" style=""width:200px; border:14px solid green;"">","null","","","","","","","","",""
"","image-keyboard-response","260","255584","0.0-260.0","3GA6AFUKOPAI6JM4FATMXIMZSNHH3Z","ANK8K5WTHJ61C","3UUIU9GZC5R93N292LT21FRJ9VS5TN","","560.3999999761581","img/flower2.png","76","562.1000000238419","3","1","3","1","1,0.333,0.333,0.333,1,0.333,0.333,0.333,1","1,0.333,0.333,0.333,1,0.333,0.333,0.333,1","1",""
"","html-keyboard-response","261","255891","0.0-261.0","3GA6AFUKOPAI6JM4FATMXIMZSNHH3Z","ANK8K5WTHJ61C","3UUIU9GZC5R93N292LT21FRJ9VS5TN","","null","<img src=""img/flower2.png"" style=""width:200px; border:14px solid green;"">","null","","","","","","","","",""
"","image-keyboard-response","262","256394","0.0-262.0","3GA6AFUKOPAI6JM4FATMXIMZSNHH3Z","ANK8K5WTHJ61C","3UUIU9GZC5R93N292LT21FRJ9VS5TN","","501.5","img/flower2.png","76","503.2000000476837","3","1","3","1","1,0.333,0.333,0.333,1,0.333,0.333,0.333,1","1,0.333,0.333,0.333,1,0.333,0.333,0.333,1","1",""
"","html-keyboard-response","263","256701","0.0-263.0","3GA6AFUKOPAI6JM4FATMXIMZSNHH3Z","ANK8K5WTHJ61C","3UUIU9GZC5R93N292LT21FRJ9VS5TN","","null","<img src=""img/flower2.png"" style=""width:200px; border:14px solid green;"">","null","","","","","","","","",""
"","image-keyboard-response","264","257203","0.0-264.0","3GA6AFUKOPAI6JM4FATMXIMZSNHH3Z","ANK8K5WTHJ61C","3UUIU9GZC5R93N292LT21FRJ9VS5TN","","500.10000002384186","img/flower5.png","75","501.2000000476837","2","1","2","1","1,0.333,0.333,0.333,1,0.333,0.333,0.333,1","1,0.333,0.333,0.333,1,0.333,0.333,0.333,1","1",""
"","html-keyboard-response","265","257506","0.0-265.0","3GA6AFUKOPAI6JM4FATMXIMZSNHH3Z","ANK8K5WTHJ61C","3UUIU9GZC5R93N292LT21FRJ9VS5TN","","null","<img src=""img/flower5.png"" style=""width:200px; border:14px solid green;"">","null","","","","","","","","",""
"","image-keyboard-response","266","258072","0.0-266.0","3GA6AFUKOPAI6JM4FATMXIMZSNHH3Z","ANK8K5WTHJ61C","3UUIU9GZC5R93N292LT21FRJ9VS5TN","","565.5","img/flower3.png","74","566.2000000476837","1","1","1","1","1,0.333,0.333,0.333,1,0.333,0.333,0.333,1","1,0.333,0.333,0.333,1,0.333,0.333,0.333,1","1",""
"","html-keyboard-response","267","258376","0.0-267.0","3GA6AFUKOPAI6JM4FATMXIMZSNHH3Z","ANK8K5WTHJ61C","3UUIU9GZC5R93N292LT21FRJ9VS5TN","","null","<img src=""img/flower3.png"" style=""width:200px; border:14px solid green;"">","null","","","","","","","","",""
"","image-keyboard-response","268","259064","0.0-268.0","3GA6AFUKOPAI6JM4FATMXIMZSNHH3Z","ANK8K5WTHJ61C","3UUIU9GZC5R93N292LT21FRJ9VS5TN","","686.2000000476837","img/flower3.png","74","687.8999999761581","1","1","1","1","1,0.333,0.333,0.333,1,0.333,0.333,0.333,1","1,0.333,0.333,0.333,1,0.333,0.333,0.333,1","1",""
"","html-keyboard-response","269","259369","0.0-269.0","3GA6AFUKOPAI6JM4FATMXIMZSNHH3Z","ANK8K5WTHJ61C","3UUIU9GZC5R93N292LT21FRJ9VS5TN","","null","<img src=""img/flower3.png"" style=""width:200px; border:14px solid green;"">","null","","","","","","","","",""
"","image-keyboard-response","270","259964","0.0-270.0","3GA6AFUKOPAI6JM4FATMXIMZSNHH3Z","ANK8K5WTHJ61C","3UUIU9GZC5R93N292LT21FRJ9VS5TN","","594","img/flower2.png","76","595.2999999523163","3","1","3","1","1,0.333,0.333,0.333,1,0.333,0.333,0.333,1","1,0.333,0.333,0.333,1,0.333,0.333,0.333,1","1",""
"","html-keyboard-response","271","260271","0.0-271.0","3GA6AFUKOPAI6JM4FATMXIMZSNHH3Z","ANK8K5WTHJ61C","3UUIU9GZC5R93N292LT21FRJ9VS5TN","","null","<img src=""img/flower2.png"" style=""width:200px; border:14px solid green;"">","null","","","","","","","","",""
"","image-keyboard-response","272","260864","0.0-272.0","3GA6AFUKOPAI6JM4FATMXIMZSNHH3Z","ANK8K5WTHJ61C","3UUIU9GZC5R93N292LT21FRJ9VS5TN","","591.1000000238419","img/flower5.png","75","592.4000000953674","2","1","2","1","1,0.333,0.333,0.333,1,0.333,0.333,0.333,1","1,0.333,0.333,0.333,1,0.333,0.333,0.333,1","1",""
"","html-keyboard-response","273","261170","0.0-273.0","3GA6AFUKOPAI6JM4FATMXIMZSNHH3Z","ANK8K5WTHJ61C","3UUIU9GZC5R93N292LT21FRJ9VS5TN","","null","<img src=""img/flower5.png"" style=""width:200px; border:14px solid green;"">","null","","","","","","","","",""
"","image-keyboard-response","274","261734","0.0-274.0","3GA6AFUKOPAI6JM4FATMXIMZSNHH3Z","ANK8K5WTHJ61C","3UUIU9GZC5R93N292LT21FRJ9VS5TN","","563","img/flower3.png","74","563.7999999523163","1","1","1","1","1,0.333,0.333,0.333,1,0.333,0.333,0.333,1","1,0.333,0.333,0.333,1,0.333,0.333,0.333,1","1",""
"","html-keyboard-response","275","262040","0.0-275.0","3GA6AFUKOPAI6JM4FATMXIMZSNHH3Z","ANK8K5WTHJ61C","3UUIU9GZC5R93N292LT21FRJ9VS5TN","","null","<img src=""img/flower3.png"" style=""width:200px; border:14px solid green;"">","null","","","","","","","","",""
"","image-keyboard-response","276","262814","0.0-276.0","3GA6AFUKOPAI6JM4FATMXIMZSNHH3Z","ANK8K5WTHJ61C","3UUIU9GZC5R93N292LT21FRJ9VS5TN","","772.7999999523163","img/flower5.png","75","773.8000000715256","2","1","2","1","1,0.333,0.333,0.333,1,0.333,0.333,0.333,1","1,0.333,0.333,0.333,1,0.333,0.333,0.333,1","1",""
"","html-keyboard-response","277","263122","0.0-277.0","3GA6AFUKOPAI6JM4FATMXIMZSNHH3Z","ANK8K5WTHJ61C","3UUIU9GZC5R93N292LT21FRJ9VS5TN","","null","<img src=""img/flower5.png"" style=""width:200px; border:14px solid green;"">","null","","","","","","","","",""
"","image-keyboard-response","278","263622","0.0-278.0","3GA6AFUKOPAI6JM4FATMXIMZSNHH3Z","ANK8K5WTHJ61C","3UUIU9GZC5R93N292LT21FRJ9VS5TN","","498.09999990463257","img/flower5.png","75","499.39999997615814","2","1","2","1","1,0.333,0.333,0.333,1,0.333,0.333,0.333,1","1,0.333,0.333,0.333,1,0.333,0.333,0.333,1","1",""
"","html-keyboard-response","279","263927","0.0-279.0","3GA6AFUKOPAI6JM4FATMXIMZSNHH3Z","ANK8K5WTHJ61C","3UUIU9GZC5R93N292LT21FRJ9VS5TN","","null","<img src=""img/flower5.png"" style=""width:200px; border:14px solid green;"">","null","","","","","","","","",""
"","image-keyboard-response","280","264554","0.0-280.0","3GA6AFUKOPAI6JM4FATMXIMZSNHH3Z","ANK8K5WTHJ61C","3UUIU9GZC5R93N292LT21FRJ9VS5TN","","625.1000000238419","img/flower3.png","74","626.8999999761581","1","1","1","1","1,0.333,0.333,0.333,1,0.333,0.333,0.333,1","1,0.333,0.333,0.333,1,0.333,0.333,0.333,1","1",""
"","html-keyboard-response","281","264861","0.0-281.0","3GA6AFUKOPAI6JM4FATMXIMZSNHH3Z","ANK8K5WTHJ61C","3UUIU9GZC5R93N292LT21FRJ9VS5TN","","null","<img src=""img/flower3.png"" style=""width:200px; border:14px solid green;"">","null","","","","","","","","",""
"","image-keyboard-response","282","265421","0.0-282.0","3GA6AFUKOPAI6JM4FATMXIMZSNHH3Z","ANK8K5WTHJ61C","3UUIU9GZC5R93N292LT21FRJ9VS5TN","","559.1000000238419","img/flower5.png","75","560.0999999046326","2","1","2","1","1,0.333,0.333,0.333,1,0.333,0.333,0.333,1","1,0.333,0.333,0.333,1,0.333,0.333,0.333,1","1",""
"","html-keyboard-response","283","265727","0.0-283.0","3GA6AFUKOPAI6JM4FATMXIMZSNHH3Z","ANK8K5WTHJ61C","3UUIU9GZC5R93N292LT21FRJ9VS5TN","","null","<img src=""img/flower5.png"" style=""width:200px; border:14px solid green;"">","null","","","","","","","","",""
"","image-keyboard-response","284","266384","0.0-284.0","3GA6AFUKOPAI6JM4FATMXIMZSNHH3Z","ANK8K5WTHJ61C","3UUIU9GZC5R93N292LT21FRJ9VS5TN","","655.3999999761581","img/flower3.png","74","657","1","1","1","1","1,0.333,0.333,0.333,1,0.333,0.333,0.333,1","1,0.333,0.333,0.333,1,0.333,0.333,0.333,1","1",""
"","html-keyboard-response","285","266691","0.0-285.0","3GA6AFUKOPAI6JM4FATMXIMZSNHH3Z","ANK8K5WTHJ61C","3UUIU9GZC5R93N292LT21FRJ9VS5TN","","null","<img src=""img/flower3.png"" style=""width:200px; border:14px solid green;"">","null","","","","","","","","",""
"","image-keyboard-response","286","267310","0.0-286.0","3GA6AFUKOPAI6JM4FATMXIMZSNHH3Z","ANK8K5WTHJ61C","3UUIU9GZC5R93N292LT21FRJ9VS5TN","","617.5","img/flower2.png","76","618.6000000238419","3","1","3","1","1,0.333,0.333,0.333,1,0.333,0.333,0.333,1","1,0.333,0.333,0.333,1,0.333,0.333,0.333,1","1",""
"","html-keyboard-response","287","267616","0.0-287.0","3GA6AFUKOPAI6JM4FATMXIMZSNHH3Z","ANK8K5WTHJ61C","3UUIU9GZC5R93N292LT21FRJ9VS5TN","","null","<img src=""img/flower2.png"" style=""width:200px; border:14px solid green;"">","null","","","","","","","","",""
"","image-keyboard-response","288","268274","0.0-288.0","3GA6AFUKOPAI6JM4FATMXIMZSNHH3Z","ANK8K5WTHJ61C","3UUIU9GZC5R93N292LT21FRJ9VS5TN","","655.9000000953674","img/flower3.png","74","657.7999999523163","1","1","1","1","1,0.333,0.333,0.333,1,0.333,0.333,0.333,1","1,0.333,0.333,0.333,1,0.333,0.333,0.333,1","1",""
"","html-keyboard-response","289","268582","0.0-289.0","3GA6AFUKOPAI6JM4FATMXIMZSNHH3Z","ANK8K5WTHJ61C","3UUIU9GZC5R93N292LT21FRJ9VS5TN","","null","<img src=""img/flower3.png"" style=""width:200px; border:14px solid green;"">","null","","","","","","","","",""
"","image-keyboard-response","290","269174","0.0-290.0","3GA6AFUKOPAI6JM4FATMXIMZSNHH3Z","ANK8K5WTHJ61C","3UUIU9GZC5R93N292LT21FRJ9VS5TN","","590","img/flower2.png","76","591.7999999523163","3","1","3","1","1,0.333,0.333,0.333,1,0.333,0.333,0.333,1","1,0.333,0.333,0.333,1,0.333,0.333,0.333,1","1",""
"","html-keyboard-response","291","269479","0.0-291.0","3GA6AFUKOPAI6JM4FATMXIMZSNHH3Z","ANK8K5WTHJ61C","3UUIU9GZC5R93N292LT21FRJ9VS5TN","","null","<img src=""img/flower2.png"" style=""width:200px; border:14px solid green;"">","null","","","","","","","","",""
"","image-keyboard-response","292","270162","0.0-292.0","3GA6AFUKOPAI6JM4FATMXIMZSNHH3Z","ANK8K5WTHJ61C","3UUIU9GZC5R93N292LT21FRJ9VS5TN","","682.1999999284744","img/flower3.png","74","682.6000000238419","1","1","1","1","1,0.333,0.333,0.333,1,0.333,0.333,0.333,1","1,0.333,0.333,0.333,1,0.333,0.333,0.333,1","1",""
"","html-keyboard-response","293","270466","0.0-293.0","3GA6AFUKOPAI6JM4FATMXIMZSNHH3Z","ANK8K5WTHJ61C","3UUIU9GZC5R93N292LT21FRJ9VS5TN","","null","<img src=""img/flower3.png"" style=""width:200px; border:14px solid green;"">","null","","","","","","","","",""
"","image-keyboard-response","294","271034","0.0-294.0","3GA6AFUKOPAI6JM4FATMXIMZSNHH3Z","ANK8K5WTHJ61C","3UUIU9GZC5R93N292LT21FRJ9VS5TN","","565.6999999284744","img/flower2.png","76","567.3999999761581","3","1","3","1","1,0.333,0.333,0.333,1,0.333,0.333,0.333,1","1,0.333,0.333,0.333,1,0.333,0.333,0.333,1","1",""
"","html-keyboard-response","295","271337","0.0-295.0","3GA6AFUKOPAI6JM4FATMXIMZSNHH3Z","ANK8K5WTHJ61C","3UUIU9GZC5R93N292LT21FRJ9VS5TN","","null","<img src=""img/flower2.png"" style=""width:200px; border:14px solid green;"">","null","","","","","","","","",""
"","image-keyboard-response","296","271873","0.0-296.0","3GA6AFUKOPAI6JM4FATMXIMZSNHH3Z","ANK8K5WTHJ61C","3UUIU9GZC5R93N292LT21FRJ9VS5TN","","534.6000000238419","img/flower2.png","76","535.3000000715256","3","1","3","1","1,0.333,0.333,0.333,1,0.333,0.333,0.333,1","1,0.333,0.333,0.333,1,0.333,0.333,0.333,1","1",""
"","html-keyboard-response","297","272179","0.0-297.0","3GA6AFUKOPAI6JM4FATMXIMZSNHH3Z","ANK8K5WTHJ61C","3UUIU9GZC5R93N292LT21FRJ9VS5TN","","null","<img src=""img/flower2.png"" style=""width:200px; border:14px solid green;"">","null","","","","","","","","",""
"","image-keyboard-response","298","272774","0.0-298.0","3GA6AFUKOPAI6JM4FATMXIMZSNHH3Z","ANK8K5WTHJ61C","3UUIU9GZC5R93N292LT21FRJ9VS5TN","","593.3999999761581","img/flower3.png","74","594.5","1","1","1","1","1,0.333,0.333,0.333,1,0.333,0.333,0.333,1","1,0.333,0.333,0.333,1,0.333,0.333,0.333,1","1",""
"","html-keyboard-response","299","273082","0.0-299.0","3GA6AFUKOPAI6JM4FATMXIMZSNHH3Z","ANK8K5WTHJ61C","3UUIU9GZC5R93N292LT21FRJ9VS5TN","","null","<img src=""img/flower3.png"" style=""width:200px; border:14px solid green;"">","null","","","","","","","","",""
"","image-keyboard-response","300","273553","0.0-300.0","3GA6AFUKOPAI6JM4FATMXIMZSNHH3Z","ANK8K5WTHJ61C","3UUIU9GZC5R93N292LT21FRJ9VS5TN","","469.60000002384186","img/flower5.png","75","471.1999999284744","2","1","2","1","1,0.333,0.333,0.333,1,0.333,0.333,0.333,1","1,0.333,0.333,0.333,1,0.333,0.333,0.333,1","1",""
"","html-keyboard-response","301","273861","0.0-301.0","3GA6AFUKOPAI6JM4FATMXIMZSNHH3Z","ANK8K5WTHJ61C","3UUIU9GZC5R93N292LT21FRJ9VS5TN","","null","<img src=""img/flower5.png"" style=""width:200px; border:14px solid green;"">","null","","","","","","","","",""
"","image-keyboard-response","302","274349","0.0-302.0","3GA6AFUKOPAI6JM4FATMXIMZSNHH3Z","ANK8K5WTHJ61C","3UUIU9GZC5R93N292LT21FRJ9VS5TN","","485.6999999284744","img/flower2.png","76","487.10000002384186","3","1","3","1","1,0.333,0.333,0.333,1,0.333,0.333,0.333,1","1,0.333,0.333,0.333,1,0.333,0.333,0.333,1","1",""
"","html-keyboard-response","303","274657","0.0-303.0","3GA6AFUKOPAI6JM4FATMXIMZSNHH3Z","ANK8K5WTHJ61C","3UUIU9GZC5R93N292LT21FRJ9VS5TN","","null","<img src=""img/flower2.png"" style=""width:200px; border:14px solid green;"">","null","","","","","","","","",""
"","image-keyboard-response","304","275171","0.0-304.0","3GA6AFUKOPAI6JM4FATMXIMZSNHH3Z","ANK8K5WTHJ61C","3UUIU9GZC5R93N292LT21FRJ9VS5TN","","512.5","img/flower5.png","75","513.6000000238419","2","1","2","1","1,0.333,0.333,0.333,1,0.333,0.333,0.333,1","1,0.333,0.333,0.333,1,0.333,0.333,0.333,1","1",""
"","html-keyboard-response","305","275477","0.0-305.0","3GA6AFUKOPAI6JM4FATMXIMZSNHH3Z","ANK8K5WTHJ61C","3UUIU9GZC5R93N292LT21FRJ9VS5TN","","null","<img src=""img/flower5.png"" style=""width:200px; border:14px solid green;"">","null","","","","","","","","",""
"","image-keyboard-response","306","276014","0.0-306.0","3GA6AFUKOPAI6JM4FATMXIMZSNHH3Z","ANK8K5WTHJ61C","3UUIU9GZC5R93N292LT21FRJ9VS5TN","","535.0999999046326","img/flower3.png","74","536.5999999046326","1","1","1","1","1,0.333,0.333,0.333,1,0.333,0.333,0.333,1","1,0.333,0.333,0.333,1,0.333,0.333,0.333,1","1",""
"","html-keyboard-response","307","276322","0.0-307.0","3GA6AFUKOPAI6JM4FATMXIMZSNHH3Z","ANK8K5WTHJ61C","3UUIU9GZC5R93N292LT21FRJ9VS5TN","","null","<img src=""img/flower3.png"" style=""width:200px; border:14px solid green;"">","null","","","","","","","","",""
"","image-keyboard-response","308","276914","0.0-308.0","3GA6AFUKOPAI6JM4FATMXIMZSNHH3Z","ANK8K5WTHJ61C","3UUIU9GZC5R93N292LT21FRJ9VS5TN","","590.6999999284744","img/flower5.png","75","592.3999999761581","2","1","2","1","1,0.333,0.333,0.333,1,0.333,0.333,0.333,1","1,0.333,0.333,0.333,1,0.333,0.333,0.333,1","1",""
"","html-keyboard-response","309","277217","0.0-309.0","3GA6AFUKOPAI6JM4FATMXIMZSNHH3Z","ANK8K5WTHJ61C","3UUIU9GZC5R93N292LT21FRJ9VS5TN","","null","<img src=""img/flower5.png"" style=""width:200px; border:14px solid green;"">","null","","","","","","","","",""
"","image-keyboard-response","310","277935","0.0-310.0","3GA6AFUKOPAI6JM4FATMXIMZSNHH3Z","ANK8K5WTHJ61C","3UUIU9GZC5R93N292LT21FRJ9VS5TN","","715.3999999761581","img/flower3.png","74","717.2000000476837","1","1","1","1","1,0.333,0.333,0.333,1,0.333,0.333,0.333,1","1,0.333,0.333,0.333,1,0.333,0.333,0.333,1","1",""
"","html-keyboard-response","311","278242","0.0-311.0","3GA6AFUKOPAI6JM4FATMXIMZSNHH3Z","ANK8K5WTHJ61C","3UUIU9GZC5R93N292LT21FRJ9VS5TN","","null","<img src=""img/flower3.png"" style=""width:200px; border:14px solid green;"">","null","","","","","","","","",""
"","image-keyboard-response","312","278894","0.0-312.0","3GA6AFUKOPAI6JM4FATMXIMZSNHH3Z","ANK8K5WTHJ61C","3UUIU9GZC5R93N292LT21FRJ9VS5TN","","650","img/flower3.png","74","651.6000000238419","1","1","1","1","1,0.333,0.333,0.333,1,0.333,0.333,0.333,1","1,0.333,0.333,0.333,1,0.333,0.333,0.333,1","1",""
"","html-keyboard-response","313","279197","0.0-313.0","3GA6AFUKOPAI6JM4FATMXIMZSNHH3Z","ANK8K5WTHJ61C","3UUIU9GZC5R93N292LT21FRJ9VS5TN","","null","<img src=""img/flower3.png"" style=""width:200px; border:14px solid green;"">","null","","","","","","","","",""
"","image-keyboard-response","314","279824","0.0-314.0","3GA6AFUKOPAI6JM4FATMXIMZSNHH3Z","ANK8K5WTHJ61C","3UUIU9GZC5R93N292LT21FRJ9VS5TN","","626","img/flower5.png","75","626.8999999761581","2","1","2","1","1,0.333,0.333,0.333,1,0.333,0.333,0.333,1","1,0.333,0.333,0.333,1,0.333,0.333,0.333,1","1",""
"","html-keyboard-response","315","280132","0.0-315.0","3GA6AFUKOPAI6JM4FATMXIMZSNHH3Z","ANK8K5WTHJ61C","3UUIU9GZC5R93N292LT21FRJ9VS5TN","","null","<img src=""img/flower5.png"" style=""width:200px; border:14px solid green;"">","null","","","","","","","","",""
"","image-keyboard-response","316","280694","0.0-316.0","3GA6AFUKOPAI6JM4FATMXIMZSNHH3Z","ANK8K5WTHJ61C","3UUIU9GZC5R93N292LT21FRJ9VS5TN","","560.1999999284744","img/flower3.png","74","561.7999999523163","1","1","1","1","1,0.333,0.333,0.333,1,0.333,0.333,0.333,1","1,0.333,0.333,0.333,1,0.333,0.333,0.333,1","1",""
"","html-keyboard-response","317","281000","0.0-317.0","3GA6AFUKOPAI6JM4FATMXIMZSNHH3Z","ANK8K5WTHJ61C","3UUIU9GZC5R93N292LT21FRJ9VS5TN","","null","<img src=""img/flower3.png"" style=""width:200px; border:14px solid green;"">","null","","","","","","","","",""
"","image-keyboard-response","318","281529","0.0-318.0","3GA6AFUKOPAI6JM4FATMXIMZSNHH3Z","ANK8K5WTHJ61C","3UUIU9GZC5R93N292LT21FRJ9VS5TN","","528.0999999046326","img/flower2.png","76","529.3999999761581","3","1","3","1","1,0.333,0.333,0.333,1,0.333,0.333,0.333,1","1,0.333,0.333,0.333,1,0.333,0.333,0.333,1","1",""
"","html-keyboard-response","319","281834","0.0-319.0","3GA6AFUKOPAI6JM4FATMXIMZSNHH3Z","ANK8K5WTHJ61C","3UUIU9GZC5R93N292LT21FRJ9VS5TN","","null","<img src=""img/flower2.png"" style=""width:200px; border:14px solid green;"">","null","","","","","","","","",""
"","image-keyboard-response","320","282524","0.0-320.0","3GA6AFUKOPAI6JM4FATMXIMZSNHH3Z","ANK8K5WTHJ61C","3UUIU9GZC5R93N292LT21FRJ9VS5TN","","687.7000000476837","img/flower5.png","76","689.6000000238419","3","0","2","1","1,0.333,0.333,0.333,1,0.333,0.333,0.333,1","1,0.333,0.333,0.333,1,0.333,0.333,0.333,1","1",""
"","html-keyboard-response","321","282832","0.0-321.0","3GA6AFUKOPAI6JM4FATMXIMZSNHH3Z","ANK8K5WTHJ61C","3UUIU9GZC5R93N292LT21FRJ9VS5TN","","null","<img src=""img/flower5.png"" style=""width:200px;border:14px solid red;"">","null","","","","","","","","",""
"","image-keyboard-response","322","283542","0.0-322.0","3GA6AFUKOPAI6JM4FATMXIMZSNHH3Z","ANK8K5WTHJ61C","3UUIU9GZC5R93N292LT21FRJ9VS5TN","","708.1999999284744","img/flower3.png","74","709.8999999761581","1","1","1","1","1,0.333,0.333,0.333,1,0.333,0.333,0.333,1","1,0.333,0.333,0.333,1,0.333,0.333,0.333,1","1",""
"","html-keyboard-response","323","283849","0.0-323.0","3GA6AFUKOPAI6JM4FATMXIMZSNHH3Z","ANK8K5WTHJ61C","3UUIU9GZC5R93N292LT21FRJ9VS5TN","","null","<img src=""img/flower3.png"" style=""width:200px; border:14px solid green;"">","null","","","","","","","","",""
"","image-keyboard-response","324","284504","0.0-324.0","3GA6AFUKOPAI6JM4FATMXIMZSNHH3Z","ANK8K5WTHJ61C","3UUIU9GZC5R93N292LT21FRJ9VS5TN","","652.5","img/flower2.png","76","654.2000000476837","3","1","3","1","1,0.333,0.333,0.333,1,0.333,0.333,0.333,1","1,0.333,0.333,0.333,1,0.333,0.333,0.333,1","1",""
"","html-keyboard-response","325","284811","0.0-325.0","3GA6AFUKOPAI6JM4FATMXIMZSNHH3Z","ANK8K5WTHJ61C","3UUIU9GZC5R93N292LT21FRJ9VS5TN","","null","<img src=""img/flower2.png"" style=""width:200px; border:14px solid green;"">","null","","","","","","","","",""
"","image-keyboard-response","326","285315","0.0-326.0","3GA6AFUKOPAI6JM4FATMXIMZSNHH3Z","ANK8K5WTHJ61C","3UUIU9GZC5R93N292LT21FRJ9VS5TN","","502.8000000715256","img/flower5.png","75","504.40000009536743","2","1","2","1","1,0.333,0.333,0.333,1,0.333,0.333,0.333,1","1,0.333,0.333,0.333,1,0.333,0.333,0.333,1","1",""
"","html-keyboard-response","327","285623","0.0-327.0","3GA6AFUKOPAI6JM4FATMXIMZSNHH3Z","ANK8K5WTHJ61C","3UUIU9GZC5R93N292LT21FRJ9VS5TN","","null","<img src=""img/flower5.png"" style=""width:200px; border:14px solid green;"">","null","","","","","","","","",""
"","image-keyboard-response","328","286303","0.0-328.0","3GA6AFUKOPAI6JM4FATMXIMZSNHH3Z","ANK8K5WTHJ61C","3UUIU9GZC5R93N292LT21FRJ9VS5TN","","679.2000000476837","img/flower2.png","76","680","3","1","3","1","1,0.333,0.333,0.333,1,0.333,0.333,0.333,1","1,0.333,0.333,0.333,1,0.333,0.333,0.333,1","1",""
"","html-keyboard-response","329","286610","0.0-329.0","3GA6AFUKOPAI6JM4FATMXIMZSNHH3Z","ANK8K5WTHJ61C","3UUIU9GZC5R93N292LT21FRJ9VS5TN","","null","<img src=""img/flower2.png"" style=""width:200px; border:14px solid green;"">","null","","","","","","","","",""
"","image-keyboard-response","330","287260","0.0-330.0","3GA6AFUKOPAI6JM4FATMXIMZSNHH3Z","ANK8K5WTHJ61C","3UUIU9GZC5R93N292LT21FRJ9VS5TN","","648.2000000476837","img/flower2.png","76","649.3000000715256","3","1","3","1","1,0.333,0.333,0.333,1,0.333,0.333,0.333,1","1,0.333,0.333,0.333,1,0.333,0.333,0.333,1","1",""
"","html-keyboard-response","331","287567","0.0-331.0","3GA6AFUKOPAI6JM4FATMXIMZSNHH3Z","ANK8K5WTHJ61C","3UUIU9GZC5R93N292LT21FRJ9VS5TN","","null","<img src=""img/flower2.png"" style=""width:200px; border:14px solid green;"">","null","","","","","","","","",""
"","image-keyboard-response","332","288165","0.0-332.0","3GA6AFUKOPAI6JM4FATMXIMZSNHH3Z","ANK8K5WTHJ61C","3UUIU9GZC5R93N292LT21FRJ9VS5TN","","595.8999999761581","img/flower3.png","74","597.6000000238419","1","1","1","1","1,0.333,0.333,0.333,1,0.333,0.333,0.333,1","1,0.333,0.333,0.333,1,0.333,0.333,0.333,1","1",""
"","html-keyboard-response","333","288472","0.0-333.0","3GA6AFUKOPAI6JM4FATMXIMZSNHH3Z","ANK8K5WTHJ61C","3UUIU9GZC5R93N292LT21FRJ9VS5TN","","null","<img src=""img/flower3.png"" style=""width:200px; border:14px solid green;"">","null","","","","","","","","",""
"","image-keyboard-response","334","289184","0.0-334.0","3GA6AFUKOPAI6JM4FATMXIMZSNHH3Z","ANK8K5WTHJ61C","3UUIU9GZC5R93N292LT21FRJ9VS5TN","","709.8999999761581","img/flower2.png","76","711.7000000476837","3","1","3","1","1,0.333,0.333,0.333,1,0.333,0.333,0.333,1","1,0.333,0.333,0.333,1,0.333,0.333,0.333,1","1",""
"","html-keyboard-response","335","289491","0.0-335.0","3GA6AFUKOPAI6JM4FATMXIMZSNHH3Z","ANK8K5WTHJ61C","3UUIU9GZC5R93N292LT21FRJ9VS5TN","","null","<img src=""img/flower2.png"" style=""width:200px; border:14px solid green;"">","null","","","","","","","","",""
"","image-keyboard-response","336","290171","0.0-336.0","3GA6AFUKOPAI6JM4FATMXIMZSNHH3Z","ANK8K5WTHJ61C","3UUIU9GZC5R93N292LT21FRJ9VS5TN","","678.9000000953674","img/flower3.png","74","679.2999999523163","1","1","1","1","1,0.333,0.333,0.333,1,0.333,0.333,0.333,1","1,0.333,0.333,0.333,1,0.333,0.333,0.333,1","1",""
"","html-keyboard-response","337","290472","0.0-337.0","3GA6AFUKOPAI6JM4FATMXIMZSNHH3Z","ANK8K5WTHJ61C","3UUIU9GZC5R93N292LT21FRJ9VS5TN","","null","<img src=""img/flower3.png"" style=""width:200px; border:14px solid green;"">","null","","","","","","","","",""
"","image-keyboard-response","338","291044","0.0-338.0","3GA6AFUKOPAI6JM4FATMXIMZSNHH3Z","ANK8K5WTHJ61C","3UUIU9GZC5R93N292LT21FRJ9VS5TN","","570.5999999046326","img/flower2.png","76","572.2999999523163","3","1","3","1","1,0.333,0.333,0.333,1,0.333,0.333,0.333,1","1,0.333,0.333,0.333,1,0.333,0.333,0.333,1","1",""
"","html-keyboard-response","339","291352","0.0-339.0","3GA6AFUKOPAI6JM4FATMXIMZSNHH3Z","ANK8K5WTHJ61C","3UUIU9GZC5R93N292LT21FRJ9VS5TN","","null","<img src=""img/flower2.png"" style=""width:200px; border:14px solid green;"">","null","","","","","","","","",""
"","image-keyboard-response","340","291944","0.0-340.0","3GA6AFUKOPAI6JM4FATMXIMZSNHH3Z","ANK8K5WTHJ61C","3UUIU9GZC5R93N292LT21FRJ9VS5TN","","591.7000000476837","img/flower5.png","75","592.7999999523163","2","1","2","1","1,0.333,0.333,0.333,1,0.333,0.333,0.333,1","1,0.333,0.333,0.333,1,0.333,0.333,0.333,1","1",""
"","html-keyboard-response","341","292253","0.0-341.0","3GA6AFUKOPAI6JM4FATMXIMZSNHH3Z","ANK8K5WTHJ61C","3UUIU9GZC5R93N292LT21FRJ9VS5TN","","null","<img src=""img/flower5.png"" style=""width:200px; border:14px solid green;"">","null","","","","","","","","",""
"","image-keyboard-response","342","292814","0.0-342.0","3GA6AFUKOPAI6JM4FATMXIMZSNHH3Z","ANK8K5WTHJ61C","3UUIU9GZC5R93N292LT21FRJ9VS5TN","","559.6999999284744","img/flower5.png","75","561.3999999761581","2","1","2","1","1,0.333,0.333,0.333,1,0.333,0.333,0.333,1","1,0.333,0.333,0.333,1,0.333,0.333,0.333,1","1",""
"","html-keyboard-response","343","293120","0.0-343.0","3GA6AFUKOPAI6JM4FATMXIMZSNHH3Z","ANK8K5WTHJ61C","3UUIU9GZC5R93N292LT21FRJ9VS5TN","","null","<img src=""img/flower5.png"" style=""width:200px; border:14px solid green;"">","null","","","","","","","","",""
"","image-keyboard-response","344","293864","0.0-344.0","3GA6AFUKOPAI6JM4FATMXIMZSNHH3Z","ANK8K5WTHJ61C","3UUIU9GZC5R93N292LT21FRJ9VS5TN","","741.2999999523163","img/flower5.png","75","742.7999999523163","2","1","2","1","1,0.333,0.333,0.333,1,0.333,0.333,0.333,1","1,0.333,0.333,0.333,1,0.333,0.333,0.333,1","1",""
"","html-keyboard-response","345","294167","0.0-345.0","3GA6AFUKOPAI6JM4FATMXIMZSNHH3Z","ANK8K5WTHJ61C","3UUIU9GZC5R93N292LT21FRJ9VS5TN","","null","<img src=""img/flower5.png"" style=""width:200px; border:14px solid green;"">","null","","","","","","","","",""
"","image-keyboard-response","346","294764","0.0-346.0","3GA6AFUKOPAI6JM4FATMXIMZSNHH3Z","ANK8K5WTHJ61C","3UUIU9GZC5R93N292LT21FRJ9VS5TN","","595.8999999761581","img/flower2.png","76","597.2999999523163","3","1","3","1","1,0.333,0.333,0.333,1,0.333,0.333,0.333,1","1,0.333,0.333,0.333,1,0.333,0.333,0.333,1","1",""
"","html-keyboard-response","347","295069","0.0-347.0","3GA6AFUKOPAI6JM4FATMXIMZSNHH3Z","ANK8K5WTHJ61C","3UUIU9GZC5R93N292LT21FRJ9VS5TN","","null","<img src=""img/flower2.png"" style=""width:200px; border:14px solid green;"">","null","","","","","","","","",""
"","image-keyboard-response","348","295724","0.0-348.0","3GA6AFUKOPAI6JM4FATMXIMZSNHH3Z","ANK8K5WTHJ61C","3UUIU9GZC5R93N292LT21FRJ9VS5TN","","653.1000000238419","img/flower5.png","75","654.6000000238419","2","1","2","1","1,0.333,0.333,0.333,1,0.333,0.333,0.333,1","1,0.333,0.333,0.333,1,0.333,0.333,0.333,1","1",""
"","html-keyboard-response","349","296028","0.0-349.0","3GA6AFUKOPAI6JM4FATMXIMZSNHH3Z","ANK8K5WTHJ61C","3UUIU9GZC5R93N292LT21FRJ9VS5TN","","null","<img src=""img/flower5.png"" style=""width:200px; border:14px solid green;"">","null","","","","","","","","",""
"","image-keyboard-response","350","296744","0.0-350.0","3GA6AFUKOPAI6JM4FATMXIMZSNHH3Z","ANK8K5WTHJ61C","3UUIU9GZC5R93N292LT21FRJ9VS5TN","","714.2999999523163","img/flower2.png","76","715.6000000238419","3","1","3","1","1,0.333,0.333,0.333,1,0.333,0.333,0.333,1","1,0.333,0.333,0.333,1,0.333,0.333,0.333,1","1",""
"","html-keyboard-response","351","297052","0.0-351.0","3GA6AFUKOPAI6JM4FATMXIMZSNHH3Z","ANK8K5WTHJ61C","3UUIU9GZC5R93N292LT21FRJ9VS5TN","","null","<img src=""img/flower2.png"" style=""width:200px; border:14px solid green;"">","null","","","","","","","","",""
"","image-keyboard-response","352","297674","0.0-352.0","3GA6AFUKOPAI6JM4FATMXIMZSNHH3Z","ANK8K5WTHJ61C","3UUIU9GZC5R93N292LT21FRJ9VS5TN","","620.5","img/flower3.png","74","622.3000000715256","1","1","1","1","1,0.333,0.333,0.333,1,0.333,0.333,0.333,1","1,0.333,0.333,0.333,1,0.333,0.333,0.333,1","1",""
"","html-keyboard-response","353","297981","0.0-353.0","3GA6AFUKOPAI6JM4FATMXIMZSNHH3Z","ANK8K5WTHJ61C","3UUIU9GZC5R93N292LT21FRJ9VS5TN","","null","<img src=""img/flower3.png"" style=""width:200px; border:14px solid green;"">","null","","","","","","","","",""
"","image-keyboard-response","354","298605","0.0-354.0","3GA6AFUKOPAI6JM4FATMXIMZSNHH3Z","ANK8K5WTHJ61C","3UUIU9GZC5R93N292LT21FRJ9VS5TN","","622","img/flower3.png","74","623.9000000953674","1","1","1","1","1,0.333,0.333,0.333,1,0.333,0.333,0.333,1","1,0.333,0.333,0.333,1,0.333,0.333,0.333,1","1",""
"","html-keyboard-response","355","298909","0.0-355.0","3GA6AFUKOPAI6JM4FATMXIMZSNHH3Z","ANK8K5WTHJ61C","3UUIU9GZC5R93N292LT21FRJ9VS5TN","","null","<img src=""img/flower3.png"" style=""width:200px; border:14px solid green;"">","null","","","","","","","","",""
"","image-keyboard-response","356","299504","0.0-356.0","3GA6AFUKOPAI6JM4FATMXIMZSNHH3Z","ANK8K5WTHJ61C","3UUIU9GZC5R93N292LT21FRJ9VS5TN","","593.6000000238419","img/flower2.png","76","595.1000000238419","3","1","3","1","1,0.333,0.333,0.333,1,0.333,0.333,0.333,1","1,0.333,0.333,0.333,1,0.333,0.333,0.333,1","1",""
"","html-keyboard-response","357","299810","0.0-357.0","3GA6AFUKOPAI6JM4FATMXIMZSNHH3Z","ANK8K5WTHJ61C","3UUIU9GZC5R93N292LT21FRJ9VS5TN","","null","<img src=""img/flower2.png"" style=""width:200px; border:14px solid green;"">","null","","","","","","","","",""
"","image-keyboard-response","358","300313","0.0-358.0","3GA6AFUKOPAI6JM4FATMXIMZSNHH3Z","ANK8K5WTHJ61C","3UUIU9GZC5R93N292LT21FRJ9VS5TN","","501.3000000715256","img/flower2.png","76","503","3","1","3","1","1,0.333,0.333,0.333,1,0.333,0.333,0.333,1","1,0.333,0.333,0.333,1,0.333,0.333,0.333,1","1",""
"","html-keyboard-response","359","300615","0.0-359.0","3GA6AFUKOPAI6JM4FATMXIMZSNHH3Z","ANK8K5WTHJ61C","3UUIU9GZC5R93N292LT21FRJ9VS5TN","","null","<img src=""img/flower2.png"" style=""width:200px; border:14px solid green;"">","null","","","","","","","","",""
"","image-keyboard-response","360","301244","0.0-360.0","3GA6AFUKOPAI6JM4FATMXIMZSNHH3Z","ANK8K5WTHJ61C","3UUIU9GZC5R93N292LT21FRJ9VS5TN","","627","img/flower3.png","74","628.6000000238419","1","1","1","1","1,0.333,0.333,0.333,1,0.333,0.333,0.333,1","1,0.333,0.333,0.333,1,0.333,0.333,0.333,1","1",""
"","html-keyboard-response","361","301548","0.0-361.0","3GA6AFUKOPAI6JM4FATMXIMZSNHH3Z","ANK8K5WTHJ61C","3UUIU9GZC5R93N292LT21FRJ9VS5TN","","null","<img src=""img/flower3.png"" style=""width:200px; border:14px solid green;"">","null","","","","","","","","",""
"","html-keyboard-response","362","306114","0.0-362.0","3GA6AFUKOPAI6JM4FATMXIMZSNHH3Z","ANK8K5WTHJ61C","3UUIU9GZC5R93N292LT21FRJ9VS5TN","","","","","","","","","","","","",""
"","instructions","363","312499","0.0-363.0","3GA6AFUKOPAI6JM4FATMXIMZSNHH3Z","ANK8K5WTHJ61C","3UUIU9GZC5R93N292LT21FRJ9VS5TN","[{""page_index"":0,""viewing_time"":6383.399999976158}]","6384","","","","","","","","","","",""
"","survey-text","364","321882","0.0-364.0","3GA6AFUKOPAI6JM4FATMXIMZSNHH3Z","ANK8K5WTHJ61C","3UUIU9GZC5R93N292LT21FRJ9VS5TN","","9378","","","","","","","","","","","{""Q0"":""ANK8K5WTHJ61C""}"
