"success","trial_type","trial_index","time_elapsed","internal_node_id","assignmentID","mturkID","hitID","view_history","rt","stimulus","key_press","reactionTime","a","r","s","cond","reward_cond","reward_cond_actual","reward_matrix_idx","responses"
"true","fullscreen","0","2656","0.0-0.0","3RWE2M8QWIWEZN9IZL6G04LOBKV0NF","ANOPPPGFNTUPN","3TKXBROM5TWR181JXBYSOI8FGFVJIU","","","","","","","","","","","","",""
"","instructions","1","14975","0.0-1.0","3RWE2M8QWIWEZN9IZL6G04LOBKV0NF","ANOPPPGFNTUPN","3TKXBROM5TWR181JXBYSOI8FGFVJIU","[{""page_index"":0,""viewing_time"":1826},{""page_index"":1,""viewing_time"":1032},{""page_index"":2,""viewing_time"":1991},{""page_index"":3,""viewing_time"":714},{""page_index"":4,""viewing_time"":1310},{""page_index"":5,""viewing_time"":2951},{""page_index"":6,""viewing_time"":1346},{""page_index"":7,""viewing_time"":1144}]","12316","","","","","","","","","","",""
"","image-keyboard-response","2","16985","0.0-2.0","3RWE2M8QWIWEZN9IZL6G04LOBKV0NF","ANOPPPGFNTUPN","3TKXBROM5TWR181JXBYSOI8FGFVJIU","","","img/flower1.png","","2009","-1","0","1","1","1,0.333,0.333,0.333,1,0.333,0.333,0.333,1","1,0.333,0.333,0.333,1,0.333,0.333,0.333,1","1",""
"","html-keyboard-response","3","17289","0.0-3.0","3RWE2M8QWIWEZN9IZL6G04LOBKV0NF","ANOPPPGFNTUPN","3TKXBROM5TWR181JXBYSOI8FGFVJIU","","null","<img src=""img/flower1.png"" style=""width:200px;border:14px solid red;"">","null","","","","","","","","",""
"","image-keyboard-response","4","17299","0.0-4.0","3RWE2M8QWIWEZN9IZL6G04LOBKV0NF","ANOPPPGFNTUPN","3TKXBROM5TWR181JXBYSOI8FGFVJIU","","8","img/flower1.png","75","9","2","0","1","1","1,0.333,0.333,0.333,1,0.333,0.333,0.333,1","1,0.333,0.333,0.333,1,0.333,0.333,0.333,1","1",""
"","html-keyboard-response","5","17600","0.0-5.0","3RWE2M8QWIWEZN9IZL6G04LOBKV0NF","ANOPPPGFNTUPN","3TKXBROM5TWR181JXBYSOI8FGFVJIU","","null","<img src=""img/flower1.png"" style=""width:200px;border:14px solid red;"">","null","","","","","","","","",""
"","image-keyboard-response","6","17834","0.0-6.0","3RWE2M8QWIWEZN9IZL6G04LOBKV0NF","ANOPPPGFNTUPN","3TKXBROM5TWR181JXBYSOI8FGFVJIU","","229","img/flower5.png","75","233","2","1","2","1","1,0.333,0.333,0.333,1,0.333,0.333,0.333,1","1,0.333,0.333,0.333,1,0.333,0.333,0.333,1","1",""
"","html-keyboard-response","7","18136","0.0-7.0","3RWE2M8QWIWEZN9IZL6G04LOBKV0NF","ANOPPPGFNTUPN","3TKXBROM5TWR181JXBYSOI8FGFVJIU","","null","<img src=""img/flower5.png"" style=""width:200px; border:14px solid green;"">","null","","","","","","","","",""
"","image-keyboard-response","8","18425","0.0-8.0","3RWE2M8QWIWEZN9IZL6G04LOBKV0NF","ANOPPPGFNTUPN","3TKXBROM5TWR181JXBYSOI8FGFVJIU","","285","img/flower1.png","75","288","2","0","1","1","1,0.333,0.333,0.333,1,0.333,0.333,0.333,1","1,0.333,0.333,0.333,1,0.333,0.333,0.333,1","1",""
"","html-keyboard-response","9","18729","0.0-9.0","3RWE2M8QWIWEZN9IZL6G04LOBKV0NF","ANOPPPGFNTUPN","3TKXBROM5TWR181JXBYSOI8FGFVJIU","","null","<img src=""img/flower1.png"" style=""width:200px;border:14px solid red;"">","null","","","","","","","","",""
"","image-keyboard-response","10","18919","0.0-10.0","3RWE2M8QWIWEZN9IZL6G04LOBKV0NF","ANOPPPGFNTUPN","3TKXBROM5TWR181JXBYSOI8FGFVJIU","","187","img/flower1.png","75","189","2","0","1","1","1,0.333,0.333,0.333,1,0.333,0.333,0.333,1","1,0.333,0.333,0.333,1,0.333,0.333,0.333,1","1",""
"","html-keyboard-response","11","19220","0.0-11.0","3RWE2M8QWIWEZN9IZL6G04LOBKV0NF","ANOPPPGFNTUPN","3TKXBROM5TWR181JXBYSOI8FGFVJIU","","null","<img src=""img/flower1.png"" style=""width:200px;border:14px solid red;"">","null","","","","","","","","",""
"","image-keyboard-response","12","19384","0.0-12.0","3RWE2M8QWIWEZN9IZL6G04LOBKV0NF","ANOPPPGFNTUPN","3TKXBROM5TWR181JXBYSOI8FGFVJIU","","160","img/flower5.png","75","162","2","1","2","1","1,0.333,0.333,0.333,1,0.333,0.333,0.333,1","1,0.333,0.333,0.333,1,0.333,0.333,0.333,1","1",""
"","html-keyboard-response","13","19686","0.0-13.0","3RWE2M8QWIWEZN9IZL6G04LOBKV0NF","ANOPPPGFNTUPN","3TKXBROM5TWR181JXBYSOI8FGFVJIU","","null","<img src=""img/flower5.png"" style=""width:200px; border:14px solid green;"">","null","","","","","","","","",""
"","image-keyboard-response","14","19991","0.0-14.0","3RWE2M8QWIWEZN9IZL6G04LOBKV0NF","ANOPPPGFNTUPN","3TKXBROM5TWR181JXBYSOI8FGFVJIU","","303","img/flower5.png","75","304","2","1","2","1","1,0.333,0.333,0.333,1,0.333,0.333,0.333,1","1,0.333,0.333,0.333,1,0.333,0.333,0.333,1","1",""
"","html-keyboard-response","15","20293","0.0-15.0","3RWE2M8QWIWEZN9IZL6G04LOBKV0NF","ANOPPPGFNTUPN","3TKXBROM5TWR181JXBYSOI8FGFVJIU","","null","<img src=""img/flower5.png"" style=""width:200px; border:14px solid green;"">","null","","","","","","","","",""
"","image-keyboard-response","16","20382","0.0-16.0","3RWE2M8QWIWEZN9IZL6G04LOBKV0NF","ANOPPPGFNTUPN","3TKXBROM5TWR181JXBYSOI8FGFVJIU","","87","img/flower1.png","75","88","2","0","1","1","1,0.333,0.333,0.333,1,0.333,0.333,0.333,1","1,0.333,0.333,0.333,1,0.333,0.333,0.333,1","1",""
"","html-keyboard-response","17","20683","0.0-17.0","3RWE2M8QWIWEZN9IZL6G04LOBKV0NF","ANOPPPGFNTUPN","3TKXBROM5TWR181JXBYSOI8FGFVJIU","","null","<img src=""img/flower1.png"" style=""width:200px;border:14px solid red;"">","null","","","","","","","","",""
"","image-keyboard-response","18","20790","0.0-18.0","3RWE2M8QWIWEZN9IZL6G04LOBKV0NF","ANOPPPGFNTUPN","3TKXBROM5TWR181JXBYSOI8FGFVJIU","","105","img/flower4.png","75","106","2","0","3","1","1,0.333,0.333,0.333,1,0.333,0.333,0.333,1","1,0.333,0.333,0.333,1,0.333,0.333,0.333,1","1",""
"","html-keyboard-response","19","21092","0.0-19.0","3RWE2M8QWIWEZN9IZL6G04LOBKV0NF","ANOPPPGFNTUPN","3TKXBROM5TWR181JXBYSOI8FGFVJIU","","null","<img src=""img/flower4.png"" style=""width:200px;border:14px solid red;"">","null","","","","","","","","",""
"","image-keyboard-response","20","21205","0.0-20.0","3RWE2M8QWIWEZN9IZL6G04LOBKV0NF","ANOPPPGFNTUPN","3TKXBROM5TWR181JXBYSOI8FGFVJIU","","111","img/flower1.png","74","112","1","1","1","1","1,0.333,0.333,0.333,1,0.333,0.333,0.333,1","1,0.333,0.333,0.333,1,0.333,0.333,0.333,1","1",""
"","html-keyboard-response","21","21508","0.0-21.0","3RWE2M8QWIWEZN9IZL6G04LOBKV0NF","ANOPPPGFNTUPN","3TKXBROM5TWR181JXBYSOI8FGFVJIU","","null","<img src=""img/flower1.png"" style=""width:200px; border:14px solid green;"">","null","","","","","","","","",""
"","image-keyboard-response","22","21672","0.0-22.0","3RWE2M8QWIWEZN9IZL6G04LOBKV0NF","ANOPPPGFNTUPN","3TKXBROM5TWR181JXBYSOI8FGFVJIU","","161","img/flower5.png","74","163","1","1","2","1","1,0.333,0.333,0.333,1,0.333,0.333,0.333,1","1,0.333,0.333,0.333,1,0.333,0.333,0.333,1","1",""
"","html-keyboard-response","23","21975","0.0-23.0","3RWE2M8QWIWEZN9IZL6G04LOBKV0NF","ANOPPPGFNTUPN","3TKXBROM5TWR181JXBYSOI8FGFVJIU","","null","<img src=""img/flower5.png"" style=""width:200px; border:14px solid green;"">","null","","","","","","","","",""
"","image-keyboard-response","24","22041","0.0-24.0","3RWE2M8QWIWEZN9IZL6G04LOBKV0NF","ANOPPPGFNTUPN","3TKXBROM5TWR181JXBYSOI8FGFVJIU","","65","img/flower4.png","74","66","1","0","3","1","1,0.333,0.333,0.333,1,0.333,0.333,0.333,1","1,0.333,0.333,0.333,1,0.333,0.333,0.333,1","1",""
"","html-keyboard-response","25","22343","0.0-25.0","3RWE2M8QWIWEZN9IZL6G04LOBKV0NF","ANOPPPGFNTUPN","3TKXBROM5TWR181JXBYSOI8FGFVJIU","","null","<img src=""img/flower4.png"" style=""width:200px;border:14px solid red;"">","null","","","","","","","","",""
"","image-keyboard-response","26","22414","0.0-26.0","3RWE2M8QWIWEZN9IZL6G04LOBKV0NF","ANOPPPGFNTUPN","3TKXBROM5TWR181JXBYSOI8FGFVJIU","","69","img/flower1.png","74","70","1","1","1","1","1,0.333,0.333,0.333,1,0.333,0.333,0.333,1","1,0.333,0.333,0.333,1,0.333,0.333,0.333,1","1",""
"","html-keyboard-response","27","22715","0.0-27.0","3RWE2M8QWIWEZN9IZL6G04LOBKV0NF","ANOPPPGFNTUPN","3TKXBROM5TWR181JXBYSOI8FGFVJIU","","null","<img src=""img/flower1.png"" style=""width:200px; border:14px solid green;"">","null","","","","","","","","",""
"","image-keyboard-response","28","23015","0.0-28.0","3RWE2M8QWIWEZN9IZL6G04LOBKV0NF","ANOPPPGFNTUPN","3TKXBROM5TWR181JXBYSOI8FGFVJIU","","299","img/flower5.png","76","300","3","1","2","1","1,0.333,0.333,0.333,1,0.333,0.333,0.333,1","1,0.333,0.333,0.333,1,0.333,0.333,0.333,1","1",""
"","html-keyboard-response","29","23316","0.0-29.0","3RWE2M8QWIWEZN9IZL6G04LOBKV0NF","ANOPPPGFNTUPN","3TKXBROM5TWR181JXBYSOI8FGFVJIU","","null","<img src=""img/flower5.png"" style=""width:200px; border:14px solid green;"">","null","","","","","","","","",""
"","image-keyboard-response","30","23462","0.0-30.0","3RWE2M8QWIWEZN9IZL6G04LOBKV0NF","ANOPPPGFNTUPN","3TKXBROM5TWR181JXBYSOI8FGFVJIU","","144","img/flower5.png","76","145","3","1","2","1","1,0.333,0.333,0.333,1,0.333,0.333,0.333,1","1,0.333,0.333,0.333,1,0.333,0.333,0.333,1","1",""
"","html-keyboard-response","31","23765","0.0-31.0","3RWE2M8QWIWEZN9IZL6G04LOBKV0NF","ANOPPPGFNTUPN","3TKXBROM5TWR181JXBYSOI8FGFVJIU","","null","<img src=""img/flower5.png"" style=""width:200px; border:14px solid green;"">","null","","","","","","","","",""
"","image-keyboard-response","32","23837","0.0-32.0","3RWE2M8QWIWEZN9IZL6G04LOBKV0NF","ANOPPPGFNTUPN","3TKXBROM5TWR181JXBYSOI8FGFVJIU","","70","img/flower1.png","74","71","1","1","1","1","1,0.333,0.333,0.333,1,0.333,0.333,0.333,1","1,0.333,0.333,0.333,1,0.333,0.333,0.333,1","1",""
"","html-keyboard-response","33","24139","0.0-33.0","3RWE2M8QWIWEZN9IZL6G04LOBKV0NF","ANOPPPGFNTUPN","3TKXBROM5TWR181JXBYSOI8FGFVJIU","","null","<img src=""img/flower1.png"" style=""width:200px; border:14px solid green;"">","null","","","","","","","","",""
"","image-keyboard-response","34","24207","0.0-34.0","3RWE2M8QWIWEZN9IZL6G04LOBKV0NF","ANOPPPGFNTUPN","3TKXBROM5TWR181JXBYSOI8FGFVJIU","","65","img/flower5.png","75","67","2","1","2","1","1,0.333,0.333,0.333,1,0.333,0.333,0.333,1","1,0.333,0.333,0.333,1,0.333,0.333,0.333,1","1",""
"","html-keyboard-response","35","24512","0.0-35.0","3RWE2M8QWIWEZN9IZL6G04LOBKV0NF","ANOPPPGFNTUPN","3TKXBROM5TWR181JXBYSOI8FGFVJIU","","null","<img src=""img/flower5.png"" style=""width:200px; border:14px solid green;"">","null","","","","","","","","",""
"","image-keyboard-response","36","24627","0.0-36.0","3RWE2M8QWIWEZN9IZL6G04LOBKV0NF","ANOPPPGFNTUPN","3TKXBROM5TWR181JXBYSOI8FGFVJIU","","113","img/flower1.png","74","114","1","1","1","1","1,0.333,0.333,0.333,1,0.333,0.333,0.333,1","1,0.333,0.333,0.333,1,0.333,0.333,0.333,1","1",""
"","html-keyboard-response","37","24928","0.0-37.0","3RWE2M8QWIWEZN9IZL6G04LOBKV0NF","ANOPPPGFNTUPN","3TKXBROM5TWR181JXBYSOI8FGFVJIU","","null","<img src=""img/flower1.png"" style=""width:200px; border:14px solid green;"">","null","","","","","","","","",""
"","image-keyboard-response","38","25055","0.0-38.0","3RWE2M8QWIWEZN9IZL6G04LOBKV0NF","ANOPPPGFNTUPN","3TKXBROM5TWR181JXBYSOI8FGFVJIU","","124","img/flower1.png","76","125","3","0","1","1","1,0.333,0.333,0.333,1,0.333,0.333,0.333,1","1,0.333,0.333,0.333,1,0.333,0.333,0.333,1","1",""
"","html-keyboard-response","39","25357","0.0-39.0","3RWE2M8QWIWEZN9IZL6G04LOBKV0NF","ANOPPPGFNTUPN","3TKXBROM5TWR181JXBYSOI8FGFVJIU","","null","<img src=""img/flower1.png"" style=""width:200px;border:14px solid red;"">","null","","","","","","","","",""
"","image-keyboard-response","40","25390","0.0-40.0","3RWE2M8QWIWEZN9IZL6G04LOBKV0NF","ANOPPPGFNTUPN","3TKXBROM5TWR181JXBYSOI8FGFVJIU","","31","img/flower4.png","74","32","1","0","3","1","1,0.333,0.333,0.333,1,0.333,0.333,0.333,1","1,0.333,0.333,0.333,1,0.333,0.333,0.333,1","1",""
"","html-keyboard-response","41","25691","0.0-41.0","3RWE2M8QWIWEZN9IZL6G04LOBKV0NF","ANOPPPGFNTUPN","3TKXBROM5TWR181JXBYSOI8FGFVJIU","","null","<img src=""img/flower4.png"" style=""width:200px;border:14px solid red;"">","null","","","","","","","","",""
"","image-keyboard-response","42","25720","0.0-42.0","3RWE2M8QWIWEZN9IZL6G04LOBKV0NF","ANOPPPGFNTUPN","3TKXBROM5TWR181JXBYSOI8FGFVJIU","","26","img/flower4.png","76","28","3","1","3","1","1,0.333,0.333,0.333,1,0.333,0.333,0.333,1","1,0.333,0.333,0.333,1,0.333,0.333,0.333,1","1",""
"","html-keyboard-response","43","26022","0.0-43.0","3RWE2M8QWIWEZN9IZL6G04LOBKV0NF","ANOPPPGFNTUPN","3TKXBROM5TWR181JXBYSOI8FGFVJIU","","null","<img src=""img/flower4.png"" style=""width:200px; border:14px solid green;"">","null","","","","","","","","",""
"","image-keyboard-response","44","26359","0.0-44.0","3RWE2M8QWIWEZN9IZL6G04LOBKV0NF","ANOPPPGFNTUPN","3TKXBROM5TWR181JXBYSOI8FGFVJIU","","334","img/flower5.png","75","336","2","1","2","1","1,0.333,0.333,0.333,1,0.333,0.333,0.333,1","1,0.333,0.333,0.333,1,0.333,0.333,0.333,1","1",""
"","html-keyboard-response","45","26661","0.0-45.0","3RWE2M8QWIWEZN9IZL6G04LOBKV0NF","ANOPPPGFNTUPN","3TKXBROM5TWR181JXBYSOI8FGFVJIU","","null","<img src=""img/flower5.png"" style=""width:200px; border:14px solid green;"">","null","","","","","","","","",""
"","image-keyboard-response","46","26720","0.0-46.0","3RWE2M8QWIWEZN9IZL6G04LOBKV0NF","ANOPPPGFNTUPN","3TKXBROM5TWR181JXBYSOI8FGFVJIU","","57","img/flower5.png","75","59","2","1","2","1","1,0.333,0.333,0.333,1,0.333,0.333,0.333,1","1,0.333,0.333,0.333,1,0.333,0.333,0.333,1","1",""
"","html-keyboard-response","47","27022","0.0-47.0","3RWE2M8QWIWEZN9IZL6G04LOBKV0NF","ANOPPPGFNTUPN","3TKXBROM5TWR181JXBYSOI8FGFVJIU","","null","<img src=""img/flower5.png"" style=""width:200px; border:14px solid green;"">","null","","","","","","","","",""
"","image-keyboard-response","48","27104","0.0-48.0","3RWE2M8QWIWEZN9IZL6G04LOBKV0NF","ANOPPPGFNTUPN","3TKXBROM5TWR181JXBYSOI8FGFVJIU","","80","img/flower1.png","75","81","2","0","1","1","1,0.333,0.333,0.333,1,0.333,0.333,0.333,1","1,0.333,0.333,0.333,1,0.333,0.333,0.333,1","1",""
"","html-keyboard-response","49","27456","0.0-49.0","3RWE2M8QWIWEZN9IZL6G04LOBKV0NF","ANOPPPGFNTUPN","3TKXBROM5TWR181JXBYSOI8FGFVJIU","","null","<img src=""img/flower1.png"" style=""width:200px;border:14px solid red;"">","null","","","","","","","","",""
"","image-keyboard-response","50","27513","0.0-50.0","3RWE2M8QWIWEZN9IZL6G04LOBKV0NF","ANOPPPGFNTUPN","3TKXBROM5TWR181JXBYSOI8FGFVJIU","","55","img/flower1.png","75","56","2","1","1","1","1,0.333,0.333,0.333,1,0.333,0.333,0.333,1","1,0.333,0.333,0.333,1,0.333,0.333,0.333,1","1",""
"","html-keyboard-response","51","27818","0.0-51.0","3RWE2M8QWIWEZN9IZL6G04LOBKV0NF","ANOPPPGFNTUPN","3TKXBROM5TWR181JXBYSOI8FGFVJIU","","null","<img src=""img/flower1.png"" style=""width:200px; border:14px solid green;"">","null","","","","","","","","",""
"","image-keyboard-response","52","27910","0.0-52.0","3RWE2M8QWIWEZN9IZL6G04LOBKV0NF","ANOPPPGFNTUPN","3TKXBROM5TWR181JXBYSOI8FGFVJIU","","91","img/flower4.png","74","92","1","0","3","1","1,0.333,0.333,0.333,1,0.333,0.333,0.333,1","1,0.333,0.333,0.333,1,0.333,0.333,0.333,1","1",""
"","html-keyboard-response","53","28213","0.0-53.0","3RWE2M8QWIWEZN9IZL6G04LOBKV0NF","ANOPPPGFNTUPN","3TKXBROM5TWR181JXBYSOI8FGFVJIU","","null","<img src=""img/flower4.png"" style=""width:200px;border:14px solid red;"">","null","","","","","","","","",""
"","image-keyboard-response","54","28304","0.0-54.0","3RWE2M8QWIWEZN9IZL6G04LOBKV0NF","ANOPPPGFNTUPN","3TKXBROM5TWR181JXBYSOI8FGFVJIU","","89","img/flower4.png","74","90","1","1","3","1","1,0.333,0.333,0.333,1,0.333,0.333,0.333,1","1,0.333,0.333,0.333,1,0.333,0.333,0.333,1","1",""
"","html-keyboard-response","55","28607","0.0-55.0","3RWE2M8QWIWEZN9IZL6G04LOBKV0NF","ANOPPPGFNTUPN","3TKXBROM5TWR181JXBYSOI8FGFVJIU","","null","<img src=""img/flower4.png"" style=""width:200px; border:14px solid green;"">","null","","","","","","","","",""
"","image-keyboard-response","56","28967","0.0-56.0","3RWE2M8QWIWEZN9IZL6G04LOBKV0NF","ANOPPPGFNTUPN","3TKXBROM5TWR181JXBYSOI8FGFVJIU","","358","img/flower1.png","76","360","3","1","1","1","1,0.333,0.333,0.333,1,0.333,0.333,0.333,1","1,0.333,0.333,0.333,1,0.333,0.333,0.333,1","1",""
"","html-keyboard-response","57","29270","0.0-57.0","3RWE2M8QWIWEZN9IZL6G04LOBKV0NF","ANOPPPGFNTUPN","3TKXBROM5TWR181JXBYSOI8FGFVJIU","","null","<img src=""img/flower1.png"" style=""width:200px; border:14px solid green;"">","null","","","","","","","","",""
"","image-keyboard-response","58","29424","0.0-58.0","3RWE2M8QWIWEZN9IZL6G04LOBKV0NF","ANOPPPGFNTUPN","3TKXBROM5TWR181JXBYSOI8FGFVJIU","","151","img/flower1.png","75","153","2","0","1","1","1,0.333,0.333,0.333,1,0.333,0.333,0.333,1","1,0.333,0.333,0.333,1,0.333,0.333,0.333,1","1",""
"","html-keyboard-response","59","29726","0.0-59.0","3RWE2M8QWIWEZN9IZL6G04LOBKV0NF","ANOPPPGFNTUPN","3TKXBROM5TWR181JXBYSOI8FGFVJIU","","null","<img src=""img/flower1.png"" style=""width:200px;border:14px solid red;"">","null","","","","","","","","",""
"","image-keyboard-response","60","29945","0.0-60.0","3RWE2M8QWIWEZN9IZL6G04LOBKV0NF","ANOPPPGFNTUPN","3TKXBROM5TWR181JXBYSOI8FGFVJIU","","216","img/flower4.png","76","219","3","1","3","1","1,0.333,0.333,0.333,1,0.333,0.333,0.333,1","1,0.333,0.333,0.333,1,0.333,0.333,0.333,1","1",""
"","html-keyboard-response","61","30251","0.0-61.0","3RWE2M8QWIWEZN9IZL6G04LOBKV0NF","ANOPPPGFNTUPN","3TKXBROM5TWR181JXBYSOI8FGFVJIU","","null","<img src=""img/flower4.png"" style=""width:200px; border:14px solid green;"">","null","","","","","","","","",""
"","image-keyboard-response","62","30414","0.0-62.0","3RWE2M8QWIWEZN9IZL6G04LOBKV0NF","ANOPPPGFNTUPN","3TKXBROM5TWR181JXBYSOI8FGFVJIU","","161","img/flower5.png","75","162","2","1","2","1","1,0.333,0.333,0.333,1,0.333,0.333,0.333,1","1,0.333,0.333,0.333,1,0.333,0.333,0.333,1","1",""
"","html-keyboard-response","63","30715","0.0-63.0","3RWE2M8QWIWEZN9IZL6G04LOBKV0NF","ANOPPPGFNTUPN","3TKXBROM5TWR181JXBYSOI8FGFVJIU","","null","<img src=""img/flower5.png"" style=""width:200px; border:14px solid green;"">","null","","","","","","","","",""
"","image-keyboard-response","64","31105","0.0-64.0","3RWE2M8QWIWEZN9IZL6G04LOBKV0NF","ANOPPPGFNTUPN","3TKXBROM5TWR181JXBYSOI8FGFVJIU","","387","img/flower4.png","75","389","2","1","3","1","1,0.333,0.333,0.333,1,0.333,0.333,0.333,1","1,0.333,0.333,0.333,1,0.333,0.333,0.333,1","1",""
"","html-keyboard-response","65","31407","0.0-65.0","3RWE2M8QWIWEZN9IZL6G04LOBKV0NF","ANOPPPGFNTUPN","3TKXBROM5TWR181JXBYSOI8FGFVJIU","","null","<img src=""img/flower4.png"" style=""width:200px; border:14px solid green;"">","null","","","","","","","","",""
"","image-keyboard-response","66","31665","0.0-66.0","3RWE2M8QWIWEZN9IZL6G04LOBKV0NF","ANOPPPGFNTUPN","3TKXBROM5TWR181JXBYSOI8FGFVJIU","","255","img/flower5.png","75","257","2","1","2","1","1,0.333,0.333,0.333,1,0.333,0.333,0.333,1","1,0.333,0.333,0.333,1,0.333,0.333,0.333,1","1",""
"","html-keyboard-response","67","31967","0.0-67.0","3RWE2M8QWIWEZN9IZL6G04LOBKV0NF","ANOPPPGFNTUPN","3TKXBROM5TWR181JXBYSOI8FGFVJIU","","null","<img src=""img/flower5.png"" style=""width:200px; border:14px solid green;"">","null","","","","","","","","",""
"","image-keyboard-response","68","32389","0.0-68.0","3RWE2M8QWIWEZN9IZL6G04LOBKV0NF","ANOPPPGFNTUPN","3TKXBROM5TWR181JXBYSOI8FGFVJIU","","421","img/flower1.png","75","422","2","1","1","1","1,0.333,0.333,0.333,1,0.333,0.333,0.333,1","1,0.333,0.333,0.333,1,0.333,0.333,0.333,1","1",""
"","html-keyboard-response","69","32690","0.0-69.0","3RWE2M8QWIWEZN9IZL6G04LOBKV0NF","ANOPPPGFNTUPN","3TKXBROM5TWR181JXBYSOI8FGFVJIU","","null","<img src=""img/flower1.png"" style=""width:200px; border:14px solid green;"">","null","","","","","","","","",""
"","image-keyboard-response","70","32863","0.0-70.0","3RWE2M8QWIWEZN9IZL6G04LOBKV0NF","ANOPPPGFNTUPN","3TKXBROM5TWR181JXBYSOI8FGFVJIU","","171","img/flower1.png","75","172","2","0","1","1","1,0.333,0.333,0.333,1,0.333,0.333,0.333,1","1,0.333,0.333,0.333,1,0.333,0.333,0.333,1","1",""
"","html-keyboard-response","71","33163","0.0-71.0","3RWE2M8QWIWEZN9IZL6G04LOBKV0NF","ANOPPPGFNTUPN","3TKXBROM5TWR181JXBYSOI8FGFVJIU","","null","<img src=""img/flower1.png"" style=""width:200px;border:14px solid red;"">","null","","","","","","","","",""
"","image-keyboard-response","72","33326","0.0-72.0","3RWE2M8QWIWEZN9IZL6G04LOBKV0NF","ANOPPPGFNTUPN","3TKXBROM5TWR181JXBYSOI8FGFVJIU","","161","img/flower5.png","75","163","2","1","2","1","1,0.333,0.333,0.333,1,0.333,0.333,0.333,1","1,0.333,0.333,0.333,1,0.333,0.333,0.333,1","1",""
"","html-keyboard-response","73","33629","0.0-73.0","3RWE2M8QWIWEZN9IZL6G04LOBKV0NF","ANOPPPGFNTUPN","3TKXBROM5TWR181JXBYSOI8FGFVJIU","","null","<img src=""img/flower5.png"" style=""width:200px; border:14px solid green;"">","null","","","","","","","","",""
"","image-keyboard-response","74","33860","0.0-74.0","3RWE2M8QWIWEZN9IZL6G04LOBKV0NF","ANOPPPGFNTUPN","3TKXBROM5TWR181JXBYSOI8FGFVJIU","","230","img/flower4.png","76","231","3","1","3","1","1,0.333,0.333,0.333,1,0.333,0.333,0.333,1","1,0.333,0.333,0.333,1,0.333,0.333,0.333,1","1",""
"","html-keyboard-response","75","34161","0.0-75.0","3RWE2M8QWIWEZN9IZL6G04LOBKV0NF","ANOPPPGFNTUPN","3TKXBROM5TWR181JXBYSOI8FGFVJIU","","null","<img src=""img/flower4.png"" style=""width:200px; border:14px solid green;"">","null","","","","","","","","",""
"","image-keyboard-response","76","34407","0.0-76.0","3RWE2M8QWIWEZN9IZL6G04LOBKV0NF","ANOPPPGFNTUPN","3TKXBROM5TWR181JXBYSOI8FGFVJIU","","244","img/flower4.png","76","245","3","1","3","1","1,0.333,0.333,0.333,1,0.333,0.333,0.333,1","1,0.333,0.333,0.333,1,0.333,0.333,0.333,1","1",""
"","html-keyboard-response","77","34708","0.0-77.0","3RWE2M8QWIWEZN9IZL6G04LOBKV0NF","ANOPPPGFNTUPN","3TKXBROM5TWR181JXBYSOI8FGFVJIU","","null","<img src=""img/flower4.png"" style=""width:200px; border:14px solid green;"">","null","","","","","","","","",""
"","image-keyboard-response","78","34774","0.0-78.0","3RWE2M8QWIWEZN9IZL6G04LOBKV0NF","ANOPPPGFNTUPN","3TKXBROM5TWR181JXBYSOI8FGFVJIU","","64","img/flower5.png","76","65","3","0","2","1","1,0.333,0.333,0.333,1,0.333,0.333,0.333,1","1,0.333,0.333,0.333,1,0.333,0.333,0.333,1","1",""
"","html-keyboard-response","79","35082","0.0-79.0","3RWE2M8QWIWEZN9IZL6G04LOBKV0NF","ANOPPPGFNTUPN","3TKXBROM5TWR181JXBYSOI8FGFVJIU","","null","<img src=""img/flower5.png"" style=""width:200px;border:14px solid red;"">","null","","","","","","","","",""
"","image-keyboard-response","80","35182","0.0-80.0","3RWE2M8QWIWEZN9IZL6G04LOBKV0NF","ANOPPPGFNTUPN","3TKXBROM5TWR181JXBYSOI8FGFVJIU","","98","img/flower1.png","76","100","3","0","1","1","1,0.333,0.333,0.333,1,0.333,0.333,0.333,1","1,0.333,0.333,0.333,1,0.333,0.333,0.333,1","1",""
"","html-keyboard-response","81","35483","0.0-81.0","3RWE2M8QWIWEZN9IZL6G04LOBKV0NF","ANOPPPGFNTUPN","3TKXBROM5TWR181JXBYSOI8FGFVJIU","","null","<img src=""img/flower1.png"" style=""width:200px;border:14px solid red;"">","null","","","","","","","","",""
"","image-keyboard-response","82","35767","0.0-82.0","3RWE2M8QWIWEZN9IZL6G04LOBKV0NF","ANOPPPGFNTUPN","3TKXBROM5TWR181JXBYSOI8FGFVJIU","","281","img/flower1.png","75","283","2","0","1","1","1,0.333,0.333,0.333,1,0.333,0.333,0.333,1","1,0.333,0.333,0.333,1,0.333,0.333,0.333,1","1",""
"","html-keyboard-response","83","36072","0.0-83.0","3RWE2M8QWIWEZN9IZL6G04LOBKV0NF","ANOPPPGFNTUPN","3TKXBROM5TWR181JXBYSOI8FGFVJIU","","null","<img src=""img/flower1.png"" style=""width:200px;border:14px solid red;"">","null","","","","","","","","",""
"","image-keyboard-response","84","36148","0.0-84.0","3RWE2M8QWIWEZN9IZL6G04LOBKV0NF","ANOPPPGFNTUPN","3TKXBROM5TWR181JXBYSOI8FGFVJIU","","73","img/flower4.png","74","75","1","0","3","1","1,0.333,0.333,0.333,1,0.333,0.333,0.333,1","1,0.333,0.333,0.333,1,0.333,0.333,0.333,1","1",""
"","html-keyboard-response","85","36450","0.0-85.0","3RWE2M8QWIWEZN9IZL6G04LOBKV0NF","ANOPPPGFNTUPN","3TKXBROM5TWR181JXBYSOI8FGFVJIU","","null","<img src=""img/flower4.png"" style=""width:200px;border:14px solid red;"">","null","","","","","","","","",""
"","image-keyboard-response","86","36559","0.0-86.0","3RWE2M8QWIWEZN9IZL6G04LOBKV0NF","ANOPPPGFNTUPN","3TKXBROM5TWR181JXBYSOI8FGFVJIU","","106","img/flower5.png","74","108","1","0","2","1","1,0.333,0.333,0.333,1,0.333,0.333,0.333,1","1,0.333,0.333,0.333,1,0.333,0.333,0.333,1","1",""
"","html-keyboard-response","87","36861","0.0-87.0","3RWE2M8QWIWEZN9IZL6G04LOBKV0NF","ANOPPPGFNTUPN","3TKXBROM5TWR181JXBYSOI8FGFVJIU","","null","<img src=""img/flower5.png"" style=""width:200px;border:14px solid red;"">","null","","","","","","","","",""
"","image-keyboard-response","88","36935","0.0-88.0","3RWE2M8QWIWEZN9IZL6G04LOBKV0NF","ANOPPPGFNTUPN","3TKXBROM5TWR181JXBYSOI8FGFVJIU","","68","img/flower4.png","75","70","2","0","3","1","1,0.333,0.333,0.333,1,0.333,0.333,0.333,1","1,0.333,0.333,0.333,1,0.333,0.333,0.333,1","1",""
"","html-keyboard-response","89","37237","0.0-89.0","3RWE2M8QWIWEZN9IZL6G04LOBKV0NF","ANOPPPGFNTUPN","3TKXBROM5TWR181JXBYSOI8FGFVJIU","","null","<img src=""img/flower4.png"" style=""width:200px;border:14px solid red;"">","null","","","","","","","","",""
"","image-keyboard-response","90","37365","0.0-90.0","3RWE2M8QWIWEZN9IZL6G04LOBKV0NF","ANOPPPGFNTUPN","3TKXBROM5TWR181JXBYSOI8FGFVJIU","","126","img/flower4.png","75","128","2","0","3","1","1,0.333,0.333,0.333,1,0.333,0.333,0.333,1","1,0.333,0.333,0.333,1,0.333,0.333,0.333,1","1",""
"","html-keyboard-response","91","37666","0.0-91.0","3RWE2M8QWIWEZN9IZL6G04LOBKV0NF","ANOPPPGFNTUPN","3TKXBROM5TWR181JXBYSOI8FGFVJIU","","null","<img src=""img/flower4.png"" style=""width:200px;border:14px solid red;"">","null","","","","","","","","",""
"","image-keyboard-response","92","38040","0.0-92.0","3RWE2M8QWIWEZN9IZL6G04LOBKV0NF","ANOPPPGFNTUPN","3TKXBROM5TWR181JXBYSOI8FGFVJIU","","371","img/flower5.png","76","373","3","1","2","1","1,0.333,0.333,0.333,1,0.333,0.333,0.333,1","1,0.333,0.333,0.333,1,0.333,0.333,0.333,1","1",""
"","html-keyboard-response","93","38344","0.0-93.0","3RWE2M8QWIWEZN9IZL6G04LOBKV0NF","ANOPPPGFNTUPN","3TKXBROM5TWR181JXBYSOI8FGFVJIU","","null","<img src=""img/flower5.png"" style=""width:200px; border:14px solid green;"">","null","","","","","","","","",""
"","image-keyboard-response","94","38503","0.0-94.0","3RWE2M8QWIWEZN9IZL6G04LOBKV0NF","ANOPPPGFNTUPN","3TKXBROM5TWR181JXBYSOI8FGFVJIU","","156","img/flower1.png","76","157","3","0","1","1","1,0.333,0.333,0.333,1,0.333,0.333,0.333,1","1,0.333,0.333,0.333,1,0.333,0.333,0.333,1","1",""
"","html-keyboard-response","95","38806","0.0-95.0","3RWE2M8QWIWEZN9IZL6G04LOBKV0NF","ANOPPPGFNTUPN","3TKXBROM5TWR181JXBYSOI8FGFVJIU","","null","<img src=""img/flower1.png"" style=""width:200px;border:14px solid red;"">","null","","","","","","","","",""
"","image-keyboard-response","96","38855","0.0-96.0","3RWE2M8QWIWEZN9IZL6G04LOBKV0NF","ANOPPPGFNTUPN","3TKXBROM5TWR181JXBYSOI8FGFVJIU","","46","img/flower4.png","76","47","3","1","3","1","1,0.333,0.333,0.333,1,0.333,0.333,0.333,1","1,0.333,0.333,0.333,1,0.333,0.333,0.333,1","1",""
"","html-keyboard-response","97","39157","0.0-97.0","3RWE2M8QWIWEZN9IZL6G04LOBKV0NF","ANOPPPGFNTUPN","3TKXBROM5TWR181JXBYSOI8FGFVJIU","","null","<img src=""img/flower4.png"" style=""width:200px; border:14px solid green;"">","null","","","","","","","","",""
"","image-keyboard-response","98","39295","0.0-98.0","3RWE2M8QWIWEZN9IZL6G04LOBKV0NF","ANOPPPGFNTUPN","3TKXBROM5TWR181JXBYSOI8FGFVJIU","","136","img/flower4.png","75","137","2","0","3","1","1,0.333,0.333,0.333,1,0.333,0.333,0.333,1","1,0.333,0.333,0.333,1,0.333,0.333,0.333,1","1",""
"","html-keyboard-response","99","39596","0.0-99.0","3RWE2M8QWIWEZN9IZL6G04LOBKV0NF","ANOPPPGFNTUPN","3TKXBROM5TWR181JXBYSOI8FGFVJIU","","null","<img src=""img/flower4.png"" style=""width:200px;border:14px solid red;"">","null","","","","","","","","",""
"","image-keyboard-response","100","39737","0.0-100.0","3RWE2M8QWIWEZN9IZL6G04LOBKV0NF","ANOPPPGFNTUPN","3TKXBROM5TWR181JXBYSOI8FGFVJIU","","138","img/flower4.png","76","140","3","1","3","1","1,0.333,0.333,0.333,1,0.333,0.333,0.333,1","1,0.333,0.333,0.333,1,0.333,0.333,0.333,1","1",""
"","html-keyboard-response","101","40040","0.0-101.0","3RWE2M8QWIWEZN9IZL6G04LOBKV0NF","ANOPPPGFNTUPN","3TKXBROM5TWR181JXBYSOI8FGFVJIU","","null","<img src=""img/flower4.png"" style=""width:200px; border:14px solid green;"">","null","","","","","","","","",""
"","image-keyboard-response","102","40242","0.0-102.0","3RWE2M8QWIWEZN9IZL6G04LOBKV0NF","ANOPPPGFNTUPN","3TKXBROM5TWR181JXBYSOI8FGFVJIU","","200","img/flower1.png","76","202","3","1","1","1","1,0.333,0.333,0.333,1,0.333,0.333,0.333,1","1,0.333,0.333,0.333,1,0.333,0.333,0.333,1","1",""
"","html-keyboard-response","103","40542","0.0-103.0","3RWE2M8QWIWEZN9IZL6G04LOBKV0NF","ANOPPPGFNTUPN","3TKXBROM5TWR181JXBYSOI8FGFVJIU","","null","<img src=""img/flower1.png"" style=""width:200px; border:14px solid green;"">","null","","","","","","","","",""
"","image-keyboard-response","104","40546","0.0-104.0","3RWE2M8QWIWEZN9IZL6G04LOBKV0NF","ANOPPPGFNTUPN","3TKXBROM5TWR181JXBYSOI8FGFVJIU","","1","img/flower1.png","76","3","3","0","1","1","1,0.333,0.333,0.333,1,0.333,0.333,0.333,1","1,0.333,0.333,0.333,1,0.333,0.333,0.333,1","1",""
"","html-keyboard-response","105","40849","0.0-105.0","3RWE2M8QWIWEZN9IZL6G04LOBKV0NF","ANOPPPGFNTUPN","3TKXBROM5TWR181JXBYSOI8FGFVJIU","","null","<img src=""img/flower1.png"" style=""width:200px;border:14px solid red;"">","null","","","","","","","","",""
"","image-keyboard-response","106","40913","0.0-106.0","3RWE2M8QWIWEZN9IZL6G04LOBKV0NF","ANOPPPGFNTUPN","3TKXBROM5TWR181JXBYSOI8FGFVJIU","","60","img/flower5.png","76","63","3","0","2","1","1,0.333,0.333,0.333,1,0.333,0.333,0.333,1","1,0.333,0.333,0.333,1,0.333,0.333,0.333,1","1",""
"","html-keyboard-response","107","41214","0.0-107.0","3RWE2M8QWIWEZN9IZL6G04LOBKV0NF","ANOPPPGFNTUPN","3TKXBROM5TWR181JXBYSOI8FGFVJIU","","null","<img src=""img/flower5.png"" style=""width:200px;border:14px solid red;"">","null","","","","","","","","",""
"","image-keyboard-response","108","41401","0.0-108.0","3RWE2M8QWIWEZN9IZL6G04LOBKV0NF","ANOPPPGFNTUPN","3TKXBROM5TWR181JXBYSOI8FGFVJIU","","184","img/flower4.png","76","186","3","1","3","1","1,0.333,0.333,0.333,1,0.333,0.333,0.333,1","1,0.333,0.333,0.333,1,0.333,0.333,0.333,1","1",""
"","html-keyboard-response","109","41703","0.0-109.0","3RWE2M8QWIWEZN9IZL6G04LOBKV0NF","ANOPPPGFNTUPN","3TKXBROM5TWR181JXBYSOI8FGFVJIU","","null","<img src=""img/flower4.png"" style=""width:200px; border:14px solid green;"">","null","","","","","","","","",""
"","image-keyboard-response","110","42231","0.0-110.0","3RWE2M8QWIWEZN9IZL6G04LOBKV0NF","ANOPPPGFNTUPN","3TKXBROM5TWR181JXBYSOI8FGFVJIU","","526","img/flower4.png","75","528","2","0","3","1","1,0.333,0.333,0.333,1,0.333,0.333,0.333,1","1,0.333,0.333,0.333,1,0.333,0.333,0.333,1","1",""
"","html-keyboard-response","111","42533","0.0-111.0","3RWE2M8QWIWEZN9IZL6G04LOBKV0NF","ANOPPPGFNTUPN","3TKXBROM5TWR181JXBYSOI8FGFVJIU","","null","<img src=""img/flower4.png"" style=""width:200px;border:14px solid red;"">","null","","","","","","","","",""
"","image-keyboard-response","112","42631","0.0-112.0","3RWE2M8QWIWEZN9IZL6G04LOBKV0NF","ANOPPPGFNTUPN","3TKXBROM5TWR181JXBYSOI8FGFVJIU","","95","img/flower4.png","74","97","1","0","3","1","1,0.333,0.333,0.333,1,0.333,0.333,0.333,1","1,0.333,0.333,0.333,1,0.333,0.333,0.333,1","1",""
"","html-keyboard-response","113","42933","0.0-113.0","3RWE2M8QWIWEZN9IZL6G04LOBKV0NF","ANOPPPGFNTUPN","3TKXBROM5TWR181JXBYSOI8FGFVJIU","","null","<img src=""img/flower4.png"" style=""width:200px;border:14px solid red;"">","null","","","","","","","","",""
"","image-keyboard-response","114","42975","0.0-114.0","3RWE2M8QWIWEZN9IZL6G04LOBKV0NF","ANOPPPGFNTUPN","3TKXBROM5TWR181JXBYSOI8FGFVJIU","","41","img/flower1.png","76","42","3","0","1","1","1,0.333,0.333,0.333,1,0.333,0.333,0.333,1","1,0.333,0.333,0.333,1,0.333,0.333,0.333,1","1",""
"","html-keyboard-response","115","43304","0.0-115.0","3RWE2M8QWIWEZN9IZL6G04LOBKV0NF","ANOPPPGFNTUPN","3TKXBROM5TWR181JXBYSOI8FGFVJIU","","null","<img src=""img/flower1.png"" style=""width:200px;border:14px solid red;"">","null","","","","","","","","",""
"","image-keyboard-response","116","43439","0.0-116.0","3RWE2M8QWIWEZN9IZL6G04LOBKV0NF","ANOPPPGFNTUPN","3TKXBROM5TWR181JXBYSOI8FGFVJIU","","134","img/flower4.png","76","135","3","1","3","1","1,0.333,0.333,0.333,1,0.333,0.333,0.333,1","1,0.333,0.333,0.333,1,0.333,0.333,0.333,1","1",""
"","html-keyboard-response","117","43741","0.0-117.0","3RWE2M8QWIWEZN9IZL6G04LOBKV0NF","ANOPPPGFNTUPN","3TKXBROM5TWR181JXBYSOI8FGFVJIU","","null","<img src=""img/flower4.png"" style=""width:200px; border:14px solid green;"">","null","","","","","","","","",""
"","image-keyboard-response","118","43822","0.0-118.0","3RWE2M8QWIWEZN9IZL6G04LOBKV0NF","ANOPPPGFNTUPN","3TKXBROM5TWR181JXBYSOI8FGFVJIU","","79","img/flower4.png","75","80","2","1","3","1","1,0.333,0.333,0.333,1,0.333,0.333,0.333,1","1,0.333,0.333,0.333,1,0.333,0.333,0.333,1","1",""
"","html-keyboard-response","119","44124","0.0-119.0","3RWE2M8QWIWEZN9IZL6G04LOBKV0NF","ANOPPPGFNTUPN","3TKXBROM5TWR181JXBYSOI8FGFVJIU","","null","<img src=""img/flower4.png"" style=""width:200px; border:14px solid green;"">","null","","","","","","","","",""
"","image-keyboard-response","120","44338","0.0-120.0","3RWE2M8QWIWEZN9IZL6G04LOBKV0NF","ANOPPPGFNTUPN","3TKXBROM5TWR181JXBYSOI8FGFVJIU","","212","img/flower5.png","76","213","3","1","2","1","1,0.333,0.333,0.333,1,0.333,0.333,0.333,1","1,0.333,0.333,0.333,1,0.333,0.333,0.333,1","1",""
"","html-keyboard-response","121","44642","0.0-121.0","3RWE2M8QWIWEZN9IZL6G04LOBKV0NF","ANOPPPGFNTUPN","3TKXBROM5TWR181JXBYSOI8FGFVJIU","","null","<img src=""img/flower5.png"" style=""width:200px; border:14px solid green;"">","null","","","","","","","","",""
"","image-keyboard-response","122","44785","0.0-122.0","3RWE2M8QWIWEZN9IZL6G04LOBKV0NF","ANOPPPGFNTUPN","3TKXBROM5TWR181JXBYSOI8FGFVJIU","","141","img/flower1.png","75","142","2","0","1","1","1,0.333,0.333,0.333,1,0.333,0.333,0.333,1","1,0.333,0.333,0.333,1,0.333,0.333,0.333,1","1",""
"","html-keyboard-response","123","45089","0.0-123.0","3RWE2M8QWIWEZN9IZL6G04LOBKV0NF","ANOPPPGFNTUPN","3TKXBROM5TWR181JXBYSOI8FGFVJIU","","null","<img src=""img/flower1.png"" style=""width:200px;border:14px solid red;"">","null","","","","","","","","",""
"","image-keyboard-response","124","45345","0.0-124.0","3RWE2M8QWIWEZN9IZL6G04LOBKV0NF","ANOPPPGFNTUPN","3TKXBROM5TWR181JXBYSOI8FGFVJIU","","254","img/flower4.png","75","256","2","0","3","1","1,0.333,0.333,0.333,1,0.333,0.333,0.333,1","1,0.333,0.333,0.333,1,0.333,0.333,0.333,1","1",""
"","html-keyboard-response","125","45648","0.0-125.0","3RWE2M8QWIWEZN9IZL6G04LOBKV0NF","ANOPPPGFNTUPN","3TKXBROM5TWR181JXBYSOI8FGFVJIU","","null","<img src=""img/flower4.png"" style=""width:200px;border:14px solid red;"">","null","","","","","","","","",""
"","image-keyboard-response","126","45670","0.0-126.0","3RWE2M8QWIWEZN9IZL6G04LOBKV0NF","ANOPPPGFNTUPN","3TKXBROM5TWR181JXBYSOI8FGFVJIU","","21","img/flower5.png","76","21","3","1","2","1","1,0.333,0.333,0.333,1,0.333,0.333,0.333,1","1,0.333,0.333,0.333,1,0.333,0.333,0.333,1","1",""
"","html-keyboard-response","127","45973","0.0-127.0","3RWE2M8QWIWEZN9IZL6G04LOBKV0NF","ANOPPPGFNTUPN","3TKXBROM5TWR181JXBYSOI8FGFVJIU","","null","<img src=""img/flower5.png"" style=""width:200px; border:14px solid green;"">","null","","","","","","","","",""
"","image-keyboard-response","128","46135","0.0-128.0","3RWE2M8QWIWEZN9IZL6G04LOBKV0NF","ANOPPPGFNTUPN","3TKXBROM5TWR181JXBYSOI8FGFVJIU","","159","img/flower4.png","76","161","3","1","3","1","1,0.333,0.333,0.333,1,0.333,0.333,0.333,1","1,0.333,0.333,0.333,1,0.333,0.333,0.333,1","1",""
"","html-keyboard-response","129","46437","0.0-129.0","3RWE2M8QWIWEZN9IZL6G04LOBKV0NF","ANOPPPGFNTUPN","3TKXBROM5TWR181JXBYSOI8FGFVJIU","","null","<img src=""img/flower4.png"" style=""width:200px; border:14px solid green;"">","null","","","","","","","","",""
"","image-keyboard-response","130","46551","0.0-130.0","3RWE2M8QWIWEZN9IZL6G04LOBKV0NF","ANOPPPGFNTUPN","3TKXBROM5TWR181JXBYSOI8FGFVJIU","","112","img/flower5.png","76","114","3","1","2","1","1,0.333,0.333,0.333,1,0.333,0.333,0.333,1","1,0.333,0.333,0.333,1,0.333,0.333,0.333,1","1",""
"","html-keyboard-response","131","46851","0.0-131.0","3RWE2M8QWIWEZN9IZL6G04LOBKV0NF","ANOPPPGFNTUPN","3TKXBROM5TWR181JXBYSOI8FGFVJIU","","null","<img src=""img/flower5.png"" style=""width:200px; border:14px solid green;"">","null","","","","","","","","",""
"","image-keyboard-response","132","46903","0.0-132.0","3RWE2M8QWIWEZN9IZL6G04LOBKV0NF","ANOPPPGFNTUPN","3TKXBROM5TWR181JXBYSOI8FGFVJIU","","51","img/flower5.png","76","51","3","0","2","1","1,0.333,0.333,0.333,1,0.333,0.333,0.333,1","1,0.333,0.333,0.333,1,0.333,0.333,0.333,1","1",""
"","html-keyboard-response","133","47205","0.0-133.0","3RWE2M8QWIWEZN9IZL6G04LOBKV0NF","ANOPPPGFNTUPN","3TKXBROM5TWR181JXBYSOI8FGFVJIU","","null","<img src=""img/flower5.png"" style=""width:200px;border:14px solid red;"">","null","","","","","","","","",""
"","image-keyboard-response","134","47583","0.0-134.0","3RWE2M8QWIWEZN9IZL6G04LOBKV0NF","ANOPPPGFNTUPN","3TKXBROM5TWR181JXBYSOI8FGFVJIU","","378","img/flower5.png","75","379","2","1","2","1","1,0.333,0.333,0.333,1,0.333,0.333,0.333,1","1,0.333,0.333,0.333,1,0.333,0.333,0.333,1","1",""
"","html-keyboard-response","135","47886","0.0-135.0","3RWE2M8QWIWEZN9IZL6G04LOBKV0NF","ANOPPPGFNTUPN","3TKXBROM5TWR181JXBYSOI8FGFVJIU","","null","<img src=""img/flower5.png"" style=""width:200px; border:14px solid green;"">","null","","","","","","","","",""
"","image-keyboard-response","136","47919","0.0-136.0","3RWE2M8QWIWEZN9IZL6G04LOBKV0NF","ANOPPPGFNTUPN","3TKXBROM5TWR181JXBYSOI8FGFVJIU","","31","img/flower5.png","74","32","1","0","2","1","1,0.333,0.333,0.333,1,0.333,0.333,0.333,1","1,0.333,0.333,0.333,1,0.333,0.333,0.333,1","1",""
"","html-keyboard-response","137","48221","0.0-137.0","3RWE2M8QWIWEZN9IZL6G04LOBKV0NF","ANOPPPGFNTUPN","3TKXBROM5TWR181JXBYSOI8FGFVJIU","","null","<img src=""img/flower5.png"" style=""width:200px;border:14px solid red;"">","null","","","","","","","","",""
"","image-keyboard-response","138","48400","0.0-138.0","3RWE2M8QWIWEZN9IZL6G04LOBKV0NF","ANOPPPGFNTUPN","3TKXBROM5TWR181JXBYSOI8FGFVJIU","","176","img/flower5.png","74","178","1","0","2","1","1,0.333,0.333,0.333,1,0.333,0.333,0.333,1","1,0.333,0.333,0.333,1,0.333,0.333,0.333,1","1",""
"","html-keyboard-response","139","48702","0.0-139.0","3RWE2M8QWIWEZN9IZL6G04LOBKV0NF","ANOPPPGFNTUPN","3TKXBROM5TWR181JXBYSOI8FGFVJIU","","null","<img src=""img/flower5.png"" style=""width:200px;border:14px solid red;"">","null","","","","","","","","",""
"","image-keyboard-response","140","48798","0.0-140.0","3RWE2M8QWIWEZN9IZL6G04LOBKV0NF","ANOPPPGFNTUPN","3TKXBROM5TWR181JXBYSOI8FGFVJIU","","94","img/flower1.png","76","95","3","0","1","1","1,0.333,0.333,0.333,1,0.333,0.333,0.333,1","1,0.333,0.333,0.333,1,0.333,0.333,0.333,1","1",""
"","html-keyboard-response","141","49101","0.0-141.0","3RWE2M8QWIWEZN9IZL6G04LOBKV0NF","ANOPPPGFNTUPN","3TKXBROM5TWR181JXBYSOI8FGFVJIU","","null","<img src=""img/flower1.png"" style=""width:200px;border:14px solid red;"">","null","","","","","","","","",""
"","image-keyboard-response","142","49335","0.0-142.0","3RWE2M8QWIWEZN9IZL6G04LOBKV0NF","ANOPPPGFNTUPN","3TKXBROM5TWR181JXBYSOI8FGFVJIU","","232","img/flower5.png","74","234","1","1","2","1","1,0.333,0.333,0.333,1,0.333,0.333,0.333,1","1,0.333,0.333,0.333,1,0.333,0.333,0.333,1","1",""
"","html-keyboard-response","143","49639","0.0-143.0","3RWE2M8QWIWEZN9IZL6G04LOBKV0NF","ANOPPPGFNTUPN","3TKXBROM5TWR181JXBYSOI8FGFVJIU","","null","<img src=""img/flower5.png"" style=""width:200px; border:14px solid green;"">","null","","","","","","","","",""
"","image-keyboard-response","144","49753","0.0-144.0","3RWE2M8QWIWEZN9IZL6G04LOBKV0NF","ANOPPPGFNTUPN","3TKXBROM5TWR181JXBYSOI8FGFVJIU","","111","img/flower5.png","74","112","1","1","2","1","1,0.333,0.333,0.333,1,0.333,0.333,0.333,1","1,0.333,0.333,0.333,1,0.333,0.333,0.333,1","1",""
"","html-keyboard-response","145","50062","0.0-145.0","3RWE2M8QWIWEZN9IZL6G04LOBKV0NF","ANOPPPGFNTUPN","3TKXBROM5TWR181JXBYSOI8FGFVJIU","","null","<img src=""img/flower5.png"" style=""width:200px; border:14px solid green;"">","null","","","","","","","","",""
"","image-keyboard-response","146","50157","0.0-146.0","3RWE2M8QWIWEZN9IZL6G04LOBKV0NF","ANOPPPGFNTUPN","3TKXBROM5TWR181JXBYSOI8FGFVJIU","","94","img/flower4.png","74","94","1","0","3","1","1,0.333,0.333,0.333,1,0.333,0.333,0.333,1","1,0.333,0.333,0.333,1,0.333,0.333,0.333,1","1",""
"","html-keyboard-response","147","50458","0.0-147.0","3RWE2M8QWIWEZN9IZL6G04LOBKV0NF","ANOPPPGFNTUPN","3TKXBROM5TWR181JXBYSOI8FGFVJIU","","null","<img src=""img/flower4.png"" style=""width:200px;border:14px solid red;"">","null","","","","","","","","",""
"","image-keyboard-response","148","50559","0.0-148.0","3RWE2M8QWIWEZN9IZL6G04LOBKV0NF","ANOPPPGFNTUPN","3TKXBROM5TWR181JXBYSOI8FGFVJIU","","98","img/flower5.png","74","101","1","1","2","1","1,0.333,0.333,0.333,1,0.333,0.333,0.333,1","1,0.333,0.333,0.333,1,0.333,0.333,0.333,1","1",""
"","html-keyboard-response","149","50862","0.0-149.0","3RWE2M8QWIWEZN9IZL6G04LOBKV0NF","ANOPPPGFNTUPN","3TKXBROM5TWR181JXBYSOI8FGFVJIU","","null","<img src=""img/flower5.png"" style=""width:200px; border:14px solid green;"">","null","","","","","","","","",""
"","image-keyboard-response","150","50967","0.0-150.0","3RWE2M8QWIWEZN9IZL6G04LOBKV0NF","ANOPPPGFNTUPN","3TKXBROM5TWR181JXBYSOI8FGFVJIU","","103","img/flower1.png","74","105","1","1","1","1","1,0.333,0.333,0.333,1,0.333,0.333,0.333,1","1,0.333,0.333,0.333,1,0.333,0.333,0.333,1","1",""
"","html-keyboard-response","151","51268","0.0-151.0","3RWE2M8QWIWEZN9IZL6G04LOBKV0NF","ANOPPPGFNTUPN","3TKXBROM5TWR181JXBYSOI8FGFVJIU","","null","<img src=""img/flower1.png"" style=""width:200px; border:14px solid green;"">","null","","","","","","","","",""
"","image-keyboard-response","152","51441","0.0-152.0","3RWE2M8QWIWEZN9IZL6G04LOBKV0NF","ANOPPPGFNTUPN","3TKXBROM5TWR181JXBYSOI8FGFVJIU","","170","img/flower4.png","74","172","1","0","3","1","1,0.333,0.333,0.333,1,0.333,0.333,0.333,1","1,0.333,0.333,0.333,1,0.333,0.333,0.333,1","1",""
"","html-keyboard-response","153","51744","0.0-153.0","3RWE2M8QWIWEZN9IZL6G04LOBKV0NF","ANOPPPGFNTUPN","3TKXBROM5TWR181JXBYSOI8FGFVJIU","","null","<img src=""img/flower4.png"" style=""width:200px;border:14px solid red;"">","null","","","","","","","","",""
"","image-keyboard-response","154","51855","0.0-154.0","3RWE2M8QWIWEZN9IZL6G04LOBKV0NF","ANOPPPGFNTUPN","3TKXBROM5TWR181JXBYSOI8FGFVJIU","","108","img/flower1.png","74","110","1","1","1","1","1,0.333,0.333,0.333,1,0.333,0.333,0.333,1","1,0.333,0.333,0.333,1,0.333,0.333,0.333,1","1",""
"","html-keyboard-response","155","52225","0.0-155.0","3RWE2M8QWIWEZN9IZL6G04LOBKV0NF","ANOPPPGFNTUPN","3TKXBROM5TWR181JXBYSOI8FGFVJIU","","null","<img src=""img/flower1.png"" style=""width:200px; border:14px solid green;"">","null","","","","","","","","",""
"","image-keyboard-response","156","52333","0.0-156.0","3RWE2M8QWIWEZN9IZL6G04LOBKV0NF","ANOPPPGFNTUPN","3TKXBROM5TWR181JXBYSOI8FGFVJIU","","107","img/flower5.png","74","108","1","0","2","1","1,0.333,0.333,0.333,1,0.333,0.333,0.333,1","1,0.333,0.333,0.333,1,0.333,0.333,0.333,1","1",""
"","html-keyboard-response","157","52639","0.0-157.0","3RWE2M8QWIWEZN9IZL6G04LOBKV0NF","ANOPPPGFNTUPN","3TKXBROM5TWR181JXBYSOI8FGFVJIU","","null","<img src=""img/flower5.png"" style=""width:200px;border:14px solid red;"">","null","","","","","","","","",""
"","image-keyboard-response","158","52732","0.0-158.0","3RWE2M8QWIWEZN9IZL6G04LOBKV0NF","ANOPPPGFNTUPN","3TKXBROM5TWR181JXBYSOI8FGFVJIU","","90","img/flower1.png","74","92","1","1","1","1","1,0.333,0.333,0.333,1,0.333,0.333,0.333,1","1,0.333,0.333,0.333,1,0.333,0.333,0.333,1","1",""
"","html-keyboard-response","159","53035","0.0-159.0","3RWE2M8QWIWEZN9IZL6G04LOBKV0NF","ANOPPPGFNTUPN","3TKXBROM5TWR181JXBYSOI8FGFVJIU","","null","<img src=""img/flower1.png"" style=""width:200px; border:14px solid green;"">","null","","","","","","","","",""
"","image-keyboard-response","160","53170","0.0-160.0","3RWE2M8QWIWEZN9IZL6G04LOBKV0NF","ANOPPPGFNTUPN","3TKXBROM5TWR181JXBYSOI8FGFVJIU","","132","img/flower5.png","74","134","1","1","2","1","1,0.333,0.333,0.333,1,0.333,0.333,0.333,1","1,0.333,0.333,0.333,1,0.333,0.333,0.333,1","1",""
"","html-keyboard-response","161","53472","0.0-161.0","3RWE2M8QWIWEZN9IZL6G04LOBKV0NF","ANOPPPGFNTUPN","3TKXBROM5TWR181JXBYSOI8FGFVJIU","","null","<img src=""img/flower5.png"" style=""width:200px; border:14px solid green;"">","null","","","","","","","","",""
"","image-keyboard-response","162","53590","0.0-162.0","3RWE2M8QWIWEZN9IZL6G04LOBKV0NF","ANOPPPGFNTUPN","3TKXBROM5TWR181JXBYSOI8FGFVJIU","","117","img/flower1.png","74","117","1","1","1","1","1,0.333,0.333,0.333,1,0.333,0.333,0.333,1","1,0.333,0.333,0.333,1,0.333,0.333,0.333,1","1",""
"","html-keyboard-response","163","53893","0.0-163.0","3RWE2M8QWIWEZN9IZL6G04LOBKV0NF","ANOPPPGFNTUPN","3TKXBROM5TWR181JXBYSOI8FGFVJIU","","null","<img src=""img/flower1.png"" style=""width:200px; border:14px solid green;"">","null","","","","","","","","",""
"","image-keyboard-response","164","54089","0.0-164.0","3RWE2M8QWIWEZN9IZL6G04LOBKV0NF","ANOPPPGFNTUPN","3TKXBROM5TWR181JXBYSOI8FGFVJIU","","194","img/flower5.png","74","195","1","0","2","1","1,0.333,0.333,0.333,1,0.333,0.333,0.333,1","1,0.333,0.333,0.333,1,0.333,0.333,0.333,1","1",""
"","html-keyboard-response","165","54418","0.0-165.0","3RWE2M8QWIWEZN9IZL6G04LOBKV0NF","ANOPPPGFNTUPN","3TKXBROM5TWR181JXBYSOI8FGFVJIU","","null","<img src=""img/flower5.png"" style=""width:200px;border:14px solid red;"">","null","","","","","","","","",""
"","image-keyboard-response","166","54510","0.0-166.0","3RWE2M8QWIWEZN9IZL6G04LOBKV0NF","ANOPPPGFNTUPN","3TKXBROM5TWR181JXBYSOI8FGFVJIU","","91","img/flower4.png","74","93","1","0","3","1","1,0.333,0.333,0.333,1,0.333,0.333,0.333,1","1,0.333,0.333,0.333,1,0.333,0.333,0.333,1","1",""
"","html-keyboard-response","167","54813","0.0-167.0","3RWE2M8QWIWEZN9IZL6G04LOBKV0NF","ANOPPPGFNTUPN","3TKXBROM5TWR181JXBYSOI8FGFVJIU","","null","<img src=""img/flower4.png"" style=""width:200px;border:14px solid red;"">","null","","","","","","","","",""
"","image-keyboard-response","168","54888","0.0-168.0","3RWE2M8QWIWEZN9IZL6G04LOBKV0NF","ANOPPPGFNTUPN","3TKXBROM5TWR181JXBYSOI8FGFVJIU","","73","img/flower4.png","76","75","3","1","3","1","1,0.333,0.333,0.333,1,0.333,0.333,0.333,1","1,0.333,0.333,0.333,1,0.333,0.333,0.333,1","1",""
"","html-keyboard-response","169","55189","0.0-169.0","3RWE2M8QWIWEZN9IZL6G04LOBKV0NF","ANOPPPGFNTUPN","3TKXBROM5TWR181JXBYSOI8FGFVJIU","","null","<img src=""img/flower4.png"" style=""width:200px; border:14px solid green;"">","null","","","","","","","","",""
"","image-keyboard-response","170","55337","0.0-170.0","3RWE2M8QWIWEZN9IZL6G04LOBKV0NF","ANOPPPGFNTUPN","3TKXBROM5TWR181JXBYSOI8FGFVJIU","","147","img/flower1.png","76","147","3","0","1","1","1,0.333,0.333,0.333,1,0.333,0.333,0.333,1","1,0.333,0.333,0.333,1,0.333,0.333,0.333,1","1",""
"","html-keyboard-response","171","55640","0.0-171.0","3RWE2M8QWIWEZN9IZL6G04LOBKV0NF","ANOPPPGFNTUPN","3TKXBROM5TWR181JXBYSOI8FGFVJIU","","null","<img src=""img/flower1.png"" style=""width:200px;border:14px solid red;"">","null","","","","","","","","",""
"","image-keyboard-response","172","55865","0.0-172.0","3RWE2M8QWIWEZN9IZL6G04LOBKV0NF","ANOPPPGFNTUPN","3TKXBROM5TWR181JXBYSOI8FGFVJIU","","222","img/flower5.png","76","224","3","0","2","1","1,0.333,0.333,0.333,1,0.333,0.333,0.333,1","1,0.333,0.333,0.333,1,0.333,0.333,0.333,1","1",""
"","html-keyboard-response","173","56167","0.0-173.0","3RWE2M8QWIWEZN9IZL6G04LOBKV0NF","ANOPPPGFNTUPN","3TKXBROM5TWR181JXBYSOI8FGFVJIU","","null","<img src=""img/flower5.png"" style=""width:200px;border:14px solid red;"">","null","","","","","","","","",""
"","image-keyboard-response","174","56613","0.0-174.0","3RWE2M8QWIWEZN9IZL6G04LOBKV0NF","ANOPPPGFNTUPN","3TKXBROM5TWR181JXBYSOI8FGFVJIU","","444","img/flower4.png","75","445","2","1","3","1","1,0.333,0.333,0.333,1,0.333,0.333,0.333,1","1,0.333,0.333,0.333,1,0.333,0.333,0.333,1","1",""
"","html-keyboard-response","175","56916","0.0-175.0","3RWE2M8QWIWEZN9IZL6G04LOBKV0NF","ANOPPPGFNTUPN","3TKXBROM5TWR181JXBYSOI8FGFVJIU","","null","<img src=""img/flower4.png"" style=""width:200px; border:14px solid green;"">","null","","","","","","","","",""
"","image-keyboard-response","176","56981","0.0-176.0","3RWE2M8QWIWEZN9IZL6G04LOBKV0NF","ANOPPPGFNTUPN","3TKXBROM5TWR181JXBYSOI8FGFVJIU","","63","img/flower1.png","74","64","1","1","1","1","1,0.333,0.333,0.333,1,0.333,0.333,0.333,1","1,0.333,0.333,0.333,1,0.333,0.333,0.333,1","1",""
"","html-keyboard-response","177","57284","0.0-177.0","3RWE2M8QWIWEZN9IZL6G04LOBKV0NF","ANOPPPGFNTUPN","3TKXBROM5TWR181JXBYSOI8FGFVJIU","","null","<img src=""img/flower1.png"" style=""width:200px; border:14px solid green;"">","null","","","","","","","","",""
"","image-keyboard-response","178","57751","0.0-178.0","3RWE2M8QWIWEZN9IZL6G04LOBKV0NF","ANOPPPGFNTUPN","3TKXBROM5TWR181JXBYSOI8FGFVJIU","","465","img/flower4.png","74","467","1","1","3","1","1,0.333,0.333,0.333,1,0.333,0.333,0.333,1","1,0.333,0.333,0.333,1,0.333,0.333,0.333,1","1",""
"","html-keyboard-response","179","58052","0.0-179.0","3RWE2M8QWIWEZN9IZL6G04LOBKV0NF","ANOPPPGFNTUPN","3TKXBROM5TWR181JXBYSOI8FGFVJIU","","null","<img src=""img/flower4.png"" style=""width:200px; border:14px solid green;"">","null","","","","","","","","",""
"","image-keyboard-response","180","58223","0.0-180.0","3RWE2M8QWIWEZN9IZL6G04LOBKV0NF","ANOPPPGFNTUPN","3TKXBROM5TWR181JXBYSOI8FGFVJIU","","169","img/flower4.png","74","171","1","0","3","1","1,0.333,0.333,0.333,1,0.333,0.333,0.333,1","1,0.333,0.333,0.333,1,0.333,0.333,0.333,1","1",""
"","html-keyboard-response","181","58525","0.0-181.0","3RWE2M8QWIWEZN9IZL6G04LOBKV0NF","ANOPPPGFNTUPN","3TKXBROM5TWR181JXBYSOI8FGFVJIU","","null","<img src=""img/flower4.png"" style=""width:200px;border:14px solid red;"">","null","","","","","","","","",""
"","html-keyboard-response","182","62024","0.0-182.0","3RWE2M8QWIWEZN9IZL6G04LOBKV0NF","ANOPPPGFNTUPN","3TKXBROM5TWR181JXBYSOI8FGFVJIU","","","","","","","","","","","","",""
"","image-keyboard-response","183","64032","0.0-183.0","3RWE2M8QWIWEZN9IZL6G04LOBKV0NF","ANOPPPGFNTUPN","3TKXBROM5TWR181JXBYSOI8FGFVJIU","","","img/flower3.png","","2008","-1","0","1","2","1,0,0,1,1,0,1,0,1","0,0,1,1,0,1,0,1,1","2",""
"","html-keyboard-response","184","64341","0.0-184.0","3RWE2M8QWIWEZN9IZL6G04LOBKV0NF","ANOPPPGFNTUPN","3TKXBROM5TWR181JXBYSOI8FGFVJIU","","null","<img src=""img/flower3.png"" style=""width:200px;border:14px solid red;"">","null","","","","","","","","",""
"","image-keyboard-response","185","64410","0.0-185.0","3RWE2M8QWIWEZN9IZL6G04LOBKV0NF","ANOPPPGFNTUPN","3TKXBROM5TWR181JXBYSOI8FGFVJIU","","67","img/flower2.png","75","69","2","0","2","2","1,0,0,1,1,0,1,0,1","0,0,1,1,0,1,0,1,1","2",""
"","html-keyboard-response","186","64712","0.0-186.0","3RWE2M8QWIWEZN9IZL6G04LOBKV0NF","ANOPPPGFNTUPN","3TKXBROM5TWR181JXBYSOI8FGFVJIU","","null","<img src=""img/flower2.png"" style=""width:200px;border:14px solid red;"">","null","","","","","","","","",""
"","image-keyboard-response","187","64886","0.0-187.0","3RWE2M8QWIWEZN9IZL6G04LOBKV0NF","ANOPPPGFNTUPN","3TKXBROM5TWR181JXBYSOI8FGFVJIU","","172","img/flower2.png","75","173","2","0","2","2","1,0,0,1,1,0,1,0,1","0,0,1,1,0,1,0,1,1","2",""
"","html-keyboard-response","188","65254","0.0-188.0","3RWE2M8QWIWEZN9IZL6G04LOBKV0NF","ANOPPPGFNTUPN","3TKXBROM5TWR181JXBYSOI8FGFVJIU","","null","<img src=""img/flower2.png"" style=""width:200px;border:14px solid red;"">","null","","","","","","","","",""
"","image-keyboard-response","189","65319","0.0-189.0","3RWE2M8QWIWEZN9IZL6G04LOBKV0NF","ANOPPPGFNTUPN","3TKXBROM5TWR181JXBYSOI8FGFVJIU","","63","img/flower6.png","74","65","1","0","3","2","1,0,0,1,1,0,1,0,1","0,0,1,1,0,1,0,1,1","2",""
"","html-keyboard-response","190","65621","0.0-190.0","3RWE2M8QWIWEZN9IZL6G04LOBKV0NF","ANOPPPGFNTUPN","3TKXBROM5TWR181JXBYSOI8FGFVJIU","","null","<img src=""img/flower6.png"" style=""width:200px;border:14px solid red;"">","null","","","","","","","","",""
"","image-keyboard-response","191","65761","0.0-191.0","3RWE2M8QWIWEZN9IZL6G04LOBKV0NF","ANOPPPGFNTUPN","3TKXBROM5TWR181JXBYSOI8FGFVJIU","","137","img/flower3.png","74","138","1","0","1","2","1,0,0,1,1,0,1,0,1","0,0,1,1,0,1,0,1,1","2",""
"","html-keyboard-response","192","66064","0.0-192.0","3RWE2M8QWIWEZN9IZL6G04LOBKV0NF","ANOPPPGFNTUPN","3TKXBROM5TWR181JXBYSOI8FGFVJIU","","null","<img src=""img/flower3.png"" style=""width:200px;border:14px solid red;"">","null","","","","","","","","",""
"","image-keyboard-response","193","66362","0.0-193.0","3RWE2M8QWIWEZN9IZL6G04LOBKV0NF","ANOPPPGFNTUPN","3TKXBROM5TWR181JXBYSOI8FGFVJIU","","293","img/flower2.png","76","297","3","1","2","2","1,0,0,1,1,0,1,0,1","0,0,1,1,0,1,0,1,1","2",""
"","html-keyboard-response","194","66665","0.0-194.0","3RWE2M8QWIWEZN9IZL6G04LOBKV0NF","ANOPPPGFNTUPN","3TKXBROM5TWR181JXBYSOI8FGFVJIU","","null","<img src=""img/flower2.png"" style=""width:200px; border:14px solid green;"">","null","","","","","","","","",""
"","image-keyboard-response","195","66728","0.0-195.0","3RWE2M8QWIWEZN9IZL6G04LOBKV0NF","ANOPPPGFNTUPN","3TKXBROM5TWR181JXBYSOI8FGFVJIU","","61","img/flower3.png","76","62","3","1","1","2","1,0,0,1,1,0,1,0,1","0,0,1,1,0,1,0,1,1","2",""
"","html-keyboard-response","196","67030","0.0-196.0","3RWE2M8QWIWEZN9IZL6G04LOBKV0NF","ANOPPPGFNTUPN","3TKXBROM5TWR181JXBYSOI8FGFVJIU","","null","<img src=""img/flower3.png"" style=""width:200px; border:14px solid green;"">","null","","","","","","","","",""
"","image-keyboard-response","197","67168","0.0-197.0","3RWE2M8QWIWEZN9IZL6G04LOBKV0NF","ANOPPPGFNTUPN","3TKXBROM5TWR181JXBYSOI8FGFVJIU","","136","img/flower2.png","76","138","3","1","2","2","1,0,0,1,1,0,1,0,1","0,0,1,1,0,1,0,1,1","2",""
"","html-keyboard-response","198","67471","0.0-198.0","3RWE2M8QWIWEZN9IZL6G04LOBKV0NF","ANOPPPGFNTUPN","3TKXBROM5TWR181JXBYSOI8FGFVJIU","","null","<img src=""img/flower2.png"" style=""width:200px; border:14px solid green;"">","null","","","","","","","","",""
"","image-keyboard-response","199","67542","0.0-199.0","3RWE2M8QWIWEZN9IZL6G04LOBKV0NF","ANOPPPGFNTUPN","3TKXBROM5TWR181JXBYSOI8FGFVJIU","","70","img/flower2.png","76","70","3","1","2","2","1,0,0,1,1,0,1,0,1","0,0,1,1,0,1,0,1,1","2",""
"","html-keyboard-response","200","67848","0.0-200.0","3RWE2M8QWIWEZN9IZL6G04LOBKV0NF","ANOPPPGFNTUPN","3TKXBROM5TWR181JXBYSOI8FGFVJIU","","null","<img src=""img/flower2.png"" style=""width:200px; border:14px solid green;"">","null","","","","","","","","",""
"","image-keyboard-response","201","67994","0.0-201.0","3RWE2M8QWIWEZN9IZL6G04LOBKV0NF","ANOPPPGFNTUPN","3TKXBROM5TWR181JXBYSOI8FGFVJIU","","133","img/flower6.png","76","134","3","1","3","2","1,0,0,1,1,0,1,0,1","0,0,1,1,0,1,0,1,1","2",""
"","html-keyboard-response","202","68296","0.0-202.0","3RWE2M8QWIWEZN9IZL6G04LOBKV0NF","ANOPPPGFNTUPN","3TKXBROM5TWR181JXBYSOI8FGFVJIU","","null","<img src=""img/flower6.png"" style=""width:200px; border:14px solid green;"">","null","","","","","","","","",""
"","image-keyboard-response","203","68561","0.0-203.0","3RWE2M8QWIWEZN9IZL6G04LOBKV0NF","ANOPPPGFNTUPN","3TKXBROM5TWR181JXBYSOI8FGFVJIU","","265","img/flower2.png","76","266","3","1","2","2","1,0,0,1,1,0,1,0,1","0,0,1,1,0,1,0,1,1","2",""
"","html-keyboard-response","204","68864","0.0-204.0","3RWE2M8QWIWEZN9IZL6G04LOBKV0NF","ANOPPPGFNTUPN","3TKXBROM5TWR181JXBYSOI8FGFVJIU","","null","<img src=""img/flower2.png"" style=""width:200px; border:14px solid green;"">","null","","","","","","","","",""
"","image-keyboard-response","205","68911","0.0-205.0","3RWE2M8QWIWEZN9IZL6G04LOBKV0NF","ANOPPPGFNTUPN","3TKXBROM5TWR181JXBYSOI8FGFVJIU","","44","img/flower2.png","76","45","3","1","2","2","1,0,0,1,1,0,1,0,1","0,0,1,1,0,1,0,1,1","2",""
"","html-keyboard-response","206","69214","0.0-206.0","3RWE2M8QWIWEZN9IZL6G04LOBKV0NF","ANOPPPGFNTUPN","3TKXBROM5TWR181JXBYSOI8FGFVJIU","","null","<img src=""img/flower2.png"" style=""width:200px; border:14px solid green;"">","null","","","","","","","","",""
"","image-keyboard-response","207","69332","0.0-207.0","3RWE2M8QWIWEZN9IZL6G04LOBKV0NF","ANOPPPGFNTUPN","3TKXBROM5TWR181JXBYSOI8FGFVJIU","","116","img/flower6.png","76","117","3","1","3","2","1,0,0,1,1,0,1,0,1","0,0,1,1,0,1,0,1,1","2",""
"","html-keyboard-response","208","69643","0.0-208.0","3RWE2M8QWIWEZN9IZL6G04LOBKV0NF","ANOPPPGFNTUPN","3TKXBROM5TWR181JXBYSOI8FGFVJIU","","null","<img src=""img/flower6.png"" style=""width:200px; border:14px solid green;"">","null","","","","","","","","",""
"","image-keyboard-response","209","69703","0.0-209.0","3RWE2M8QWIWEZN9IZL6G04LOBKV0NF","ANOPPPGFNTUPN","3TKXBROM5TWR181JXBYSOI8FGFVJIU","","58","img/flower2.png","76","59","3","1","2","2","1,0,0,1,1,0,1,0,1","0,0,1,1,0,1,0,1,1","2",""
"","html-keyboard-response","210","70005","0.0-210.0","3RWE2M8QWIWEZN9IZL6G04LOBKV0NF","ANOPPPGFNTUPN","3TKXBROM5TWR181JXBYSOI8FGFVJIU","","null","<img src=""img/flower2.png"" style=""width:200px; border:14px solid green;"">","null","","","","","","","","",""
"","image-keyboard-response","211","70111","0.0-211.0","3RWE2M8QWIWEZN9IZL6G04LOBKV0NF","ANOPPPGFNTUPN","3TKXBROM5TWR181JXBYSOI8FGFVJIU","","104","img/flower3.png","76","106","3","1","1","2","1,0,0,1,1,0,1,0,1","0,0,1,1,0,1,0,1,1","2",""
"","html-keyboard-response","212","70413","0.0-212.0","3RWE2M8QWIWEZN9IZL6G04LOBKV0NF","ANOPPPGFNTUPN","3TKXBROM5TWR181JXBYSOI8FGFVJIU","","null","<img src=""img/flower3.png"" style=""width:200px; border:14px solid green;"">","null","","","","","","","","",""
"","image-keyboard-response","213","70624","0.0-213.0","3RWE2M8QWIWEZN9IZL6G04LOBKV0NF","ANOPPPGFNTUPN","3TKXBROM5TWR181JXBYSOI8FGFVJIU","","204","img/flower3.png","76","207","3","1","1","2","1,0,0,1,1,0,1,0,1","0,0,1,1,0,1,0,1,1","2",""
"","html-keyboard-response","214","70926","0.0-214.0","3RWE2M8QWIWEZN9IZL6G04LOBKV0NF","ANOPPPGFNTUPN","3TKXBROM5TWR181JXBYSOI8FGFVJIU","","null","<img src=""img/flower3.png"" style=""width:200px; border:14px solid green;"">","null","","","","","","","","",""
"","image-keyboard-response","215","70998","0.0-215.0","3RWE2M8QWIWEZN9IZL6G04LOBKV0NF","ANOPPPGFNTUPN","3TKXBROM5TWR181JXBYSOI8FGFVJIU","","70","img/flower6.png","76","72","3","1","3","2","1,0,0,1,1,0,1,0,1","0,0,1,1,0,1,0,1,1","2",""
"","html-keyboard-response","216","71303","0.0-216.0","3RWE2M8QWIWEZN9IZL6G04LOBKV0NF","ANOPPPGFNTUPN","3TKXBROM5TWR181JXBYSOI8FGFVJIU","","null","<img src=""img/flower6.png"" style=""width:200px; border:14px solid green;"">","null","","","","","","","","",""
"","image-keyboard-response","217","71491","0.0-217.0","3RWE2M8QWIWEZN9IZL6G04LOBKV0NF","ANOPPPGFNTUPN","3TKXBROM5TWR181JXBYSOI8FGFVJIU","","182","img/flower6.png","76","187","3","1","3","2","1,0,0,1,1,0,1,0,1","0,0,1,1,0,1,0,1,1","2",""
"","html-keyboard-response","218","71793","0.0-218.0","3RWE2M8QWIWEZN9IZL6G04LOBKV0NF","ANOPPPGFNTUPN","3TKXBROM5TWR181JXBYSOI8FGFVJIU","","null","<img src=""img/flower6.png"" style=""width:200px; border:14px solid green;"">","null","","","","","","","","",""
"","image-keyboard-response","219","72361","0.0-219.0","3RWE2M8QWIWEZN9IZL6G04LOBKV0NF","ANOPPPGFNTUPN","3TKXBROM5TWR181JXBYSOI8FGFVJIU","","565","img/flower6.png","76","566","3","1","3","2","1,0,0,1,1,0,1,0,1","0,0,1,1,0,1,0,1,1","2",""
"","html-keyboard-response","220","72664","0.0-220.0","3RWE2M8QWIWEZN9IZL6G04LOBKV0NF","ANOPPPGFNTUPN","3TKXBROM5TWR181JXBYSOI8FGFVJIU","","null","<img src=""img/flower6.png"" style=""width:200px; border:14px solid green;"">","null","","","","","","","","",""
"","image-keyboard-response","221","72727","0.0-221.0","3RWE2M8QWIWEZN9IZL6G04LOBKV0NF","ANOPPPGFNTUPN","3TKXBROM5TWR181JXBYSOI8FGFVJIU","","62","img/flower6.png","76","62","3","1","3","2","1,0,0,1,1,0,1,0,1","0,0,1,1,0,1,0,1,1","2",""
"","html-keyboard-response","222","73030","0.0-222.0","3RWE2M8QWIWEZN9IZL6G04LOBKV0NF","ANOPPPGFNTUPN","3TKXBROM5TWR181JXBYSOI8FGFVJIU","","null","<img src=""img/flower6.png"" style=""width:200px; border:14px solid green;"">","null","","","","","","","","",""
"","image-keyboard-response","223","73040","0.0-223.0","3RWE2M8QWIWEZN9IZL6G04LOBKV0NF","ANOPPPGFNTUPN","3TKXBROM5TWR181JXBYSOI8FGFVJIU","","8","img/flower2.png","76","10","3","1","2","2","1,0,0,1,1,0,1,0,1","0,0,1,1,0,1,0,1,1","2",""
"","html-keyboard-response","224","73343","0.0-224.0","3RWE2M8QWIWEZN9IZL6G04LOBKV0NF","ANOPPPGFNTUPN","3TKXBROM5TWR181JXBYSOI8FGFVJIU","","null","<img src=""img/flower2.png"" style=""width:200px; border:14px solid green;"">","null","","","","","","","","",""
"","image-keyboard-response","225","73566","0.0-225.0","3RWE2M8QWIWEZN9IZL6G04LOBKV0NF","ANOPPPGFNTUPN","3TKXBROM5TWR181JXBYSOI8FGFVJIU","","221","img/flower6.png","76","222","3","1","3","2","1,0,0,1,1,0,1,0,1","0,0,1,1,0,1,0,1,1","2",""
"","html-keyboard-response","226","73869","0.0-226.0","3RWE2M8QWIWEZN9IZL6G04LOBKV0NF","ANOPPPGFNTUPN","3TKXBROM5TWR181JXBYSOI8FGFVJIU","","null","<img src=""img/flower6.png"" style=""width:200px; border:14px solid green;"">","null","","","","","","","","",""
"","image-keyboard-response","227","74208","0.0-227.0","3RWE2M8QWIWEZN9IZL6G04LOBKV0NF","ANOPPPGFNTUPN","3TKXBROM5TWR181JXBYSOI8FGFVJIU","","336","img/flower3.png","76","338","3","1","1","2","1,0,0,1,1,0,1,0,1","0,0,1,1,0,1,0,1,1","2",""
"","html-keyboard-response","228","74511","0.0-228.0","3RWE2M8QWIWEZN9IZL6G04LOBKV0NF","ANOPPPGFNTUPN","3TKXBROM5TWR181JXBYSOI8FGFVJIU","","null","<img src=""img/flower3.png"" style=""width:200px; border:14px solid green;"">","null","","","","","","","","",""
"","image-keyboard-response","229","74741","0.0-229.0","3RWE2M8QWIWEZN9IZL6G04LOBKV0NF","ANOPPPGFNTUPN","3TKXBROM5TWR181JXBYSOI8FGFVJIU","","229","img/flower3.png","76","231","3","1","1","2","1,0,0,1,1,0,1,0,1","0,0,1,1,0,1,0,1,1","2",""
"","html-keyboard-response","230","75042","0.0-230.0","3RWE2M8QWIWEZN9IZL6G04LOBKV0NF","ANOPPPGFNTUPN","3TKXBROM5TWR181JXBYSOI8FGFVJIU","","null","<img src=""img/flower3.png"" style=""width:200px; border:14px solid green;"">","null","","","","","","","","",""
"","image-keyboard-response","231","75367","0.0-231.0","3RWE2M8QWIWEZN9IZL6G04LOBKV0NF","ANOPPPGFNTUPN","3TKXBROM5TWR181JXBYSOI8FGFVJIU","","324","img/flower6.png","76","324","3","1","3","2","1,0,0,1,1,0,1,0,1","0,0,1,1,0,1,0,1,1","2",""
"","html-keyboard-response","232","75670","0.0-232.0","3RWE2M8QWIWEZN9IZL6G04LOBKV0NF","ANOPPPGFNTUPN","3TKXBROM5TWR181JXBYSOI8FGFVJIU","","null","<img src=""img/flower6.png"" style=""width:200px; border:14px solid green;"">","null","","","","","","","","",""
"","image-keyboard-response","233","75870","0.0-233.0","3RWE2M8QWIWEZN9IZL6G04LOBKV0NF","ANOPPPGFNTUPN","3TKXBROM5TWR181JXBYSOI8FGFVJIU","","199","img/flower3.png","76","199","3","1","1","2","1,0,0,1,1,0,1,0,1","0,0,1,1,0,1,0,1,1","2",""
"","html-keyboard-response","234","76173","0.0-234.0","3RWE2M8QWIWEZN9IZL6G04LOBKV0NF","ANOPPPGFNTUPN","3TKXBROM5TWR181JXBYSOI8FGFVJIU","","null","<img src=""img/flower3.png"" style=""width:200px; border:14px solid green;"">","null","","","","","","","","",""
"","image-keyboard-response","235","76423","0.0-235.0","3RWE2M8QWIWEZN9IZL6G04LOBKV0NF","ANOPPPGFNTUPN","3TKXBROM5TWR181JXBYSOI8FGFVJIU","","248","img/flower2.png","76","250","3","1","2","2","1,0,0,1,1,0,1,0,1","0,0,1,1,0,1,0,1,1","2",""
"","html-keyboard-response","236","76727","0.0-236.0","3RWE2M8QWIWEZN9IZL6G04LOBKV0NF","ANOPPPGFNTUPN","3TKXBROM5TWR181JXBYSOI8FGFVJIU","","null","<img src=""img/flower2.png"" style=""width:200px; border:14px solid green;"">","null","","","","","","","","",""
"","image-keyboard-response","237","77032","0.0-237.0","3RWE2M8QWIWEZN9IZL6G04LOBKV0NF","ANOPPPGFNTUPN","3TKXBROM5TWR181JXBYSOI8FGFVJIU","","302","img/flower6.png","76","304","3","1","3","2","1,0,0,1,1,0,1,0,1","0,0,1,1,0,1,0,1,1","2",""
"","html-keyboard-response","238","77334","0.0-238.0","3RWE2M8QWIWEZN9IZL6G04LOBKV0NF","ANOPPPGFNTUPN","3TKXBROM5TWR181JXBYSOI8FGFVJIU","","null","<img src=""img/flower6.png"" style=""width:200px; border:14px solid green;"">","null","","","","","","","","",""
"","image-keyboard-response","239","77534","0.0-239.0","3RWE2M8QWIWEZN9IZL6G04LOBKV0NF","ANOPPPGFNTUPN","3TKXBROM5TWR181JXBYSOI8FGFVJIU","","199","img/flower2.png","76","199","3","1","2","2","1,0,0,1,1,0,1,0,1","0,0,1,1,0,1,0,1,1","2",""
"","html-keyboard-response","240","77836","0.0-240.0","3RWE2M8QWIWEZN9IZL6G04LOBKV0NF","ANOPPPGFNTUPN","3TKXBROM5TWR181JXBYSOI8FGFVJIU","","null","<img src=""img/flower2.png"" style=""width:200px; border:14px solid green;"">","null","","","","","","","","",""
"","image-keyboard-response","241","78006","0.0-241.0","3RWE2M8QWIWEZN9IZL6G04LOBKV0NF","ANOPPPGFNTUPN","3TKXBROM5TWR181JXBYSOI8FGFVJIU","","168","img/flower6.png","76","169","3","1","3","2","1,0,0,1,1,0,1,0,1","0,0,1,1,0,1,0,1,1","2",""
"","html-keyboard-response","242","78311","0.0-242.0","3RWE2M8QWIWEZN9IZL6G04LOBKV0NF","ANOPPPGFNTUPN","3TKXBROM5TWR181JXBYSOI8FGFVJIU","","null","<img src=""img/flower6.png"" style=""width:200px; border:14px solid green;"">","null","","","","","","","","",""
"","image-keyboard-response","243","78335","0.0-243.0","3RWE2M8QWIWEZN9IZL6G04LOBKV0NF","ANOPPPGFNTUPN","3TKXBROM5TWR181JXBYSOI8FGFVJIU","","22","img/flower2.png","76","23","3","1","2","2","1,0,0,1,1,0,1,0,1","0,0,1,1,0,1,0,1,1","2",""
"","html-keyboard-response","244","78650","0.0-244.0","3RWE2M8QWIWEZN9IZL6G04LOBKV0NF","ANOPPPGFNTUPN","3TKXBROM5TWR181JXBYSOI8FGFVJIU","","null","<img src=""img/flower2.png"" style=""width:200px; border:14px solid green;"">","null","","","","","","","","",""
"","image-keyboard-response","245","78657","0.0-245.0","3RWE2M8QWIWEZN9IZL6G04LOBKV0NF","ANOPPPGFNTUPN","3TKXBROM5TWR181JXBYSOI8FGFVJIU","","4","img/flower3.png","76","6","3","1","1","2","1,0,0,1,1,0,1,0,1","0,0,1,1,0,1,0,1,1","2",""
"","html-keyboard-response","246","78957","0.0-246.0","3RWE2M8QWIWEZN9IZL6G04LOBKV0NF","ANOPPPGFNTUPN","3TKXBROM5TWR181JXBYSOI8FGFVJIU","","null","<img src=""img/flower3.png"" style=""width:200px; border:14px solid green;"">","null","","","","","","","","",""
"","image-keyboard-response","247","79048","0.0-247.0","3RWE2M8QWIWEZN9IZL6G04LOBKV0NF","ANOPPPGFNTUPN","3TKXBROM5TWR181JXBYSOI8FGFVJIU","","88","img/flower2.png","76","90","3","1","2","2","1,0,0,1,1,0,1,0,1","0,0,1,1,0,1,0,1,1","2",""
"","html-keyboard-response","248","79352","0.0-248.0","3RWE2M8QWIWEZN9IZL6G04LOBKV0NF","ANOPPPGFNTUPN","3TKXBROM5TWR181JXBYSOI8FGFVJIU","","null","<img src=""img/flower2.png"" style=""width:200px; border:14px solid green;"">","null","","","","","","","","",""
"","image-keyboard-response","249","79462","0.0-249.0","3RWE2M8QWIWEZN9IZL6G04LOBKV0NF","ANOPPPGFNTUPN","3TKXBROM5TWR181JXBYSOI8FGFVJIU","","108","img/flower3.png","76","109","3","1","1","2","1,0,0,1,1,0,1,0,1","0,0,1,1,0,1,0,1,1","2",""
"","html-keyboard-response","250","79763","0.0-250.0","3RWE2M8QWIWEZN9IZL6G04LOBKV0NF","ANOPPPGFNTUPN","3TKXBROM5TWR181JXBYSOI8FGFVJIU","","null","<img src=""img/flower3.png"" style=""width:200px; border:14px solid green;"">","null","","","","","","","","",""
"","image-keyboard-response","251","80044","0.0-251.0","3RWE2M8QWIWEZN9IZL6G04LOBKV0NF","ANOPPPGFNTUPN","3TKXBROM5TWR181JXBYSOI8FGFVJIU","","278","img/flower3.png","76","279","3","1","1","2","1,0,0,1,1,0,1,0,1","0,0,1,1,0,1,0,1,1","2",""
"","html-keyboard-response","252","80347","0.0-252.0","3RWE2M8QWIWEZN9IZL6G04LOBKV0NF","ANOPPPGFNTUPN","3TKXBROM5TWR181JXBYSOI8FGFVJIU","","null","<img src=""img/flower3.png"" style=""width:200px; border:14px solid green;"">","null","","","","","","","","",""
"","image-keyboard-response","253","80591","0.0-253.0","3RWE2M8QWIWEZN9IZL6G04LOBKV0NF","ANOPPPGFNTUPN","3TKXBROM5TWR181JXBYSOI8FGFVJIU","","240","img/flower2.png","76","241","3","1","2","2","1,0,0,1,1,0,1,0,1","0,0,1,1,0,1,0,1,1","2",""
"","html-keyboard-response","254","80894","0.0-254.0","3RWE2M8QWIWEZN9IZL6G04LOBKV0NF","ANOPPPGFNTUPN","3TKXBROM5TWR181JXBYSOI8FGFVJIU","","null","<img src=""img/flower2.png"" style=""width:200px; border:14px solid green;"">","null","","","","","","","","",""
"","image-keyboard-response","255","81130","0.0-255.0","3RWE2M8QWIWEZN9IZL6G04LOBKV0NF","ANOPPPGFNTUPN","3TKXBROM5TWR181JXBYSOI8FGFVJIU","","233","img/flower3.png","76","235","3","1","1","2","1,0,0,1,1,0,1,0,1","0,0,1,1,0,1,0,1,1","2",""
"","html-keyboard-response","256","81433","0.0-256.0","3RWE2M8QWIWEZN9IZL6G04LOBKV0NF","ANOPPPGFNTUPN","3TKXBROM5TWR181JXBYSOI8FGFVJIU","","null","<img src=""img/flower3.png"" style=""width:200px; border:14px solid green;"">","null","","","","","","","","",""
"","image-keyboard-response","257","81617","0.0-257.0","3RWE2M8QWIWEZN9IZL6G04LOBKV0NF","ANOPPPGFNTUPN","3TKXBROM5TWR181JXBYSOI8FGFVJIU","","182","img/flower6.png","76","184","3","1","3","2","1,0,0,1,1,0,1,0,1","0,0,1,1,0,1,0,1,1","2",""
"","html-keyboard-response","258","81977","0.0-258.0","3RWE2M8QWIWEZN9IZL6G04LOBKV0NF","ANOPPPGFNTUPN","3TKXBROM5TWR181JXBYSOI8FGFVJIU","","null","<img src=""img/flower6.png"" style=""width:200px; border:14px solid green;"">","null","","","","","","","","",""
"","image-keyboard-response","259","82031","0.0-259.0","3RWE2M8QWIWEZN9IZL6G04LOBKV0NF","ANOPPPGFNTUPN","3TKXBROM5TWR181JXBYSOI8FGFVJIU","","50","img/flower3.png","76","52","3","1","1","2","1,0,0,1,1,0,1,0,1","0,0,1,1,0,1,0,1,1","2",""
"","html-keyboard-response","260","82358","0.0-260.0","3RWE2M8QWIWEZN9IZL6G04LOBKV0NF","ANOPPPGFNTUPN","3TKXBROM5TWR181JXBYSOI8FGFVJIU","","null","<img src=""img/flower3.png"" style=""width:200px; border:14px solid green;"">","null","","","","","","","","",""
"","image-keyboard-response","261","82477","0.0-261.0","3RWE2M8QWIWEZN9IZL6G04LOBKV0NF","ANOPPPGFNTUPN","3TKXBROM5TWR181JXBYSOI8FGFVJIU","","114","img/flower3.png","76","116","3","1","1","2","1,0,0,1,1,0,1,0,1","0,0,1,1,0,1,0,1,1","2",""
"","html-keyboard-response","262","82779","0.0-262.0","3RWE2M8QWIWEZN9IZL6G04LOBKV0NF","ANOPPPGFNTUPN","3TKXBROM5TWR181JXBYSOI8FGFVJIU","","null","<img src=""img/flower3.png"" style=""width:200px; border:14px solid green;"">","null","","","","","","","","",""
"","image-keyboard-response","263","83283","0.0-263.0","3RWE2M8QWIWEZN9IZL6G04LOBKV0NF","ANOPPPGFNTUPN","3TKXBROM5TWR181JXBYSOI8FGFVJIU","","501","img/flower6.png","76","503","3","1","3","2","1,0,0,1,1,0,1,0,1","0,0,1,1,0,1,0,1,1","2",""
"","html-keyboard-response","264","83584","0.0-264.0","3RWE2M8QWIWEZN9IZL6G04LOBKV0NF","ANOPPPGFNTUPN","3TKXBROM5TWR181JXBYSOI8FGFVJIU","","null","<img src=""img/flower6.png"" style=""width:200px; border:14px solid green;"">","null","","","","","","","","",""
"","image-keyboard-response","265","83630","0.0-265.0","3RWE2M8QWIWEZN9IZL6G04LOBKV0NF","ANOPPPGFNTUPN","3TKXBROM5TWR181JXBYSOI8FGFVJIU","","45","img/flower3.png","76","47","3","1","1","2","1,0,0,1,1,0,1,0,1","0,0,1,1,0,1,0,1,1","2",""
"","html-keyboard-response","266","83932","0.0-266.0","3RWE2M8QWIWEZN9IZL6G04LOBKV0NF","ANOPPPGFNTUPN","3TKXBROM5TWR181JXBYSOI8FGFVJIU","","null","<img src=""img/flower3.png"" style=""width:200px; border:14px solid green;"">","null","","","","","","","","",""
"","image-keyboard-response","267","84080","0.0-267.0","3RWE2M8QWIWEZN9IZL6G04LOBKV0NF","ANOPPPGFNTUPN","3TKXBROM5TWR181JXBYSOI8FGFVJIU","","145","img/flower3.png","76","147","3","1","1","2","1,0,0,1,1,0,1,0,1","0,0,1,1,0,1,0,1,1","2",""
"","html-keyboard-response","268","84383","0.0-268.0","3RWE2M8QWIWEZN9IZL6G04LOBKV0NF","ANOPPPGFNTUPN","3TKXBROM5TWR181JXBYSOI8FGFVJIU","","null","<img src=""img/flower3.png"" style=""width:200px; border:14px solid green;"">","null","","","","","","","","",""
"","image-keyboard-response","269","84712","0.0-269.0","3RWE2M8QWIWEZN9IZL6G04LOBKV0NF","ANOPPPGFNTUPN","3TKXBROM5TWR181JXBYSOI8FGFVJIU","","325","img/flower3.png","76","328","3","1","1","2","1,0,0,1,1,0,1,0,1","0,0,1,1,0,1,0,1,1","2",""
"","html-keyboard-response","270","85014","0.0-270.0","3RWE2M8QWIWEZN9IZL6G04LOBKV0NF","ANOPPPGFNTUPN","3TKXBROM5TWR181JXBYSOI8FGFVJIU","","null","<img src=""img/flower3.png"" style=""width:200px; border:14px solid green;"">","null","","","","","","","","",""
"","image-keyboard-response","271","85073","0.0-271.0","3RWE2M8QWIWEZN9IZL6G04LOBKV0NF","ANOPPPGFNTUPN","3TKXBROM5TWR181JXBYSOI8FGFVJIU","","56","img/flower2.png","76","58","3","1","2","2","1,0,0,1,1,0,1,0,1","0,0,1,1,0,1,0,1,1","2",""
"","html-keyboard-response","272","85386","0.0-272.0","3RWE2M8QWIWEZN9IZL6G04LOBKV0NF","ANOPPPGFNTUPN","3TKXBROM5TWR181JXBYSOI8FGFVJIU","","null","<img src=""img/flower2.png"" style=""width:200px; border:14px solid green;"">","null","","","","","","","","",""
"","image-keyboard-response","273","85440","0.0-273.0","3RWE2M8QWIWEZN9IZL6G04LOBKV0NF","ANOPPPGFNTUPN","3TKXBROM5TWR181JXBYSOI8FGFVJIU","","34","img/flower3.png","76","39","3","1","1","2","1,0,0,1,1,0,1,0,1","0,0,1,1,0,1,0,1,1","2",""
"","html-keyboard-response","274","85742","0.0-274.0","3RWE2M8QWIWEZN9IZL6G04LOBKV0NF","ANOPPPGFNTUPN","3TKXBROM5TWR181JXBYSOI8FGFVJIU","","null","<img src=""img/flower3.png"" style=""width:200px; border:14px solid green;"">","null","","","","","","","","",""
"","image-keyboard-response","275","85895","0.0-275.0","3RWE2M8QWIWEZN9IZL6G04LOBKV0NF","ANOPPPGFNTUPN","3TKXBROM5TWR181JXBYSOI8FGFVJIU","","151","img/flower3.png","76","153","3","1","1","2","1,0,0,1,1,0,1,0,1","0,0,1,1,0,1,0,1,1","2",""
"","html-keyboard-response","276","86196","0.0-276.0","3RWE2M8QWIWEZN9IZL6G04LOBKV0NF","ANOPPPGFNTUPN","3TKXBROM5TWR181JXBYSOI8FGFVJIU","","null","<img src=""img/flower3.png"" style=""width:200px; border:14px solid green;"">","null","","","","","","","","",""
"","image-keyboard-response","277","86423","0.0-277.0","3RWE2M8QWIWEZN9IZL6G04LOBKV0NF","ANOPPPGFNTUPN","3TKXBROM5TWR181JXBYSOI8FGFVJIU","","223","img/flower2.png","76","226","3","1","2","2","1,0,0,1,1,0,1,0,1","0,0,1,1,0,1,0,1,1","2",""
"","html-keyboard-response","278","86759","0.0-278.0","3RWE2M8QWIWEZN9IZL6G04LOBKV0NF","ANOPPPGFNTUPN","3TKXBROM5TWR181JXBYSOI8FGFVJIU","","null","<img src=""img/flower2.png"" style=""width:200px; border:14px solid green;"">","null","","","","","","","","",""
"","image-keyboard-response","279","86955","0.0-279.0","3RWE2M8QWIWEZN9IZL6G04LOBKV0NF","ANOPPPGFNTUPN","3TKXBROM5TWR181JXBYSOI8FGFVJIU","","193","img/flower2.png","76","195","3","1","2","2","1,0,0,1,1,0,1,0,1","0,0,1,1,0,1,0,1,1","2",""
"","html-keyboard-response","280","87259","0.0-280.0","3RWE2M8QWIWEZN9IZL6G04LOBKV0NF","ANOPPPGFNTUPN","3TKXBROM5TWR181JXBYSOI8FGFVJIU","","null","<img src=""img/flower2.png"" style=""width:200px; border:14px solid green;"">","null","","","","","","","","",""
"","image-keyboard-response","281","87399","0.0-281.0","3RWE2M8QWIWEZN9IZL6G04LOBKV0NF","ANOPPPGFNTUPN","3TKXBROM5TWR181JXBYSOI8FGFVJIU","","137","img/flower2.png","76","139","3","1","2","2","1,0,0,1,1,0,1,0,1","0,0,1,1,0,1,0,1,1","2",""
"","html-keyboard-response","282","87702","0.0-282.0","3RWE2M8QWIWEZN9IZL6G04LOBKV0NF","ANOPPPGFNTUPN","3TKXBROM5TWR181JXBYSOI8FGFVJIU","","null","<img src=""img/flower2.png"" style=""width:200px; border:14px solid green;"">","null","","","","","","","","",""
"","image-keyboard-response","283","87862","0.0-283.0","3RWE2M8QWIWEZN9IZL6G04LOBKV0NF","ANOPPPGFNTUPN","3TKXBROM5TWR181JXBYSOI8FGFVJIU","","158","img/flower2.png","76","160","3","1","2","2","1,0,0,1,1,0,1,0,1","0,0,1,1,0,1,0,1,1","2",""
"","html-keyboard-response","284","88165","0.0-284.0","3RWE2M8QWIWEZN9IZL6G04LOBKV0NF","ANOPPPGFNTUPN","3TKXBROM5TWR181JXBYSOI8FGFVJIU","","null","<img src=""img/flower2.png"" style=""width:200px; border:14px solid green;"">","null","","","","","","","","",""
"","image-keyboard-response","285","88408","0.0-285.0","3RWE2M8QWIWEZN9IZL6G04LOBKV0NF","ANOPPPGFNTUPN","3TKXBROM5TWR181JXBYSOI8FGFVJIU","","241","img/flower2.png","76","243","3","1","2","2","1,0,0,1,1,0,1,0,1","0,0,1,1,0,1,0,1,1","2",""
"","html-keyboard-response","286","88711","0.0-286.0","3RWE2M8QWIWEZN9IZL6G04LOBKV0NF","ANOPPPGFNTUPN","3TKXBROM5TWR181JXBYSOI8FGFVJIU","","null","<img src=""img/flower2.png"" style=""width:200px; border:14px solid green;"">","null","","","","","","","","",""
"","image-keyboard-response","287","88903","0.0-287.0","3RWE2M8QWIWEZN9IZL6G04LOBKV0NF","ANOPPPGFNTUPN","3TKXBROM5TWR181JXBYSOI8FGFVJIU","","189","img/flower2.png","76","192","3","1","2","2","1,0,0,1,1,0,1,0,1","0,0,1,1,0,1,0,1,1","2",""
"","html-keyboard-response","288","89208","0.0-288.0","3RWE2M8QWIWEZN9IZL6G04LOBKV0NF","ANOPPPGFNTUPN","3TKXBROM5TWR181JXBYSOI8FGFVJIU","","null","<img src=""img/flower2.png"" style=""width:200px; border:14px solid green;"">","null","","","","","","","","",""
"","image-keyboard-response","289","89389","0.0-289.0","3RWE2M8QWIWEZN9IZL6G04LOBKV0NF","ANOPPPGFNTUPN","3TKXBROM5TWR181JXBYSOI8FGFVJIU","","180","img/flower6.png","76","181","3","1","3","2","1,0,0,1,1,0,1,0,1","0,0,1,1,0,1,0,1,1","2",""
"","html-keyboard-response","290","89693","0.0-290.0","3RWE2M8QWIWEZN9IZL6G04LOBKV0NF","ANOPPPGFNTUPN","3TKXBROM5TWR181JXBYSOI8FGFVJIU","","null","<img src=""img/flower6.png"" style=""width:200px; border:14px solid green;"">","null","","","","","","","","",""
"","image-keyboard-response","291","89973","0.0-291.0","3RWE2M8QWIWEZN9IZL6G04LOBKV0NF","ANOPPPGFNTUPN","3TKXBROM5TWR181JXBYSOI8FGFVJIU","","279","img/flower2.png","76","280","3","1","2","2","1,0,0,1,1,0,1,0,1","0,0,1,1,0,1,0,1,1","2",""
"","html-keyboard-response","292","90279","0.0-292.0","3RWE2M8QWIWEZN9IZL6G04LOBKV0NF","ANOPPPGFNTUPN","3TKXBROM5TWR181JXBYSOI8FGFVJIU","","null","<img src=""img/flower2.png"" style=""width:200px; border:14px solid green;"">","null","","","","","","","","",""
"","image-keyboard-response","293","90319","0.0-293.0","3RWE2M8QWIWEZN9IZL6G04LOBKV0NF","ANOPPPGFNTUPN","3TKXBROM5TWR181JXBYSOI8FGFVJIU","","38","img/flower3.png","76","39","3","1","1","2","1,0,0,1,1,0,1,0,1","0,0,1,1,0,1,0,1,1","2",""
"","html-keyboard-response","294","90623","0.0-294.0","3RWE2M8QWIWEZN9IZL6G04LOBKV0NF","ANOPPPGFNTUPN","3TKXBROM5TWR181JXBYSOI8FGFVJIU","","null","<img src=""img/flower3.png"" style=""width:200px; border:14px solid green;"">","null","","","","","","","","",""
"","image-keyboard-response","295","90807","0.0-295.0","3RWE2M8QWIWEZN9IZL6G04LOBKV0NF","ANOPPPGFNTUPN","3TKXBROM5TWR181JXBYSOI8FGFVJIU","","182","img/flower6.png","76","184","3","1","3","2","1,0,0,1,1,0,1,0,1","0,0,1,1,0,1,0,1,1","2",""
"","html-keyboard-response","296","91123","0.0-296.0","3RWE2M8QWIWEZN9IZL6G04LOBKV0NF","ANOPPPGFNTUPN","3TKXBROM5TWR181JXBYSOI8FGFVJIU","","null","<img src=""img/flower6.png"" style=""width:200px; border:14px solid green;"">","null","","","","","","","","",""
"","image-keyboard-response","297","91334","0.0-297.0","3RWE2M8QWIWEZN9IZL6G04LOBKV0NF","ANOPPPGFNTUPN","3TKXBROM5TWR181JXBYSOI8FGFVJIU","","210","img/flower2.png","76","211","3","1","2","2","1,0,0,1,1,0,1,0,1","0,0,1,1,0,1,0,1,1","2",""
"","html-keyboard-response","298","91641","0.0-298.0","3RWE2M8QWIWEZN9IZL6G04LOBKV0NF","ANOPPPGFNTUPN","3TKXBROM5TWR181JXBYSOI8FGFVJIU","","null","<img src=""img/flower2.png"" style=""width:200px; border:14px solid green;"">","null","","","","","","","","",""
"","image-keyboard-response","299","91669","0.0-299.0","3RWE2M8QWIWEZN9IZL6G04LOBKV0NF","ANOPPPGFNTUPN","3TKXBROM5TWR181JXBYSOI8FGFVJIU","","26","img/flower6.png","76","27","3","1","3","2","1,0,0,1,1,0,1,0,1","0,0,1,1,0,1,0,1,1","2",""
"","html-keyboard-response","300","91971","0.0-300.0","3RWE2M8QWIWEZN9IZL6G04LOBKV0NF","ANOPPPGFNTUPN","3TKXBROM5TWR181JXBYSOI8FGFVJIU","","null","<img src=""img/flower6.png"" style=""width:200px; border:14px solid green;"">","null","","","","","","","","",""
"","image-keyboard-response","301","92122","0.0-301.0","3RWE2M8QWIWEZN9IZL6G04LOBKV0NF","ANOPPPGFNTUPN","3TKXBROM5TWR181JXBYSOI8FGFVJIU","","147","img/flower3.png","76","150","3","1","1","2","1,0,0,1,1,0,1,0,1","0,0,1,1,0,1,0,1,1","2",""
"","html-keyboard-response","302","92425","0.0-302.0","3RWE2M8QWIWEZN9IZL6G04LOBKV0NF","ANOPPPGFNTUPN","3TKXBROM5TWR181JXBYSOI8FGFVJIU","","null","<img src=""img/flower3.png"" style=""width:200px; border:14px solid green;"">","null","","","","","","","","",""
"","image-keyboard-response","303","92560","0.0-303.0","3RWE2M8QWIWEZN9IZL6G04LOBKV0NF","ANOPPPGFNTUPN","3TKXBROM5TWR181JXBYSOI8FGFVJIU","","132","img/flower2.png","76","134","3","1","2","2","1,0,0,1,1,0,1,0,1","0,0,1,1,0,1,0,1,1","2",""
"","html-keyboard-response","304","92885","0.0-304.0","3RWE2M8QWIWEZN9IZL6G04LOBKV0NF","ANOPPPGFNTUPN","3TKXBROM5TWR181JXBYSOI8FGFVJIU","","null","<img src=""img/flower2.png"" style=""width:200px; border:14px solid green;"">","null","","","","","","","","",""
"","image-keyboard-response","305","92888","0.0-305.0","3RWE2M8QWIWEZN9IZL6G04LOBKV0NF","ANOPPPGFNTUPN","3TKXBROM5TWR181JXBYSOI8FGFVJIU","","2","img/flower3.png","76","2","3","1","1","2","1,0,0,1,1,0,1,0,1","0,0,1,1,0,1,0,1,1","2",""
"","html-keyboard-response","306","93192","0.0-306.0","3RWE2M8QWIWEZN9IZL6G04LOBKV0NF","ANOPPPGFNTUPN","3TKXBROM5TWR181JXBYSOI8FGFVJIU","","null","<img src=""img/flower3.png"" style=""width:200px; border:14px solid green;"">","null","","","","","","","","",""
"","image-keyboard-response","307","93199","0.0-307.0","3RWE2M8QWIWEZN9IZL6G04LOBKV0NF","ANOPPPGFNTUPN","3TKXBROM5TWR181JXBYSOI8FGFVJIU","","4","img/flower6.png","76","6","3","1","3","2","1,0,0,1,1,0,1,0,1","0,0,1,1,0,1,0,1,1","2",""
"","html-keyboard-response","308","93514","0.0-308.0","3RWE2M8QWIWEZN9IZL6G04LOBKV0NF","ANOPPPGFNTUPN","3TKXBROM5TWR181JXBYSOI8FGFVJIU","","null","<img src=""img/flower6.png"" style=""width:200px; border:14px solid green;"">","null","","","","","","","","",""
"","image-keyboard-response","309","93671","0.0-309.0","3RWE2M8QWIWEZN9IZL6G04LOBKV0NF","ANOPPPGFNTUPN","3TKXBROM5TWR181JXBYSOI8FGFVJIU","","155","img/flower6.png","76","157","3","1","3","2","1,0,0,1,1,0,1,0,1","0,0,1,1,0,1,0,1,1","2",""
"","html-keyboard-response","310","93973","0.0-310.0","3RWE2M8QWIWEZN9IZL6G04LOBKV0NF","ANOPPPGFNTUPN","3TKXBROM5TWR181JXBYSOI8FGFVJIU","","null","<img src=""img/flower6.png"" style=""width:200px; border:14px solid green;"">","null","","","","","","","","",""
"","image-keyboard-response","311","94030","0.0-311.0","3RWE2M8QWIWEZN9IZL6G04LOBKV0NF","ANOPPPGFNTUPN","3TKXBROM5TWR181JXBYSOI8FGFVJIU","","56","img/flower2.png","76","57","3","1","2","2","1,0,0,1,1,0,1,0,1","0,0,1,1,0,1,0,1,1","2",""
"","html-keyboard-response","312","94336","0.0-312.0","3RWE2M8QWIWEZN9IZL6G04LOBKV0NF","ANOPPPGFNTUPN","3TKXBROM5TWR181JXBYSOI8FGFVJIU","","null","<img src=""img/flower2.png"" style=""width:200px; border:14px solid green;"">","null","","","","","","","","",""
"","image-keyboard-response","313","94410","0.0-313.0","3RWE2M8QWIWEZN9IZL6G04LOBKV0NF","ANOPPPGFNTUPN","3TKXBROM5TWR181JXBYSOI8FGFVJIU","","73","img/flower6.png","76","75","3","1","3","2","1,0,0,1,1,0,1,0,1","0,0,1,1,0,1,0,1,1","2",""
"","html-keyboard-response","314","94711","0.0-314.0","3RWE2M8QWIWEZN9IZL6G04LOBKV0NF","ANOPPPGFNTUPN","3TKXBROM5TWR181JXBYSOI8FGFVJIU","","null","<img src=""img/flower6.png"" style=""width:200px; border:14px solid green;"">","null","","","","","","","","",""
"","image-keyboard-response","315","94722","0.0-315.0","3RWE2M8QWIWEZN9IZL6G04LOBKV0NF","ANOPPPGFNTUPN","3TKXBROM5TWR181JXBYSOI8FGFVJIU","","8","img/flower6.png","76","11","3","1","3","2","1,0,0,1,1,0,1,0,1","0,0,1,1,0,1,0,1,1","2",""
"","html-keyboard-response","316","95024","0.0-316.0","3RWE2M8QWIWEZN9IZL6G04LOBKV0NF","ANOPPPGFNTUPN","3TKXBROM5TWR181JXBYSOI8FGFVJIU","","null","<img src=""img/flower6.png"" style=""width:200px; border:14px solid green;"">","null","","","","","","","","",""
"","image-keyboard-response","317","95081","0.0-317.0","3RWE2M8QWIWEZN9IZL6G04LOBKV0NF","ANOPPPGFNTUPN","3TKXBROM5TWR181JXBYSOI8FGFVJIU","","53","img/flower3.png","76","55","3","1","1","2","1,0,0,1,1,0,1,0,1","0,0,1,1,0,1,0,1,1","2",""
"","html-keyboard-response","318","95385","0.0-318.0","3RWE2M8QWIWEZN9IZL6G04LOBKV0NF","ANOPPPGFNTUPN","3TKXBROM5TWR181JXBYSOI8FGFVJIU","","null","<img src=""img/flower3.png"" style=""width:200px; border:14px solid green;"">","null","","","","","","","","",""
"","image-keyboard-response","319","96170","0.0-319.0","3RWE2M8QWIWEZN9IZL6G04LOBKV0NF","ANOPPPGFNTUPN","3TKXBROM5TWR181JXBYSOI8FGFVJIU","","780","img/flower2.png","76","783","3","1","2","2","1,0,0,1,1,0,1,0,1","0,0,1,1,0,1,0,1,1","2",""
"","html-keyboard-response","320","96474","0.0-320.0","3RWE2M8QWIWEZN9IZL6G04LOBKV0NF","ANOPPPGFNTUPN","3TKXBROM5TWR181JXBYSOI8FGFVJIU","","null","<img src=""img/flower2.png"" style=""width:200px; border:14px solid green;"">","null","","","","","","","","",""
"","image-keyboard-response","321","96519","0.0-321.0","3RWE2M8QWIWEZN9IZL6G04LOBKV0NF","ANOPPPGFNTUPN","3TKXBROM5TWR181JXBYSOI8FGFVJIU","","41","img/flower6.png","76","45","3","1","3","2","1,0,0,1,1,0,1,0,1","0,0,1,1,0,1,0,1,1","2",""
"","html-keyboard-response","322","96822","0.0-322.0","3RWE2M8QWIWEZN9IZL6G04LOBKV0NF","ANOPPPGFNTUPN","3TKXBROM5TWR181JXBYSOI8FGFVJIU","","null","<img src=""img/flower6.png"" style=""width:200px; border:14px solid green;"">","null","","","","","","","","",""
"","image-keyboard-response","323","98824","0.0-323.0","3RWE2M8QWIWEZN9IZL6G04LOBKV0NF","ANOPPPGFNTUPN","3TKXBROM5TWR181JXBYSOI8FGFVJIU","","","img/flower6.png","","2002","-1","0","3","2","1,0,0,1,1,0,1,0,1","0,0,1,1,0,1,0,1,1","2",""
"","html-keyboard-response","324","99127","0.0-324.0","3RWE2M8QWIWEZN9IZL6G04LOBKV0NF","ANOPPPGFNTUPN","3TKXBROM5TWR181JXBYSOI8FGFVJIU","","null","<img src=""img/flower6.png"" style=""width:200px;border:14px solid red;"">","null","","","","","","","","",""
"","image-keyboard-response","325","99973","0.0-325.0","3RWE2M8QWIWEZN9IZL6G04LOBKV0NF","ANOPPPGFNTUPN","3TKXBROM5TWR181JXBYSOI8FGFVJIU","","842","img/flower2.png","76","846","3","1","2","2","1,0,0,1,1,0,1,0,1","0,0,1,1,0,1,0,1,1","2",""
"","html-keyboard-response","326","100277","0.0-326.0","3RWE2M8QWIWEZN9IZL6G04LOBKV0NF","ANOPPPGFNTUPN","3TKXBROM5TWR181JXBYSOI8FGFVJIU","","null","<img src=""img/flower2.png"" style=""width:200px; border:14px solid green;"">","null","","","","","","","","",""
"","image-keyboard-response","327","100824","0.0-327.0","3RWE2M8QWIWEZN9IZL6G04LOBKV0NF","ANOPPPGFNTUPN","3TKXBROM5TWR181JXBYSOI8FGFVJIU","","546","img/flower6.png","76","547","3","1","3","2","1,0,0,1,1,0,1,0,1","0,0,1,1,0,1,0,1,1","2",""
"","html-keyboard-response","328","101126","0.0-328.0","3RWE2M8QWIWEZN9IZL6G04LOBKV0NF","ANOPPPGFNTUPN","3TKXBROM5TWR181JXBYSOI8FGFVJIU","","null","<img src=""img/flower6.png"" style=""width:200px; border:14px solid green;"">","null","","","","","","","","",""
"","image-keyboard-response","329","101151","0.0-329.0","3RWE2M8QWIWEZN9IZL6G04LOBKV0NF","ANOPPPGFNTUPN","3TKXBROM5TWR181JXBYSOI8FGFVJIU","","21","img/flower6.png","76","24","3","1","3","2","1,0,0,1,1,0,1,0,1","0,0,1,1,0,1,0,1,1","2",""
"","html-keyboard-response","330","101463","0.0-330.0","3RWE2M8QWIWEZN9IZL6G04LOBKV0NF","ANOPPPGFNTUPN","3TKXBROM5TWR181JXBYSOI8FGFVJIU","","null","<img src=""img/flower6.png"" style=""width:200px; border:14px solid green;"">","null","","","","","","","","",""
"","image-keyboard-response","331","101472","0.0-331.0","3RWE2M8QWIWEZN9IZL6G04LOBKV0NF","ANOPPPGFNTUPN","3TKXBROM5TWR181JXBYSOI8FGFVJIU","","2","img/flower3.png","76","4","3","1","1","2","1,0,0,1,1,0,1,0,1","0,0,1,1,0,1,0,1,1","2",""
"","html-keyboard-response","332","101774","0.0-332.0","3RWE2M8QWIWEZN9IZL6G04LOBKV0NF","ANOPPPGFNTUPN","3TKXBROM5TWR181JXBYSOI8FGFVJIU","","null","<img src=""img/flower3.png"" style=""width:200px; border:14px solid green;"">","null","","","","","","","","",""
"","image-keyboard-response","333","102103","0.0-333.0","3RWE2M8QWIWEZN9IZL6G04LOBKV0NF","ANOPPPGFNTUPN","3TKXBROM5TWR181JXBYSOI8FGFVJIU","","327","img/flower2.png","76","328","3","1","2","2","1,0,0,1,1,0,1,0,1","0,0,1,1,0,1,0,1,1","2",""
"","html-keyboard-response","334","102464","0.0-334.0","3RWE2M8QWIWEZN9IZL6G04LOBKV0NF","ANOPPPGFNTUPN","3TKXBROM5TWR181JXBYSOI8FGFVJIU","","null","<img src=""img/flower2.png"" style=""width:200px; border:14px solid green;"">","null","","","","","","","","",""
"","image-keyboard-response","335","102478","0.0-335.0","3RWE2M8QWIWEZN9IZL6G04LOBKV0NF","ANOPPPGFNTUPN","3TKXBROM5TWR181JXBYSOI8FGFVJIU","","12","img/flower3.png","76","13","3","1","1","2","1,0,0,1,1,0,1,0,1","0,0,1,1,0,1,0,1,1","2",""
"","html-keyboard-response","336","102780","0.0-336.0","3RWE2M8QWIWEZN9IZL6G04LOBKV0NF","ANOPPPGFNTUPN","3TKXBROM5TWR181JXBYSOI8FGFVJIU","","null","<img src=""img/flower3.png"" style=""width:200px; border:14px solid green;"">","null","","","","","","","","",""
"","image-keyboard-response","337","102920","0.0-337.0","3RWE2M8QWIWEZN9IZL6G04LOBKV0NF","ANOPPPGFNTUPN","3TKXBROM5TWR181JXBYSOI8FGFVJIU","","137","img/flower3.png","76","139","3","1","1","2","1,0,0,1,1,0,1,0,1","0,0,1,1,0,1,0,1,1","2",""
"","html-keyboard-response","338","103222","0.0-338.0","3RWE2M8QWIWEZN9IZL6G04LOBKV0NF","ANOPPPGFNTUPN","3TKXBROM5TWR181JXBYSOI8FGFVJIU","","null","<img src=""img/flower3.png"" style=""width:200px; border:14px solid green;"">","null","","","","","","","","",""
"","image-keyboard-response","339","103239","0.0-339.0","3RWE2M8QWIWEZN9IZL6G04LOBKV0NF","ANOPPPGFNTUPN","3TKXBROM5TWR181JXBYSOI8FGFVJIU","","14","img/flower3.png","76","16","3","1","1","2","1,0,0,1,1,0,1,0,1","0,0,1,1,0,1,0,1,1","2",""
"","html-keyboard-response","340","103670","0.0-340.0","3RWE2M8QWIWEZN9IZL6G04LOBKV0NF","ANOPPPGFNTUPN","3TKXBROM5TWR181JXBYSOI8FGFVJIU","","null","<img src=""img/flower3.png"" style=""width:200px; border:14px solid green;"">","null","","","","","","","","",""
"","image-keyboard-response","341","103792","0.0-341.0","3RWE2M8QWIWEZN9IZL6G04LOBKV0NF","ANOPPPGFNTUPN","3TKXBROM5TWR181JXBYSOI8FGFVJIU","","120","img/flower6.png","76","121","3","1","3","2","1,0,0,1,1,0,1,0,1","0,0,1,1,0,1,0,1,1","2",""
"","html-keyboard-response","342","104093","0.0-342.0","3RWE2M8QWIWEZN9IZL6G04LOBKV0NF","ANOPPPGFNTUPN","3TKXBROM5TWR181JXBYSOI8FGFVJIU","","null","<img src=""img/flower6.png"" style=""width:200px; border:14px solid green;"">","null","","","","","","","","",""
"","image-keyboard-response","343","104113","0.0-343.0","3RWE2M8QWIWEZN9IZL6G04LOBKV0NF","ANOPPPGFNTUPN","3TKXBROM5TWR181JXBYSOI8FGFVJIU","","18","img/flower6.png","76","19","3","1","3","2","1,0,0,1,1,0,1,0,1","0,0,1,1,0,1,0,1,1","2",""
"","html-keyboard-response","344","104415","0.0-344.0","3RWE2M8QWIWEZN9IZL6G04LOBKV0NF","ANOPPPGFNTUPN","3TKXBROM5TWR181JXBYSOI8FGFVJIU","","null","<img src=""img/flower6.png"" style=""width:200px; border:14px solid green;"">","null","","","","","","","","",""
"","image-keyboard-response","345","104418","0.0-345.0","3RWE2M8QWIWEZN9IZL6G04LOBKV0NF","ANOPPPGFNTUPN","3TKXBROM5TWR181JXBYSOI8FGFVJIU","","0","img/flower6.png","76","2","3","1","3","2","1,0,0,1,1,0,1,0,1","0,0,1,1,0,1,0,1,1","2",""
"","html-keyboard-response","346","104780","0.0-346.0","3RWE2M8QWIWEZN9IZL6G04LOBKV0NF","ANOPPPGFNTUPN","3TKXBROM5TWR181JXBYSOI8FGFVJIU","","null","<img src=""img/flower6.png"" style=""width:200px; border:14px solid green;"">","null","","","","","","","","",""
"","image-keyboard-response","347","104798","0.0-347.0","3RWE2M8QWIWEZN9IZL6G04LOBKV0NF","ANOPPPGFNTUPN","3TKXBROM5TWR181JXBYSOI8FGFVJIU","","17","img/flower6.png","76","17","3","1","3","2","1,0,0,1,1,0,1,0,1","0,0,1,1,0,1,0,1,1","2",""
"","html-keyboard-response","348","105100","0.0-348.0","3RWE2M8QWIWEZN9IZL6G04LOBKV0NF","ANOPPPGFNTUPN","3TKXBROM5TWR181JXBYSOI8FGFVJIU","","null","<img src=""img/flower6.png"" style=""width:200px; border:14px solid green;"">","null","","","","","","","","",""
"","image-keyboard-response","349","105469","0.0-349.0","3RWE2M8QWIWEZN9IZL6G04LOBKV0NF","ANOPPPGFNTUPN","3TKXBROM5TWR181JXBYSOI8FGFVJIU","","367","img/flower6.png","76","368","3","1","3","2","1,0,0,1,1,0,1,0,1","0,0,1,1,0,1,0,1,1","2",""
"","html-keyboard-response","350","105771","0.0-350.0","3RWE2M8QWIWEZN9IZL6G04LOBKV0NF","ANOPPPGFNTUPN","3TKXBROM5TWR181JXBYSOI8FGFVJIU","","null","<img src=""img/flower6.png"" style=""width:200px; border:14px solid green;"">","null","","","","","","","","",""
"","image-keyboard-response","351","105944","0.0-351.0","3RWE2M8QWIWEZN9IZL6G04LOBKV0NF","ANOPPPGFNTUPN","3TKXBROM5TWR181JXBYSOI8FGFVJIU","","170","img/flower6.png","76","172","3","1","3","2","1,0,0,1,1,0,1,0,1","0,0,1,1,0,1,0,1,1","2",""
"","html-keyboard-response","352","106247","0.0-352.0","3RWE2M8QWIWEZN9IZL6G04LOBKV0NF","ANOPPPGFNTUPN","3TKXBROM5TWR181JXBYSOI8FGFVJIU","","null","<img src=""img/flower6.png"" style=""width:200px; border:14px solid green;"">","null","","","","","","","","",""
"","image-keyboard-response","353","106616","0.0-353.0","3RWE2M8QWIWEZN9IZL6G04LOBKV0NF","ANOPPPGFNTUPN","3TKXBROM5TWR181JXBYSOI8FGFVJIU","","367","img/flower3.png","76","368","3","1","1","2","1,0,0,1,1,0,1,0,1","0,0,1,1,0,1,0,1,1","2",""
"","html-keyboard-response","354","106917","0.0-354.0","3RWE2M8QWIWEZN9IZL6G04LOBKV0NF","ANOPPPGFNTUPN","3TKXBROM5TWR181JXBYSOI8FGFVJIU","","null","<img src=""img/flower3.png"" style=""width:200px; border:14px solid green;"">","null","","","","","","","","",""
"","image-keyboard-response","355","107183","0.0-355.0","3RWE2M8QWIWEZN9IZL6G04LOBKV0NF","ANOPPPGFNTUPN","3TKXBROM5TWR181JXBYSOI8FGFVJIU","","262","img/flower3.png","76","264","3","1","1","2","1,0,0,1,1,0,1,0,1","0,0,1,1,0,1,0,1,1","2",""
"","html-keyboard-response","356","107485","0.0-356.0","3RWE2M8QWIWEZN9IZL6G04LOBKV0NF","ANOPPPGFNTUPN","3TKXBROM5TWR181JXBYSOI8FGFVJIU","","null","<img src=""img/flower3.png"" style=""width:200px; border:14px solid green;"">","null","","","","","","","","",""
"","image-keyboard-response","357","107504","0.0-357.0","3RWE2M8QWIWEZN9IZL6G04LOBKV0NF","ANOPPPGFNTUPN","3TKXBROM5TWR181JXBYSOI8FGFVJIU","","15","img/flower2.png","76","18","3","1","2","2","1,0,0,1,1,0,1,0,1","0,0,1,1,0,1,0,1,1","2",""
"","html-keyboard-response","358","107807","0.0-358.0","3RWE2M8QWIWEZN9IZL6G04LOBKV0NF","ANOPPPGFNTUPN","3TKXBROM5TWR181JXBYSOI8FGFVJIU","","null","<img src=""img/flower2.png"" style=""width:200px; border:14px solid green;"">","null","","","","","","","","",""
"","image-keyboard-response","359","109186","0.0-359.0","3RWE2M8QWIWEZN9IZL6G04LOBKV0NF","ANOPPPGFNTUPN","3TKXBROM5TWR181JXBYSOI8FGFVJIU","","1378","img/flower3.png","76","1380","3","1","1","2","1,0,0,1,1,0,1,0,1","0,0,1,1,0,1,0,1,1","2",""
"","html-keyboard-response","360","109562","0.0-360.0","3RWE2M8QWIWEZN9IZL6G04LOBKV0NF","ANOPPPGFNTUPN","3TKXBROM5TWR181JXBYSOI8FGFVJIU","","null","<img src=""img/flower3.png"" style=""width:200px; border:14px solid green;"">","null","","","","","","","","",""
"","image-keyboard-response","361","109754","0.0-361.0","3RWE2M8QWIWEZN9IZL6G04LOBKV0NF","ANOPPPGFNTUPN","3TKXBROM5TWR181JXBYSOI8FGFVJIU","","188","img/flower2.png","76","192","3","1","2","2","1,0,0,1,1,0,1,0,1","0,0,1,1,0,1,0,1,1","2",""
"","html-keyboard-response","362","110058","0.0-362.0","3RWE2M8QWIWEZN9IZL6G04LOBKV0NF","ANOPPPGFNTUPN","3TKXBROM5TWR181JXBYSOI8FGFVJIU","","null","<img src=""img/flower2.png"" style=""width:200px; border:14px solid green;"">","null","","","","","","","","",""
"","instructions","363","113902","0.0-363.0","3RWE2M8QWIWEZN9IZL6G04LOBKV0NF","ANOPPPGFNTUPN","3TKXBROM5TWR181JXBYSOI8FGFVJIU","[{""page_index"":0,""viewing_time"":3841}]","3842","","","","","","","","","","",""
"","survey-text","364","118815","0.0-364.0","3RWE2M8QWIWEZN9IZL6G04LOBKV0NF","ANOPPPGFNTUPN","3TKXBROM5TWR181JXBYSOI8FGFVJIU","","4895","","","","","","","","","","","{""Q0"":""ANOPPPGFNTUPN""}"
