"rt","url","trial_type","trial_index","time_elapsed","internal_node_id","assignmentID","mturkID","hitID","success","view_history","stimulus","key_press","reactionTime","a","r","s","reward_cond","responses"
"4175.29999999702","consent.html","external-html","0","4267","0.0-0.0","3MRNMEIQW6SIA77RZKEW2J1IW1OLDH","AOAZMLP27GD81","368IUKXGA5U7UZ9GQNUNOB4MGE4P6M","","","","","","","","","",""
"","","fullscreen","1","9099","0.0-1.0","3MRNMEIQW6SIA77RZKEW2J1IW1OLDH","AOAZMLP27GD81","368IUKXGA5U7UZ9GQNUNOB4MGE4P6M","true","","","","","","","","",""
"58599","","instructions","2","67698","0.0-2.0","3MRNMEIQW6SIA77RZKEW2J1IW1OLDH","AOAZMLP27GD81","368IUKXGA5U7UZ9GQNUNOB4MGE4P6M","","[{""page_index"":0,""viewing_time"":10374.39999999851},{""page_index"":1,""viewing_time"":10664.20000000298},{""page_index"":2,""viewing_time"":8671.5},{""page_index"":3,""viewing_time"":6152},{""page_index"":4,""viewing_time"":5200.10000000149},{""page_index"":5,""viewing_time"":13328},{""page_index"":6,""viewing_time"":4208.19999999553}]","","","","","","","",""
"16310.79999999702","","instructions","3","84009","0.0-3.0","3MRNMEIQW6SIA77RZKEW2J1IW1OLDH","AOAZMLP27GD81","368IUKXGA5U7UZ9GQNUNOB4MGE4P6M","","[{""page_index"":0,""viewing_time"":16310.70000000298}]","","","","","","","",""
"1689.7999999970198","","image-keyboard-response","4","85700","0.0-4.0","3MRNMEIQW6SIA77RZKEW2J1IW1OLDH","AOAZMLP27GD81","368IUKXGA5U7UZ9GQNUNOB4MGE4P6M","","","img/flower6.png","76","1690.6000000014901","3","1","3","",""
"null","","html-keyboard-response","5","86001","0.0-5.0","3MRNMEIQW6SIA77RZKEW2J1IW1OLDH","AOAZMLP27GD81","368IUKXGA5U7UZ9GQNUNOB4MGE4P6M","","","<img src=""img/flower6.png"" style=""width:200px; border:14px solid green;"">","null","","","","","",""
"1111.5","","image-keyboard-response","6","87113","0.0-6.0","3MRNMEIQW6SIA77RZKEW2J1IW1OLDH","AOAZMLP27GD81","368IUKXGA5U7UZ9GQNUNOB4MGE4P6M","","","img/flower5.png","75","1111.7999999970198","2","0","2","",""
"null","","html-keyboard-response","7","87414","0.0-7.0","3MRNMEIQW6SIA77RZKEW2J1IW1OLDH","AOAZMLP27GD81","368IUKXGA5U7UZ9GQNUNOB4MGE4P6M","","","<img src=""img/flower5.png"" style=""width:200px;border:14px solid red;"">","null","","","","","",""
"2057","","image-keyboard-response","8","89471","0.0-8.0","3MRNMEIQW6SIA77RZKEW2J1IW1OLDH","AOAZMLP27GD81","368IUKXGA5U7UZ9GQNUNOB4MGE4P6M","","","img/flower5.png","75","2057.3000000044703","2","1","2","",""
"null","","html-keyboard-response","9","89772","0.0-9.0","3MRNMEIQW6SIA77RZKEW2J1IW1OLDH","AOAZMLP27GD81","368IUKXGA5U7UZ9GQNUNOB4MGE4P6M","","","<img src=""img/flower5.png"" style=""width:200px; border:14px solid green;"">","null","","","","","",""
"832.6000000014901","","image-keyboard-response","10","90606","0.0-10.0","3MRNMEIQW6SIA77RZKEW2J1IW1OLDH","AOAZMLP27GD81","368IUKXGA5U7UZ9GQNUNOB4MGE4P6M","","","img/flower4.png","74","833","1","1","1","",""
"null","","html-keyboard-response","11","90907","0.0-11.0","3MRNMEIQW6SIA77RZKEW2J1IW1OLDH","AOAZMLP27GD81","368IUKXGA5U7UZ9GQNUNOB4MGE4P6M","","","<img src=""img/flower4.png"" style=""width:200px; border:14px solid green;"">","null","","","","","",""
"724","","image-keyboard-response","12","91631","0.0-12.0","3MRNMEIQW6SIA77RZKEW2J1IW1OLDH","AOAZMLP27GD81","368IUKXGA5U7UZ9GQNUNOB4MGE4P6M","","","img/flower5.png","75","724.5","2","1","2","",""
"null","","html-keyboard-response","13","91933","0.0-13.0","3MRNMEIQW6SIA77RZKEW2J1IW1OLDH","AOAZMLP27GD81","368IUKXGA5U7UZ9GQNUNOB4MGE4P6M","","","<img src=""img/flower5.png"" style=""width:200px; border:14px solid green;"">","null","","","","","",""
"659.5","","image-keyboard-response","14","92593","0.0-14.0","3MRNMEIQW6SIA77RZKEW2J1IW1OLDH","AOAZMLP27GD81","368IUKXGA5U7UZ9GQNUNOB4MGE4P6M","","","img/flower5.png","75","659.8000000044703","2","1","2","",""
"null","","html-keyboard-response","15","92894","0.0-15.0","3MRNMEIQW6SIA77RZKEW2J1IW1OLDH","AOAZMLP27GD81","368IUKXGA5U7UZ9GQNUNOB4MGE4P6M","","","<img src=""img/flower5.png"" style=""width:200px; border:14px solid green;"">","null","","","","","",""
"611.5","","image-keyboard-response","16","93506","0.0-16.0","3MRNMEIQW6SIA77RZKEW2J1IW1OLDH","AOAZMLP27GD81","368IUKXGA5U7UZ9GQNUNOB4MGE4P6M","","","img/flower6.png","76","611.8999999985099","3","1","3","",""
"null","","html-keyboard-response","17","93807","0.0-17.0","3MRNMEIQW6SIA77RZKEW2J1IW1OLDH","AOAZMLP27GD81","368IUKXGA5U7UZ9GQNUNOB4MGE4P6M","","","<img src=""img/flower6.png"" style=""width:200px; border:14px solid green;"">","null","","","","","",""
"733.4000000059605","","image-keyboard-response","18","94541","0.0-18.0","3MRNMEIQW6SIA77RZKEW2J1IW1OLDH","AOAZMLP27GD81","368IUKXGA5U7UZ9GQNUNOB4MGE4P6M","","","img/flower5.png","75","733.8999999985099","2","1","2","",""
"null","","html-keyboard-response","19","94843","0.0-19.0","3MRNMEIQW6SIA77RZKEW2J1IW1OLDH","AOAZMLP27GD81","368IUKXGA5U7UZ9GQNUNOB4MGE4P6M","","","<img src=""img/flower5.png"" style=""width:200px; border:14px solid green;"">","null","","","","","",""
"506","","image-keyboard-response","20","95349","0.0-20.0","3MRNMEIQW6SIA77RZKEW2J1IW1OLDH","AOAZMLP27GD81","368IUKXGA5U7UZ9GQNUNOB4MGE4P6M","","","img/flower5.png","75","506.29999999701977","2","0","2","",""
"null","","html-keyboard-response","21","95650","0.0-21.0","3MRNMEIQW6SIA77RZKEW2J1IW1OLDH","AOAZMLP27GD81","368IUKXGA5U7UZ9GQNUNOB4MGE4P6M","","","<img src=""img/flower5.png"" style=""width:200px;border:14px solid red;"">","null","","","","","",""
"822.2000000029802","","image-keyboard-response","22","96473","0.0-22.0","3MRNMEIQW6SIA77RZKEW2J1IW1OLDH","AOAZMLP27GD81","368IUKXGA5U7UZ9GQNUNOB4MGE4P6M","","","img/flower4.png","74","822.6000000014901","1","1","1","",""
"null","","html-keyboard-response","23","96775","0.0-23.0","3MRNMEIQW6SIA77RZKEW2J1IW1OLDH","AOAZMLP27GD81","368IUKXGA5U7UZ9GQNUNOB4MGE4P6M","","","<img src=""img/flower4.png"" style=""width:200px; border:14px solid green;"">","null","","","","","",""
"555.5999999940395","","image-keyboard-response","24","97331","0.0-24.0","3MRNMEIQW6SIA77RZKEW2J1IW1OLDH","AOAZMLP27GD81","368IUKXGA5U7UZ9GQNUNOB4MGE4P6M","","","img/flower4.png","74","556.2000000029802","1","1","1","",""
"null","","html-keyboard-response","25","97633","0.0-25.0","3MRNMEIQW6SIA77RZKEW2J1IW1OLDH","AOAZMLP27GD81","368IUKXGA5U7UZ9GQNUNOB4MGE4P6M","","","<img src=""img/flower4.png"" style=""width:200px; border:14px solid green;"">","null","","","","","",""
"475.79999999701977","","image-keyboard-response","26","98109","0.0-26.0","3MRNMEIQW6SIA77RZKEW2J1IW1OLDH","AOAZMLP27GD81","368IUKXGA5U7UZ9GQNUNOB4MGE4P6M","","","img/flower4.png","74","476.20000000298023","1","1","1","",""
"null","","html-keyboard-response","27","98410","0.0-27.0","3MRNMEIQW6SIA77RZKEW2J1IW1OLDH","AOAZMLP27GD81","368IUKXGA5U7UZ9GQNUNOB4MGE4P6M","","","<img src=""img/flower4.png"" style=""width:200px; border:14px solid green;"">","null","","","","","",""
"607.8000000044703","","image-keyboard-response","28","99018","0.0-28.0","3MRNMEIQW6SIA77RZKEW2J1IW1OLDH","AOAZMLP27GD81","368IUKXGA5U7UZ9GQNUNOB4MGE4P6M","","","img/flower5.png","75","608.1000000014901","2","1","2","",""
"null","","html-keyboard-response","29","99319","0.0-29.0","3MRNMEIQW6SIA77RZKEW2J1IW1OLDH","AOAZMLP27GD81","368IUKXGA5U7UZ9GQNUNOB4MGE4P6M","","","<img src=""img/flower5.png"" style=""width:200px; border:14px solid green;"">","null","","","","","",""
"487.6000000014901","","image-keyboard-response","30","99807","0.0-30.0","3MRNMEIQW6SIA77RZKEW2J1IW1OLDH","AOAZMLP27GD81","368IUKXGA5U7UZ9GQNUNOB4MGE4P6M","","","img/flower5.png","75","488","2","1","2","",""
"null","","html-keyboard-response","31","100109","0.0-31.0","3MRNMEIQW6SIA77RZKEW2J1IW1OLDH","AOAZMLP27GD81","368IUKXGA5U7UZ9GQNUNOB4MGE4P6M","","","<img src=""img/flower5.png"" style=""width:200px; border:14px solid green;"">","null","","","","","",""
"762.2000000029802","","image-keyboard-response","32","100872","0.0-32.0","3MRNMEIQW6SIA77RZKEW2J1IW1OLDH","AOAZMLP27GD81","368IUKXGA5U7UZ9GQNUNOB4MGE4P6M","","","img/flower4.png","74","762.5","1","1","1","",""
"null","","html-keyboard-response","33","101173","0.0-33.0","3MRNMEIQW6SIA77RZKEW2J1IW1OLDH","AOAZMLP27GD81","368IUKXGA5U7UZ9GQNUNOB4MGE4P6M","","","<img src=""img/flower4.png"" style=""width:200px; border:14px solid green;"">","null","","","","","",""
"466.79999999701977","","image-keyboard-response","34","101640","0.0-34.0","3MRNMEIQW6SIA77RZKEW2J1IW1OLDH","AOAZMLP27GD81","368IUKXGA5U7UZ9GQNUNOB4MGE4P6M","","","img/flower4.png","74","467.1000000014901","1","1","1","",""
"null","","html-keyboard-response","35","101941","0.0-35.0","3MRNMEIQW6SIA77RZKEW2J1IW1OLDH","AOAZMLP27GD81","368IUKXGA5U7UZ9GQNUNOB4MGE4P6M","","","<img src=""img/flower4.png"" style=""width:200px; border:14px solid green;"">","null","","","","","",""
"380.6000000014901","","image-keyboard-response","36","102322","0.0-36.0","3MRNMEIQW6SIA77RZKEW2J1IW1OLDH","AOAZMLP27GD81","368IUKXGA5U7UZ9GQNUNOB4MGE4P6M","","","img/flower4.png","74","380.8999999985099","1","1","1","",""
"null","","html-keyboard-response","37","102624","0.0-37.0","3MRNMEIQW6SIA77RZKEW2J1IW1OLDH","AOAZMLP27GD81","368IUKXGA5U7UZ9GQNUNOB4MGE4P6M","","","<img src=""img/flower4.png"" style=""width:200px; border:14px solid green;"">","null","","","","","",""
"538.0999999940395","","image-keyboard-response","38","103162","0.0-38.0","3MRNMEIQW6SIA77RZKEW2J1IW1OLDH","AOAZMLP27GD81","368IUKXGA5U7UZ9GQNUNOB4MGE4P6M","","","img/flower5.png","75","538.5","2","1","2","",""
"null","","html-keyboard-response","39","103463","0.0-39.0","3MRNMEIQW6SIA77RZKEW2J1IW1OLDH","AOAZMLP27GD81","368IUKXGA5U7UZ9GQNUNOB4MGE4P6M","","","<img src=""img/flower5.png"" style=""width:200px; border:14px solid green;"">","null","","","","","",""
"585.2999999970198","","image-keyboard-response","40","104049","0.0-40.0","3MRNMEIQW6SIA77RZKEW2J1IW1OLDH","AOAZMLP27GD81","368IUKXGA5U7UZ9GQNUNOB4MGE4P6M","","","img/flower6.png","76","585.7000000029802","3","0","3","",""
"null","","html-keyboard-response","41","104350","0.0-41.0","3MRNMEIQW6SIA77RZKEW2J1IW1OLDH","AOAZMLP27GD81","368IUKXGA5U7UZ9GQNUNOB4MGE4P6M","","","<img src=""img/flower6.png"" style=""width:200px;border:14px solid red;"">","null","","","","","",""
"555","","image-keyboard-response","42","104906","0.0-42.0","3MRNMEIQW6SIA77RZKEW2J1IW1OLDH","AOAZMLP27GD81","368IUKXGA5U7UZ9GQNUNOB4MGE4P6M","","","img/flower6.png","76","555.3999999985099","3","1","3","",""
"null","","html-keyboard-response","43","105206","0.0-43.0","3MRNMEIQW6SIA77RZKEW2J1IW1OLDH","AOAZMLP27GD81","368IUKXGA5U7UZ9GQNUNOB4MGE4P6M","","","<img src=""img/flower6.png"" style=""width:200px; border:14px solid green;"">","null","","","","","",""
"512.2000000029802","","image-keyboard-response","44","105719","0.0-44.0","3MRNMEIQW6SIA77RZKEW2J1IW1OLDH","AOAZMLP27GD81","368IUKXGA5U7UZ9GQNUNOB4MGE4P6M","","","img/flower6.png","76","512.6000000014901","3","0","3","",""
"null","","html-keyboard-response","45","106021","0.0-45.0","3MRNMEIQW6SIA77RZKEW2J1IW1OLDH","AOAZMLP27GD81","368IUKXGA5U7UZ9GQNUNOB4MGE4P6M","","","<img src=""img/flower6.png"" style=""width:200px;border:14px solid red;"">","null","","","","","",""
"494.20000000298023","","image-keyboard-response","46","106516","0.0-46.0","3MRNMEIQW6SIA77RZKEW2J1IW1OLDH","AOAZMLP27GD81","368IUKXGA5U7UZ9GQNUNOB4MGE4P6M","","","img/flower6.png","76","494.79999999701977","3","0","3","",""
"null","","html-keyboard-response","47","106818","0.0-47.0","3MRNMEIQW6SIA77RZKEW2J1IW1OLDH","AOAZMLP27GD81","368IUKXGA5U7UZ9GQNUNOB4MGE4P6M","","","<img src=""img/flower6.png"" style=""width:200px;border:14px solid red;"">","null","","","","","",""
"731.1000000014901","","image-keyboard-response","48","107549","0.0-48.0","3MRNMEIQW6SIA77RZKEW2J1IW1OLDH","AOAZMLP27GD81","368IUKXGA5U7UZ9GQNUNOB4MGE4P6M","","","img/flower5.png","75","731.3999999985099","2","1","2","",""
"null","","html-keyboard-response","49","107850","0.0-49.0","3MRNMEIQW6SIA77RZKEW2J1IW1OLDH","AOAZMLP27GD81","368IUKXGA5U7UZ9GQNUNOB4MGE4P6M","","","<img src=""img/flower5.png"" style=""width:200px; border:14px solid green;"">","null","","","","","",""
"670.5","","image-keyboard-response","50","108521","0.0-50.0","3MRNMEIQW6SIA77RZKEW2J1IW1OLDH","AOAZMLP27GD81","368IUKXGA5U7UZ9GQNUNOB4MGE4P6M","","","img/flower6.png","76","671","3","1","3","",""
"null","","html-keyboard-response","51","108822","0.0-51.0","3MRNMEIQW6SIA77RZKEW2J1IW1OLDH","AOAZMLP27GD81","368IUKXGA5U7UZ9GQNUNOB4MGE4P6M","","","<img src=""img/flower6.png"" style=""width:200px; border:14px solid green;"">","null","","","","","",""
"469","","image-keyboard-response","52","109291","0.0-52.0","3MRNMEIQW6SIA77RZKEW2J1IW1OLDH","AOAZMLP27GD81","368IUKXGA5U7UZ9GQNUNOB4MGE4P6M","","","img/flower6.png","76","469.3999999985099","3","0","3","",""
"null","","html-keyboard-response","53","109593","0.0-53.0","3MRNMEIQW6SIA77RZKEW2J1IW1OLDH","AOAZMLP27GD81","368IUKXGA5U7UZ9GQNUNOB4MGE4P6M","","","<img src=""img/flower6.png"" style=""width:200px;border:14px solid red;"">","null","","","","","",""
"610","","image-keyboard-response","54","110203","0.0-54.0","3MRNMEIQW6SIA77RZKEW2J1IW1OLDH","AOAZMLP27GD81","368IUKXGA5U7UZ9GQNUNOB4MGE4P6M","","","img/flower4.png","74","610.2999999970198","1","1","1","",""
"null","","html-keyboard-response","55","110504","0.0-55.0","3MRNMEIQW6SIA77RZKEW2J1IW1OLDH","AOAZMLP27GD81","368IUKXGA5U7UZ9GQNUNOB4MGE4P6M","","","<img src=""img/flower4.png"" style=""width:200px; border:14px solid green;"">","null","","","","","",""
"415.70000000298023","","image-keyboard-response","56","110921","0.0-56.0","3MRNMEIQW6SIA77RZKEW2J1IW1OLDH","AOAZMLP27GD81","368IUKXGA5U7UZ9GQNUNOB4MGE4P6M","","","img/flower4.png","74","416.19999999552965","1","1","1","",""
"null","","html-keyboard-response","57","111223","0.0-57.0","3MRNMEIQW6SIA77RZKEW2J1IW1OLDH","AOAZMLP27GD81","368IUKXGA5U7UZ9GQNUNOB4MGE4P6M","","","<img src=""img/flower4.png"" style=""width:200px; border:14px solid green;"">","null","","","","","",""
"484","","image-keyboard-response","58","111707","0.0-58.0","3MRNMEIQW6SIA77RZKEW2J1IW1OLDH","AOAZMLP27GD81","368IUKXGA5U7UZ9GQNUNOB4MGE4P6M","","","img/flower4.png","74","484.20000000298023","1","1","1","",""
"null","","html-keyboard-response","59","112009","0.0-59.0","3MRNMEIQW6SIA77RZKEW2J1IW1OLDH","AOAZMLP27GD81","368IUKXGA5U7UZ9GQNUNOB4MGE4P6M","","","<img src=""img/flower4.png"" style=""width:200px; border:14px solid green;"">","null","","","","","",""
"645","","image-keyboard-response","60","112654","0.0-60.0","3MRNMEIQW6SIA77RZKEW2J1IW1OLDH","AOAZMLP27GD81","368IUKXGA5U7UZ9GQNUNOB4MGE4P6M","","","img/flower6.png","76","645.5","3","1","3","",""
"null","","html-keyboard-response","61","112956","0.0-61.0","3MRNMEIQW6SIA77RZKEW2J1IW1OLDH","AOAZMLP27GD81","368IUKXGA5U7UZ9GQNUNOB4MGE4P6M","","","<img src=""img/flower6.png"" style=""width:200px; border:14px solid green;"">","null","","","","","",""
"535.6000000014901","","image-keyboard-response","62","113492","0.0-62.0","3MRNMEIQW6SIA77RZKEW2J1IW1OLDH","AOAZMLP27GD81","368IUKXGA5U7UZ9GQNUNOB4MGE4P6M","","","img/flower6.png","76","536","3","0","3","",""
"null","","html-keyboard-response","63","113793","0.0-63.0","3MRNMEIQW6SIA77RZKEW2J1IW1OLDH","AOAZMLP27GD81","368IUKXGA5U7UZ9GQNUNOB4MGE4P6M","","","<img src=""img/flower6.png"" style=""width:200px;border:14px solid red;"">","null","","","","","",""
"13679.79999999702","","instructions","64","127473","0.0-64.0","3MRNMEIQW6SIA77RZKEW2J1IW1OLDH","AOAZMLP27GD81","368IUKXGA5U7UZ9GQNUNOB4MGE4P6M","","[{""page_index"":0,""viewing_time"":4535.39999999851},{""page_index"":1,""viewing_time"":9144.29999999702}]","","","","","","","",""
"2244.2999999970198","","image-keyboard-response","65","129718","0.0-65.0","3MRNMEIQW6SIA77RZKEW2J1IW1OLDH","AOAZMLP27GD81","368IUKXGA5U7UZ9GQNUNOB4MGE4P6M","","","img/flower5.png","75","2244.7000000029802","2","1","2","",""
"null","","html-keyboard-response","66","130020","0.0-66.0","3MRNMEIQW6SIA77RZKEW2J1IW1OLDH","AOAZMLP27GD81","368IUKXGA5U7UZ9GQNUNOB4MGE4P6M","","","<img src=""img/flower5.png"" style=""width:200px; border:14px solid green;"">","null","","","","","",""
"1014.6000000014901","","image-keyboard-response","67","131035","0.0-67.0","3MRNMEIQW6SIA77RZKEW2J1IW1OLDH","AOAZMLP27GD81","368IUKXGA5U7UZ9GQNUNOB4MGE4P6M","","","img/flower4.png","75","1014.7999999970198","2","1","1","",""
"null","","html-keyboard-response","68","131336","0.0-68.0","3MRNMEIQW6SIA77RZKEW2J1IW1OLDH","AOAZMLP27GD81","368IUKXGA5U7UZ9GQNUNOB4MGE4P6M","","","<img src=""img/flower4.png"" style=""width:200px; border:14px solid green;"">","null","","","","","",""
"1425","","image-keyboard-response","69","132762","0.0-69.0","3MRNMEIQW6SIA77RZKEW2J1IW1OLDH","AOAZMLP27GD81","368IUKXGA5U7UZ9GQNUNOB4MGE4P6M","","","img/flower6.png","76","1425.2999999970198","3","0","3","",""
"null","","html-keyboard-response","70","133063","0.0-70.0","3MRNMEIQW6SIA77RZKEW2J1IW1OLDH","AOAZMLP27GD81","368IUKXGA5U7UZ9GQNUNOB4MGE4P6M","","","<img src=""img/flower6.png"" style=""width:200px;border:14px solid red;"">","null","","","","","",""
"1850.5","","image-keyboard-response","71","134914","0.0-71.0","3MRNMEIQW6SIA77RZKEW2J1IW1OLDH","AOAZMLP27GD81","368IUKXGA5U7UZ9GQNUNOB4MGE4P6M","","","img/flower5.png","75","1850.8999999985099","2","1","2","",""
"null","","html-keyboard-response","72","135215","0.0-72.0","3MRNMEIQW6SIA77RZKEW2J1IW1OLDH","AOAZMLP27GD81","368IUKXGA5U7UZ9GQNUNOB4MGE4P6M","","","<img src=""img/flower5.png"" style=""width:200px; border:14px solid green;"">","null","","","","","",""
"1099.7000000029802","","image-keyboard-response","73","136315","0.0-73.0","3MRNMEIQW6SIA77RZKEW2J1IW1OLDH","AOAZMLP27GD81","368IUKXGA5U7UZ9GQNUNOB4MGE4P6M","","","img/flower6.png","76","1100.1000000014901","3","0","3","",""
"null","","html-keyboard-response","74","136617","0.0-74.0","3MRNMEIQW6SIA77RZKEW2J1IW1OLDH","AOAZMLP27GD81","368IUKXGA5U7UZ9GQNUNOB4MGE4P6M","","","<img src=""img/flower6.png"" style=""width:200px;border:14px solid red;"">","null","","","","","",""
"796.1000000014901","","image-keyboard-response","75","137414","0.0-75.0","3MRNMEIQW6SIA77RZKEW2J1IW1OLDH","AOAZMLP27GD81","368IUKXGA5U7UZ9GQNUNOB4MGE4P6M","","","img/flower4.png","74","796.3999999985099","1","1","1","",""
"null","","html-keyboard-response","76","137715","0.0-76.0","3MRNMEIQW6SIA77RZKEW2J1IW1OLDH","AOAZMLP27GD81","368IUKXGA5U7UZ9GQNUNOB4MGE4P6M","","","<img src=""img/flower4.png"" style=""width:200px; border:14px solid green;"">","null","","","","","",""
"919.8000000044703","","image-keyboard-response","77","138635","0.0-77.0","3MRNMEIQW6SIA77RZKEW2J1IW1OLDH","AOAZMLP27GD81","368IUKXGA5U7UZ9GQNUNOB4MGE4P6M","","","img/flower6.png","76","920.1000000014901","3","1","3","",""
"null","","html-keyboard-response","78","138937","0.0-78.0","3MRNMEIQW6SIA77RZKEW2J1IW1OLDH","AOAZMLP27GD81","368IUKXGA5U7UZ9GQNUNOB4MGE4P6M","","","<img src=""img/flower6.png"" style=""width:200px; border:14px solid green;"">","null","","","","","",""
"655.3999999985099","","image-keyboard-response","79","139593","0.0-79.0","3MRNMEIQW6SIA77RZKEW2J1IW1OLDH","AOAZMLP27GD81","368IUKXGA5U7UZ9GQNUNOB4MGE4P6M","","","img/flower5.png","75","655.7999999970198","2","1","2","",""
"null","","html-keyboard-response","80","139894","0.0-80.0","3MRNMEIQW6SIA77RZKEW2J1IW1OLDH","AOAZMLP27GD81","368IUKXGA5U7UZ9GQNUNOB4MGE4P6M","","","<img src=""img/flower5.png"" style=""width:200px; border:14px solid green;"">","null","","","","","",""
"588.5","","image-keyboard-response","81","140483","0.0-81.0","3MRNMEIQW6SIA77RZKEW2J1IW1OLDH","AOAZMLP27GD81","368IUKXGA5U7UZ9GQNUNOB4MGE4P6M","","","img/flower4.png","74","588.7999999970198","1","1","1","",""
"null","","html-keyboard-response","82","140785","0.0-82.0","3MRNMEIQW6SIA77RZKEW2J1IW1OLDH","AOAZMLP27GD81","368IUKXGA5U7UZ9GQNUNOB4MGE4P6M","","","<img src=""img/flower4.png"" style=""width:200px; border:14px solid green;"">","null","","","","","",""
"666.7000000029802","","image-keyboard-response","83","141452","0.0-83.0","3MRNMEIQW6SIA77RZKEW2J1IW1OLDH","AOAZMLP27GD81","368IUKXGA5U7UZ9GQNUNOB4MGE4P6M","","","img/flower6.png","76","667.0999999940395","3","1","3","",""
"null","","html-keyboard-response","84","141753","0.0-84.0","3MRNMEIQW6SIA77RZKEW2J1IW1OLDH","AOAZMLP27GD81","368IUKXGA5U7UZ9GQNUNOB4MGE4P6M","","","<img src=""img/flower6.png"" style=""width:200px; border:14px solid green;"">","null","","","","","",""
"634.6999999955297","","image-keyboard-response","85","142388","0.0-85.0","3MRNMEIQW6SIA77RZKEW2J1IW1OLDH","AOAZMLP27GD81","368IUKXGA5U7UZ9GQNUNOB4MGE4P6M","","","img/flower4.png","74","635.1000000014901","1","1","1","",""
"null","","html-keyboard-response","86","142690","0.0-86.0","3MRNMEIQW6SIA77RZKEW2J1IW1OLDH","AOAZMLP27GD81","368IUKXGA5U7UZ9GQNUNOB4MGE4P6M","","","<img src=""img/flower4.png"" style=""width:200px; border:14px solid green;"">","null","","","","","",""
"671","","image-keyboard-response","87","143362","0.0-87.0","3MRNMEIQW6SIA77RZKEW2J1IW1OLDH","AOAZMLP27GD81","368IUKXGA5U7UZ9GQNUNOB4MGE4P6M","","","img/flower5.png","75","671.3999999985099","2","1","2","",""
"null","","html-keyboard-response","88","143663","0.0-88.0","3MRNMEIQW6SIA77RZKEW2J1IW1OLDH","AOAZMLP27GD81","368IUKXGA5U7UZ9GQNUNOB4MGE4P6M","","","<img src=""img/flower5.png"" style=""width:200px; border:14px solid green;"">","null","","","","","",""
"650.2999999970198","","image-keyboard-response","89","144314","0.0-89.0","3MRNMEIQW6SIA77RZKEW2J1IW1OLDH","AOAZMLP27GD81","368IUKXGA5U7UZ9GQNUNOB4MGE4P6M","","","img/flower6.png","76","650.6000000014901","3","1","3","",""
"null","","html-keyboard-response","90","144615","0.0-90.0","3MRNMEIQW6SIA77RZKEW2J1IW1OLDH","AOAZMLP27GD81","368IUKXGA5U7UZ9GQNUNOB4MGE4P6M","","","<img src=""img/flower6.png"" style=""width:200px; border:14px solid green;"">","null","","","","","",""
"787.7000000029802","","image-keyboard-response","91","145404","0.0-91.0","3MRNMEIQW6SIA77RZKEW2J1IW1OLDH","AOAZMLP27GD81","368IUKXGA5U7UZ9GQNUNOB4MGE4P6M","","","img/flower6.png","76","788","3","1","3","",""
"null","","html-keyboard-response","92","145705","0.0-92.0","3MRNMEIQW6SIA77RZKEW2J1IW1OLDH","AOAZMLP27GD81","368IUKXGA5U7UZ9GQNUNOB4MGE4P6M","","","<img src=""img/flower6.png"" style=""width:200px; border:14px solid green;"">","null","","","","","",""
"637.3999999985099","","image-keyboard-response","93","146343","0.0-93.0","3MRNMEIQW6SIA77RZKEW2J1IW1OLDH","AOAZMLP27GD81","368IUKXGA5U7UZ9GQNUNOB4MGE4P6M","","","img/flower5.png","75","637.8999999985099","2","0","2","",""
"null","","html-keyboard-response","94","146643","0.0-94.0","3MRNMEIQW6SIA77RZKEW2J1IW1OLDH","AOAZMLP27GD81","368IUKXGA5U7UZ9GQNUNOB4MGE4P6M","","","<img src=""img/flower5.png"" style=""width:200px;border:14px solid red;"">","null","","","","","",""
"677.5","","image-keyboard-response","95","147321","0.0-95.0","3MRNMEIQW6SIA77RZKEW2J1IW1OLDH","AOAZMLP27GD81","368IUKXGA5U7UZ9GQNUNOB4MGE4P6M","","","img/flower4.png","74","678","1","1","1","",""
"null","","html-keyboard-response","96","147623","0.0-96.0","3MRNMEIQW6SIA77RZKEW2J1IW1OLDH","AOAZMLP27GD81","368IUKXGA5U7UZ9GQNUNOB4MGE4P6M","","","<img src=""img/flower4.png"" style=""width:200px; border:14px solid green;"">","null","","","","","",""
"683.2999999970198","","image-keyboard-response","97","148307","0.0-97.0","3MRNMEIQW6SIA77RZKEW2J1IW1OLDH","AOAZMLP27GD81","368IUKXGA5U7UZ9GQNUNOB4MGE4P6M","","","img/flower6.png","76","683.6999999955297","3","1","3","",""
"null","","html-keyboard-response","98","148608","0.0-98.0","3MRNMEIQW6SIA77RZKEW2J1IW1OLDH","AOAZMLP27GD81","368IUKXGA5U7UZ9GQNUNOB4MGE4P6M","","","<img src=""img/flower6.png"" style=""width:200px; border:14px solid green;"">","null","","","","","",""
"530.8999999985099","","image-keyboard-response","99","149140","0.0-99.0","3MRNMEIQW6SIA77RZKEW2J1IW1OLDH","AOAZMLP27GD81","368IUKXGA5U7UZ9GQNUNOB4MGE4P6M","","","img/flower6.png","76","531.5","3","1","3","",""
"null","","html-keyboard-response","100","149441","0.0-100.0","3MRNMEIQW6SIA77RZKEW2J1IW1OLDH","AOAZMLP27GD81","368IUKXGA5U7UZ9GQNUNOB4MGE4P6M","","","<img src=""img/flower6.png"" style=""width:200px; border:14px solid green;"">","null","","","","","",""
"1301.8999999985099","","image-keyboard-response","101","150744","0.0-101.0","3MRNMEIQW6SIA77RZKEW2J1IW1OLDH","AOAZMLP27GD81","368IUKXGA5U7UZ9GQNUNOB4MGE4P6M","","","img/flower5.png","75","1302.3000000044703","2","1","2","",""
"null","","html-keyboard-response","102","151045","0.0-102.0","3MRNMEIQW6SIA77RZKEW2J1IW1OLDH","AOAZMLP27GD81","368IUKXGA5U7UZ9GQNUNOB4MGE4P6M","","","<img src=""img/flower5.png"" style=""width:200px; border:14px solid green;"">","null","","","","","",""
"508","","image-keyboard-response","103","151554","0.0-103.0","3MRNMEIQW6SIA77RZKEW2J1IW1OLDH","AOAZMLP27GD81","368IUKXGA5U7UZ9GQNUNOB4MGE4P6M","","","img/flower5.png","75","508.5","2","0","2","",""
"null","","html-keyboard-response","104","151856","0.0-104.0","3MRNMEIQW6SIA77RZKEW2J1IW1OLDH","AOAZMLP27GD81","368IUKXGA5U7UZ9GQNUNOB4MGE4P6M","","","<img src=""img/flower5.png"" style=""width:200px;border:14px solid red;"">","null","","","","","",""
"861.3999999985099","","image-keyboard-response","105","152718","0.0-105.0","3MRNMEIQW6SIA77RZKEW2J1IW1OLDH","AOAZMLP27GD81","368IUKXGA5U7UZ9GQNUNOB4MGE4P6M","","","img/flower6.png","76","861.8999999985099","3","1","3","",""
"null","","html-keyboard-response","106","153019","0.0-106.0","3MRNMEIQW6SIA77RZKEW2J1IW1OLDH","AOAZMLP27GD81","368IUKXGA5U7UZ9GQNUNOB4MGE4P6M","","","<img src=""img/flower6.png"" style=""width:200px; border:14px solid green;"">","null","","","","","",""
"642.4000000059605","","image-keyboard-response","107","153662","0.0-107.0","3MRNMEIQW6SIA77RZKEW2J1IW1OLDH","AOAZMLP27GD81","368IUKXGA5U7UZ9GQNUNOB4MGE4P6M","","","img/flower4.png","74","643","1","1","1","",""
"null","","html-keyboard-response","108","153963","0.0-108.0","3MRNMEIQW6SIA77RZKEW2J1IW1OLDH","AOAZMLP27GD81","368IUKXGA5U7UZ9GQNUNOB4MGE4P6M","","","<img src=""img/flower4.png"" style=""width:200px; border:14px solid green;"">","null","","","","","",""
"838.8000000044703","","image-keyboard-response","109","154802","0.0-109.0","3MRNMEIQW6SIA77RZKEW2J1IW1OLDH","AOAZMLP27GD81","368IUKXGA5U7UZ9GQNUNOB4MGE4P6M","","","img/flower6.png","76","839.1999999955297","3","1","3","",""
"null","","html-keyboard-response","110","155104","0.0-110.0","3MRNMEIQW6SIA77RZKEW2J1IW1OLDH","AOAZMLP27GD81","368IUKXGA5U7UZ9GQNUNOB4MGE4P6M","","","<img src=""img/flower6.png"" style=""width:200px; border:14px solid green;"">","null","","","","","",""
"732.5","","image-keyboard-response","111","155837","0.0-111.0","3MRNMEIQW6SIA77RZKEW2J1IW1OLDH","AOAZMLP27GD81","368IUKXGA5U7UZ9GQNUNOB4MGE4P6M","","","img/flower5.png","75","732.8999999985099","2","1","2","",""
"null","","html-keyboard-response","112","156138","0.0-112.0","3MRNMEIQW6SIA77RZKEW2J1IW1OLDH","AOAZMLP27GD81","368IUKXGA5U7UZ9GQNUNOB4MGE4P6M","","","<img src=""img/flower5.png"" style=""width:200px; border:14px solid green;"">","null","","","","","",""
"501.20000000298023","","image-keyboard-response","113","156639","0.0-113.0","3MRNMEIQW6SIA77RZKEW2J1IW1OLDH","AOAZMLP27GD81","368IUKXGA5U7UZ9GQNUNOB4MGE4P6M","","","img/flower5.png","75","501.70000000298023","2","1","2","",""
"null","","html-keyboard-response","114","156941","0.0-114.0","3MRNMEIQW6SIA77RZKEW2J1IW1OLDH","AOAZMLP27GD81","368IUKXGA5U7UZ9GQNUNOB4MGE4P6M","","","<img src=""img/flower5.png"" style=""width:200px; border:14px solid green;"">","null","","","","","",""
"571.9000000059605","","image-keyboard-response","115","157514","0.0-115.0","3MRNMEIQW6SIA77RZKEW2J1IW1OLDH","AOAZMLP27GD81","368IUKXGA5U7UZ9GQNUNOB4MGE4P6M","","","img/flower4.png","74","572.2999999970198","1","1","1","",""
"null","","html-keyboard-response","116","157815","0.0-116.0","3MRNMEIQW6SIA77RZKEW2J1IW1OLDH","AOAZMLP27GD81","368IUKXGA5U7UZ9GQNUNOB4MGE4P6M","","","<img src=""img/flower4.png"" style=""width:200px; border:14px solid green;"">","null","","","","","",""
"697.0999999940395","","image-keyboard-response","117","158513","0.0-117.0","3MRNMEIQW6SIA77RZKEW2J1IW1OLDH","AOAZMLP27GD81","368IUKXGA5U7UZ9GQNUNOB4MGE4P6M","","","img/flower5.png","75","697.5","2","0","2","",""
"null","","html-keyboard-response","118","158815","0.0-118.0","3MRNMEIQW6SIA77RZKEW2J1IW1OLDH","AOAZMLP27GD81","368IUKXGA5U7UZ9GQNUNOB4MGE4P6M","","","<img src=""img/flower5.png"" style=""width:200px;border:14px solid red;"">","null","","","","","",""
"696.3000000044703","","image-keyboard-response","119","159512","0.0-119.0","3MRNMEIQW6SIA77RZKEW2J1IW1OLDH","AOAZMLP27GD81","368IUKXGA5U7UZ9GQNUNOB4MGE4P6M","","","img/flower4.png","74","696.6999999955297","1","1","1","",""
"null","","html-keyboard-response","120","159812","0.0-120.0","3MRNMEIQW6SIA77RZKEW2J1IW1OLDH","AOAZMLP27GD81","368IUKXGA5U7UZ9GQNUNOB4MGE4P6M","","","<img src=""img/flower4.png"" style=""width:200px; border:14px solid green;"">","null","","","","","",""
"398.80000000447035","","image-keyboard-response","121","160211","0.0-121.0","3MRNMEIQW6SIA77RZKEW2J1IW1OLDH","AOAZMLP27GD81","368IUKXGA5U7UZ9GQNUNOB4MGE4P6M","","","img/flower4.png","74","399.1000000014901","1","1","1","",""
"null","","html-keyboard-response","122","160513","0.0-122.0","3MRNMEIQW6SIA77RZKEW2J1IW1OLDH","AOAZMLP27GD81","368IUKXGA5U7UZ9GQNUNOB4MGE4P6M","","","<img src=""img/flower4.png"" style=""width:200px; border:14px solid green;"">","null","","","","","",""
"334.5","","image-keyboard-response","123","160848","0.0-123.0","3MRNMEIQW6SIA77RZKEW2J1IW1OLDH","AOAZMLP27GD81","368IUKXGA5U7UZ9GQNUNOB4MGE4P6M","","","img/flower4.png","74","334.69999999552965","1","0","1","",""
"null","","html-keyboard-response","124","161149","0.0-124.0","3MRNMEIQW6SIA77RZKEW2J1IW1OLDH","AOAZMLP27GD81","368IUKXGA5U7UZ9GQNUNOB4MGE4P6M","","","<img src=""img/flower4.png"" style=""width:200px;border:14px solid red;"">","null","","","","","",""
"3611","","instructions","125","164761","0.0-125.0","3MRNMEIQW6SIA77RZKEW2J1IW1OLDH","AOAZMLP27GD81","368IUKXGA5U7UZ9GQNUNOB4MGE4P6M","","[{""page_index"":0,""viewing_time"":3610.89999999851}]","","","","","","","",""
"1577.7000000029802","","image-keyboard-response","126","166339","0.0-126.0","3MRNMEIQW6SIA77RZKEW2J1IW1OLDH","AOAZMLP27GD81","368IUKXGA5U7UZ9GQNUNOB4MGE4P6M","","","img/flower5.png","75","1578.1000000014901","2","1","2","0.8,0.8,0.2,0.2,0.8,0.8,0.8,0.2,0.8",""
"null","","html-keyboard-response","127","166640","0.0-127.0","3MRNMEIQW6SIA77RZKEW2J1IW1OLDH","AOAZMLP27GD81","368IUKXGA5U7UZ9GQNUNOB4MGE4P6M","","","<img src=""img/flower5.png"" style=""width:200px; border:14px solid green;"">","null","","","","","",""
"1115.1999999955297","","image-keyboard-response","128","167756","0.0-128.0","3MRNMEIQW6SIA77RZKEW2J1IW1OLDH","AOAZMLP27GD81","368IUKXGA5U7UZ9GQNUNOB4MGE4P6M","","","img/flower3.png","74","1115.6999999955297","1","0","1","0.8,0.8,0.2,0.2,0.8,0.8,0.8,0.2,0.8",""
"null","","html-keyboard-response","129","168058","0.0-129.0","3MRNMEIQW6SIA77RZKEW2J1IW1OLDH","AOAZMLP27GD81","368IUKXGA5U7UZ9GQNUNOB4MGE4P6M","","","<img src=""img/flower3.png"" style=""width:200px;border:14px solid red;"">","null","","","","","",""
"1293.3000000044703","","image-keyboard-response","130","169352","0.0-130.0","3MRNMEIQW6SIA77RZKEW2J1IW1OLDH","AOAZMLP27GD81","368IUKXGA5U7UZ9GQNUNOB4MGE4P6M","","","img/flower3.png","75","1293.6999999955297","2","1","1","0.8,0.8,0.2,0.2,0.8,0.8,0.8,0.2,0.8",""
"null","","html-keyboard-response","131","169652","0.0-131.0","3MRNMEIQW6SIA77RZKEW2J1IW1OLDH","AOAZMLP27GD81","368IUKXGA5U7UZ9GQNUNOB4MGE4P6M","","","<img src=""img/flower3.png"" style=""width:200px; border:14px solid green;"">","null","","","","","",""
"2292.8000000044703","","image-keyboard-response","132","171946","0.0-132.0","3MRNMEIQW6SIA77RZKEW2J1IW1OLDH","AOAZMLP27GD81","368IUKXGA5U7UZ9GQNUNOB4MGE4P6M","","","img/flower4.png","76","2293.8000000044703","3","0","3","0.8,0.8,0.2,0.2,0.8,0.8,0.8,0.2,0.8",""
"null","","html-keyboard-response","133","172248","0.0-133.0","3MRNMEIQW6SIA77RZKEW2J1IW1OLDH","AOAZMLP27GD81","368IUKXGA5U7UZ9GQNUNOB4MGE4P6M","","","<img src=""img/flower4.png"" style=""width:200px;border:14px solid red;"">","null","","","","","",""
"767","","image-keyboard-response","134","173016","0.0-134.0","3MRNMEIQW6SIA77RZKEW2J1IW1OLDH","AOAZMLP27GD81","368IUKXGA5U7UZ9GQNUNOB4MGE4P6M","","","img/flower5.png","75","767.2999999970198","2","1","2","0.8,0.8,0.2,0.2,0.8,0.8,0.8,0.2,0.8",""
"null","","html-keyboard-response","135","173317","0.0-135.0","3MRNMEIQW6SIA77RZKEW2J1IW1OLDH","AOAZMLP27GD81","368IUKXGA5U7UZ9GQNUNOB4MGE4P6M","","","<img src=""img/flower5.png"" style=""width:200px; border:14px solid green;"">","null","","","","","",""
"537.6000000014901","","image-keyboard-response","136","173856","0.0-136.0","3MRNMEIQW6SIA77RZKEW2J1IW1OLDH","AOAZMLP27GD81","368IUKXGA5U7UZ9GQNUNOB4MGE4P6M","","","img/flower5.png","75","538.0999999940395","2","1","2","0.8,0.8,0.2,0.2,0.8,0.8,0.8,0.2,0.8",""
"null","","html-keyboard-response","137","174157","0.0-137.0","3MRNMEIQW6SIA77RZKEW2J1IW1OLDH","AOAZMLP27GD81","368IUKXGA5U7UZ9GQNUNOB4MGE4P6M","","","<img src=""img/flower5.png"" style=""width:200px; border:14px solid green;"">","null","","","","","",""
"1045.0999999940395","","image-keyboard-response","138","175203","0.0-138.0","3MRNMEIQW6SIA77RZKEW2J1IW1OLDH","AOAZMLP27GD81","368IUKXGA5U7UZ9GQNUNOB4MGE4P6M","","","img/flower3.png","75","1045.6000000014901","2","0","1","0.8,0.8,0.2,0.2,0.8,0.8,0.8,0.2,0.8",""
"null","","html-keyboard-response","139","175505","0.0-139.0","3MRNMEIQW6SIA77RZKEW2J1IW1OLDH","AOAZMLP27GD81","368IUKXGA5U7UZ9GQNUNOB4MGE4P6M","","","<img src=""img/flower3.png"" style=""width:200px;border:14px solid red;"">","null","","","","","",""
"725.6999999955297","","image-keyboard-response","140","176231","0.0-140.0","3MRNMEIQW6SIA77RZKEW2J1IW1OLDH","AOAZMLP27GD81","368IUKXGA5U7UZ9GQNUNOB4MGE4P6M","","","img/flower3.png","75","726.1000000014901","2","1","1","0.8,0.8,0.2,0.2,0.8,0.8,0.8,0.2,0.8",""
"null","","html-keyboard-response","141","176532","0.0-141.0","3MRNMEIQW6SIA77RZKEW2J1IW1OLDH","AOAZMLP27GD81","368IUKXGA5U7UZ9GQNUNOB4MGE4P6M","","","<img src=""img/flower3.png"" style=""width:200px; border:14px solid green;"">","null","","","","","",""
"752.1999999955297","","image-keyboard-response","142","177285","0.0-142.0","3MRNMEIQW6SIA77RZKEW2J1IW1OLDH","AOAZMLP27GD81","368IUKXGA5U7UZ9GQNUNOB4MGE4P6M","","","img/flower3.png","75","752.5","2","1","1","0.8,0.8,0.2,0.2,0.8,0.8,0.8,0.2,0.8",""
"null","","html-keyboard-response","143","177586","0.0-143.0","3MRNMEIQW6SIA77RZKEW2J1IW1OLDH","AOAZMLP27GD81","368IUKXGA5U7UZ9GQNUNOB4MGE4P6M","","","<img src=""img/flower3.png"" style=""width:200px; border:14px solid green;"">","null","","","","","",""
"603.5","","image-keyboard-response","144","178190","0.0-144.0","3MRNMEIQW6SIA77RZKEW2J1IW1OLDH","AOAZMLP27GD81","368IUKXGA5U7UZ9GQNUNOB4MGE4P6M","","","img/flower3.png","75","603.7999999970198","2","1","1","0.8,0.8,0.2,0.2,0.8,0.8,0.8,0.2,0.8",""
"null","","html-keyboard-response","145","178492","0.0-145.0","3MRNMEIQW6SIA77RZKEW2J1IW1OLDH","AOAZMLP27GD81","368IUKXGA5U7UZ9GQNUNOB4MGE4P6M","","","<img src=""img/flower3.png"" style=""width:200px; border:14px solid green;"">","null","","","","","",""
"618.2999999970198","","image-keyboard-response","146","179111","0.0-146.0","3MRNMEIQW6SIA77RZKEW2J1IW1OLDH","AOAZMLP27GD81","368IUKXGA5U7UZ9GQNUNOB4MGE4P6M","","","img/flower3.png","75","618.6999999955297","2","1","1","0.8,0.8,0.2,0.2,0.8,0.8,0.8,0.2,0.8",""
"null","","html-keyboard-response","147","179412","0.0-147.0","3MRNMEIQW6SIA77RZKEW2J1IW1OLDH","AOAZMLP27GD81","368IUKXGA5U7UZ9GQNUNOB4MGE4P6M","","","<img src=""img/flower3.png"" style=""width:200px; border:14px solid green;"">","null","","","","","",""
"1354.3000000044703","","image-keyboard-response","148","180767","0.0-148.0","3MRNMEIQW6SIA77RZKEW2J1IW1OLDH","AOAZMLP27GD81","368IUKXGA5U7UZ9GQNUNOB4MGE4P6M","","","img/flower4.png","76","1354.6999999955297","3","0","3","0.8,0.8,0.2,0.2,0.8,0.8,0.8,0.2,0.8",""
"null","","html-keyboard-response","149","181068","0.0-149.0","3MRNMEIQW6SIA77RZKEW2J1IW1OLDH","AOAZMLP27GD81","368IUKXGA5U7UZ9GQNUNOB4MGE4P6M","","","<img src=""img/flower4.png"" style=""width:200px;border:14px solid red;"">","null","","","","","",""
"1005.3000000044703","","image-keyboard-response","150","182074","0.0-150.0","3MRNMEIQW6SIA77RZKEW2J1IW1OLDH","AOAZMLP27GD81","368IUKXGA5U7UZ9GQNUNOB4MGE4P6M","","","img/flower3.png","75","1005.5999999940395","2","1","1","0.8,0.8,0.2,0.2,0.8,0.8,0.8,0.2,0.8",""
"null","","html-keyboard-response","151","182374","0.0-151.0","3MRNMEIQW6SIA77RZKEW2J1IW1OLDH","AOAZMLP27GD81","368IUKXGA5U7UZ9GQNUNOB4MGE4P6M","","","<img src=""img/flower3.png"" style=""width:200px; border:14px solid green;"">","null","","","","","",""
"674.7999999970198","","image-keyboard-response","152","183049","0.0-152.0","3MRNMEIQW6SIA77RZKEW2J1IW1OLDH","AOAZMLP27GD81","368IUKXGA5U7UZ9GQNUNOB4MGE4P6M","","","img/flower4.png","74","675.1000000014901","1","0","3","0.8,0.8,0.2,0.2,0.8,0.8,0.8,0.2,0.8",""
"null","","html-keyboard-response","153","183351","0.0-153.0","3MRNMEIQW6SIA77RZKEW2J1IW1OLDH","AOAZMLP27GD81","368IUKXGA5U7UZ9GQNUNOB4MGE4P6M","","","<img src=""img/flower4.png"" style=""width:200px;border:14px solid red;"">","null","","","","","",""
"1063.2999999970198","","image-keyboard-response","154","184415","0.0-154.0","3MRNMEIQW6SIA77RZKEW2J1IW1OLDH","AOAZMLP27GD81","368IUKXGA5U7UZ9GQNUNOB4MGE4P6M","","","img/flower5.png","75","1063.7999999970198","2","1","2","0.8,0.8,0.2,0.2,0.8,0.8,0.8,0.2,0.8",""
"null","","html-keyboard-response","155","184717","0.0-155.0","3MRNMEIQW6SIA77RZKEW2J1IW1OLDH","AOAZMLP27GD81","368IUKXGA5U7UZ9GQNUNOB4MGE4P6M","","","<img src=""img/flower5.png"" style=""width:200px; border:14px solid green;"">","null","","","","","",""
"789.3000000044703","","image-keyboard-response","156","185507","0.0-156.0","3MRNMEIQW6SIA77RZKEW2J1IW1OLDH","AOAZMLP27GD81","368IUKXGA5U7UZ9GQNUNOB4MGE4P6M","","","img/flower4.png","74","789.8000000044703","1","1","3","0.8,0.8,0.2,0.2,0.8,0.8,0.8,0.2,0.8",""
"null","","html-keyboard-response","157","185808","0.0-157.0","3MRNMEIQW6SIA77RZKEW2J1IW1OLDH","AOAZMLP27GD81","368IUKXGA5U7UZ9GQNUNOB4MGE4P6M","","","<img src=""img/flower4.png"" style=""width:200px; border:14px solid green;"">","null","","","","","",""
"888.7000000029802","","image-keyboard-response","158","186698","0.0-158.0","3MRNMEIQW6SIA77RZKEW2J1IW1OLDH","AOAZMLP27GD81","368IUKXGA5U7UZ9GQNUNOB4MGE4P6M","","","img/flower3.png","75","889","2","1","1","0.8,0.8,0.2,0.2,0.8,0.8,0.8,0.2,0.8",""
"null","","html-keyboard-response","159","186999","0.0-159.0","3MRNMEIQW6SIA77RZKEW2J1IW1OLDH","AOAZMLP27GD81","368IUKXGA5U7UZ9GQNUNOB4MGE4P6M","","","<img src=""img/flower3.png"" style=""width:200px; border:14px solid green;"">","null","","","","","",""
"838","","image-keyboard-response","160","187837","0.0-160.0","3MRNMEIQW6SIA77RZKEW2J1IW1OLDH","AOAZMLP27GD81","368IUKXGA5U7UZ9GQNUNOB4MGE4P6M","","","img/flower5.png","75","838.5","2","0","2","0.8,0.8,0.2,0.2,0.8,0.8,0.8,0.2,0.8",""
"null","","html-keyboard-response","161","188139","0.0-161.0","3MRNMEIQW6SIA77RZKEW2J1IW1OLDH","AOAZMLP27GD81","368IUKXGA5U7UZ9GQNUNOB4MGE4P6M","","","<img src=""img/flower5.png"" style=""width:200px;border:14px solid red;"">","null","","","","","",""
"661.7000000029802","","image-keyboard-response","162","188801","0.0-162.0","3MRNMEIQW6SIA77RZKEW2J1IW1OLDH","AOAZMLP27GD81","368IUKXGA5U7UZ9GQNUNOB4MGE4P6M","","","img/flower3.png","74","662.1999999955297","1","1","1","0.8,0.8,0.2,0.2,0.8,0.8,0.8,0.2,0.8",""
"null","","html-keyboard-response","163","189103","0.0-163.0","3MRNMEIQW6SIA77RZKEW2J1IW1OLDH","AOAZMLP27GD81","368IUKXGA5U7UZ9GQNUNOB4MGE4P6M","","","<img src=""img/flower3.png"" style=""width:200px; border:14px solid green;"">","null","","","","","",""
"1346","","image-keyboard-response","164","190449","0.0-164.0","3MRNMEIQW6SIA77RZKEW2J1IW1OLDH","AOAZMLP27GD81","368IUKXGA5U7UZ9GQNUNOB4MGE4P6M","","","img/flower3.png","75","1346.3000000044703","2","1","1","0.8,0.8,0.2,0.2,0.8,0.8,0.8,0.2,0.8",""
"null","","html-keyboard-response","165","190752","0.0-165.0","3MRNMEIQW6SIA77RZKEW2J1IW1OLDH","AOAZMLP27GD81","368IUKXGA5U7UZ9GQNUNOB4MGE4P6M","","","<img src=""img/flower3.png"" style=""width:200px; border:14px solid green;"">","null","","","","","",""
"967.3999999985099","","image-keyboard-response","166","191720","0.0-166.0","3MRNMEIQW6SIA77RZKEW2J1IW1OLDH","AOAZMLP27GD81","368IUKXGA5U7UZ9GQNUNOB4MGE4P6M","","","img/flower4.png","74","967.8999999985099","1","1","3","0.8,0.8,0.2,0.2,0.8,0.8,0.8,0.2,0.8",""
"null","","html-keyboard-response","167","192021","0.0-167.0","3MRNMEIQW6SIA77RZKEW2J1IW1OLDH","AOAZMLP27GD81","368IUKXGA5U7UZ9GQNUNOB4MGE4P6M","","","<img src=""img/flower4.png"" style=""width:200px; border:14px solid green;"">","null","","","","","",""
"722","","image-keyboard-response","168","192743","0.0-168.0","3MRNMEIQW6SIA77RZKEW2J1IW1OLDH","AOAZMLP27GD81","368IUKXGA5U7UZ9GQNUNOB4MGE4P6M","","","img/flower3.png","75","722.3999999985099","2","1","1","0.8,0.8,0.2,0.2,0.8,0.8,0.8,0.2,0.8",""
"null","","html-keyboard-response","169","193044","0.0-169.0","3MRNMEIQW6SIA77RZKEW2J1IW1OLDH","AOAZMLP27GD81","368IUKXGA5U7UZ9GQNUNOB4MGE4P6M","","","<img src=""img/flower3.png"" style=""width:200px; border:14px solid green;"">","null","","","","","",""
"858","","image-keyboard-response","170","193902","0.0-170.0","3MRNMEIQW6SIA77RZKEW2J1IW1OLDH","AOAZMLP27GD81","368IUKXGA5U7UZ9GQNUNOB4MGE4P6M","","","img/flower5.png","75","858.3999999985099","2","1","2","0.8,0.8,0.2,0.2,0.8,0.8,0.8,0.2,0.8",""
"null","","html-keyboard-response","171","194205","0.0-171.0","3MRNMEIQW6SIA77RZKEW2J1IW1OLDH","AOAZMLP27GD81","368IUKXGA5U7UZ9GQNUNOB4MGE4P6M","","","<img src=""img/flower5.png"" style=""width:200px; border:14px solid green;"">","null","","","","","",""
"784","","image-keyboard-response","172","194989","0.0-172.0","3MRNMEIQW6SIA77RZKEW2J1IW1OLDH","AOAZMLP27GD81","368IUKXGA5U7UZ9GQNUNOB4MGE4P6M","","","img/flower3.png","75","784.4000000059605","2","1","1","0.8,0.8,0.2,0.2,0.8,0.8,0.8,0.2,0.8",""
"null","","html-keyboard-response","173","195291","0.0-173.0","3MRNMEIQW6SIA77RZKEW2J1IW1OLDH","AOAZMLP27GD81","368IUKXGA5U7UZ9GQNUNOB4MGE4P6M","","","<img src=""img/flower3.png"" style=""width:200px; border:14px solid green;"">","null","","","","","",""
"656","","image-keyboard-response","174","195947","0.0-174.0","3MRNMEIQW6SIA77RZKEW2J1IW1OLDH","AOAZMLP27GD81","368IUKXGA5U7UZ9GQNUNOB4MGE4P6M","","","img/flower4.png","74","656.3000000044703","1","1","3","0.8,0.8,0.2,0.2,0.8,0.8,0.8,0.2,0.8",""
"null","","html-keyboard-response","175","196248","0.0-175.0","3MRNMEIQW6SIA77RZKEW2J1IW1OLDH","AOAZMLP27GD81","368IUKXGA5U7UZ9GQNUNOB4MGE4P6M","","","<img src=""img/flower4.png"" style=""width:200px; border:14px solid green;"">","null","","","","","",""
"456.20000000298023","","image-keyboard-response","176","196705","0.0-176.0","3MRNMEIQW6SIA77RZKEW2J1IW1OLDH","AOAZMLP27GD81","368IUKXGA5U7UZ9GQNUNOB4MGE4P6M","","","img/flower4.png","74","456.70000000298023","1","1","3","0.8,0.8,0.2,0.2,0.8,0.8,0.8,0.2,0.8",""
"null","","html-keyboard-response","177","197006","0.0-177.0","3MRNMEIQW6SIA77RZKEW2J1IW1OLDH","AOAZMLP27GD81","368IUKXGA5U7UZ9GQNUNOB4MGE4P6M","","","<img src=""img/flower4.png"" style=""width:200px; border:14px solid green;"">","null","","","","","",""
"338.80000000447035","","image-keyboard-response","178","197346","0.0-178.0","3MRNMEIQW6SIA77RZKEW2J1IW1OLDH","AOAZMLP27GD81","368IUKXGA5U7UZ9GQNUNOB4MGE4P6M","","","img/flower4.png","74","339.19999999552965","1","0","3","0.8,0.8,0.2,0.2,0.8,0.8,0.8,0.2,0.8",""
"null","","html-keyboard-response","179","197646","0.0-179.0","3MRNMEIQW6SIA77RZKEW2J1IW1OLDH","AOAZMLP27GD81","368IUKXGA5U7UZ9GQNUNOB4MGE4P6M","","","<img src=""img/flower4.png"" style=""width:200px;border:14px solid red;"">","null","","","","","",""
"428.30000000447035","","image-keyboard-response","180","198075","0.0-180.0","3MRNMEIQW6SIA77RZKEW2J1IW1OLDH","AOAZMLP27GD81","368IUKXGA5U7UZ9GQNUNOB4MGE4P6M","","","img/flower4.png","74","428.79999999701977","1","0","3","0.8,0.8,0.2,0.2,0.8,0.8,0.8,0.2,0.8",""
"null","","html-keyboard-response","181","198376","0.0-181.0","3MRNMEIQW6SIA77RZKEW2J1IW1OLDH","AOAZMLP27GD81","368IUKXGA5U7UZ9GQNUNOB4MGE4P6M","","","<img src=""img/flower4.png"" style=""width:200px;border:14px solid red;"">","null","","","","","",""
"294.30000000447035","","image-keyboard-response","182","198671","0.0-182.0","3MRNMEIQW6SIA77RZKEW2J1IW1OLDH","AOAZMLP27GD81","368IUKXGA5U7UZ9GQNUNOB4MGE4P6M","","","img/flower4.png","74","294.69999999552965","1","1","3","0.8,0.8,0.2,0.2,0.8,0.8,0.8,0.2,0.8",""
"null","","html-keyboard-response","183","198973","0.0-183.0","3MRNMEIQW6SIA77RZKEW2J1IW1OLDH","AOAZMLP27GD81","368IUKXGA5U7UZ9GQNUNOB4MGE4P6M","","","<img src=""img/flower4.png"" style=""width:200px; border:14px solid green;"">","null","","","","","",""
"820.6000000014901","","image-keyboard-response","184","199794","0.0-184.0","3MRNMEIQW6SIA77RZKEW2J1IW1OLDH","AOAZMLP27GD81","368IUKXGA5U7UZ9GQNUNOB4MGE4P6M","","","img/flower5.png","75","820.8999999985099","2","1","2","0.8,0.8,0.2,0.2,0.8,0.8,0.8,0.2,0.8",""
"null","","html-keyboard-response","185","200095","0.0-185.0","3MRNMEIQW6SIA77RZKEW2J1IW1OLDH","AOAZMLP27GD81","368IUKXGA5U7UZ9GQNUNOB4MGE4P6M","","","<img src=""img/flower5.png"" style=""width:200px; border:14px solid green;"">","null","","","","","",""
"532.3999999985099","","image-keyboard-response","186","200628","0.0-186.0","3MRNMEIQW6SIA77RZKEW2J1IW1OLDH","AOAZMLP27GD81","368IUKXGA5U7UZ9GQNUNOB4MGE4P6M","","","img/flower5.png","75","532.8999999985099","2","1","2","0.8,0.8,0.2,0.2,0.8,0.8,0.8,0.2,0.8",""
"null","","html-keyboard-response","187","200930","0.0-187.0","3MRNMEIQW6SIA77RZKEW2J1IW1OLDH","AOAZMLP27GD81","368IUKXGA5U7UZ9GQNUNOB4MGE4P6M","","","<img src=""img/flower5.png"" style=""width:200px; border:14px solid green;"">","null","","","","","",""
"787.3999999985099","","image-keyboard-response","188","201718","0.0-188.0","3MRNMEIQW6SIA77RZKEW2J1IW1OLDH","AOAZMLP27GD81","368IUKXGA5U7UZ9GQNUNOB4MGE4P6M","","","img/flower5.png","75","787.8000000044703","2","1","2","0.8,0.8,0.2,0.2,0.8,0.8,0.8,0.2,0.8",""
"null","","html-keyboard-response","189","202020","0.0-189.0","3MRNMEIQW6SIA77RZKEW2J1IW1OLDH","AOAZMLP27GD81","368IUKXGA5U7UZ9GQNUNOB4MGE4P6M","","","<img src=""img/flower5.png"" style=""width:200px; border:14px solid green;"">","null","","","","","",""
"678.3999999985099","","image-keyboard-response","190","202699","0.0-190.0","3MRNMEIQW6SIA77RZKEW2J1IW1OLDH","AOAZMLP27GD81","368IUKXGA5U7UZ9GQNUNOB4MGE4P6M","","","img/flower4.png","74","678.6000000014901","1","1","3","0.8,0.8,0.2,0.2,0.8,0.8,0.8,0.2,0.8",""
"null","","html-keyboard-response","191","202999","0.0-191.0","3MRNMEIQW6SIA77RZKEW2J1IW1OLDH","AOAZMLP27GD81","368IUKXGA5U7UZ9GQNUNOB4MGE4P6M","","","<img src=""img/flower4.png"" style=""width:200px; border:14px solid green;"">","null","","","","","",""
"641.3999999985099","","image-keyboard-response","192","203641","0.0-192.0","3MRNMEIQW6SIA77RZKEW2J1IW1OLDH","AOAZMLP27GD81","368IUKXGA5U7UZ9GQNUNOB4MGE4P6M","","","img/flower5.png","75","641.7000000029802","2","1","2","0.8,0.8,0.2,0.2,0.8,0.8,0.8,0.2,0.8",""
"null","","html-keyboard-response","193","203943","0.0-193.0","3MRNMEIQW6SIA77RZKEW2J1IW1OLDH","AOAZMLP27GD81","368IUKXGA5U7UZ9GQNUNOB4MGE4P6M","","","<img src=""img/flower5.png"" style=""width:200px; border:14px solid green;"">","null","","","","","",""
"801.8999999985099","","image-keyboard-response","194","204745","0.0-194.0","3MRNMEIQW6SIA77RZKEW2J1IW1OLDH","AOAZMLP27GD81","368IUKXGA5U7UZ9GQNUNOB4MGE4P6M","","","img/flower3.png","75","802.2999999970198","2","1","1","0.8,0.8,0.2,0.2,0.8,0.8,0.8,0.2,0.8",""
"null","","html-keyboard-response","195","205047","0.0-195.0","3MRNMEIQW6SIA77RZKEW2J1IW1OLDH","AOAZMLP27GD81","368IUKXGA5U7UZ9GQNUNOB4MGE4P6M","","","<img src=""img/flower3.png"" style=""width:200px; border:14px solid green;"">","null","","","","","",""
"941.2999999970198","","image-keyboard-response","196","205988","0.0-196.0","3MRNMEIQW6SIA77RZKEW2J1IW1OLDH","AOAZMLP27GD81","368IUKXGA5U7UZ9GQNUNOB4MGE4P6M","","","img/flower5.png","75","941.6000000014901","2","0","2","0.8,0.8,0.2,0.2,0.8,0.8,0.8,0.2,0.8",""
"null","","html-keyboard-response","197","206290","0.0-197.0","3MRNMEIQW6SIA77RZKEW2J1IW1OLDH","AOAZMLP27GD81","368IUKXGA5U7UZ9GQNUNOB4MGE4P6M","","","<img src=""img/flower5.png"" style=""width:200px;border:14px solid red;"">","null","","","","","",""
"474.29999999701977","","image-keyboard-response","198","206765","0.0-198.0","3MRNMEIQW6SIA77RZKEW2J1IW1OLDH","AOAZMLP27GD81","368IUKXGA5U7UZ9GQNUNOB4MGE4P6M","","","img/flower5.png","75","474.80000000447035","2","1","2","0.8,0.8,0.2,0.2,0.8,0.8,0.8,0.2,0.8",""
"null","","html-keyboard-response","199","207066","0.0-199.0","3MRNMEIQW6SIA77RZKEW2J1IW1OLDH","AOAZMLP27GD81","368IUKXGA5U7UZ9GQNUNOB4MGE4P6M","","","<img src=""img/flower5.png"" style=""width:200px; border:14px solid green;"">","null","","","","","",""
"693","","image-keyboard-response","200","207759","0.0-200.0","3MRNMEIQW6SIA77RZKEW2J1IW1OLDH","AOAZMLP27GD81","368IUKXGA5U7UZ9GQNUNOB4MGE4P6M","","","img/flower4.png","74","693.3999999985099","1","1","3","0.8,0.8,0.2,0.2,0.8,0.8,0.8,0.2,0.8",""
"null","","html-keyboard-response","201","208060","0.0-201.0","3MRNMEIQW6SIA77RZKEW2J1IW1OLDH","AOAZMLP27GD81","368IUKXGA5U7UZ9GQNUNOB4MGE4P6M","","","<img src=""img/flower4.png"" style=""width:200px; border:14px solid green;"">","null","","","","","",""
"561.8999999985099","","image-keyboard-response","202","208622","0.0-202.0","3MRNMEIQW6SIA77RZKEW2J1IW1OLDH","AOAZMLP27GD81","368IUKXGA5U7UZ9GQNUNOB4MGE4P6M","","","img/flower5.png","75","562.2999999970198","2","0","2","0.8,0.8,0.2,0.2,0.8,0.8,0.8,0.2,0.8",""
"null","","html-keyboard-response","203","208924","0.0-203.0","3MRNMEIQW6SIA77RZKEW2J1IW1OLDH","AOAZMLP27GD81","368IUKXGA5U7UZ9GQNUNOB4MGE4P6M","","","<img src=""img/flower5.png"" style=""width:200px;border:14px solid red;"">","null","","","","","",""
"1196.8999999985099","","image-keyboard-response","204","210121","0.0-204.0","3MRNMEIQW6SIA77RZKEW2J1IW1OLDH","AOAZMLP27GD81","368IUKXGA5U7UZ9GQNUNOB4MGE4P6M","","","img/flower4.png","75","1197.4000000059605","2","0","3","0.8,0.8,0.2,0.2,0.8,0.8,0.8,0.2,0.8",""
"null","","html-keyboard-response","205","210423","0.0-205.0","3MRNMEIQW6SIA77RZKEW2J1IW1OLDH","AOAZMLP27GD81","368IUKXGA5U7UZ9GQNUNOB4MGE4P6M","","","<img src=""img/flower4.png"" style=""width:200px;border:14px solid red;"">","null","","","","","",""
"513","","image-keyboard-response","206","210936","0.0-206.0","3MRNMEIQW6SIA77RZKEW2J1IW1OLDH","AOAZMLP27GD81","368IUKXGA5U7UZ9GQNUNOB4MGE4P6M","","","img/flower4.png","74","513.4000000059605","1","1","3","0.8,0.8,0.2,0.2,0.8,0.8,0.8,0.2,0.8",""
"null","","html-keyboard-response","207","211237","0.0-207.0","3MRNMEIQW6SIA77RZKEW2J1IW1OLDH","AOAZMLP27GD81","368IUKXGA5U7UZ9GQNUNOB4MGE4P6M","","","<img src=""img/flower4.png"" style=""width:200px; border:14px solid green;"">","null","","","","","",""
"497.5","","image-keyboard-response","208","211735","0.0-208.0","3MRNMEIQW6SIA77RZKEW2J1IW1OLDH","AOAZMLP27GD81","368IUKXGA5U7UZ9GQNUNOB4MGE4P6M","","","img/flower4.png","74","498","1","1","3","0.8,0.8,0.2,0.2,0.8,0.8,0.8,0.2,0.8",""
"null","","html-keyboard-response","209","212037","0.0-209.0","3MRNMEIQW6SIA77RZKEW2J1IW1OLDH","AOAZMLP27GD81","368IUKXGA5U7UZ9GQNUNOB4MGE4P6M","","","<img src=""img/flower4.png"" style=""width:200px; border:14px solid green;"">","null","","","","","",""
"369.70000000298023","","image-keyboard-response","210","212407","0.0-210.0","3MRNMEIQW6SIA77RZKEW2J1IW1OLDH","AOAZMLP27GD81","368IUKXGA5U7UZ9GQNUNOB4MGE4P6M","","","img/flower4.png","74","370","1","1","3","0.8,0.8,0.2,0.2,0.8,0.8,0.8,0.2,0.8",""
"null","","html-keyboard-response","211","212709","0.0-211.0","3MRNMEIQW6SIA77RZKEW2J1IW1OLDH","AOAZMLP27GD81","368IUKXGA5U7UZ9GQNUNOB4MGE4P6M","","","<img src=""img/flower4.png"" style=""width:200px; border:14px solid green;"">","null","","","","","",""
"467.1000000014901","","image-keyboard-response","212","213176","0.0-212.0","3MRNMEIQW6SIA77RZKEW2J1IW1OLDH","AOAZMLP27GD81","368IUKXGA5U7UZ9GQNUNOB4MGE4P6M","","","img/flower3.png","75","467.5","2","1","1","0.8,0.8,0.2,0.2,0.8,0.8,0.8,0.2,0.8",""
"null","","html-keyboard-response","213","213478","0.0-213.0","3MRNMEIQW6SIA77RZKEW2J1IW1OLDH","AOAZMLP27GD81","368IUKXGA5U7UZ9GQNUNOB4MGE4P6M","","","<img src=""img/flower3.png"" style=""width:200px; border:14px solid green;"">","null","","","","","",""
"750.5999999940395","","image-keyboard-response","214","214229","0.0-214.0","3MRNMEIQW6SIA77RZKEW2J1IW1OLDH","AOAZMLP27GD81","368IUKXGA5U7UZ9GQNUNOB4MGE4P6M","","","img/flower4.png","74","751","1","1","3","0.8,0.8,0.2,0.2,0.8,0.8,0.8,0.2,0.8",""
"null","","html-keyboard-response","215","214531","0.0-215.0","3MRNMEIQW6SIA77RZKEW2J1IW1OLDH","AOAZMLP27GD81","368IUKXGA5U7UZ9GQNUNOB4MGE4P6M","","","<img src=""img/flower4.png"" style=""width:200px; border:14px solid green;"">","null","","","","","",""
"834.1000000014901","","image-keyboard-response","216","215365","0.0-216.0","3MRNMEIQW6SIA77RZKEW2J1IW1OLDH","AOAZMLP27GD81","368IUKXGA5U7UZ9GQNUNOB4MGE4P6M","","","img/flower3.png","75","834.3999999985099","2","1","1","0.8,0.8,0.2,0.2,0.8,0.8,0.8,0.2,0.8",""
"null","","html-keyboard-response","217","215666","0.0-217.0","3MRNMEIQW6SIA77RZKEW2J1IW1OLDH","AOAZMLP27GD81","368IUKXGA5U7UZ9GQNUNOB4MGE4P6M","","","<img src=""img/flower3.png"" style=""width:200px; border:14px solid green;"">","null","","","","","",""
"510.29999999701977","","image-keyboard-response","218","216177","0.0-218.0","3MRNMEIQW6SIA77RZKEW2J1IW1OLDH","AOAZMLP27GD81","368IUKXGA5U7UZ9GQNUNOB4MGE4P6M","","","img/flower3.png","75","510.70000000298023","2","0","1","0.8,0.8,0.2,0.2,0.8,0.8,0.8,0.2,0.8",""
"null","","html-keyboard-response","219","216479","0.0-219.0","3MRNMEIQW6SIA77RZKEW2J1IW1OLDH","AOAZMLP27GD81","368IUKXGA5U7UZ9GQNUNOB4MGE4P6M","","","<img src=""img/flower3.png"" style=""width:200px;border:14px solid red;"">","null","","","","","",""
"704.7999999970198","","image-keyboard-response","220","217184","0.0-220.0","3MRNMEIQW6SIA77RZKEW2J1IW1OLDH","AOAZMLP27GD81","368IUKXGA5U7UZ9GQNUNOB4MGE4P6M","","","img/flower4.png","74","705.3999999985099","1","0","3","0.8,0.8,0.2,0.2,0.8,0.8,0.8,0.2,0.8",""
"null","","html-keyboard-response","221","217485","0.0-221.0","3MRNMEIQW6SIA77RZKEW2J1IW1OLDH","AOAZMLP27GD81","368IUKXGA5U7UZ9GQNUNOB4MGE4P6M","","","<img src=""img/flower4.png"" style=""width:200px;border:14px solid red;"">","null","","","","","",""
"939.6000000014901","","image-keyboard-response","222","218425","0.0-222.0","3MRNMEIQW6SIA77RZKEW2J1IW1OLDH","AOAZMLP27GD81","368IUKXGA5U7UZ9GQNUNOB4MGE4P6M","","","img/flower4.png","74","940","1","1","3","0.8,0.8,0.2,0.2,0.8,0.8,0.8,0.2,0.8",""
"null","","html-keyboard-response","223","218727","0.0-223.0","3MRNMEIQW6SIA77RZKEW2J1IW1OLDH","AOAZMLP27GD81","368IUKXGA5U7UZ9GQNUNOB4MGE4P6M","","","<img src=""img/flower4.png"" style=""width:200px; border:14px solid green;"">","null","","","","","",""
"390.29999999701977","","image-keyboard-response","224","219118","0.0-224.0","3MRNMEIQW6SIA77RZKEW2J1IW1OLDH","AOAZMLP27GD81","368IUKXGA5U7UZ9GQNUNOB4MGE4P6M","","","img/flower4.png","74","390.6000000014901","1","1","3","0.8,0.8,0.2,0.2,0.8,0.8,0.8,0.2,0.8",""
"null","","html-keyboard-response","225","219419","0.0-225.0","3MRNMEIQW6SIA77RZKEW2J1IW1OLDH","AOAZMLP27GD81","368IUKXGA5U7UZ9GQNUNOB4MGE4P6M","","","<img src=""img/flower4.png"" style=""width:200px; border:14px solid green;"">","null","","","","","",""
"530.8999999985099","","image-keyboard-response","226","219951","0.0-226.0","3MRNMEIQW6SIA77RZKEW2J1IW1OLDH","AOAZMLP27GD81","368IUKXGA5U7UZ9GQNUNOB4MGE4P6M","","","img/flower3.png","75","531.3999999985099","2","1","1","0.8,0.8,0.2,0.2,0.8,0.8,0.8,0.2,0.8",""
"null","","html-keyboard-response","227","220252","0.0-227.0","3MRNMEIQW6SIA77RZKEW2J1IW1OLDH","AOAZMLP27GD81","368IUKXGA5U7UZ9GQNUNOB4MGE4P6M","","","<img src=""img/flower3.png"" style=""width:200px; border:14px solid green;"">","null","","","","","",""
"363.80000000447035","","image-keyboard-response","228","220617","0.0-228.0","3MRNMEIQW6SIA77RZKEW2J1IW1OLDH","AOAZMLP27GD81","368IUKXGA5U7UZ9GQNUNOB4MGE4P6M","","","img/flower3.png","75","364.1000000014901","2","1","1","0.8,0.8,0.2,0.2,0.8,0.8,0.8,0.2,0.8",""
"null","","html-keyboard-response","229","220919","0.0-229.0","3MRNMEIQW6SIA77RZKEW2J1IW1OLDH","AOAZMLP27GD81","368IUKXGA5U7UZ9GQNUNOB4MGE4P6M","","","<img src=""img/flower3.png"" style=""width:200px; border:14px solid green;"">","null","","","","","",""
"1033.1000000014901","","image-keyboard-response","230","221952","0.0-230.0","3MRNMEIQW6SIA77RZKEW2J1IW1OLDH","AOAZMLP27GD81","368IUKXGA5U7UZ9GQNUNOB4MGE4P6M","","","img/flower5.png","75","1033.4000000059605","2","1","2","0.8,0.8,0.2,0.2,0.8,0.8,0.8,0.2,0.8",""
"null","","html-keyboard-response","231","222254","0.0-231.0","3MRNMEIQW6SIA77RZKEW2J1IW1OLDH","AOAZMLP27GD81","368IUKXGA5U7UZ9GQNUNOB4MGE4P6M","","","<img src=""img/flower5.png"" style=""width:200px; border:14px solid green;"">","null","","","","","",""
"717.3999999985099","","image-keyboard-response","232","222972","0.0-232.0","3MRNMEIQW6SIA77RZKEW2J1IW1OLDH","AOAZMLP27GD81","368IUKXGA5U7UZ9GQNUNOB4MGE4P6M","","","img/flower4.png","74","717.8000000044703","1","1","3","0.8,0.8,0.2,0.2,0.8,0.8,0.8,0.2,0.8",""
"null","","html-keyboard-response","233","223272","0.0-233.0","3MRNMEIQW6SIA77RZKEW2J1IW1OLDH","AOAZMLP27GD81","368IUKXGA5U7UZ9GQNUNOB4MGE4P6M","","","<img src=""img/flower4.png"" style=""width:200px; border:14px solid green;"">","null","","","","","",""
"661.1000000014901","","image-keyboard-response","234","223934","0.0-234.0","3MRNMEIQW6SIA77RZKEW2J1IW1OLDH","AOAZMLP27GD81","368IUKXGA5U7UZ9GQNUNOB4MGE4P6M","","","img/flower5.png","75","661.5","2","1","2","0.8,0.8,0.2,0.2,0.8,0.8,0.8,0.2,0.8",""
"null","","html-keyboard-response","235","224236","0.0-235.0","3MRNMEIQW6SIA77RZKEW2J1IW1OLDH","AOAZMLP27GD81","368IUKXGA5U7UZ9GQNUNOB4MGE4P6M","","","<img src=""img/flower5.png"" style=""width:200px; border:14px solid green;"">","null","","","","","",""
"1081.4000000059605","","image-keyboard-response","236","225317","0.0-236.0","3MRNMEIQW6SIA77RZKEW2J1IW1OLDH","AOAZMLP27GD81","368IUKXGA5U7UZ9GQNUNOB4MGE4P6M","","","img/flower4.png","74","1081.6999999955297","1","1","3","0.8,0.8,0.2,0.2,0.8,0.8,0.8,0.2,0.8",""
"null","","html-keyboard-response","237","225618","0.0-237.0","3MRNMEIQW6SIA77RZKEW2J1IW1OLDH","AOAZMLP27GD81","368IUKXGA5U7UZ9GQNUNOB4MGE4P6M","","","<img src=""img/flower4.png"" style=""width:200px; border:14px solid green;"">","null","","","","","",""
"508.80000000447035","","image-keyboard-response","238","226127","0.0-238.0","3MRNMEIQW6SIA77RZKEW2J1IW1OLDH","AOAZMLP27GD81","368IUKXGA5U7UZ9GQNUNOB4MGE4P6M","","","img/flower5.png","75","509.19999999552965","2","0","2","0.8,0.8,0.2,0.2,0.8,0.8,0.8,0.2,0.8",""
"null","","html-keyboard-response","239","226428","0.0-239.0","3MRNMEIQW6SIA77RZKEW2J1IW1OLDH","AOAZMLP27GD81","368IUKXGA5U7UZ9GQNUNOB4MGE4P6M","","","<img src=""img/flower5.png"" style=""width:200px;border:14px solid red;"">","null","","","","","",""
"453.1000000014901","","image-keyboard-response","240","226881","0.0-240.0","3MRNMEIQW6SIA77RZKEW2J1IW1OLDH","AOAZMLP27GD81","368IUKXGA5U7UZ9GQNUNOB4MGE4P6M","","","img/flower3.png","75","453.3999999985099","2","1","1","0.8,0.8,0.2,0.2,0.8,0.8,0.8,0.2,0.8",""
"null","","html-keyboard-response","241","227183","0.0-241.0","3MRNMEIQW6SIA77RZKEW2J1IW1OLDH","AOAZMLP27GD81","368IUKXGA5U7UZ9GQNUNOB4MGE4P6M","","","<img src=""img/flower3.png"" style=""width:200px; border:14px solid green;"">","null","","","","","",""
"441.3999999985099","","image-keyboard-response","242","227625","0.0-242.0","3MRNMEIQW6SIA77RZKEW2J1IW1OLDH","AOAZMLP27GD81","368IUKXGA5U7UZ9GQNUNOB4MGE4P6M","","","img/flower5.png","75","442","2","1","2","0.8,0.8,0.2,0.2,0.8,0.8,0.8,0.2,0.8",""
"null","","html-keyboard-response","243","227927","0.0-243.0","3MRNMEIQW6SIA77RZKEW2J1IW1OLDH","AOAZMLP27GD81","368IUKXGA5U7UZ9GQNUNOB4MGE4P6M","","","<img src=""img/flower5.png"" style=""width:200px; border:14px solid green;"">","null","","","","","",""
"306.6000000014901","","image-keyboard-response","244","228234","0.0-244.0","3MRNMEIQW6SIA77RZKEW2J1IW1OLDH","AOAZMLP27GD81","368IUKXGA5U7UZ9GQNUNOB4MGE4P6M","","","img/flower5.png","75","306.8999999985099","2","1","2","0.8,0.8,0.2,0.2,0.8,0.8,0.8,0.2,0.8",""
"null","","html-keyboard-response","245","228536","0.0-245.0","3MRNMEIQW6SIA77RZKEW2J1IW1OLDH","AOAZMLP27GD81","368IUKXGA5U7UZ9GQNUNOB4MGE4P6M","","","<img src=""img/flower5.png"" style=""width:200px; border:14px solid green;"">","null","","","","","",""
"322.8999999985099","","image-keyboard-response","246","228859","0.0-246.0","3MRNMEIQW6SIA77RZKEW2J1IW1OLDH","AOAZMLP27GD81","368IUKXGA5U7UZ9GQNUNOB4MGE4P6M","","","img/flower5.png","75","323.40000000596046","2","1","2","0.8,0.8,0.2,0.2,0.8,0.8,0.8,0.2,0.8",""
"null","","html-keyboard-response","247","229160","0.0-247.0","3MRNMEIQW6SIA77RZKEW2J1IW1OLDH","AOAZMLP27GD81","368IUKXGA5U7UZ9GQNUNOB4MGE4P6M","","","<img src=""img/flower5.png"" style=""width:200px; border:14px solid green;"">","null","","","","","",""
"298.3999999985099","","image-keyboard-response","248","229459","0.0-248.0","3MRNMEIQW6SIA77RZKEW2J1IW1OLDH","AOAZMLP27GD81","368IUKXGA5U7UZ9GQNUNOB4MGE4P6M","","","img/flower5.png","75","298.80000000447035","2","1","2","0.8,0.8,0.2,0.2,0.8,0.8,0.8,0.2,0.8",""
"null","","html-keyboard-response","249","229761","0.0-249.0","3MRNMEIQW6SIA77RZKEW2J1IW1OLDH","AOAZMLP27GD81","368IUKXGA5U7UZ9GQNUNOB4MGE4P6M","","","<img src=""img/flower5.png"" style=""width:200px; border:14px solid green;"">","null","","","","","",""
"296.09999999403954","","image-keyboard-response","250","230057","0.0-250.0","3MRNMEIQW6SIA77RZKEW2J1IW1OLDH","AOAZMLP27GD81","368IUKXGA5U7UZ9GQNUNOB4MGE4P6M","","","img/flower5.png","75","296.29999999701977","2","1","2","0.8,0.8,0.2,0.2,0.8,0.8,0.8,0.2,0.8",""
"null","","html-keyboard-response","251","230359","0.0-251.0","3MRNMEIQW6SIA77RZKEW2J1IW1OLDH","AOAZMLP27GD81","368IUKXGA5U7UZ9GQNUNOB4MGE4P6M","","","<img src=""img/flower5.png"" style=""width:200px; border:14px solid green;"">","null","","","","","",""
"446","","image-keyboard-response","252","230805","0.0-252.0","3MRNMEIQW6SIA77RZKEW2J1IW1OLDH","AOAZMLP27GD81","368IUKXGA5U7UZ9GQNUNOB4MGE4P6M","","","img/flower3.png","74","446.3999999985099","1","1","1","0.8,0.8,0.2,0.2,0.8,0.8,0.8,0.2,0.8",""
"null","","html-keyboard-response","253","231107","0.0-253.0","3MRNMEIQW6SIA77RZKEW2J1IW1OLDH","AOAZMLP27GD81","368IUKXGA5U7UZ9GQNUNOB4MGE4P6M","","","<img src=""img/flower3.png"" style=""width:200px; border:14px solid green;"">","null","","","","","",""
"1695.3999999985099","","image-keyboard-response","254","232803","0.0-254.0","3MRNMEIQW6SIA77RZKEW2J1IW1OLDH","AOAZMLP27GD81","368IUKXGA5U7UZ9GQNUNOB4MGE4P6M","","","img/flower4.png","74","1695.8000000044703","1","1","3","0.8,0.8,0.2,0.2,0.8,0.8,0.8,0.2,0.8",""
"null","","html-keyboard-response","255","233105","0.0-255.0","3MRNMEIQW6SIA77RZKEW2J1IW1OLDH","AOAZMLP27GD81","368IUKXGA5U7UZ9GQNUNOB4MGE4P6M","","","<img src=""img/flower4.png"" style=""width:200px; border:14px solid green;"">","null","","","","","",""
"550.5","","image-keyboard-response","256","233656","0.0-256.0","3MRNMEIQW6SIA77RZKEW2J1IW1OLDH","AOAZMLP27GD81","368IUKXGA5U7UZ9GQNUNOB4MGE4P6M","","","img/flower3.png","75","550.8999999985099","2","1","1","0.8,0.8,0.2,0.2,0.8,0.8,0.8,0.2,0.8",""
"null","","html-keyboard-response","257","233958","0.0-257.0","3MRNMEIQW6SIA77RZKEW2J1IW1OLDH","AOAZMLP27GD81","368IUKXGA5U7UZ9GQNUNOB4MGE4P6M","","","<img src=""img/flower3.png"" style=""width:200px; border:14px solid green;"">","null","","","","","",""
"799.5999999940395","","image-keyboard-response","258","234758","0.0-258.0","3MRNMEIQW6SIA77RZKEW2J1IW1OLDH","AOAZMLP27GD81","368IUKXGA5U7UZ9GQNUNOB4MGE4P6M","","","img/flower4.png","74","800.2000000029802","1","1","3","0.8,0.8,0.2,0.2,0.8,0.8,0.8,0.2,0.8",""
"null","","html-keyboard-response","259","235060","0.0-259.0","3MRNMEIQW6SIA77RZKEW2J1IW1OLDH","AOAZMLP27GD81","368IUKXGA5U7UZ9GQNUNOB4MGE4P6M","","","<img src=""img/flower4.png"" style=""width:200px; border:14px solid green;"">","null","","","","","",""
"624.1999999955297","","image-keyboard-response","260","235684","0.0-260.0","3MRNMEIQW6SIA77RZKEW2J1IW1OLDH","AOAZMLP27GD81","368IUKXGA5U7UZ9GQNUNOB4MGE4P6M","","","img/flower3.png","75","624.6000000014901","2","1","1","0.8,0.8,0.2,0.2,0.8,0.8,0.8,0.2,0.8",""
"null","","html-keyboard-response","261","235986","0.0-261.0","3MRNMEIQW6SIA77RZKEW2J1IW1OLDH","AOAZMLP27GD81","368IUKXGA5U7UZ9GQNUNOB4MGE4P6M","","","<img src=""img/flower3.png"" style=""width:200px; border:14px solid green;"">","null","","","","","",""
"384.1000000014901","","image-keyboard-response","262","236371","0.0-262.0","3MRNMEIQW6SIA77RZKEW2J1IW1OLDH","AOAZMLP27GD81","368IUKXGA5U7UZ9GQNUNOB4MGE4P6M","","","img/flower3.png","75","384.40000000596046","2","1","1","0.8,0.8,0.2,0.2,0.8,0.8,0.8,0.2,0.8",""
"null","","html-keyboard-response","263","236673","0.0-263.0","3MRNMEIQW6SIA77RZKEW2J1IW1OLDH","AOAZMLP27GD81","368IUKXGA5U7UZ9GQNUNOB4MGE4P6M","","","<img src=""img/flower3.png"" style=""width:200px; border:14px solid green;"">","null","","","","","",""
"600.6999999955297","","image-keyboard-response","264","237274","0.0-264.0","3MRNMEIQW6SIA77RZKEW2J1IW1OLDH","AOAZMLP27GD81","368IUKXGA5U7UZ9GQNUNOB4MGE4P6M","","","img/flower5.png","75","601.1999999955297","2","0","2","0.8,0.8,0.2,0.2,0.8,0.8,0.8,0.2,0.8",""
"null","","html-keyboard-response","265","237576","0.0-265.0","3MRNMEIQW6SIA77RZKEW2J1IW1OLDH","AOAZMLP27GD81","368IUKXGA5U7UZ9GQNUNOB4MGE4P6M","","","<img src=""img/flower5.png"" style=""width:200px;border:14px solid red;"">","null","","","","","",""
"715.3999999985099","","image-keyboard-response","266","238292","0.0-266.0","3MRNMEIQW6SIA77RZKEW2J1IW1OLDH","AOAZMLP27GD81","368IUKXGA5U7UZ9GQNUNOB4MGE4P6M","","","img/flower4.png","74","715.8999999985099","1","1","3","0.8,0.8,0.2,0.2,0.8,0.8,0.8,0.2,0.8",""
"null","","html-keyboard-response","267","238593","0.0-267.0","3MRNMEIQW6SIA77RZKEW2J1IW1OLDH","AOAZMLP27GD81","368IUKXGA5U7UZ9GQNUNOB4MGE4P6M","","","<img src=""img/flower4.png"" style=""width:200px; border:14px solid green;"">","null","","","","","",""
"648.1999999955297","","image-keyboard-response","268","239242","0.0-268.0","3MRNMEIQW6SIA77RZKEW2J1IW1OLDH","AOAZMLP27GD81","368IUKXGA5U7UZ9GQNUNOB4MGE4P6M","","","img/flower5.png","75","648.7000000029802","2","1","2","0.8,0.8,0.2,0.2,0.8,0.8,0.8,0.2,0.8",""
"null","","html-keyboard-response","269","239543","0.0-269.0","3MRNMEIQW6SIA77RZKEW2J1IW1OLDH","AOAZMLP27GD81","368IUKXGA5U7UZ9GQNUNOB4MGE4P6M","","","<img src=""img/flower5.png"" style=""width:200px; border:14px solid green;"">","null","","","","","",""
"1016.2000000029802","","image-keyboard-response","270","240560","0.0-270.0","3MRNMEIQW6SIA77RZKEW2J1IW1OLDH","AOAZMLP27GD81","368IUKXGA5U7UZ9GQNUNOB4MGE4P6M","","","img/flower4.png","74","1016.7000000029802","1","1","3","0.8,0.8,0.2,0.2,0.8,0.8,0.8,0.2,0.8",""
"null","","html-keyboard-response","271","240862","0.0-271.0","3MRNMEIQW6SIA77RZKEW2J1IW1OLDH","AOAZMLP27GD81","368IUKXGA5U7UZ9GQNUNOB4MGE4P6M","","","<img src=""img/flower4.png"" style=""width:200px; border:14px solid green;"">","null","","","","","",""
"647.7000000029802","","image-keyboard-response","272","241510","0.0-272.0","3MRNMEIQW6SIA77RZKEW2J1IW1OLDH","AOAZMLP27GD81","368IUKXGA5U7UZ9GQNUNOB4MGE4P6M","","","img/flower5.png","75","648","2","0","2","0.8,0.8,0.2,0.2,0.8,0.8,0.8,0.2,0.8",""
"null","","html-keyboard-response","273","241812","0.0-273.0","3MRNMEIQW6SIA77RZKEW2J1IW1OLDH","AOAZMLP27GD81","368IUKXGA5U7UZ9GQNUNOB4MGE4P6M","","","<img src=""img/flower5.png"" style=""width:200px;border:14px solid red;"">","null","","","","","",""
"390.29999999701977","","image-keyboard-response","274","242202","0.0-274.0","3MRNMEIQW6SIA77RZKEW2J1IW1OLDH","AOAZMLP27GD81","368IUKXGA5U7UZ9GQNUNOB4MGE4P6M","","","img/flower5.png","75","390.79999999701977","2","1","2","0.8,0.8,0.2,0.2,0.8,0.8,0.8,0.2,0.8",""
"null","","html-keyboard-response","275","242504","0.0-275.0","3MRNMEIQW6SIA77RZKEW2J1IW1OLDH","AOAZMLP27GD81","368IUKXGA5U7UZ9GQNUNOB4MGE4P6M","","","<img src=""img/flower5.png"" style=""width:200px; border:14px solid green;"">","null","","","","","",""
"286.1000000014901","","image-keyboard-response","276","242790","0.0-276.0","3MRNMEIQW6SIA77RZKEW2J1IW1OLDH","AOAZMLP27GD81","368IUKXGA5U7UZ9GQNUNOB4MGE4P6M","","","img/flower5.png","75","286.5","2","1","2","0.8,0.8,0.2,0.2,0.8,0.8,0.8,0.2,0.8",""
"null","","html-keyboard-response","277","243092","0.0-277.0","3MRNMEIQW6SIA77RZKEW2J1IW1OLDH","AOAZMLP27GD81","368IUKXGA5U7UZ9GQNUNOB4MGE4P6M","","","<img src=""img/flower5.png"" style=""width:200px; border:14px solid green;"">","null","","","","","",""
"1175.6999999955297","","image-keyboard-response","278","244268","0.0-278.0","3MRNMEIQW6SIA77RZKEW2J1IW1OLDH","AOAZMLP27GD81","368IUKXGA5U7UZ9GQNUNOB4MGE4P6M","","","img/flower4.png","74","1176.1000000014901","1","0","3","0.8,0.8,0.2,0.2,0.8,0.8,0.8,0.2,0.8",""
"null","","html-keyboard-response","279","244569","0.0-279.0","3MRNMEIQW6SIA77RZKEW2J1IW1OLDH","AOAZMLP27GD81","368IUKXGA5U7UZ9GQNUNOB4MGE4P6M","","","<img src=""img/flower4.png"" style=""width:200px;border:14px solid red;"">","null","","","","","",""
"704.5","","image-keyboard-response","280","245275","0.0-280.0","3MRNMEIQW6SIA77RZKEW2J1IW1OLDH","AOAZMLP27GD81","368IUKXGA5U7UZ9GQNUNOB4MGE4P6M","","","img/flower3.png","75","705.0999999940395","2","1","1","0.8,0.8,0.2,0.2,0.8,0.8,0.8,0.2,0.8",""
"null","","html-keyboard-response","281","245576","0.0-281.0","3MRNMEIQW6SIA77RZKEW2J1IW1OLDH","AOAZMLP27GD81","368IUKXGA5U7UZ9GQNUNOB4MGE4P6M","","","<img src=""img/flower3.png"" style=""width:200px; border:14px solid green;"">","null","","","","","",""
"460.79999999701977","","image-keyboard-response","282","246037","0.0-282.0","3MRNMEIQW6SIA77RZKEW2J1IW1OLDH","AOAZMLP27GD81","368IUKXGA5U7UZ9GQNUNOB4MGE4P6M","","","img/flower3.png","75","461.30000000447035","2","1","1","0.8,0.8,0.2,0.2,0.8,0.8,0.8,0.2,0.8",""
"null","","html-keyboard-response","283","246339","0.0-283.0","3MRNMEIQW6SIA77RZKEW2J1IW1OLDH","AOAZMLP27GD81","368IUKXGA5U7UZ9GQNUNOB4MGE4P6M","","","<img src=""img/flower3.png"" style=""width:200px; border:14px solid green;"">","null","","","","","",""
"604.8999999985099","","image-keyboard-response","284","246944","0.0-284.0","3MRNMEIQW6SIA77RZKEW2J1IW1OLDH","AOAZMLP27GD81","368IUKXGA5U7UZ9GQNUNOB4MGE4P6M","","","img/flower5.png","74","605.2999999970198","1","0","2","0.8,0.8,0.2,0.2,0.8,0.8,0.8,0.2,0.8",""
"null","","html-keyboard-response","285","247245","0.0-285.0","3MRNMEIQW6SIA77RZKEW2J1IW1OLDH","AOAZMLP27GD81","368IUKXGA5U7UZ9GQNUNOB4MGE4P6M","","","<img src=""img/flower5.png"" style=""width:200px;border:14px solid red;"">","null","","","","","",""
"1119","","image-keyboard-response","286","248365","0.0-286.0","3MRNMEIQW6SIA77RZKEW2J1IW1OLDH","AOAZMLP27GD81","368IUKXGA5U7UZ9GQNUNOB4MGE4P6M","","","img/flower5.png","74","1119.4000000059605","1","0","2","0.8,0.8,0.2,0.2,0.8,0.8,0.8,0.2,0.8",""
"null","","html-keyboard-response","287","248666","0.0-287.0","3MRNMEIQW6SIA77RZKEW2J1IW1OLDH","AOAZMLP27GD81","368IUKXGA5U7UZ9GQNUNOB4MGE4P6M","","","<img src=""img/flower5.png"" style=""width:200px;border:14px solid red;"">","null","","","","","",""
"155.70000000298023","","image-keyboard-response","288","248822","0.0-288.0","3MRNMEIQW6SIA77RZKEW2J1IW1OLDH","AOAZMLP27GD81","368IUKXGA5U7UZ9GQNUNOB4MGE4P6M","","","img/flower3.png","75","156.10000000149012","2","1","1","0.8,0.8,0.2,0.2,0.8,0.8,0.8,0.2,0.8",""
"null","","html-keyboard-response","289","249123","0.0-289.0","3MRNMEIQW6SIA77RZKEW2J1IW1OLDH","AOAZMLP27GD81","368IUKXGA5U7UZ9GQNUNOB4MGE4P6M","","","<img src=""img/flower3.png"" style=""width:200px; border:14px solid green;"">","null","","","","","",""
"1270.4000000059605","","image-keyboard-response","290","250394","0.0-290.0","3MRNMEIQW6SIA77RZKEW2J1IW1OLDH","AOAZMLP27GD81","368IUKXGA5U7UZ9GQNUNOB4MGE4P6M","","","img/flower4.png","74","1270.7999999970198","1","1","3","0.8,0.8,0.2,0.2,0.8,0.8,0.8,0.2,0.8",""
"null","","html-keyboard-response","291","250695","0.0-291.0","3MRNMEIQW6SIA77RZKEW2J1IW1OLDH","AOAZMLP27GD81","368IUKXGA5U7UZ9GQNUNOB4MGE4P6M","","","<img src=""img/flower4.png"" style=""width:200px; border:14px solid green;"">","null","","","","","",""
"346.6000000014901","","image-keyboard-response","292","251042","0.0-292.0","3MRNMEIQW6SIA77RZKEW2J1IW1OLDH","AOAZMLP27GD81","368IUKXGA5U7UZ9GQNUNOB4MGE4P6M","","","img/flower4.png","74","347","1","1","3","0.8,0.8,0.2,0.2,0.8,0.8,0.8,0.2,0.8",""
"null","","html-keyboard-response","293","251344","0.0-293.0","3MRNMEIQW6SIA77RZKEW2J1IW1OLDH","AOAZMLP27GD81","368IUKXGA5U7UZ9GQNUNOB4MGE4P6M","","","<img src=""img/flower4.png"" style=""width:200px; border:14px solid green;"">","null","","","","","",""
"255.59999999403954","","image-keyboard-response","294","251600","0.0-294.0","3MRNMEIQW6SIA77RZKEW2J1IW1OLDH","AOAZMLP27GD81","368IUKXGA5U7UZ9GQNUNOB4MGE4P6M","","","img/flower4.png","74","256","1","1","3","0.8,0.8,0.2,0.2,0.8,0.8,0.8,0.2,0.8",""
"null","","html-keyboard-response","295","251901","0.0-295.0","3MRNMEIQW6SIA77RZKEW2J1IW1OLDH","AOAZMLP27GD81","368IUKXGA5U7UZ9GQNUNOB4MGE4P6M","","","<img src=""img/flower4.png"" style=""width:200px; border:14px solid green;"">","null","","","","","",""
"551.8000000044703","","image-keyboard-response","296","252454","0.0-296.0","3MRNMEIQW6SIA77RZKEW2J1IW1OLDH","AOAZMLP27GD81","368IUKXGA5U7UZ9GQNUNOB4MGE4P6M","","","img/flower3.png","75","552.2999999970198","2","1","1","0.8,0.8,0.2,0.2,0.8,0.8,0.8,0.2,0.8",""
"null","","html-keyboard-response","297","252755","0.0-297.0","3MRNMEIQW6SIA77RZKEW2J1IW1OLDH","AOAZMLP27GD81","368IUKXGA5U7UZ9GQNUNOB4MGE4P6M","","","<img src=""img/flower3.png"" style=""width:200px; border:14px solid green;"">","null","","","","","",""
"661.3999999985099","","image-keyboard-response","298","253417","0.0-298.0","3MRNMEIQW6SIA77RZKEW2J1IW1OLDH","AOAZMLP27GD81","368IUKXGA5U7UZ9GQNUNOB4MGE4P6M","","","img/flower5.png","75","661.7999999970198","2","1","2","0.8,0.8,0.2,0.2,0.8,0.8,0.8,0.2,0.8",""
"null","","html-keyboard-response","299","253718","0.0-299.0","3MRNMEIQW6SIA77RZKEW2J1IW1OLDH","AOAZMLP27GD81","368IUKXGA5U7UZ9GQNUNOB4MGE4P6M","","","<img src=""img/flower5.png"" style=""width:200px; border:14px solid green;"">","null","","","","","",""
"564.6999999955297","","image-keyboard-response","300","254283","0.0-300.0","3MRNMEIQW6SIA77RZKEW2J1IW1OLDH","AOAZMLP27GD81","368IUKXGA5U7UZ9GQNUNOB4MGE4P6M","","","img/flower3.png","75","565","2","1","1","0.8,0.8,0.2,0.2,0.8,0.8,0.8,0.2,0.8",""
"null","","html-keyboard-response","301","254584","0.0-301.0","3MRNMEIQW6SIA77RZKEW2J1IW1OLDH","AOAZMLP27GD81","368IUKXGA5U7UZ9GQNUNOB4MGE4P6M","","","<img src=""img/flower3.png"" style=""width:200px; border:14px solid green;"">","null","","","","","",""
"381.20000000298023","","image-keyboard-response","302","254966","0.0-302.0","3MRNMEIQW6SIA77RZKEW2J1IW1OLDH","AOAZMLP27GD81","368IUKXGA5U7UZ9GQNUNOB4MGE4P6M","","","img/flower3.png","75","381.6000000014901","2","1","1","0.8,0.8,0.2,0.2,0.8,0.8,0.8,0.2,0.8",""
"null","","html-keyboard-response","303","255267","0.0-303.0","3MRNMEIQW6SIA77RZKEW2J1IW1OLDH","AOAZMLP27GD81","368IUKXGA5U7UZ9GQNUNOB4MGE4P6M","","","<img src=""img/flower3.png"" style=""width:200px; border:14px solid green;"">","null","","","","","",""
"562.4000000059605","","image-keyboard-response","304","255830","0.0-304.0","3MRNMEIQW6SIA77RZKEW2J1IW1OLDH","AOAZMLP27GD81","368IUKXGA5U7UZ9GQNUNOB4MGE4P6M","","","img/flower5.png","75","562.6999999955297","2","1","2","0.8,0.8,0.2,0.2,0.8,0.8,0.8,0.2,0.8",""
"null","","html-keyboard-response","305","256132","0.0-305.0","3MRNMEIQW6SIA77RZKEW2J1IW1OLDH","AOAZMLP27GD81","368IUKXGA5U7UZ9GQNUNOB4MGE4P6M","","","<img src=""img/flower5.png"" style=""width:200px; border:14px solid green;"">","null","","","","","",""
"","","html-keyboard-response","306","261273","0.0-306.0","3MRNMEIQW6SIA77RZKEW2J1IW1OLDH","AOAZMLP27GD81","368IUKXGA5U7UZ9GQNUNOB4MGE4P6M","","","","","","","","","",""
"1710","","image-keyboard-response","307","262984","0.0-307.0","3MRNMEIQW6SIA77RZKEW2J1IW1OLDH","AOAZMLP27GD81","368IUKXGA5U7UZ9GQNUNOB4MGE4P6M","","","img/flower9.png","76","1710.8000000044703","3","1","3","0.8,0.2,0.2,0.2,0.8,0.2,0.2,0.2,0.8",""
"null","","html-keyboard-response","308","263286","0.0-308.0","3MRNMEIQW6SIA77RZKEW2J1IW1OLDH","AOAZMLP27GD81","368IUKXGA5U7UZ9GQNUNOB4MGE4P6M","","","<img src=""img/flower9.png"" style=""width:200px; border:14px solid green;"">","null","","","","","",""
"1093.1000000014901","","image-keyboard-response","309","264379","0.0-309.0","3MRNMEIQW6SIA77RZKEW2J1IW1OLDH","AOAZMLP27GD81","368IUKXGA5U7UZ9GQNUNOB4MGE4P6M","","","img/flower6.png","75","1093.6000000014901","2","1","2","0.8,0.2,0.2,0.2,0.8,0.2,0.2,0.2,0.8",""
"null","","html-keyboard-response","310","264680","0.0-310.0","3MRNMEIQW6SIA77RZKEW2J1IW1OLDH","AOAZMLP27GD81","368IUKXGA5U7UZ9GQNUNOB4MGE4P6M","","","<img src=""img/flower6.png"" style=""width:200px; border:14px solid green;"">","null","","","","","",""
"782.8999999985099","","image-keyboard-response","311","265463","0.0-311.0","3MRNMEIQW6SIA77RZKEW2J1IW1OLDH","AOAZMLP27GD81","368IUKXGA5U7UZ9GQNUNOB4MGE4P6M","","","img/flower9.png","76","783.3000000044703","3","1","3","0.8,0.2,0.2,0.2,0.8,0.2,0.2,0.2,0.8",""
"null","","html-keyboard-response","312","265765","0.0-312.0","3MRNMEIQW6SIA77RZKEW2J1IW1OLDH","AOAZMLP27GD81","368IUKXGA5U7UZ9GQNUNOB4MGE4P6M","","","<img src=""img/flower9.png"" style=""width:200px; border:14px solid green;"">","null","","","","","",""
"581.6999999955297","","image-keyboard-response","313","266347","0.0-313.0","3MRNMEIQW6SIA77RZKEW2J1IW1OLDH","AOAZMLP27GD81","368IUKXGA5U7UZ9GQNUNOB4MGE4P6M","","","img/flower6.png","75","581.8999999985099","2","1","2","0.8,0.2,0.2,0.2,0.8,0.2,0.2,0.2,0.8",""
"null","","html-keyboard-response","314","266649","0.0-314.0","3MRNMEIQW6SIA77RZKEW2J1IW1OLDH","AOAZMLP27GD81","368IUKXGA5U7UZ9GQNUNOB4MGE4P6M","","","<img src=""img/flower6.png"" style=""width:200px; border:14px solid green;"">","null","","","","","",""
"870.9000000059605","","image-keyboard-response","315","267520","0.0-315.0","3MRNMEIQW6SIA77RZKEW2J1IW1OLDH","AOAZMLP27GD81","368IUKXGA5U7UZ9GQNUNOB4MGE4P6M","","","img/flower1.png","74","871.3999999985099","1","1","1","0.8,0.2,0.2,0.2,0.8,0.2,0.2,0.2,0.8",""
"null","","html-keyboard-response","316","267821","0.0-316.0","3MRNMEIQW6SIA77RZKEW2J1IW1OLDH","AOAZMLP27GD81","368IUKXGA5U7UZ9GQNUNOB4MGE4P6M","","","<img src=""img/flower1.png"" style=""width:200px; border:14px solid green;"">","null","","","","","",""
"771","","image-keyboard-response","317","268593","0.0-317.0","3MRNMEIQW6SIA77RZKEW2J1IW1OLDH","AOAZMLP27GD81","368IUKXGA5U7UZ9GQNUNOB4MGE4P6M","","","img/flower9.png","76","771.2999999970198","3","1","3","0.8,0.2,0.2,0.2,0.8,0.2,0.2,0.2,0.8",""
"null","","html-keyboard-response","318","268895","0.0-318.0","3MRNMEIQW6SIA77RZKEW2J1IW1OLDH","AOAZMLP27GD81","368IUKXGA5U7UZ9GQNUNOB4MGE4P6M","","","<img src=""img/flower9.png"" style=""width:200px; border:14px solid green;"">","null","","","","","",""
"1436.8999999985099","","image-keyboard-response","319","270332","0.0-319.0","3MRNMEIQW6SIA77RZKEW2J1IW1OLDH","AOAZMLP27GD81","368IUKXGA5U7UZ9GQNUNOB4MGE4P6M","","","img/flower1.png","75","1437.3999999985099","2","0","1","0.8,0.2,0.2,0.2,0.8,0.2,0.2,0.2,0.8",""
"null","","html-keyboard-response","320","270633","0.0-320.0","3MRNMEIQW6SIA77RZKEW2J1IW1OLDH","AOAZMLP27GD81","368IUKXGA5U7UZ9GQNUNOB4MGE4P6M","","","<img src=""img/flower1.png"" style=""width:200px;border:14px solid red;"">","null","","","","","",""
"1101.6000000014901","","image-keyboard-response","321","271735","0.0-321.0","3MRNMEIQW6SIA77RZKEW2J1IW1OLDH","AOAZMLP27GD81","368IUKXGA5U7UZ9GQNUNOB4MGE4P6M","","","img/flower6.png","75","1101.8999999985099","2","1","2","0.8,0.2,0.2,0.2,0.8,0.2,0.2,0.2,0.8",""
"null","","html-keyboard-response","322","272036","0.0-322.0","3MRNMEIQW6SIA77RZKEW2J1IW1OLDH","AOAZMLP27GD81","368IUKXGA5U7UZ9GQNUNOB4MGE4P6M","","","<img src=""img/flower6.png"" style=""width:200px; border:14px solid green;"">","null","","","","","",""
"1557.2000000029802","","image-keyboard-response","323","273594","0.0-323.0","3MRNMEIQW6SIA77RZKEW2J1IW1OLDH","AOAZMLP27GD81","368IUKXGA5U7UZ9GQNUNOB4MGE4P6M","","","img/flower9.png","76","1557.4000000059605","3","1","3","0.8,0.2,0.2,0.2,0.8,0.2,0.2,0.2,0.8",""
"null","","html-keyboard-response","324","273895","0.0-324.0","3MRNMEIQW6SIA77RZKEW2J1IW1OLDH","AOAZMLP27GD81","368IUKXGA5U7UZ9GQNUNOB4MGE4P6M","","","<img src=""img/flower9.png"" style=""width:200px; border:14px solid green;"">","null","","","","","",""
"574.2000000029802","","image-keyboard-response","325","274470","0.0-325.0","3MRNMEIQW6SIA77RZKEW2J1IW1OLDH","AOAZMLP27GD81","368IUKXGA5U7UZ9GQNUNOB4MGE4P6M","","","img/flower9.png","76","574.5999999940395","3","0","3","0.8,0.2,0.2,0.2,0.8,0.2,0.2,0.2,0.8",""
"null","","html-keyboard-response","326","274772","0.0-326.0","3MRNMEIQW6SIA77RZKEW2J1IW1OLDH","AOAZMLP27GD81","368IUKXGA5U7UZ9GQNUNOB4MGE4P6M","","","<img src=""img/flower9.png"" style=""width:200px;border:14px solid red;"">","null","","","","","",""
"996.7999999970198","","image-keyboard-response","327","275769","0.0-327.0","3MRNMEIQW6SIA77RZKEW2J1IW1OLDH","AOAZMLP27GD81","368IUKXGA5U7UZ9GQNUNOB4MGE4P6M","","","img/flower6.png","75","997.2000000029802","2","1","2","0.8,0.2,0.2,0.2,0.8,0.2,0.2,0.2,0.8",""
"null","","html-keyboard-response","328","276070","0.0-328.0","3MRNMEIQW6SIA77RZKEW2J1IW1OLDH","AOAZMLP27GD81","368IUKXGA5U7UZ9GQNUNOB4MGE4P6M","","","<img src=""img/flower6.png"" style=""width:200px; border:14px solid green;"">","null","","","","","",""
"695.7000000029802","","image-keyboard-response","329","276766","0.0-329.0","3MRNMEIQW6SIA77RZKEW2J1IW1OLDH","AOAZMLP27GD81","368IUKXGA5U7UZ9GQNUNOB4MGE4P6M","","","img/flower1.png","74","696.1000000014901","1","1","1","0.8,0.2,0.2,0.2,0.8,0.2,0.2,0.2,0.8",""
"null","","html-keyboard-response","330","277068","0.0-330.0","3MRNMEIQW6SIA77RZKEW2J1IW1OLDH","AOAZMLP27GD81","368IUKXGA5U7UZ9GQNUNOB4MGE4P6M","","","<img src=""img/flower1.png"" style=""width:200px; border:14px solid green;"">","null","","","","","",""
"426.1000000014901","","image-keyboard-response","331","277494","0.0-331.0","3MRNMEIQW6SIA77RZKEW2J1IW1OLDH","AOAZMLP27GD81","368IUKXGA5U7UZ9GQNUNOB4MGE4P6M","","","img/flower1.png","74","426.5","1","1","1","0.8,0.2,0.2,0.2,0.8,0.2,0.2,0.2,0.8",""
"null","","html-keyboard-response","332","277795","0.0-332.0","3MRNMEIQW6SIA77RZKEW2J1IW1OLDH","AOAZMLP27GD81","368IUKXGA5U7UZ9GQNUNOB4MGE4P6M","","","<img src=""img/flower1.png"" style=""width:200px; border:14px solid green;"">","null","","","","","",""
"756.6000000014901","","image-keyboard-response","333","278552","0.0-333.0","3MRNMEIQW6SIA77RZKEW2J1IW1OLDH","AOAZMLP27GD81","368IUKXGA5U7UZ9GQNUNOB4MGE4P6M","","","img/flower6.png","75","757","2","1","2","0.8,0.2,0.2,0.2,0.8,0.2,0.2,0.2,0.8",""
"null","","html-keyboard-response","334","278854","0.0-334.0","3MRNMEIQW6SIA77RZKEW2J1IW1OLDH","AOAZMLP27GD81","368IUKXGA5U7UZ9GQNUNOB4MGE4P6M","","","<img src=""img/flower6.png"" style=""width:200px; border:14px solid green;"">","null","","","","","",""
"557.8000000044703","","image-keyboard-response","335","279412","0.0-335.0","3MRNMEIQW6SIA77RZKEW2J1IW1OLDH","AOAZMLP27GD81","368IUKXGA5U7UZ9GQNUNOB4MGE4P6M","","","img/flower9.png","76","558.1000000014901","3","1","3","0.8,0.2,0.2,0.2,0.8,0.2,0.2,0.2,0.8",""
"null","","html-keyboard-response","336","279714","0.0-336.0","3MRNMEIQW6SIA77RZKEW2J1IW1OLDH","AOAZMLP27GD81","368IUKXGA5U7UZ9GQNUNOB4MGE4P6M","","","<img src=""img/flower9.png"" style=""width:200px; border:14px solid green;"">","null","","","","","",""
"732.7000000029802","","image-keyboard-response","337","280447","0.0-337.0","3MRNMEIQW6SIA77RZKEW2J1IW1OLDH","AOAZMLP27GD81","368IUKXGA5U7UZ9GQNUNOB4MGE4P6M","","","img/flower6.png","75","733","2","1","2","0.8,0.2,0.2,0.2,0.8,0.2,0.2,0.2,0.8",""
"null","","html-keyboard-response","338","280749","0.0-338.0","3MRNMEIQW6SIA77RZKEW2J1IW1OLDH","AOAZMLP27GD81","368IUKXGA5U7UZ9GQNUNOB4MGE4P6M","","","<img src=""img/flower6.png"" style=""width:200px; border:14px solid green;"">","null","","","","","",""
"393.19999999552965","","image-keyboard-response","339","281142","0.0-339.0","3MRNMEIQW6SIA77RZKEW2J1IW1OLDH","AOAZMLP27GD81","368IUKXGA5U7UZ9GQNUNOB4MGE4P6M","","","img/flower6.png","75","393.6000000014901","2","1","2","0.8,0.2,0.2,0.2,0.8,0.2,0.2,0.2,0.8",""
"null","","html-keyboard-response","340","281444","0.0-340.0","3MRNMEIQW6SIA77RZKEW2J1IW1OLDH","AOAZMLP27GD81","368IUKXGA5U7UZ9GQNUNOB4MGE4P6M","","","<img src=""img/flower6.png"" style=""width:200px; border:14px solid green;"">","null","","","","","",""
"565.8999999985099","","image-keyboard-response","341","282010","0.0-341.0","3MRNMEIQW6SIA77RZKEW2J1IW1OLDH","AOAZMLP27GD81","368IUKXGA5U7UZ9GQNUNOB4MGE4P6M","","","img/flower1.png","74","566.3000000044703","1","1","1","0.8,0.2,0.2,0.2,0.8,0.2,0.2,0.2,0.8",""
"null","","html-keyboard-response","342","282311","0.0-342.0","3MRNMEIQW6SIA77RZKEW2J1IW1OLDH","AOAZMLP27GD81","368IUKXGA5U7UZ9GQNUNOB4MGE4P6M","","","<img src=""img/flower1.png"" style=""width:200px; border:14px solid green;"">","null","","","","","",""
"655.3000000044703","","image-keyboard-response","343","282967","0.0-343.0","3MRNMEIQW6SIA77RZKEW2J1IW1OLDH","AOAZMLP27GD81","368IUKXGA5U7UZ9GQNUNOB4MGE4P6M","","","img/flower9.png","76","655.6999999955297","3","0","3","0.8,0.2,0.2,0.2,0.8,0.2,0.2,0.2,0.8",""
"null","","html-keyboard-response","344","283268","0.0-344.0","3MRNMEIQW6SIA77RZKEW2J1IW1OLDH","AOAZMLP27GD81","368IUKXGA5U7UZ9GQNUNOB4MGE4P6M","","","<img src=""img/flower9.png"" style=""width:200px;border:14px solid red;"">","null","","","","","",""
"945.2000000029802","","image-keyboard-response","345","284214","0.0-345.0","3MRNMEIQW6SIA77RZKEW2J1IW1OLDH","AOAZMLP27GD81","368IUKXGA5U7UZ9GQNUNOB4MGE4P6M","","","img/flower1.png","75","945.6999999955297","2","1","1","0.8,0.2,0.2,0.2,0.8,0.2,0.2,0.2,0.8",""
"null","","html-keyboard-response","346","284515","0.0-346.0","3MRNMEIQW6SIA77RZKEW2J1IW1OLDH","AOAZMLP27GD81","368IUKXGA5U7UZ9GQNUNOB4MGE4P6M","","","<img src=""img/flower1.png"" style=""width:200px; border:14px solid green;"">","null","","","","","",""
"2157.5","","image-keyboard-response","347","286674","0.0-347.0","3MRNMEIQW6SIA77RZKEW2J1IW1OLDH","AOAZMLP27GD81","368IUKXGA5U7UZ9GQNUNOB4MGE4P6M","","","img/flower9.png","76","2158.10000000149","3","1","3","0.8,0.2,0.2,0.2,0.8,0.2,0.2,0.2,0.8",""
"null","","html-keyboard-response","348","286975","0.0-348.0","3MRNMEIQW6SIA77RZKEW2J1IW1OLDH","AOAZMLP27GD81","368IUKXGA5U7UZ9GQNUNOB4MGE4P6M","","","<img src=""img/flower9.png"" style=""width:200px; border:14px solid green;"">","null","","","","","",""
"637.5","","image-keyboard-response","349","287613","0.0-349.0","3MRNMEIQW6SIA77RZKEW2J1IW1OLDH","AOAZMLP27GD81","368IUKXGA5U7UZ9GQNUNOB4MGE4P6M","","","img/flower1.png","74","637.8999999985099","1","1","1","0.8,0.2,0.2,0.2,0.8,0.2,0.2,0.2,0.8",""
"null","","html-keyboard-response","350","287914","0.0-350.0","3MRNMEIQW6SIA77RZKEW2J1IW1OLDH","AOAZMLP27GD81","368IUKXGA5U7UZ9GQNUNOB4MGE4P6M","","","<img src=""img/flower1.png"" style=""width:200px; border:14px solid green;"">","null","","","","","",""
"643.1000000014901","","image-keyboard-response","351","288558","0.0-351.0","3MRNMEIQW6SIA77RZKEW2J1IW1OLDH","AOAZMLP27GD81","368IUKXGA5U7UZ9GQNUNOB4MGE4P6M","","","img/flower6.png","75","643.3999999985099","2","0","2","0.8,0.2,0.2,0.2,0.8,0.2,0.2,0.2,0.8",""
"null","","html-keyboard-response","352","288859","0.0-352.0","3MRNMEIQW6SIA77RZKEW2J1IW1OLDH","AOAZMLP27GD81","368IUKXGA5U7UZ9GQNUNOB4MGE4P6M","","","<img src=""img/flower6.png"" style=""width:200px;border:14px solid red;"">","null","","","","","",""
"1557.5","","image-keyboard-response","353","290417","0.0-353.0","3MRNMEIQW6SIA77RZKEW2J1IW1OLDH","AOAZMLP27GD81","368IUKXGA5U7UZ9GQNUNOB4MGE4P6M","","","img/flower1.png","74","1558.0999999940395","1","1","1","0.8,0.2,0.2,0.2,0.8,0.2,0.2,0.2,0.8",""
"null","","html-keyboard-response","354","290718","0.0-354.0","3MRNMEIQW6SIA77RZKEW2J1IW1OLDH","AOAZMLP27GD81","368IUKXGA5U7UZ9GQNUNOB4MGE4P6M","","","<img src=""img/flower1.png"" style=""width:200px; border:14px solid green;"">","null","","","","","",""
"655.2999999970198","","image-keyboard-response","355","291374","0.0-355.0","3MRNMEIQW6SIA77RZKEW2J1IW1OLDH","AOAZMLP27GD81","368IUKXGA5U7UZ9GQNUNOB4MGE4P6M","","","img/flower9.png","76","655.7999999970198","3","1","3","0.8,0.2,0.2,0.2,0.8,0.2,0.2,0.2,0.8",""
"null","","html-keyboard-response","356","291676","0.0-356.0","3MRNMEIQW6SIA77RZKEW2J1IW1OLDH","AOAZMLP27GD81","368IUKXGA5U7UZ9GQNUNOB4MGE4P6M","","","<img src=""img/flower9.png"" style=""width:200px; border:14px solid green;"">","null","","","","","",""
"366.8999999985099","","image-keyboard-response","357","292043","0.0-357.0","3MRNMEIQW6SIA77RZKEW2J1IW1OLDH","AOAZMLP27GD81","368IUKXGA5U7UZ9GQNUNOB4MGE4P6M","","","img/flower9.png","76","367.30000000447035","3","1","3","0.8,0.2,0.2,0.2,0.8,0.2,0.2,0.2,0.8",""
"null","","html-keyboard-response","358","292344","0.0-358.0","3MRNMEIQW6SIA77RZKEW2J1IW1OLDH","AOAZMLP27GD81","368IUKXGA5U7UZ9GQNUNOB4MGE4P6M","","","<img src=""img/flower9.png"" style=""width:200px; border:14px solid green;"">","null","","","","","",""
"631.6000000014901","","image-keyboard-response","359","292976","0.0-359.0","3MRNMEIQW6SIA77RZKEW2J1IW1OLDH","AOAZMLP27GD81","368IUKXGA5U7UZ9GQNUNOB4MGE4P6M","","","img/flower6.png","75","632","2","1","2","0.8,0.2,0.2,0.2,0.8,0.2,0.2,0.2,0.8",""
"null","","html-keyboard-response","360","293277","0.0-360.0","3MRNMEIQW6SIA77RZKEW2J1IW1OLDH","AOAZMLP27GD81","368IUKXGA5U7UZ9GQNUNOB4MGE4P6M","","","<img src=""img/flower6.png"" style=""width:200px; border:14px solid green;"">","null","","","","","",""
"562.2000000029802","","image-keyboard-response","361","293840","0.0-361.0","3MRNMEIQW6SIA77RZKEW2J1IW1OLDH","AOAZMLP27GD81","368IUKXGA5U7UZ9GQNUNOB4MGE4P6M","","","img/flower1.png","74","562.7000000029802","1","1","1","0.8,0.2,0.2,0.2,0.8,0.2,0.2,0.2,0.8",""
"null","","html-keyboard-response","362","294142","0.0-362.0","3MRNMEIQW6SIA77RZKEW2J1IW1OLDH","AOAZMLP27GD81","368IUKXGA5U7UZ9GQNUNOB4MGE4P6M","","","<img src=""img/flower1.png"" style=""width:200px; border:14px solid green;"">","null","","","","","",""
"593.5","","image-keyboard-response","363","294736","0.0-363.0","3MRNMEIQW6SIA77RZKEW2J1IW1OLDH","AOAZMLP27GD81","368IUKXGA5U7UZ9GQNUNOB4MGE4P6M","","","img/flower9.png","76","593.7999999970198","3","1","3","0.8,0.2,0.2,0.2,0.8,0.2,0.2,0.2,0.8",""
"null","","html-keyboard-response","364","295037","0.0-364.0","3MRNMEIQW6SIA77RZKEW2J1IW1OLDH","AOAZMLP27GD81","368IUKXGA5U7UZ9GQNUNOB4MGE4P6M","","","<img src=""img/flower9.png"" style=""width:200px; border:14px solid green;"">","null","","","","","",""
"424","","image-keyboard-response","365","295461","0.0-365.0","3MRNMEIQW6SIA77RZKEW2J1IW1OLDH","AOAZMLP27GD81","368IUKXGA5U7UZ9GQNUNOB4MGE4P6M","","","img/flower9.png","76","424.3999999985099","3","1","3","0.8,0.2,0.2,0.2,0.8,0.2,0.2,0.2,0.8",""
"null","","html-keyboard-response","366","295762","0.0-366.0","3MRNMEIQW6SIA77RZKEW2J1IW1OLDH","AOAZMLP27GD81","368IUKXGA5U7UZ9GQNUNOB4MGE4P6M","","","<img src=""img/flower9.png"" style=""width:200px; border:14px solid green;"">","null","","","","","",""
"409.1000000014901","","image-keyboard-response","367","296172","0.0-367.0","3MRNMEIQW6SIA77RZKEW2J1IW1OLDH","AOAZMLP27GD81","368IUKXGA5U7UZ9GQNUNOB4MGE4P6M","","","img/flower9.png","76","409.6000000014901","3","0","3","0.8,0.2,0.2,0.2,0.8,0.2,0.2,0.2,0.8",""
"null","","html-keyboard-response","368","296473","0.0-368.0","3MRNMEIQW6SIA77RZKEW2J1IW1OLDH","AOAZMLP27GD81","368IUKXGA5U7UZ9GQNUNOB4MGE4P6M","","","<img src=""img/flower9.png"" style=""width:200px;border:14px solid red;"">","null","","","","","",""
"919.4000000059605","","image-keyboard-response","369","297393","0.0-369.0","3MRNMEIQW6SIA77RZKEW2J1IW1OLDH","AOAZMLP27GD81","368IUKXGA5U7UZ9GQNUNOB4MGE4P6M","","","img/flower1.png","74","919.7999999970198","1","1","1","0.8,0.2,0.2,0.2,0.8,0.2,0.2,0.2,0.8",""
"null","","html-keyboard-response","370","297695","0.0-370.0","3MRNMEIQW6SIA77RZKEW2J1IW1OLDH","AOAZMLP27GD81","368IUKXGA5U7UZ9GQNUNOB4MGE4P6M","","","<img src=""img/flower1.png"" style=""width:200px; border:14px solid green;"">","null","","","","","",""
"719.7999999970198","","image-keyboard-response","371","298415","0.0-371.0","3MRNMEIQW6SIA77RZKEW2J1IW1OLDH","AOAZMLP27GD81","368IUKXGA5U7UZ9GQNUNOB4MGE4P6M","","","img/flower6.png","75","720.2000000029802","2","1","2","0.8,0.2,0.2,0.2,0.8,0.2,0.2,0.2,0.8",""
"null","","html-keyboard-response","372","298717","0.0-372.0","3MRNMEIQW6SIA77RZKEW2J1IW1OLDH","AOAZMLP27GD81","368IUKXGA5U7UZ9GQNUNOB4MGE4P6M","","","<img src=""img/flower6.png"" style=""width:200px; border:14px solid green;"">","null","","","","","",""
"572.0999999940395","","image-keyboard-response","373","299289","0.0-373.0","3MRNMEIQW6SIA77RZKEW2J1IW1OLDH","AOAZMLP27GD81","368IUKXGA5U7UZ9GQNUNOB4MGE4P6M","","","img/flower9.png","76","572.5","3","1","3","0.8,0.2,0.2,0.2,0.8,0.2,0.2,0.2,0.8",""
"null","","html-keyboard-response","374","299591","0.0-374.0","3MRNMEIQW6SIA77RZKEW2J1IW1OLDH","AOAZMLP27GD81","368IUKXGA5U7UZ9GQNUNOB4MGE4P6M","","","<img src=""img/flower9.png"" style=""width:200px; border:14px solid green;"">","null","","","","","",""
"376.20000000298023","","image-keyboard-response","375","299967","0.0-375.0","3MRNMEIQW6SIA77RZKEW2J1IW1OLDH","AOAZMLP27GD81","368IUKXGA5U7UZ9GQNUNOB4MGE4P6M","","","img/flower9.png","76","376.70000000298023","3","1","3","0.8,0.2,0.2,0.2,0.8,0.2,0.2,0.2,0.8",""
"null","","html-keyboard-response","376","300269","0.0-376.0","3MRNMEIQW6SIA77RZKEW2J1IW1OLDH","AOAZMLP27GD81","368IUKXGA5U7UZ9GQNUNOB4MGE4P6M","","","<img src=""img/flower9.png"" style=""width:200px; border:14px solid green;"">","null","","","","","",""
"588.5","","image-keyboard-response","377","300858","0.0-377.0","3MRNMEIQW6SIA77RZKEW2J1IW1OLDH","AOAZMLP27GD81","368IUKXGA5U7UZ9GQNUNOB4MGE4P6M","","","img/flower6.png","75","588.8000000044703","2","1","2","0.8,0.2,0.2,0.2,0.8,0.2,0.2,0.2,0.8",""
"null","","html-keyboard-response","378","301159","0.0-378.0","3MRNMEIQW6SIA77RZKEW2J1IW1OLDH","AOAZMLP27GD81","368IUKXGA5U7UZ9GQNUNOB4MGE4P6M","","","<img src=""img/flower6.png"" style=""width:200px; border:14px solid green;"">","null","","","","","",""
"581.7000000029802","","image-keyboard-response","379","301741","0.0-379.0","3MRNMEIQW6SIA77RZKEW2J1IW1OLDH","AOAZMLP27GD81","368IUKXGA5U7UZ9GQNUNOB4MGE4P6M","","","img/flower1.png","74","582","1","1","1","0.8,0.2,0.2,0.2,0.8,0.2,0.2,0.2,0.8",""
"null","","html-keyboard-response","380","302042","0.0-380.0","3MRNMEIQW6SIA77RZKEW2J1IW1OLDH","AOAZMLP27GD81","368IUKXGA5U7UZ9GQNUNOB4MGE4P6M","","","<img src=""img/flower1.png"" style=""width:200px; border:14px solid green;"">","null","","","","","",""
"647.6000000014901","","image-keyboard-response","381","302690","0.0-381.0","3MRNMEIQW6SIA77RZKEW2J1IW1OLDH","AOAZMLP27GD81","368IUKXGA5U7UZ9GQNUNOB4MGE4P6M","","","img/flower6.png","76","648","3","0","2","0.8,0.2,0.2,0.2,0.8,0.2,0.2,0.2,0.8",""
"null","","html-keyboard-response","382","302991","0.0-382.0","3MRNMEIQW6SIA77RZKEW2J1IW1OLDH","AOAZMLP27GD81","368IUKXGA5U7UZ9GQNUNOB4MGE4P6M","","","<img src=""img/flower6.png"" style=""width:200px;border:14px solid red;"">","null","","","","","",""
"2214.60000000149","","image-keyboard-response","383","305206","0.0-383.0","3MRNMEIQW6SIA77RZKEW2J1IW1OLDH","AOAZMLP27GD81","368IUKXGA5U7UZ9GQNUNOB4MGE4P6M","","","img/flower1.png","74","2214.89999999851","1","1","1","0.8,0.2,0.2,0.2,0.8,0.2,0.2,0.2,0.8",""
"null","","html-keyboard-response","384","305507","0.0-384.0","3MRNMEIQW6SIA77RZKEW2J1IW1OLDH","AOAZMLP27GD81","368IUKXGA5U7UZ9GQNUNOB4MGE4P6M","","","<img src=""img/flower1.png"" style=""width:200px; border:14px solid green;"">","null","","","","","",""
"697.9000000059605","","image-keyboard-response","385","306206","0.0-385.0","3MRNMEIQW6SIA77RZKEW2J1IW1OLDH","AOAZMLP27GD81","368IUKXGA5U7UZ9GQNUNOB4MGE4P6M","","","img/flower6.png","75","698.1999999955297","2","1","2","0.8,0.2,0.2,0.2,0.8,0.2,0.2,0.2,0.8",""
"null","","html-keyboard-response","386","306507","0.0-386.0","3MRNMEIQW6SIA77RZKEW2J1IW1OLDH","AOAZMLP27GD81","368IUKXGA5U7UZ9GQNUNOB4MGE4P6M","","","<img src=""img/flower6.png"" style=""width:200px; border:14px solid green;"">","null","","","","","",""
"601.3999999985099","","image-keyboard-response","387","307109","0.0-387.0","3MRNMEIQW6SIA77RZKEW2J1IW1OLDH","AOAZMLP27GD81","368IUKXGA5U7UZ9GQNUNOB4MGE4P6M","","","img/flower1.png","74","601.6999999955297","1","1","1","0.8,0.2,0.2,0.2,0.8,0.2,0.2,0.2,0.8",""
"null","","html-keyboard-response","388","307411","0.0-388.0","3MRNMEIQW6SIA77RZKEW2J1IW1OLDH","AOAZMLP27GD81","368IUKXGA5U7UZ9GQNUNOB4MGE4P6M","","","<img src=""img/flower1.png"" style=""width:200px; border:14px solid green;"">","null","","","","","",""
"598.5","","image-keyboard-response","389","308010","0.0-389.0","3MRNMEIQW6SIA77RZKEW2J1IW1OLDH","AOAZMLP27GD81","368IUKXGA5U7UZ9GQNUNOB4MGE4P6M","","","img/flower9.png","76","598.8999999985099","3","0","3","0.8,0.2,0.2,0.2,0.8,0.2,0.2,0.2,0.8",""
"null","","html-keyboard-response","390","308311","0.0-390.0","3MRNMEIQW6SIA77RZKEW2J1IW1OLDH","AOAZMLP27GD81","368IUKXGA5U7UZ9GQNUNOB4MGE4P6M","","","<img src=""img/flower9.png"" style=""width:200px;border:14px solid red;"">","null","","","","","",""
"772.3000000044703","","image-keyboard-response","391","309084","0.0-391.0","3MRNMEIQW6SIA77RZKEW2J1IW1OLDH","AOAZMLP27GD81","368IUKXGA5U7UZ9GQNUNOB4MGE4P6M","","","img/flower1.png","74","772.6000000014901","1","1","1","0.8,0.2,0.2,0.2,0.8,0.2,0.2,0.2,0.8",""
"null","","html-keyboard-response","392","309385","0.0-392.0","3MRNMEIQW6SIA77RZKEW2J1IW1OLDH","AOAZMLP27GD81","368IUKXGA5U7UZ9GQNUNOB4MGE4P6M","","","<img src=""img/flower1.png"" style=""width:200px; border:14px solid green;"">","null","","","","","",""
"648.7999999970198","","image-keyboard-response","393","310035","0.0-393.0","3MRNMEIQW6SIA77RZKEW2J1IW1OLDH","AOAZMLP27GD81","368IUKXGA5U7UZ9GQNUNOB4MGE4P6M","","","img/flower6.png","75","649.5","2","1","2","0.8,0.2,0.2,0.2,0.8,0.2,0.2,0.2,0.8",""
"null","","html-keyboard-response","394","310337","0.0-394.0","3MRNMEIQW6SIA77RZKEW2J1IW1OLDH","AOAZMLP27GD81","368IUKXGA5U7UZ9GQNUNOB4MGE4P6M","","","<img src=""img/flower6.png"" style=""width:200px; border:14px solid green;"">","null","","","","","",""
"568.3000000044703","","image-keyboard-response","395","310906","0.0-395.0","3MRNMEIQW6SIA77RZKEW2J1IW1OLDH","AOAZMLP27GD81","368IUKXGA5U7UZ9GQNUNOB4MGE4P6M","","","img/flower9.png","76","568.7999999970198","3","1","3","0.8,0.2,0.2,0.2,0.8,0.2,0.2,0.2,0.8",""
"null","","html-keyboard-response","396","311207","0.0-396.0","3MRNMEIQW6SIA77RZKEW2J1IW1OLDH","AOAZMLP27GD81","368IUKXGA5U7UZ9GQNUNOB4MGE4P6M","","","<img src=""img/flower9.png"" style=""width:200px; border:14px solid green;"">","null","","","","","",""
"786.3000000044703","","image-keyboard-response","397","311994","0.0-397.0","3MRNMEIQW6SIA77RZKEW2J1IW1OLDH","AOAZMLP27GD81","368IUKXGA5U7UZ9GQNUNOB4MGE4P6M","","","img/flower6.png","75","786.5999999940395","2","0","2","0.8,0.2,0.2,0.2,0.8,0.2,0.2,0.2,0.8",""
"null","","html-keyboard-response","398","312295","0.0-398.0","3MRNMEIQW6SIA77RZKEW2J1IW1OLDH","AOAZMLP27GD81","368IUKXGA5U7UZ9GQNUNOB4MGE4P6M","","","<img src=""img/flower6.png"" style=""width:200px;border:14px solid red;"">","null","","","","","",""
"485.29999999701977","","image-keyboard-response","399","312781","0.0-399.0","3MRNMEIQW6SIA77RZKEW2J1IW1OLDH","AOAZMLP27GD81","368IUKXGA5U7UZ9GQNUNOB4MGE4P6M","","","img/flower6.png","75","485.70000000298023","2","0","2","0.8,0.2,0.2,0.2,0.8,0.2,0.2,0.2,0.8",""
"null","","html-keyboard-response","400","313082","0.0-400.0","3MRNMEIQW6SIA77RZKEW2J1IW1OLDH","AOAZMLP27GD81","368IUKXGA5U7UZ9GQNUNOB4MGE4P6M","","","<img src=""img/flower6.png"" style=""width:200px;border:14px solid red;"">","null","","","","","",""
