"success","trial_type","trial_index","time_elapsed","internal_node_id","assignmentID","mturkID","hitID","view_history","rt","stimulus","key_press","reactionTime","a","r","s","cond","reward_cond","reward_cond_actual","reward_matrix_idx","responses"
"true","fullscreen","0","15185","0.0-0.0","32M8BPYGAU8JWQ9CG7IRGOCNWZ7GIT","AOS2PVHT2HYTL","3JUDR1D0D6D4CARU3YX9Y3DK5DJ2QK","","","","","","","","","","","","",""
"","instructions","1","39741","0.0-1.0","32M8BPYGAU8JWQ9CG7IRGOCNWZ7GIT","AOS2PVHT2HYTL","3JUDR1D0D6D4CARU3YX9Y3DK5DJ2QK","[{""page_index"":0,""viewing_time"":1908.6000001430511},{""page_index"":1,""viewing_time"":2304.2999999523163},{""page_index"":2,""viewing_time"":2690.0999999046326},{""page_index"":3,""viewing_time"":1664.6000001430511},{""page_index"":4,""viewing_time"":3764.0999999046326},{""page_index"":5,""viewing_time"":3166},{""page_index"":6,""viewing_time"":2548},{""page_index"":7,""viewing_time"":6506.400000095367}]","24553.10000014305","","","","","","","","","","",""
"","image-keyboard-response","2","40975","0.0-2.0","32M8BPYGAU8JWQ9CG7IRGOCNWZ7GIT","AOS2PVHT2HYTL","3JUDR1D0D6D4CARU3YX9Y3DK5DJ2QK","","1227.7000000476837","img/flower5.png","74","1233.9000000953674","1","1","1","1","1,0.333,0.333,0.333,1,0.333,0.333,0.333,1","1,0.333,0.333,0.333,1,0.333,0.333,0.333,1","1",""
"","html-keyboard-response","3","41282","0.0-3.0","32M8BPYGAU8JWQ9CG7IRGOCNWZ7GIT","AOS2PVHT2HYTL","3JUDR1D0D6D4CARU3YX9Y3DK5DJ2QK","","null","<img src=""img/flower5.png"" style=""width:200px; border:14px solid green;"">","null","","","","","","","","",""
"","image-keyboard-response","4","42300","0.0-4.0","32M8BPYGAU8JWQ9CG7IRGOCNWZ7GIT","AOS2PVHT2HYTL","3JUDR1D0D6D4CARU3YX9Y3DK5DJ2QK","","1015.5999999046326","img/flower5.png","74","1017.7000000476837","1","1","1","1","1,0.333,0.333,0.333,1,0.333,0.333,0.333,1","1,0.333,0.333,0.333,1,0.333,0.333,0.333,1","1",""
"","html-keyboard-response","5","42605","0.0-5.0","32M8BPYGAU8JWQ9CG7IRGOCNWZ7GIT","AOS2PVHT2HYTL","3JUDR1D0D6D4CARU3YX9Y3DK5DJ2QK","","null","<img src=""img/flower5.png"" style=""width:200px; border:14px solid green;"">","null","","","","","","","","",""
"","image-keyboard-response","6","43380","0.0-6.0","32M8BPYGAU8JWQ9CG7IRGOCNWZ7GIT","AOS2PVHT2HYTL","3JUDR1D0D6D4CARU3YX9Y3DK5DJ2QK","","769.3999998569489","img/flower1.png","75","774.7999999523163","2","1","2","1","1,0.333,0.333,0.333,1,0.333,0.333,0.333,1","1,0.333,0.333,0.333,1,0.333,0.333,0.333,1","1",""
"","html-keyboard-response","7","43684","0.0-7.0","32M8BPYGAU8JWQ9CG7IRGOCNWZ7GIT","AOS2PVHT2HYTL","3JUDR1D0D6D4CARU3YX9Y3DK5DJ2QK","","null","<img src=""img/flower1.png"" style=""width:200px; border:14px solid green;"">","null","","","","","","","","",""
"","image-keyboard-response","8","44233","0.0-8.0","32M8BPYGAU8JWQ9CG7IRGOCNWZ7GIT","AOS2PVHT2HYTL","3JUDR1D0D6D4CARU3YX9Y3DK5DJ2QK","","546.3999998569489","img/flower1.png","75","548.5","2","1","2","1","1,0.333,0.333,0.333,1,0.333,0.333,0.333,1","1,0.333,0.333,0.333,1,0.333,0.333,0.333,1","1",""
"","html-keyboard-response","9","44536","0.0-9.0","32M8BPYGAU8JWQ9CG7IRGOCNWZ7GIT","AOS2PVHT2HYTL","3JUDR1D0D6D4CARU3YX9Y3DK5DJ2QK","","null","<img src=""img/flower1.png"" style=""width:200px; border:14px solid green;"">","null","","","","","","","","",""
"","image-keyboard-response","10","45230","0.0-10.0","32M8BPYGAU8JWQ9CG7IRGOCNWZ7GIT","AOS2PVHT2HYTL","3JUDR1D0D6D4CARU3YX9Y3DK5DJ2QK","","689.7999999523163","img/flower6.png","76","693.0999999046326","3","1","3","1","1,0.333,0.333,0.333,1,0.333,0.333,0.333,1","1,0.333,0.333,0.333,1,0.333,0.333,0.333,1","1",""
"","html-keyboard-response","11","45535","0.0-11.0","32M8BPYGAU8JWQ9CG7IRGOCNWZ7GIT","AOS2PVHT2HYTL","3JUDR1D0D6D4CARU3YX9Y3DK5DJ2QK","","null","<img src=""img/flower6.png"" style=""width:200px; border:14px solid green;"">","null","","","","","","","","",""
"","image-keyboard-response","12","46474","0.0-12.0","32M8BPYGAU8JWQ9CG7IRGOCNWZ7GIT","AOS2PVHT2HYTL","3JUDR1D0D6D4CARU3YX9Y3DK5DJ2QK","","935.7999999523163","img/flower5.png","74","938.3999998569489","1","1","1","1","1,0.333,0.333,0.333,1,0.333,0.333,0.333,1","1,0.333,0.333,0.333,1,0.333,0.333,0.333,1","1",""
"","html-keyboard-response","13","46778","0.0-13.0","32M8BPYGAU8JWQ9CG7IRGOCNWZ7GIT","AOS2PVHT2HYTL","3JUDR1D0D6D4CARU3YX9Y3DK5DJ2QK","","null","<img src=""img/flower5.png"" style=""width:200px; border:14px solid green;"">","null","","","","","","","","",""
"","image-keyboard-response","14","47538","0.0-14.0","32M8BPYGAU8JWQ9CG7IRGOCNWZ7GIT","AOS2PVHT2HYTL","3JUDR1D0D6D4CARU3YX9Y3DK5DJ2QK","","753.7000000476837","img/flower1.png","75","759.6000001430511","2","1","2","1","1,0.333,0.333,0.333,1,0.333,0.333,0.333,1","1,0.333,0.333,0.333,1,0.333,0.333,0.333,1","1",""
"","html-keyboard-response","15","47841","0.0-15.0","32M8BPYGAU8JWQ9CG7IRGOCNWZ7GIT","AOS2PVHT2HYTL","3JUDR1D0D6D4CARU3YX9Y3DK5DJ2QK","","null","<img src=""img/flower1.png"" style=""width:200px; border:14px solid green;"">","null","","","","","","","","",""
"","image-keyboard-response","16","48480","0.0-16.0","32M8BPYGAU8JWQ9CG7IRGOCNWZ7GIT","AOS2PVHT2HYTL","3JUDR1D0D6D4CARU3YX9Y3DK5DJ2QK","","635.7999999523163","img/flower1.png","75","638.7000000476837","2","1","2","1","1,0.333,0.333,0.333,1,0.333,0.333,0.333,1","1,0.333,0.333,0.333,1,0.333,0.333,0.333,1","1",""
"","html-keyboard-response","17","48783","0.0-17.0","32M8BPYGAU8JWQ9CG7IRGOCNWZ7GIT","AOS2PVHT2HYTL","3JUDR1D0D6D4CARU3YX9Y3DK5DJ2QK","","null","<img src=""img/flower1.png"" style=""width:200px; border:14px solid green;"">","null","","","","","","","","",""
"","image-keyboard-response","18","49459","0.0-18.0","32M8BPYGAU8JWQ9CG7IRGOCNWZ7GIT","AOS2PVHT2HYTL","3JUDR1D0D6D4CARU3YX9Y3DK5DJ2QK","","673.7000000476837","img/flower5.png","76","675.5","3","0","1","1","1,0.333,0.333,0.333,1,0.333,0.333,0.333,1","1,0.333,0.333,0.333,1,0.333,0.333,0.333,1","1",""
"","html-keyboard-response","19","49767","0.0-19.0","32M8BPYGAU8JWQ9CG7IRGOCNWZ7GIT","AOS2PVHT2HYTL","3JUDR1D0D6D4CARU3YX9Y3DK5DJ2QK","","null","<img src=""img/flower5.png"" style=""width:200px;border:14px solid red;"">","null","","","","","","","","",""
"","image-keyboard-response","20","50793","0.0-20.0","32M8BPYGAU8JWQ9CG7IRGOCNWZ7GIT","AOS2PVHT2HYTL","3JUDR1D0D6D4CARU3YX9Y3DK5DJ2QK","","1018.5","img/flower6.png","76","1024.2000000476837","3","1","3","1","1,0.333,0.333,0.333,1,0.333,0.333,0.333,1","1,0.333,0.333,0.333,1,0.333,0.333,0.333,1","1",""
"","html-keyboard-response","21","51097","0.0-21.0","32M8BPYGAU8JWQ9CG7IRGOCNWZ7GIT","AOS2PVHT2HYTL","3JUDR1D0D6D4CARU3YX9Y3DK5DJ2QK","","null","<img src=""img/flower6.png"" style=""width:200px; border:14px solid green;"">","null","","","","","","","","",""
"","image-keyboard-response","22","51912","0.0-22.0","32M8BPYGAU8JWQ9CG7IRGOCNWZ7GIT","AOS2PVHT2HYTL","3JUDR1D0D6D4CARU3YX9Y3DK5DJ2QK","","812.0999999046326","img/flower1.png","75","814.7000000476837","2","1","2","1","1,0.333,0.333,0.333,1,0.333,0.333,0.333,1","1,0.333,0.333,0.333,1,0.333,0.333,0.333,1","1",""
"","html-keyboard-response","23","52215","0.0-23.0","32M8BPYGAU8JWQ9CG7IRGOCNWZ7GIT","AOS2PVHT2HYTL","3JUDR1D0D6D4CARU3YX9Y3DK5DJ2QK","","null","<img src=""img/flower1.png"" style=""width:200px; border:14px solid green;"">","null","","","","","","","","",""
"","image-keyboard-response","24","53346","0.0-24.0","32M8BPYGAU8JWQ9CG7IRGOCNWZ7GIT","AOS2PVHT2HYTL","3JUDR1D0D6D4CARU3YX9Y3DK5DJ2QK","","1128.5999999046326","img/flower5.png","74","1130.4000000953674","1","1","1","1","1,0.333,0.333,0.333,1,0.333,0.333,0.333,1","1,0.333,0.333,0.333,1,0.333,0.333,0.333,1","1",""
"","html-keyboard-response","25","53650","0.0-25.0","32M8BPYGAU8JWQ9CG7IRGOCNWZ7GIT","AOS2PVHT2HYTL","3JUDR1D0D6D4CARU3YX9Y3DK5DJ2QK","","null","<img src=""img/flower5.png"" style=""width:200px; border:14px solid green;"">","null","","","","","","","","",""
"","image-keyboard-response","26","54267","0.0-26.0","32M8BPYGAU8JWQ9CG7IRGOCNWZ7GIT","AOS2PVHT2HYTL","3JUDR1D0D6D4CARU3YX9Y3DK5DJ2QK","","614.0999999046326","img/flower1.png","75","616.9000000953674","2","1","2","1","1,0.333,0.333,0.333,1,0.333,0.333,0.333,1","1,0.333,0.333,0.333,1,0.333,0.333,0.333,1","1",""
"","html-keyboard-response","27","54571","0.0-27.0","32M8BPYGAU8JWQ9CG7IRGOCNWZ7GIT","AOS2PVHT2HYTL","3JUDR1D0D6D4CARU3YX9Y3DK5DJ2QK","","null","<img src=""img/flower1.png"" style=""width:200px; border:14px solid green;"">","null","","","","","","","","",""
"","image-keyboard-response","28","55608","0.0-28.0","32M8BPYGAU8JWQ9CG7IRGOCNWZ7GIT","AOS2PVHT2HYTL","3JUDR1D0D6D4CARU3YX9Y3DK5DJ2QK","","1033.9000000953674","img/flower1.png","75","1036.2000000476837","2","1","2","1","1,0.333,0.333,0.333,1,0.333,0.333,0.333,1","1,0.333,0.333,0.333,1,0.333,0.333,0.333,1","1",""
"","html-keyboard-response","29","55912","0.0-29.0","32M8BPYGAU8JWQ9CG7IRGOCNWZ7GIT","AOS2PVHT2HYTL","3JUDR1D0D6D4CARU3YX9Y3DK5DJ2QK","","null","<img src=""img/flower1.png"" style=""width:200px; border:14px solid green;"">","null","","","","","","","","",""
"","image-keyboard-response","30","56649","0.0-30.0","32M8BPYGAU8JWQ9CG7IRGOCNWZ7GIT","AOS2PVHT2HYTL","3JUDR1D0D6D4CARU3YX9Y3DK5DJ2QK","","733.6999998092651","img/flower6.png","76","736.2999999523163","3","1","3","1","1,0.333,0.333,0.333,1,0.333,0.333,0.333,1","1,0.333,0.333,0.333,1,0.333,0.333,0.333,1","1",""
"","html-keyboard-response","31","56953","0.0-31.0","32M8BPYGAU8JWQ9CG7IRGOCNWZ7GIT","AOS2PVHT2HYTL","3JUDR1D0D6D4CARU3YX9Y3DK5DJ2QK","","null","<img src=""img/flower6.png"" style=""width:200px; border:14px solid green;"">","null","","","","","","","","",""
"","image-keyboard-response","32","57641","0.0-32.0","32M8BPYGAU8JWQ9CG7IRGOCNWZ7GIT","AOS2PVHT2HYTL","3JUDR1D0D6D4CARU3YX9Y3DK5DJ2QK","","684.3999998569489","img/flower6.png","76","686.9000000953674","3","1","3","1","1,0.333,0.333,0.333,1,0.333,0.333,0.333,1","1,0.333,0.333,0.333,1,0.333,0.333,0.333,1","1",""
"","html-keyboard-response","33","57945","0.0-33.0","32M8BPYGAU8JWQ9CG7IRGOCNWZ7GIT","AOS2PVHT2HYTL","3JUDR1D0D6D4CARU3YX9Y3DK5DJ2QK","","null","<img src=""img/flower6.png"" style=""width:200px; border:14px solid green;"">","null","","","","","","","","",""
"","image-keyboard-response","34","58915","0.0-34.0","32M8BPYGAU8JWQ9CG7IRGOCNWZ7GIT","AOS2PVHT2HYTL","3JUDR1D0D6D4CARU3YX9Y3DK5DJ2QK","","954.2000000476837","img/flower5.png","74","956.6000001430511","1","1","1","1","1,0.333,0.333,0.333,1,0.333,0.333,0.333,1","1,0.333,0.333,0.333,1,0.333,0.333,0.333,1","1",""
"","html-keyboard-response","35","59218","0.0-35.0","32M8BPYGAU8JWQ9CG7IRGOCNWZ7GIT","AOS2PVHT2HYTL","3JUDR1D0D6D4CARU3YX9Y3DK5DJ2QK","","null","<img src=""img/flower5.png"" style=""width:200px; border:14px solid green;"">","null","","","","","","","","",""
"","image-keyboard-response","36","60233","0.0-36.0","32M8BPYGAU8JWQ9CG7IRGOCNWZ7GIT","AOS2PVHT2HYTL","3JUDR1D0D6D4CARU3YX9Y3DK5DJ2QK","","1011","img/flower6.png","76","1013.5","3","1","3","1","1,0.333,0.333,0.333,1,0.333,0.333,0.333,1","1,0.333,0.333,0.333,1,0.333,0.333,0.333,1","1",""
"","html-keyboard-response","37","60536","0.0-37.0","32M8BPYGAU8JWQ9CG7IRGOCNWZ7GIT","AOS2PVHT2HYTL","3JUDR1D0D6D4CARU3YX9Y3DK5DJ2QK","","null","<img src=""img/flower6.png"" style=""width:200px; border:14px solid green;"">","null","","","","","","","","",""
"","image-keyboard-response","38","61074","0.0-38.0","32M8BPYGAU8JWQ9CG7IRGOCNWZ7GIT","AOS2PVHT2HYTL","3JUDR1D0D6D4CARU3YX9Y3DK5DJ2QK","","535.0999999046326","img/flower6.png","76","537.5","3","1","3","1","1,0.333,0.333,0.333,1,0.333,0.333,0.333,1","1,0.333,0.333,0.333,1,0.333,0.333,0.333,1","1",""
"","html-keyboard-response","39","61378","0.0-39.0","32M8BPYGAU8JWQ9CG7IRGOCNWZ7GIT","AOS2PVHT2HYTL","3JUDR1D0D6D4CARU3YX9Y3DK5DJ2QK","","null","<img src=""img/flower6.png"" style=""width:200px; border:14px solid green;"">","null","","","","","","","","",""
"","image-keyboard-response","40","61930","0.0-40.0","32M8BPYGAU8JWQ9CG7IRGOCNWZ7GIT","AOS2PVHT2HYTL","3JUDR1D0D6D4CARU3YX9Y3DK5DJ2QK","","549.5","img/flower6.png","76","551.9000000953674","3","1","3","1","1,0.333,0.333,0.333,1,0.333,0.333,0.333,1","1,0.333,0.333,0.333,1,0.333,0.333,0.333,1","1",""
"","html-keyboard-response","41","62234","0.0-41.0","32M8BPYGAU8JWQ9CG7IRGOCNWZ7GIT","AOS2PVHT2HYTL","3JUDR1D0D6D4CARU3YX9Y3DK5DJ2QK","","null","<img src=""img/flower6.png"" style=""width:200px; border:14px solid green;"">","null","","","","","","","","",""
"","image-keyboard-response","42","62740","0.0-42.0","32M8BPYGAU8JWQ9CG7IRGOCNWZ7GIT","AOS2PVHT2HYTL","3JUDR1D0D6D4CARU3YX9Y3DK5DJ2QK","","502.80000019073486","img/flower6.png","76","505.5","3","1","3","1","1,0.333,0.333,0.333,1,0.333,0.333,0.333,1","1,0.333,0.333,0.333,1,0.333,0.333,0.333,1","1",""
"","html-keyboard-response","43","63044","0.0-43.0","32M8BPYGAU8JWQ9CG7IRGOCNWZ7GIT","AOS2PVHT2HYTL","3JUDR1D0D6D4CARU3YX9Y3DK5DJ2QK","","null","<img src=""img/flower6.png"" style=""width:200px; border:14px solid green;"">","null","","","","","","","","",""
"","image-keyboard-response","44","63498","0.0-44.0","32M8BPYGAU8JWQ9CG7IRGOCNWZ7GIT","AOS2PVHT2HYTL","3JUDR1D0D6D4CARU3YX9Y3DK5DJ2QK","","451","img/flower6.png","76","453.60000014305115","3","1","3","1","1,0.333,0.333,0.333,1,0.333,0.333,0.333,1","1,0.333,0.333,0.333,1,0.333,0.333,0.333,1","1",""
"","html-keyboard-response","45","63802","0.0-45.0","32M8BPYGAU8JWQ9CG7IRGOCNWZ7GIT","AOS2PVHT2HYTL","3JUDR1D0D6D4CARU3YX9Y3DK5DJ2QK","","null","<img src=""img/flower6.png"" style=""width:200px; border:14px solid green;"">","null","","","","","","","","",""
"","image-keyboard-response","46","64731","0.0-46.0","32M8BPYGAU8JWQ9CG7IRGOCNWZ7GIT","AOS2PVHT2HYTL","3JUDR1D0D6D4CARU3YX9Y3DK5DJ2QK","","927.7999999523163","img/flower1.png","75","929","2","1","2","1","1,0.333,0.333,0.333,1,0.333,0.333,0.333,1","1,0.333,0.333,0.333,1,0.333,0.333,0.333,1","1",""
"","html-keyboard-response","47","65035","0.0-47.0","32M8BPYGAU8JWQ9CG7IRGOCNWZ7GIT","AOS2PVHT2HYTL","3JUDR1D0D6D4CARU3YX9Y3DK5DJ2QK","","null","<img src=""img/flower1.png"" style=""width:200px; border:14px solid green;"">","null","","","","","","","","",""
"","image-keyboard-response","48","65537","0.0-48.0","32M8BPYGAU8JWQ9CG7IRGOCNWZ7GIT","AOS2PVHT2HYTL","3JUDR1D0D6D4CARU3YX9Y3DK5DJ2QK","","498.7000000476837","img/flower1.png","75","501.2000000476837","2","1","2","1","1,0.333,0.333,0.333,1,0.333,0.333,0.333,1","1,0.333,0.333,0.333,1,0.333,0.333,0.333,1","1",""
"","html-keyboard-response","49","65840","0.0-49.0","32M8BPYGAU8JWQ9CG7IRGOCNWZ7GIT","AOS2PVHT2HYTL","3JUDR1D0D6D4CARU3YX9Y3DK5DJ2QK","","null","<img src=""img/flower1.png"" style=""width:200px; border:14px solid green;"">","null","","","","","","","","",""
"","image-keyboard-response","50","66558","0.0-50.0","32M8BPYGAU8JWQ9CG7IRGOCNWZ7GIT","AOS2PVHT2HYTL","3JUDR1D0D6D4CARU3YX9Y3DK5DJ2QK","","714.2000000476837","img/flower5.png","74","717.7999999523163","1","1","1","1","1,0.333,0.333,0.333,1,0.333,0.333,0.333,1","1,0.333,0.333,0.333,1,0.333,0.333,0.333,1","1",""
"","html-keyboard-response","51","66865","0.0-51.0","32M8BPYGAU8JWQ9CG7IRGOCNWZ7GIT","AOS2PVHT2HYTL","3JUDR1D0D6D4CARU3YX9Y3DK5DJ2QK","","null","<img src=""img/flower5.png"" style=""width:200px; border:14px solid green;"">","null","","","","","","","","",""
"","image-keyboard-response","52","67555","0.0-52.0","32M8BPYGAU8JWQ9CG7IRGOCNWZ7GIT","AOS2PVHT2HYTL","3JUDR1D0D6D4CARU3YX9Y3DK5DJ2QK","","686.8999998569489","img/flower1.png","75","689.7000000476837","2","1","2","1","1,0.333,0.333,0.333,1,0.333,0.333,0.333,1","1,0.333,0.333,0.333,1,0.333,0.333,0.333,1","1",""
"","html-keyboard-response","53","67858","0.0-53.0","32M8BPYGAU8JWQ9CG7IRGOCNWZ7GIT","AOS2PVHT2HYTL","3JUDR1D0D6D4CARU3YX9Y3DK5DJ2QK","","null","<img src=""img/flower1.png"" style=""width:200px; border:14px solid green;"">","null","","","","","","","","",""
"","image-keyboard-response","54","68338","0.0-54.0","32M8BPYGAU8JWQ9CG7IRGOCNWZ7GIT","AOS2PVHT2HYTL","3JUDR1D0D6D4CARU3YX9Y3DK5DJ2QK","","478.2000000476837","img/flower1.png","75","479.7999999523163","2","1","2","1","1,0.333,0.333,0.333,1,0.333,0.333,0.333,1","1,0.333,0.333,0.333,1,0.333,0.333,0.333,1","1",""
"","html-keyboard-response","55","68642","0.0-55.0","32M8BPYGAU8JWQ9CG7IRGOCNWZ7GIT","AOS2PVHT2HYTL","3JUDR1D0D6D4CARU3YX9Y3DK5DJ2QK","","null","<img src=""img/flower1.png"" style=""width:200px; border:14px solid green;"">","null","","","","","","","","",""
"","image-keyboard-response","56","69120","0.0-56.0","32M8BPYGAU8JWQ9CG7IRGOCNWZ7GIT","AOS2PVHT2HYTL","3JUDR1D0D6D4CARU3YX9Y3DK5DJ2QK","","475.89999985694885","img/flower1.png","75","477.7999999523163","2","1","2","1","1,0.333,0.333,0.333,1,0.333,0.333,0.333,1","1,0.333,0.333,0.333,1,0.333,0.333,0.333,1","1",""
"","html-keyboard-response","57","69423","0.0-57.0","32M8BPYGAU8JWQ9CG7IRGOCNWZ7GIT","AOS2PVHT2HYTL","3JUDR1D0D6D4CARU3YX9Y3DK5DJ2QK","","null","<img src=""img/flower1.png"" style=""width:200px; border:14px solid green;"">","null","","","","","","","","",""
"","image-keyboard-response","58","69854","0.0-58.0","32M8BPYGAU8JWQ9CG7IRGOCNWZ7GIT","AOS2PVHT2HYTL","3JUDR1D0D6D4CARU3YX9Y3DK5DJ2QK","","427.10000014305115","img/flower1.png","75","430.2000000476837","2","1","2","1","1,0.333,0.333,0.333,1,0.333,0.333,0.333,1","1,0.333,0.333,0.333,1,0.333,0.333,0.333,1","1",""
"","html-keyboard-response","59","70157","0.0-59.0","32M8BPYGAU8JWQ9CG7IRGOCNWZ7GIT","AOS2PVHT2HYTL","3JUDR1D0D6D4CARU3YX9Y3DK5DJ2QK","","null","<img src=""img/flower1.png"" style=""width:200px; border:14px solid green;"">","null","","","","","","","","",""
"","image-keyboard-response","60","70745","0.0-60.0","32M8BPYGAU8JWQ9CG7IRGOCNWZ7GIT","AOS2PVHT2HYTL","3JUDR1D0D6D4CARU3YX9Y3DK5DJ2QK","","584.5","img/flower5.png","76","587","3","0","1","1","1,0.333,0.333,0.333,1,0.333,0.333,0.333,1","1,0.333,0.333,0.333,1,0.333,0.333,0.333,1","1",""
"","html-keyboard-response","61","71083","0.0-61.0","32M8BPYGAU8JWQ9CG7IRGOCNWZ7GIT","AOS2PVHT2HYTL","3JUDR1D0D6D4CARU3YX9Y3DK5DJ2QK","","null","<img src=""img/flower5.png"" style=""width:200px;border:14px solid red;"">","null","","","","","","","","",""
"","image-keyboard-response","62","71738","0.0-62.0","32M8BPYGAU8JWQ9CG7IRGOCNWZ7GIT","AOS2PVHT2HYTL","3JUDR1D0D6D4CARU3YX9Y3DK5DJ2QK","","654.5","img/flower1.png","75","655.7999999523163","2","1","2","1","1,0.333,0.333,0.333,1,0.333,0.333,0.333,1","1,0.333,0.333,0.333,1,0.333,0.333,0.333,1","1",""
"","html-keyboard-response","63","72042","0.0-63.0","32M8BPYGAU8JWQ9CG7IRGOCNWZ7GIT","AOS2PVHT2HYTL","3JUDR1D0D6D4CARU3YX9Y3DK5DJ2QK","","null","<img src=""img/flower1.png"" style=""width:200px; border:14px solid green;"">","null","","","","","","","","",""
"","image-keyboard-response","64","72809","0.0-64.0","32M8BPYGAU8JWQ9CG7IRGOCNWZ7GIT","AOS2PVHT2HYTL","3JUDR1D0D6D4CARU3YX9Y3DK5DJ2QK","","764.2999999523163","img/flower5.png","74","766.9000000953674","1","1","1","1","1,0.333,0.333,0.333,1,0.333,0.333,0.333,1","1,0.333,0.333,0.333,1,0.333,0.333,0.333,1","1",""
"","html-keyboard-response","65","73113","0.0-65.0","32M8BPYGAU8JWQ9CG7IRGOCNWZ7GIT","AOS2PVHT2HYTL","3JUDR1D0D6D4CARU3YX9Y3DK5DJ2QK","","null","<img src=""img/flower5.png"" style=""width:200px; border:14px solid green;"">","null","","","","","","","","",""
"","image-keyboard-response","66","73860","0.0-66.0","32M8BPYGAU8JWQ9CG7IRGOCNWZ7GIT","AOS2PVHT2HYTL","3JUDR1D0D6D4CARU3YX9Y3DK5DJ2QK","","745.4000000953674","img/flower1.png","75","746.6000001430511","2","1","2","1","1,0.333,0.333,0.333,1,0.333,0.333,0.333,1","1,0.333,0.333,0.333,1,0.333,0.333,0.333,1","1",""
"","html-keyboard-response","67","74162","0.0-67.0","32M8BPYGAU8JWQ9CG7IRGOCNWZ7GIT","AOS2PVHT2HYTL","3JUDR1D0D6D4CARU3YX9Y3DK5DJ2QK","","null","<img src=""img/flower1.png"" style=""width:200px; border:14px solid green;"">","null","","","","","","","","",""
"","image-keyboard-response","68","75020","0.0-68.0","32M8BPYGAU8JWQ9CG7IRGOCNWZ7GIT","AOS2PVHT2HYTL","3JUDR1D0D6D4CARU3YX9Y3DK5DJ2QK","","856.6000001430511","img/flower5.png","74","857.7000000476837","1","1","1","1","1,0.333,0.333,0.333,1,0.333,0.333,0.333,1","1,0.333,0.333,0.333,1,0.333,0.333,0.333,1","1",""
"","html-keyboard-response","69","75324","0.0-69.0","32M8BPYGAU8JWQ9CG7IRGOCNWZ7GIT","AOS2PVHT2HYTL","3JUDR1D0D6D4CARU3YX9Y3DK5DJ2QK","","null","<img src=""img/flower5.png"" style=""width:200px; border:14px solid green;"">","null","","","","","","","","",""
"","image-keyboard-response","70","76104","0.0-70.0","32M8BPYGAU8JWQ9CG7IRGOCNWZ7GIT","AOS2PVHT2HYTL","3JUDR1D0D6D4CARU3YX9Y3DK5DJ2QK","","776.7999999523163","img/flower1.png","75","780","2","1","2","1","1,0.333,0.333,0.333,1,0.333,0.333,0.333,1","1,0.333,0.333,0.333,1,0.333,0.333,0.333,1","1",""
"","html-keyboard-response","71","76411","0.0-71.0","32M8BPYGAU8JWQ9CG7IRGOCNWZ7GIT","AOS2PVHT2HYTL","3JUDR1D0D6D4CARU3YX9Y3DK5DJ2QK","","null","<img src=""img/flower1.png"" style=""width:200px; border:14px solid green;"">","null","","","","","","","","",""
"","image-keyboard-response","72","77219","0.0-72.0","32M8BPYGAU8JWQ9CG7IRGOCNWZ7GIT","AOS2PVHT2HYTL","3JUDR1D0D6D4CARU3YX9Y3DK5DJ2QK","","805.5","img/flower6.png","76","807.7999999523163","3","1","3","1","1,0.333,0.333,0.333,1,0.333,0.333,0.333,1","1,0.333,0.333,0.333,1,0.333,0.333,0.333,1","1",""
"","html-keyboard-response","73","77523","0.0-73.0","32M8BPYGAU8JWQ9CG7IRGOCNWZ7GIT","AOS2PVHT2HYTL","3JUDR1D0D6D4CARU3YX9Y3DK5DJ2QK","","null","<img src=""img/flower6.png"" style=""width:200px; border:14px solid green;"">","null","","","","","","","","",""
"","image-keyboard-response","74","78407","0.0-74.0","32M8BPYGAU8JWQ9CG7IRGOCNWZ7GIT","AOS2PVHT2HYTL","3JUDR1D0D6D4CARU3YX9Y3DK5DJ2QK","","881.2999999523163","img/flower1.png","75","883.5999999046326","2","1","2","1","1,0.333,0.333,0.333,1,0.333,0.333,0.333,1","1,0.333,0.333,0.333,1,0.333,0.333,0.333,1","1",""
"","html-keyboard-response","75","78711","0.0-75.0","32M8BPYGAU8JWQ9CG7IRGOCNWZ7GIT","AOS2PVHT2HYTL","3JUDR1D0D6D4CARU3YX9Y3DK5DJ2QK","","null","<img src=""img/flower1.png"" style=""width:200px; border:14px solid green;"">","null","","","","","","","","",""
"","image-keyboard-response","76","79309","0.0-76.0","32M8BPYGAU8JWQ9CG7IRGOCNWZ7GIT","AOS2PVHT2HYTL","3JUDR1D0D6D4CARU3YX9Y3DK5DJ2QK","","595","img/flower5.png","74","597.5999999046326","1","1","1","1","1,0.333,0.333,0.333,1,0.333,0.333,0.333,1","1,0.333,0.333,0.333,1,0.333,0.333,0.333,1","1",""
"","html-keyboard-response","77","79612","0.0-77.0","32M8BPYGAU8JWQ9CG7IRGOCNWZ7GIT","AOS2PVHT2HYTL","3JUDR1D0D6D4CARU3YX9Y3DK5DJ2QK","","null","<img src=""img/flower5.png"" style=""width:200px; border:14px solid green;"">","null","","","","","","","","",""
"","image-keyboard-response","78","80999","0.0-78.0","32M8BPYGAU8JWQ9CG7IRGOCNWZ7GIT","AOS2PVHT2HYTL","3JUDR1D0D6D4CARU3YX9Y3DK5DJ2QK","","1384.2999999523163","img/flower1.png","75","1386.2000000476837","2","1","2","1","1,0.333,0.333,0.333,1,0.333,0.333,0.333,1","1,0.333,0.333,0.333,1,0.333,0.333,0.333,1","1",""
"","html-keyboard-response","79","81301","0.0-79.0","32M8BPYGAU8JWQ9CG7IRGOCNWZ7GIT","AOS2PVHT2HYTL","3JUDR1D0D6D4CARU3YX9Y3DK5DJ2QK","","null","<img src=""img/flower1.png"" style=""width:200px; border:14px solid green;"">","null","","","","","","","","",""
"","image-keyboard-response","80","81977","0.0-80.0","32M8BPYGAU8JWQ9CG7IRGOCNWZ7GIT","AOS2PVHT2HYTL","3JUDR1D0D6D4CARU3YX9Y3DK5DJ2QK","","673.4000000953674","img/flower5.png","74","676","1","1","1","1","1,0.333,0.333,0.333,1,0.333,0.333,0.333,1","1,0.333,0.333,0.333,1,0.333,0.333,0.333,1","1",""
"","html-keyboard-response","81","82281","0.0-81.0","32M8BPYGAU8JWQ9CG7IRGOCNWZ7GIT","AOS2PVHT2HYTL","3JUDR1D0D6D4CARU3YX9Y3DK5DJ2QK","","null","<img src=""img/flower5.png"" style=""width:200px; border:14px solid green;"">","null","","","","","","","","",""
"","image-keyboard-response","82","82855","0.0-82.0","32M8BPYGAU8JWQ9CG7IRGOCNWZ7GIT","AOS2PVHT2HYTL","3JUDR1D0D6D4CARU3YX9Y3DK5DJ2QK","","571.1000001430511","img/flower1.png","75","573.1000001430511","2","1","2","1","1,0.333,0.333,0.333,1,0.333,0.333,0.333,1","1,0.333,0.333,0.333,1,0.333,0.333,0.333,1","1",""
"","html-keyboard-response","83","83234","0.0-83.0","32M8BPYGAU8JWQ9CG7IRGOCNWZ7GIT","AOS2PVHT2HYTL","3JUDR1D0D6D4CARU3YX9Y3DK5DJ2QK","","null","<img src=""img/flower1.png"" style=""width:200px; border:14px solid green;"">","null","","","","","","","","",""
"","image-keyboard-response","84","83977","0.0-84.0","32M8BPYGAU8JWQ9CG7IRGOCNWZ7GIT","AOS2PVHT2HYTL","3JUDR1D0D6D4CARU3YX9Y3DK5DJ2QK","","741.6000001430511","img/flower6.png","76","743.0999999046326","3","1","3","1","1,0.333,0.333,0.333,1,0.333,0.333,0.333,1","1,0.333,0.333,0.333,1,0.333,0.333,0.333,1","1",""
"","html-keyboard-response","85","84284","0.0-85.0","32M8BPYGAU8JWQ9CG7IRGOCNWZ7GIT","AOS2PVHT2HYTL","3JUDR1D0D6D4CARU3YX9Y3DK5DJ2QK","","null","<img src=""img/flower6.png"" style=""width:200px; border:14px solid green;"">","null","","","","","","","","",""
"","image-keyboard-response","86","85181","0.0-86.0","32M8BPYGAU8JWQ9CG7IRGOCNWZ7GIT","AOS2PVHT2HYTL","3JUDR1D0D6D4CARU3YX9Y3DK5DJ2QK","","895","img/flower1.png","75","896.2999999523163","2","1","2","1","1,0.333,0.333,0.333,1,0.333,0.333,0.333,1","1,0.333,0.333,0.333,1,0.333,0.333,0.333,1","1",""
"","html-keyboard-response","87","85486","0.0-87.0","32M8BPYGAU8JWQ9CG7IRGOCNWZ7GIT","AOS2PVHT2HYTL","3JUDR1D0D6D4CARU3YX9Y3DK5DJ2QK","","null","<img src=""img/flower1.png"" style=""width:200px; border:14px solid green;"">","null","","","","","","","","",""
"","image-keyboard-response","88","86410","0.0-88.0","32M8BPYGAU8JWQ9CG7IRGOCNWZ7GIT","AOS2PVHT2HYTL","3JUDR1D0D6D4CARU3YX9Y3DK5DJ2QK","","921.5","img/flower5.png","74","923.8000001907349","1","1","1","1","1,0.333,0.333,0.333,1,0.333,0.333,0.333,1","1,0.333,0.333,0.333,1,0.333,0.333,0.333,1","1",""
"","html-keyboard-response","89","86714","0.0-89.0","32M8BPYGAU8JWQ9CG7IRGOCNWZ7GIT","AOS2PVHT2HYTL","3JUDR1D0D6D4CARU3YX9Y3DK5DJ2QK","","null","<img src=""img/flower5.png"" style=""width:200px; border:14px solid green;"">","null","","","","","","","","",""
"","image-keyboard-response","90","87369","0.0-90.0","32M8BPYGAU8JWQ9CG7IRGOCNWZ7GIT","AOS2PVHT2HYTL","3JUDR1D0D6D4CARU3YX9Y3DK5DJ2QK","","651.6000001430511","img/flower1.png","75","653.9000000953674","2","1","2","1","1,0.333,0.333,0.333,1,0.333,0.333,0.333,1","1,0.333,0.333,0.333,1,0.333,0.333,0.333,1","1",""
"","html-keyboard-response","91","87683","0.0-91.0","32M8BPYGAU8JWQ9CG7IRGOCNWZ7GIT","AOS2PVHT2HYTL","3JUDR1D0D6D4CARU3YX9Y3DK5DJ2QK","","null","<img src=""img/flower1.png"" style=""width:200px; border:14px solid green;"">","null","","","","","","","","",""
"","image-keyboard-response","92","88425","0.0-92.0","32M8BPYGAU8JWQ9CG7IRGOCNWZ7GIT","AOS2PVHT2HYTL","3JUDR1D0D6D4CARU3YX9Y3DK5DJ2QK","","739.0999999046326","img/flower5.png","75","741.0999999046326","2","0","1","1","1,0.333,0.333,0.333,1,0.333,0.333,0.333,1","1,0.333,0.333,0.333,1,0.333,0.333,0.333,1","1",""
"","html-keyboard-response","93","88727","0.0-93.0","32M8BPYGAU8JWQ9CG7IRGOCNWZ7GIT","AOS2PVHT2HYTL","3JUDR1D0D6D4CARU3YX9Y3DK5DJ2QK","","null","<img src=""img/flower5.png"" style=""width:200px;border:14px solid red;"">","null","","","","","","","","",""
"","image-keyboard-response","94","89645","0.0-94.0","32M8BPYGAU8JWQ9CG7IRGOCNWZ7GIT","AOS2PVHT2HYTL","3JUDR1D0D6D4CARU3YX9Y3DK5DJ2QK","","914.1999998092651","img/flower5.png","74","916.5999999046326","1","1","1","1","1,0.333,0.333,0.333,1,0.333,0.333,0.333,1","1,0.333,0.333,0.333,1,0.333,0.333,0.333,1","1",""
"","html-keyboard-response","95","89952","0.0-95.0","32M8BPYGAU8JWQ9CG7IRGOCNWZ7GIT","AOS2PVHT2HYTL","3JUDR1D0D6D4CARU3YX9Y3DK5DJ2QK","","null","<img src=""img/flower5.png"" style=""width:200px; border:14px solid green;"">","null","","","","","","","","",""
"","image-keyboard-response","96","90583","0.0-96.0","32M8BPYGAU8JWQ9CG7IRGOCNWZ7GIT","AOS2PVHT2HYTL","3JUDR1D0D6D4CARU3YX9Y3DK5DJ2QK","","628.0999999046326","img/flower6.png","76","630.5999999046326","3","1","3","1","1,0.333,0.333,0.333,1,0.333,0.333,0.333,1","1,0.333,0.333,0.333,1,0.333,0.333,0.333,1","1",""
"","html-keyboard-response","97","90888","0.0-97.0","32M8BPYGAU8JWQ9CG7IRGOCNWZ7GIT","AOS2PVHT2HYTL","3JUDR1D0D6D4CARU3YX9Y3DK5DJ2QK","","null","<img src=""img/flower6.png"" style=""width:200px; border:14px solid green;"">","null","","","","","","","","",""
"","image-keyboard-response","98","91650","0.0-98.0","32M8BPYGAU8JWQ9CG7IRGOCNWZ7GIT","AOS2PVHT2HYTL","3JUDR1D0D6D4CARU3YX9Y3DK5DJ2QK","","760.2000000476837","img/flower5.png","74","762","1","1","1","1","1,0.333,0.333,0.333,1,0.333,0.333,0.333,1","1,0.333,0.333,0.333,1,0.333,0.333,0.333,1","1",""
"","html-keyboard-response","99","91953","0.0-99.0","32M8BPYGAU8JWQ9CG7IRGOCNWZ7GIT","AOS2PVHT2HYTL","3JUDR1D0D6D4CARU3YX9Y3DK5DJ2QK","","null","<img src=""img/flower5.png"" style=""width:200px; border:14px solid green;"">","null","","","","","","","","",""
"","image-keyboard-response","100","92797","0.0-100.0","32M8BPYGAU8JWQ9CG7IRGOCNWZ7GIT","AOS2PVHT2HYTL","3JUDR1D0D6D4CARU3YX9Y3DK5DJ2QK","","841.1000001430511","img/flower6.png","76","843.0999999046326","3","1","3","1","1,0.333,0.333,0.333,1,0.333,0.333,0.333,1","1,0.333,0.333,0.333,1,0.333,0.333,0.333,1","1",""
"","html-keyboard-response","101","93100","0.0-101.0","32M8BPYGAU8JWQ9CG7IRGOCNWZ7GIT","AOS2PVHT2HYTL","3JUDR1D0D6D4CARU3YX9Y3DK5DJ2QK","","null","<img src=""img/flower6.png"" style=""width:200px; border:14px solid green;"">","null","","","","","","","","",""
"","image-keyboard-response","102","93939","0.0-102.0","32M8BPYGAU8JWQ9CG7IRGOCNWZ7GIT","AOS2PVHT2HYTL","3JUDR1D0D6D4CARU3YX9Y3DK5DJ2QK","","837.0999999046326","img/flower5.png","74","838.3000001907349","1","1","1","1","1,0.333,0.333,0.333,1,0.333,0.333,0.333,1","1,0.333,0.333,0.333,1,0.333,0.333,0.333,1","1",""
"","html-keyboard-response","103","94242","0.0-103.0","32M8BPYGAU8JWQ9CG7IRGOCNWZ7GIT","AOS2PVHT2HYTL","3JUDR1D0D6D4CARU3YX9Y3DK5DJ2QK","","null","<img src=""img/flower5.png"" style=""width:200px; border:14px solid green;"">","null","","","","","","","","",""
"","image-keyboard-response","104","94843","0.0-104.0","32M8BPYGAU8JWQ9CG7IRGOCNWZ7GIT","AOS2PVHT2HYTL","3JUDR1D0D6D4CARU3YX9Y3DK5DJ2QK","","598.7999999523163","img/flower5.png","74","601.5","1","1","1","1","1,0.333,0.333,0.333,1,0.333,0.333,0.333,1","1,0.333,0.333,0.333,1,0.333,0.333,0.333,1","1",""
"","html-keyboard-response","105","95169","0.0-105.0","32M8BPYGAU8JWQ9CG7IRGOCNWZ7GIT","AOS2PVHT2HYTL","3JUDR1D0D6D4CARU3YX9Y3DK5DJ2QK","","null","<img src=""img/flower5.png"" style=""width:200px; border:14px solid green;"">","null","","","","","","","","",""
"","image-keyboard-response","106","95903","0.0-106.0","32M8BPYGAU8JWQ9CG7IRGOCNWZ7GIT","AOS2PVHT2HYTL","3JUDR1D0D6D4CARU3YX9Y3DK5DJ2QK","","731.6000001430511","img/flower1.png","75","733.7999999523163","2","1","2","1","1,0.333,0.333,0.333,1,0.333,0.333,0.333,1","1,0.333,0.333,0.333,1,0.333,0.333,0.333,1","1",""
"","html-keyboard-response","107","96210","0.0-107.0","32M8BPYGAU8JWQ9CG7IRGOCNWZ7GIT","AOS2PVHT2HYTL","3JUDR1D0D6D4CARU3YX9Y3DK5DJ2QK","","null","<img src=""img/flower1.png"" style=""width:200px; border:14px solid green;"">","null","","","","","","","","",""
"","image-keyboard-response","108","97375","0.0-108.0","32M8BPYGAU8JWQ9CG7IRGOCNWZ7GIT","AOS2PVHT2HYTL","3JUDR1D0D6D4CARU3YX9Y3DK5DJ2QK","","1161.6999998092651","img/flower5.png","74","1164.8999998569489","1","1","1","1","1,0.333,0.333,0.333,1,0.333,0.333,0.333,1","1,0.333,0.333,0.333,1,0.333,0.333,0.333,1","1",""
"","html-keyboard-response","109","97680","0.0-109.0","32M8BPYGAU8JWQ9CG7IRGOCNWZ7GIT","AOS2PVHT2HYTL","3JUDR1D0D6D4CARU3YX9Y3DK5DJ2QK","","null","<img src=""img/flower5.png"" style=""width:200px; border:14px solid green;"">","null","","","","","","","","",""
"","image-keyboard-response","110","98269","0.0-110.0","32M8BPYGAU8JWQ9CG7IRGOCNWZ7GIT","AOS2PVHT2HYTL","3JUDR1D0D6D4CARU3YX9Y3DK5DJ2QK","","587.2000000476837","img/flower5.png","74","588.9000000953674","1","1","1","1","1,0.333,0.333,0.333,1,0.333,0.333,0.333,1","1,0.333,0.333,0.333,1,0.333,0.333,0.333,1","1",""
"","html-keyboard-response","111","98572","0.0-111.0","32M8BPYGAU8JWQ9CG7IRGOCNWZ7GIT","AOS2PVHT2HYTL","3JUDR1D0D6D4CARU3YX9Y3DK5DJ2QK","","null","<img src=""img/flower5.png"" style=""width:200px; border:14px solid green;"">","null","","","","","","","","",""
"","image-keyboard-response","112","99162","0.0-112.0","32M8BPYGAU8JWQ9CG7IRGOCNWZ7GIT","AOS2PVHT2HYTL","3JUDR1D0D6D4CARU3YX9Y3DK5DJ2QK","","586.4000000953674","img/flower6.png","76","588.7999999523163","3","1","3","1","1,0.333,0.333,0.333,1,0.333,0.333,0.333,1","1,0.333,0.333,0.333,1,0.333,0.333,0.333,1","1",""
"","html-keyboard-response","113","99466","0.0-113.0","32M8BPYGAU8JWQ9CG7IRGOCNWZ7GIT","AOS2PVHT2HYTL","3JUDR1D0D6D4CARU3YX9Y3DK5DJ2QK","","null","<img src=""img/flower6.png"" style=""width:200px; border:14px solid green;"">","null","","","","","","","","",""
"","image-keyboard-response","114","100015","0.0-114.0","32M8BPYGAU8JWQ9CG7IRGOCNWZ7GIT","AOS2PVHT2HYTL","3JUDR1D0D6D4CARU3YX9Y3DK5DJ2QK","","546.9000000953674","img/flower6.png","76","548.7000000476837","3","1","3","1","1,0.333,0.333,0.333,1,0.333,0.333,0.333,1","1,0.333,0.333,0.333,1,0.333,0.333,0.333,1","1",""
"","html-keyboard-response","115","100318","0.0-115.0","32M8BPYGAU8JWQ9CG7IRGOCNWZ7GIT","AOS2PVHT2HYTL","3JUDR1D0D6D4CARU3YX9Y3DK5DJ2QK","","null","<img src=""img/flower6.png"" style=""width:200px; border:14px solid green;"">","null","","","","","","","","",""
"","image-keyboard-response","116","101152","0.0-116.0","32M8BPYGAU8JWQ9CG7IRGOCNWZ7GIT","AOS2PVHT2HYTL","3JUDR1D0D6D4CARU3YX9Y3DK5DJ2QK","","831.2999999523163","img/flower1.png","75","833.6000001430511","2","1","2","1","1,0.333,0.333,0.333,1,0.333,0.333,0.333,1","1,0.333,0.333,0.333,1,0.333,0.333,0.333,1","1",""
"","html-keyboard-response","117","101455","0.0-117.0","32M8BPYGAU8JWQ9CG7IRGOCNWZ7GIT","AOS2PVHT2HYTL","3JUDR1D0D6D4CARU3YX9Y3DK5DJ2QK","","null","<img src=""img/flower1.png"" style=""width:200px; border:14px solid green;"">","null","","","","","","","","",""
"","image-keyboard-response","118","102100","0.0-118.0","32M8BPYGAU8JWQ9CG7IRGOCNWZ7GIT","AOS2PVHT2HYTL","3JUDR1D0D6D4CARU3YX9Y3DK5DJ2QK","","642.8999998569489","img/flower6.png","76","645.2000000476837","3","1","3","1","1,0.333,0.333,0.333,1,0.333,0.333,0.333,1","1,0.333,0.333,0.333,1,0.333,0.333,0.333,1","1",""
"","html-keyboard-response","119","102404","0.0-119.0","32M8BPYGAU8JWQ9CG7IRGOCNWZ7GIT","AOS2PVHT2HYTL","3JUDR1D0D6D4CARU3YX9Y3DK5DJ2QK","","null","<img src=""img/flower6.png"" style=""width:200px; border:14px solid green;"">","null","","","","","","","","",""
"","image-keyboard-response","120","102999","0.0-120.0","32M8BPYGAU8JWQ9CG7IRGOCNWZ7GIT","AOS2PVHT2HYTL","3JUDR1D0D6D4CARU3YX9Y3DK5DJ2QK","","593","img/flower6.png","76","595.0999999046326","3","1","3","1","1,0.333,0.333,0.333,1,0.333,0.333,0.333,1","1,0.333,0.333,0.333,1,0.333,0.333,0.333,1","1",""
"","html-keyboard-response","121","103302","0.0-121.0","32M8BPYGAU8JWQ9CG7IRGOCNWZ7GIT","AOS2PVHT2HYTL","3JUDR1D0D6D4CARU3YX9Y3DK5DJ2QK","","null","<img src=""img/flower6.png"" style=""width:200px; border:14px solid green;"">","null","","","","","","","","",""
"","image-keyboard-response","122","103761","0.0-122.0","32M8BPYGAU8JWQ9CG7IRGOCNWZ7GIT","AOS2PVHT2HYTL","3JUDR1D0D6D4CARU3YX9Y3DK5DJ2QK","","456.09999990463257","img/flower6.png","76","458.2999999523163","3","1","3","1","1,0.333,0.333,0.333,1,0.333,0.333,0.333,1","1,0.333,0.333,0.333,1,0.333,0.333,0.333,1","1",""
"","html-keyboard-response","123","104065","0.0-123.0","32M8BPYGAU8JWQ9CG7IRGOCNWZ7GIT","AOS2PVHT2HYTL","3JUDR1D0D6D4CARU3YX9Y3DK5DJ2QK","","null","<img src=""img/flower6.png"" style=""width:200px; border:14px solid green;"">","null","","","","","","","","",""
"","image-keyboard-response","124","104860","0.0-124.0","32M8BPYGAU8JWQ9CG7IRGOCNWZ7GIT","AOS2PVHT2HYTL","3JUDR1D0D6D4CARU3YX9Y3DK5DJ2QK","","792.8999998569489","img/flower5.png","74","795.4000000953674","1","1","1","1","1,0.333,0.333,0.333,1,0.333,0.333,0.333,1","1,0.333,0.333,0.333,1,0.333,0.333,0.333,1","1",""
"","html-keyboard-response","125","105187","0.0-125.0","32M8BPYGAU8JWQ9CG7IRGOCNWZ7GIT","AOS2PVHT2HYTL","3JUDR1D0D6D4CARU3YX9Y3DK5DJ2QK","","null","<img src=""img/flower5.png"" style=""width:200px; border:14px solid green;"">","null","","","","","","","","",""
"","image-keyboard-response","126","105815","0.0-126.0","32M8BPYGAU8JWQ9CG7IRGOCNWZ7GIT","AOS2PVHT2HYTL","3JUDR1D0D6D4CARU3YX9Y3DK5DJ2QK","","624.7000000476837","img/flower1.png","75","626.5","2","1","2","1","1,0.333,0.333,0.333,1,0.333,0.333,0.333,1","1,0.333,0.333,0.333,1,0.333,0.333,0.333,1","1",""
"","html-keyboard-response","127","106119","0.0-127.0","32M8BPYGAU8JWQ9CG7IRGOCNWZ7GIT","AOS2PVHT2HYTL","3JUDR1D0D6D4CARU3YX9Y3DK5DJ2QK","","null","<img src=""img/flower1.png"" style=""width:200px; border:14px solid green;"">","null","","","","","","","","",""
"","image-keyboard-response","128","106731","0.0-128.0","32M8BPYGAU8JWQ9CG7IRGOCNWZ7GIT","AOS2PVHT2HYTL","3JUDR1D0D6D4CARU3YX9Y3DK5DJ2QK","","607.5","img/flower6.png","76","611.0999999046326","3","1","3","1","1,0.333,0.333,0.333,1,0.333,0.333,0.333,1","1,0.333,0.333,0.333,1,0.333,0.333,0.333,1","1",""
"","html-keyboard-response","129","107038","0.0-129.0","32M8BPYGAU8JWQ9CG7IRGOCNWZ7GIT","AOS2PVHT2HYTL","3JUDR1D0D6D4CARU3YX9Y3DK5DJ2QK","","null","<img src=""img/flower6.png"" style=""width:200px; border:14px solid green;"">","null","","","","","","","","",""
"","image-keyboard-response","130","108339","0.0-130.0","32M8BPYGAU8JWQ9CG7IRGOCNWZ7GIT","AOS2PVHT2HYTL","3JUDR1D0D6D4CARU3YX9Y3DK5DJ2QK","","1298.3000001907349","img/flower5.png","74","1300.8000001907349","1","1","1","1","1,0.333,0.333,0.333,1,0.333,0.333,0.333,1","1,0.333,0.333,0.333,1,0.333,0.333,0.333,1","1",""
"","html-keyboard-response","131","108644","0.0-131.0","32M8BPYGAU8JWQ9CG7IRGOCNWZ7GIT","AOS2PVHT2HYTL","3JUDR1D0D6D4CARU3YX9Y3DK5DJ2QK","","null","<img src=""img/flower5.png"" style=""width:200px; border:14px solid green;"">","null","","","","","","","","",""
"","image-keyboard-response","132","109431","0.0-132.0","32M8BPYGAU8JWQ9CG7IRGOCNWZ7GIT","AOS2PVHT2HYTL","3JUDR1D0D6D4CARU3YX9Y3DK5DJ2QK","","784","img/flower6.png","76","786.6999998092651","3","1","3","1","1,0.333,0.333,0.333,1,0.333,0.333,0.333,1","1,0.333,0.333,0.333,1,0.333,0.333,0.333,1","1",""
"","html-keyboard-response","133","109734","0.0-133.0","32M8BPYGAU8JWQ9CG7IRGOCNWZ7GIT","AOS2PVHT2HYTL","3JUDR1D0D6D4CARU3YX9Y3DK5DJ2QK","","null","<img src=""img/flower6.png"" style=""width:200px; border:14px solid green;"">","null","","","","","","","","",""
"","image-keyboard-response","134","110279","0.0-134.0","32M8BPYGAU8JWQ9CG7IRGOCNWZ7GIT","AOS2PVHT2HYTL","3JUDR1D0D6D4CARU3YX9Y3DK5DJ2QK","","541.5999999046326","img/flower6.png","76","544","3","1","3","1","1,0.333,0.333,0.333,1,0.333,0.333,0.333,1","1,0.333,0.333,0.333,1,0.333,0.333,0.333,1","1",""
"","html-keyboard-response","135","110589","0.0-135.0","32M8BPYGAU8JWQ9CG7IRGOCNWZ7GIT","AOS2PVHT2HYTL","3JUDR1D0D6D4CARU3YX9Y3DK5DJ2QK","","null","<img src=""img/flower6.png"" style=""width:200px; border:14px solid green;"">","null","","","","","","","","",""
"","image-keyboard-response","136","111743","0.0-136.0","32M8BPYGAU8JWQ9CG7IRGOCNWZ7GIT","AOS2PVHT2HYTL","3JUDR1D0D6D4CARU3YX9Y3DK5DJ2QK","","1151.7000000476837","img/flower5.png","74","1154","1","1","1","1","1,0.333,0.333,0.333,1,0.333,0.333,0.333,1","1,0.333,0.333,0.333,1,0.333,0.333,0.333,1","1",""
"","html-keyboard-response","137","112048","0.0-137.0","32M8BPYGAU8JWQ9CG7IRGOCNWZ7GIT","AOS2PVHT2HYTL","3JUDR1D0D6D4CARU3YX9Y3DK5DJ2QK","","null","<img src=""img/flower5.png"" style=""width:200px; border:14px solid green;"">","null","","","","","","","","",""
"","image-keyboard-response","138","112521","0.0-138.0","32M8BPYGAU8JWQ9CG7IRGOCNWZ7GIT","AOS2PVHT2HYTL","3JUDR1D0D6D4CARU3YX9Y3DK5DJ2QK","","470","img/flower5.png","74","472.40000009536743","1","1","1","1","1,0.333,0.333,0.333,1,0.333,0.333,0.333,1","1,0.333,0.333,0.333,1,0.333,0.333,0.333,1","1",""
"","html-keyboard-response","139","112824","0.0-139.0","32M8BPYGAU8JWQ9CG7IRGOCNWZ7GIT","AOS2PVHT2HYTL","3JUDR1D0D6D4CARU3YX9Y3DK5DJ2QK","","null","<img src=""img/flower5.png"" style=""width:200px; border:14px solid green;"">","null","","","","","","","","",""
"","image-keyboard-response","140","113408","0.0-140.0","32M8BPYGAU8JWQ9CG7IRGOCNWZ7GIT","AOS2PVHT2HYTL","3JUDR1D0D6D4CARU3YX9Y3DK5DJ2QK","","580.9000000953674","img/flower6.png","75","582.6999998092651","2","0","3","1","1,0.333,0.333,0.333,1,0.333,0.333,0.333,1","1,0.333,0.333,0.333,1,0.333,0.333,0.333,1","1",""
"","html-keyboard-response","141","113710","0.0-141.0","32M8BPYGAU8JWQ9CG7IRGOCNWZ7GIT","AOS2PVHT2HYTL","3JUDR1D0D6D4CARU3YX9Y3DK5DJ2QK","","null","<img src=""img/flower6.png"" style=""width:200px;border:14px solid red;"">","null","","","","","","","","",""
"","image-keyboard-response","142","114063","0.0-142.0","32M8BPYGAU8JWQ9CG7IRGOCNWZ7GIT","AOS2PVHT2HYTL","3JUDR1D0D6D4CARU3YX9Y3DK5DJ2QK","","349.2999999523163","img/flower6.png","76","352.2000000476837","3","1","3","1","1,0.333,0.333,0.333,1,0.333,0.333,0.333,1","1,0.333,0.333,0.333,1,0.333,0.333,0.333,1","1",""
"","html-keyboard-response","143","114368","0.0-143.0","32M8BPYGAU8JWQ9CG7IRGOCNWZ7GIT","AOS2PVHT2HYTL","3JUDR1D0D6D4CARU3YX9Y3DK5DJ2QK","","null","<img src=""img/flower6.png"" style=""width:200px; border:14px solid green;"">","null","","","","","","","","",""
"","image-keyboard-response","144","115212","0.0-144.0","32M8BPYGAU8JWQ9CG7IRGOCNWZ7GIT","AOS2PVHT2HYTL","3JUDR1D0D6D4CARU3YX9Y3DK5DJ2QK","","837.6000001430511","img/flower1.png","75","842.4000000953674","2","1","2","1","1,0.333,0.333,0.333,1,0.333,0.333,0.333,1","1,0.333,0.333,0.333,1,0.333,0.333,0.333,1","1",""
"","html-keyboard-response","145","115523","0.0-145.0","32M8BPYGAU8JWQ9CG7IRGOCNWZ7GIT","AOS2PVHT2HYTL","3JUDR1D0D6D4CARU3YX9Y3DK5DJ2QK","","null","<img src=""img/flower1.png"" style=""width:200px; border:14px solid green;"">","null","","","","","","","","",""
"","image-keyboard-response","146","116080","0.0-146.0","32M8BPYGAU8JWQ9CG7IRGOCNWZ7GIT","AOS2PVHT2HYTL","3JUDR1D0D6D4CARU3YX9Y3DK5DJ2QK","","554.4000000953674","img/flower1.png","75","556.2000000476837","2","1","2","1","1,0.333,0.333,0.333,1,0.333,0.333,0.333,1","1,0.333,0.333,0.333,1,0.333,0.333,0.333,1","1",""
"","html-keyboard-response","147","116383","0.0-147.0","32M8BPYGAU8JWQ9CG7IRGOCNWZ7GIT","AOS2PVHT2HYTL","3JUDR1D0D6D4CARU3YX9Y3DK5DJ2QK","","null","<img src=""img/flower1.png"" style=""width:200px; border:14px solid green;"">","null","","","","","","","","",""
"","image-keyboard-response","148","117050","0.0-148.0","32M8BPYGAU8JWQ9CG7IRGOCNWZ7GIT","AOS2PVHT2HYTL","3JUDR1D0D6D4CARU3YX9Y3DK5DJ2QK","","664.1000001430511","img/flower6.png","76","666.6000001430511","3","1","3","1","1,0.333,0.333,0.333,1,0.333,0.333,0.333,1","1,0.333,0.333,0.333,1,0.333,0.333,0.333,1","1",""
"","html-keyboard-response","149","117353","0.0-149.0","32M8BPYGAU8JWQ9CG7IRGOCNWZ7GIT","AOS2PVHT2HYTL","3JUDR1D0D6D4CARU3YX9Y3DK5DJ2QK","","null","<img src=""img/flower6.png"" style=""width:200px; border:14px solid green;"">","null","","","","","","","","",""
"","image-keyboard-response","150","118086","0.0-150.0","32M8BPYGAU8JWQ9CG7IRGOCNWZ7GIT","AOS2PVHT2HYTL","3JUDR1D0D6D4CARU3YX9Y3DK5DJ2QK","","730.9000000953674","img/flower1.png","75","732.5","2","1","2","1","1,0.333,0.333,0.333,1,0.333,0.333,0.333,1","1,0.333,0.333,0.333,1,0.333,0.333,0.333,1","1",""
"","html-keyboard-response","151","118390","0.0-151.0","32M8BPYGAU8JWQ9CG7IRGOCNWZ7GIT","AOS2PVHT2HYTL","3JUDR1D0D6D4CARU3YX9Y3DK5DJ2QK","","null","<img src=""img/flower1.png"" style=""width:200px; border:14px solid green;"">","null","","","","","","","","",""
"","image-keyboard-response","152","118967","0.0-152.0","32M8BPYGAU8JWQ9CG7IRGOCNWZ7GIT","AOS2PVHT2HYTL","3JUDR1D0D6D4CARU3YX9Y3DK5DJ2QK","","574.1999998092651","img/flower6.png","76","576.1999998092651","3","1","3","1","1,0.333,0.333,0.333,1,0.333,0.333,0.333,1","1,0.333,0.333,0.333,1,0.333,0.333,0.333,1","1",""
"","html-keyboard-response","153","119277","0.0-153.0","32M8BPYGAU8JWQ9CG7IRGOCNWZ7GIT","AOS2PVHT2HYTL","3JUDR1D0D6D4CARU3YX9Y3DK5DJ2QK","","null","<img src=""img/flower6.png"" style=""width:200px; border:14px solid green;"">","null","","","","","","","","",""
"","image-keyboard-response","154","120028","0.0-154.0","32M8BPYGAU8JWQ9CG7IRGOCNWZ7GIT","AOS2PVHT2HYTL","3JUDR1D0D6D4CARU3YX9Y3DK5DJ2QK","","749.2999999523163","img/flower5.png","74","750.4000000953674","1","1","1","1","1,0.333,0.333,0.333,1,0.333,0.333,0.333,1","1,0.333,0.333,0.333,1,0.333,0.333,0.333,1","1",""
"","html-keyboard-response","155","120331","0.0-155.0","32M8BPYGAU8JWQ9CG7IRGOCNWZ7GIT","AOS2PVHT2HYTL","3JUDR1D0D6D4CARU3YX9Y3DK5DJ2QK","","null","<img src=""img/flower5.png"" style=""width:200px; border:14px solid green;"">","null","","","","","","","","",""
"","image-keyboard-response","156","120955","0.0-156.0","32M8BPYGAU8JWQ9CG7IRGOCNWZ7GIT","AOS2PVHT2HYTL","3JUDR1D0D6D4CARU3YX9Y3DK5DJ2QK","","621.4000000953674","img/flower5.png","74","623.7999999523163","1","1","1","1","1,0.333,0.333,0.333,1,0.333,0.333,0.333,1","1,0.333,0.333,0.333,1,0.333,0.333,0.333,1","1",""
"","html-keyboard-response","157","121258","0.0-157.0","32M8BPYGAU8JWQ9CG7IRGOCNWZ7GIT","AOS2PVHT2HYTL","3JUDR1D0D6D4CARU3YX9Y3DK5DJ2QK","","null","<img src=""img/flower5.png"" style=""width:200px; border:14px solid green;"">","null","","","","","","","","",""
"","image-keyboard-response","158","122222","0.0-158.0","32M8BPYGAU8JWQ9CG7IRGOCNWZ7GIT","AOS2PVHT2HYTL","3JUDR1D0D6D4CARU3YX9Y3DK5DJ2QK","","963.2000000476837","img/flower1.png","75","964.5","2","1","2","1","1,0.333,0.333,0.333,1,0.333,0.333,0.333,1","1,0.333,0.333,0.333,1,0.333,0.333,0.333,1","1",""
"","html-keyboard-response","159","122525","0.0-159.0","32M8BPYGAU8JWQ9CG7IRGOCNWZ7GIT","AOS2PVHT2HYTL","3JUDR1D0D6D4CARU3YX9Y3DK5DJ2QK","","null","<img src=""img/flower1.png"" style=""width:200px; border:14px solid green;"">","null","","","","","","","","",""
"","image-keyboard-response","160","123314","0.0-160.0","32M8BPYGAU8JWQ9CG7IRGOCNWZ7GIT","AOS2PVHT2HYTL","3JUDR1D0D6D4CARU3YX9Y3DK5DJ2QK","","786.1000001430511","img/flower5.png","74","788","1","1","1","1","1,0.333,0.333,0.333,1,0.333,0.333,0.333,1","1,0.333,0.333,0.333,1,0.333,0.333,0.333,1","1",""
"","html-keyboard-response","161","123617","0.0-161.0","32M8BPYGAU8JWQ9CG7IRGOCNWZ7GIT","AOS2PVHT2HYTL","3JUDR1D0D6D4CARU3YX9Y3DK5DJ2QK","","null","<img src=""img/flower5.png"" style=""width:200px; border:14px solid green;"">","null","","","","","","","","",""
"","image-keyboard-response","162","124328","0.0-162.0","32M8BPYGAU8JWQ9CG7IRGOCNWZ7GIT","AOS2PVHT2HYTL","3JUDR1D0D6D4CARU3YX9Y3DK5DJ2QK","","706.5","img/flower5.png","74","710","1","1","1","1","1,0.333,0.333,0.333,1,0.333,0.333,0.333,1","1,0.333,0.333,0.333,1,0.333,0.333,0.333,1","1",""
"","html-keyboard-response","163","124635","0.0-163.0","32M8BPYGAU8JWQ9CG7IRGOCNWZ7GIT","AOS2PVHT2HYTL","3JUDR1D0D6D4CARU3YX9Y3DK5DJ2QK","","null","<img src=""img/flower5.png"" style=""width:200px; border:14px solid green;"">","null","","","","","","","","",""
"","image-keyboard-response","164","125324","0.0-164.0","32M8BPYGAU8JWQ9CG7IRGOCNWZ7GIT","AOS2PVHT2HYTL","3JUDR1D0D6D4CARU3YX9Y3DK5DJ2QK","","686.7000000476837","img/flower6.png","76","689","3","1","3","1","1,0.333,0.333,0.333,1,0.333,0.333,0.333,1","1,0.333,0.333,0.333,1,0.333,0.333,0.333,1","1",""
"","html-keyboard-response","165","125629","0.0-165.0","32M8BPYGAU8JWQ9CG7IRGOCNWZ7GIT","AOS2PVHT2HYTL","3JUDR1D0D6D4CARU3YX9Y3DK5DJ2QK","","null","<img src=""img/flower6.png"" style=""width:200px; border:14px solid green;"">","null","","","","","","","","",""
"","image-keyboard-response","166","126108","0.0-166.0","32M8BPYGAU8JWQ9CG7IRGOCNWZ7GIT","AOS2PVHT2HYTL","3JUDR1D0D6D4CARU3YX9Y3DK5DJ2QK","","476.19999980926514","img/flower6.png","76","478.5","3","1","3","1","1,0.333,0.333,0.333,1,0.333,0.333,0.333,1","1,0.333,0.333,0.333,1,0.333,0.333,0.333,1","1",""
"","html-keyboard-response","167","126412","0.0-167.0","32M8BPYGAU8JWQ9CG7IRGOCNWZ7GIT","AOS2PVHT2HYTL","3JUDR1D0D6D4CARU3YX9Y3DK5DJ2QK","","null","<img src=""img/flower6.png"" style=""width:200px; border:14px solid green;"">","null","","","","","","","","",""
"","image-keyboard-response","168","126927","0.0-168.0","32M8BPYGAU8JWQ9CG7IRGOCNWZ7GIT","AOS2PVHT2HYTL","3JUDR1D0D6D4CARU3YX9Y3DK5DJ2QK","","512.2000000476837","img/flower6.png","76","514.7999999523163","3","1","3","1","1,0.333,0.333,0.333,1,0.333,0.333,0.333,1","1,0.333,0.333,0.333,1,0.333,0.333,0.333,1","1",""
"","html-keyboard-response","169","127260","0.0-169.0","32M8BPYGAU8JWQ9CG7IRGOCNWZ7GIT","AOS2PVHT2HYTL","3JUDR1D0D6D4CARU3YX9Y3DK5DJ2QK","","null","<img src=""img/flower6.png"" style=""width:200px; border:14px solid green;"">","null","","","","","","","","",""
"","image-keyboard-response","170","127654","0.0-170.0","32M8BPYGAU8JWQ9CG7IRGOCNWZ7GIT","AOS2PVHT2HYTL","3JUDR1D0D6D4CARU3YX9Y3DK5DJ2QK","","392.7000000476837","img/flower6.png","76","393.7999999523163","3","1","3","1","1,0.333,0.333,0.333,1,0.333,0.333,0.333,1","1,0.333,0.333,0.333,1,0.333,0.333,0.333,1","1",""
"","html-keyboard-response","171","127958","0.0-171.0","32M8BPYGAU8JWQ9CG7IRGOCNWZ7GIT","AOS2PVHT2HYTL","3JUDR1D0D6D4CARU3YX9Y3DK5DJ2QK","","null","<img src=""img/flower6.png"" style=""width:200px; border:14px solid green;"">","null","","","","","","","","",""
"","image-keyboard-response","172","128922","0.0-172.0","32M8BPYGAU8JWQ9CG7IRGOCNWZ7GIT","AOS2PVHT2HYTL","3JUDR1D0D6D4CARU3YX9Y3DK5DJ2QK","","961.0999999046326","img/flower5.png","74","963.5999999046326","1","1","1","1","1,0.333,0.333,0.333,1,0.333,0.333,0.333,1","1,0.333,0.333,0.333,1,0.333,0.333,0.333,1","1",""
"","html-keyboard-response","173","129225","0.0-173.0","32M8BPYGAU8JWQ9CG7IRGOCNWZ7GIT","AOS2PVHT2HYTL","3JUDR1D0D6D4CARU3YX9Y3DK5DJ2QK","","null","<img src=""img/flower5.png"" style=""width:200px; border:14px solid green;"">","null","","","","","","","","",""
"","image-keyboard-response","174","129953","0.0-174.0","32M8BPYGAU8JWQ9CG7IRGOCNWZ7GIT","AOS2PVHT2HYTL","3JUDR1D0D6D4CARU3YX9Y3DK5DJ2QK","","724.7999999523163","img/flower5.png","74","726.7000000476837","1","1","1","1","1,0.333,0.333,0.333,1,0.333,0.333,0.333,1","1,0.333,0.333,0.333,1,0.333,0.333,0.333,1","1",""
"","html-keyboard-response","175","130255","0.0-175.0","32M8BPYGAU8JWQ9CG7IRGOCNWZ7GIT","AOS2PVHT2HYTL","3JUDR1D0D6D4CARU3YX9Y3DK5DJ2QK","","null","<img src=""img/flower5.png"" style=""width:200px; border:14px solid green;"">","null","","","","","","","","",""
"","image-keyboard-response","176","131273","0.0-176.0","32M8BPYGAU8JWQ9CG7IRGOCNWZ7GIT","AOS2PVHT2HYTL","3JUDR1D0D6D4CARU3YX9Y3DK5DJ2QK","","1014.7000000476837","img/flower6.png","76","1017.0999999046326","3","1","3","1","1,0.333,0.333,0.333,1,0.333,0.333,0.333,1","1,0.333,0.333,0.333,1,0.333,0.333,0.333,1","1",""
"","html-keyboard-response","177","131577","0.0-177.0","32M8BPYGAU8JWQ9CG7IRGOCNWZ7GIT","AOS2PVHT2HYTL","3JUDR1D0D6D4CARU3YX9Y3DK5DJ2QK","","null","<img src=""img/flower6.png"" style=""width:200px; border:14px solid green;"">","null","","","","","","","","",""
"","image-keyboard-response","178","132244","0.0-178.0","32M8BPYGAU8JWQ9CG7IRGOCNWZ7GIT","AOS2PVHT2HYTL","3JUDR1D0D6D4CARU3YX9Y3DK5DJ2QK","","664.2000000476837","img/flower1.png","75","666.5999999046326","2","1","2","1","1,0.333,0.333,0.333,1,0.333,0.333,0.333,1","1,0.333,0.333,0.333,1,0.333,0.333,0.333,1","1",""
"","html-keyboard-response","179","132548","0.0-179.0","32M8BPYGAU8JWQ9CG7IRGOCNWZ7GIT","AOS2PVHT2HYTL","3JUDR1D0D6D4CARU3YX9Y3DK5DJ2QK","","null","<img src=""img/flower1.png"" style=""width:200px; border:14px solid green;"">","null","","","","","","","","",""
"","image-keyboard-response","180","133134","0.0-180.0","32M8BPYGAU8JWQ9CG7IRGOCNWZ7GIT","AOS2PVHT2HYTL","3JUDR1D0D6D4CARU3YX9Y3DK5DJ2QK","","583.9000000953674","img/flower1.png","75","585.8000001907349","2","1","2","1","1,0.333,0.333,0.333,1,0.333,0.333,0.333,1","1,0.333,0.333,0.333,1,0.333,0.333,0.333,1","1",""
"","html-keyboard-response","181","133445","0.0-181.0","32M8BPYGAU8JWQ9CG7IRGOCNWZ7GIT","AOS2PVHT2HYTL","3JUDR1D0D6D4CARU3YX9Y3DK5DJ2QK","","null","<img src=""img/flower1.png"" style=""width:200px; border:14px solid green;"">","null","","","","","","","","",""
"","html-keyboard-response","182","137599","0.0-182.0","32M8BPYGAU8JWQ9CG7IRGOCNWZ7GIT","AOS2PVHT2HYTL","3JUDR1D0D6D4CARU3YX9Y3DK5DJ2QK","","","","","","","","","","","","",""
"","image-keyboard-response","183","139396","0.0-183.0","32M8BPYGAU8JWQ9CG7IRGOCNWZ7GIT","AOS2PVHT2HYTL","3JUDR1D0D6D4CARU3YX9Y3DK5DJ2QK","","1794.7000000476837","img/flower3.png","74","1797.3000001907349","1","0","1","2","1,0,0,1,1,0,1,0,1","0,1,0,0,1,1,1,1,0","3",""
"","html-keyboard-response","184","139701","0.0-184.0","32M8BPYGAU8JWQ9CG7IRGOCNWZ7GIT","AOS2PVHT2HYTL","3JUDR1D0D6D4CARU3YX9Y3DK5DJ2QK","","null","<img src=""img/flower3.png"" style=""width:200px;border:14px solid red;"">","null","","","","","","","","",""
"","image-keyboard-response","185","140487","0.0-185.0","32M8BPYGAU8JWQ9CG7IRGOCNWZ7GIT","AOS2PVHT2HYTL","3JUDR1D0D6D4CARU3YX9Y3DK5DJ2QK","","783.2000000476837","img/flower2.png","75","786.1000001430511","2","1","3","2","1,0,0,1,1,0,1,0,1","0,1,0,0,1,1,1,1,0","3",""
"","html-keyboard-response","186","140791","0.0-186.0","32M8BPYGAU8JWQ9CG7IRGOCNWZ7GIT","AOS2PVHT2HYTL","3JUDR1D0D6D4CARU3YX9Y3DK5DJ2QK","","null","<img src=""img/flower2.png"" style=""width:200px; border:14px solid green;"">","null","","","","","","","","",""
"","image-keyboard-response","187","142354","0.0-187.0","32M8BPYGAU8JWQ9CG7IRGOCNWZ7GIT","AOS2PVHT2HYTL","3JUDR1D0D6D4CARU3YX9Y3DK5DJ2QK","","1557.5","img/flower4.png","76","1563","3","1","2","2","1,0,0,1,1,0,1,0,1","0,1,0,0,1,1,1,1,0","3",""
"","html-keyboard-response","188","142658","0.0-188.0","32M8BPYGAU8JWQ9CG7IRGOCNWZ7GIT","AOS2PVHT2HYTL","3JUDR1D0D6D4CARU3YX9Y3DK5DJ2QK","","null","<img src=""img/flower4.png"" style=""width:200px; border:14px solid green;"">","null","","","","","","","","",""
"","image-keyboard-response","189","144148","0.0-189.0","32M8BPYGAU8JWQ9CG7IRGOCNWZ7GIT","AOS2PVHT2HYTL","3JUDR1D0D6D4CARU3YX9Y3DK5DJ2QK","","1487.0999999046326","img/flower3.png","76","1489.5999999046326","3","0","1","2","1,0,0,1,1,0,1,0,1","0,1,0,0,1,1,1,1,0","3",""
"","html-keyboard-response","190","144451","0.0-190.0","32M8BPYGAU8JWQ9CG7IRGOCNWZ7GIT","AOS2PVHT2HYTL","3JUDR1D0D6D4CARU3YX9Y3DK5DJ2QK","","null","<img src=""img/flower3.png"" style=""width:200px;border:14px solid red;"">","null","","","","","","","","",""
"","image-keyboard-response","191","145315","0.0-191.0","32M8BPYGAU8JWQ9CG7IRGOCNWZ7GIT","AOS2PVHT2HYTL","3JUDR1D0D6D4CARU3YX9Y3DK5DJ2QK","","860.0999999046326","img/flower4.png","75","862.7999999523163","2","1","2","2","1,0,0,1,1,0,1,0,1","0,1,0,0,1,1,1,1,0","3",""
"","html-keyboard-response","192","145619","0.0-192.0","32M8BPYGAU8JWQ9CG7IRGOCNWZ7GIT","AOS2PVHT2HYTL","3JUDR1D0D6D4CARU3YX9Y3DK5DJ2QK","","null","<img src=""img/flower4.png"" style=""width:200px; border:14px solid green;"">","null","","","","","","","","",""
"","image-keyboard-response","193","147122","0.0-193.0","32M8BPYGAU8JWQ9CG7IRGOCNWZ7GIT","AOS2PVHT2HYTL","3JUDR1D0D6D4CARU3YX9Y3DK5DJ2QK","","1501.7000000476837","img/flower3.png","76","1502.7999999523163","3","0","1","2","1,0,0,1,1,0,1,0,1","0,1,0,0,1,1,1,1,0","3",""
"","html-keyboard-response","194","147425","0.0-194.0","32M8BPYGAU8JWQ9CG7IRGOCNWZ7GIT","AOS2PVHT2HYTL","3JUDR1D0D6D4CARU3YX9Y3DK5DJ2QK","","null","<img src=""img/flower3.png"" style=""width:200px;border:14px solid red;"">","null","","","","","","","","",""
"","image-keyboard-response","195","148138","0.0-195.0","32M8BPYGAU8JWQ9CG7IRGOCNWZ7GIT","AOS2PVHT2HYTL","3JUDR1D0D6D4CARU3YX9Y3DK5DJ2QK","","709.6000001430511","img/flower4.png","75","712.2999999523163","2","1","2","2","1,0,0,1,1,0,1,0,1","0,1,0,0,1,1,1,1,0","3",""
"","html-keyboard-response","196","148442","0.0-196.0","32M8BPYGAU8JWQ9CG7IRGOCNWZ7GIT","AOS2PVHT2HYTL","3JUDR1D0D6D4CARU3YX9Y3DK5DJ2QK","","null","<img src=""img/flower4.png"" style=""width:200px; border:14px solid green;"">","null","","","","","","","","",""
"","image-keyboard-response","197","149644","0.0-197.0","32M8BPYGAU8JWQ9CG7IRGOCNWZ7GIT","AOS2PVHT2HYTL","3JUDR1D0D6D4CARU3YX9Y3DK5DJ2QK","","1200","img/flower3.png","74","1201.8999998569489","1","0","1","2","1,0,0,1,1,0,1,0,1","0,1,0,0,1,1,1,1,0","3",""
"","html-keyboard-response","198","149949","0.0-198.0","32M8BPYGAU8JWQ9CG7IRGOCNWZ7GIT","AOS2PVHT2HYTL","3JUDR1D0D6D4CARU3YX9Y3DK5DJ2QK","","null","<img src=""img/flower3.png"" style=""width:200px;border:14px solid red;"">","null","","","","","","","","",""
"","image-keyboard-response","199","150690","0.0-199.0","32M8BPYGAU8JWQ9CG7IRGOCNWZ7GIT","AOS2PVHT2HYTL","3JUDR1D0D6D4CARU3YX9Y3DK5DJ2QK","","739","img/flower2.png","75","741.1000001430511","2","1","3","2","1,0,0,1,1,0,1,0,1","0,1,0,0,1,1,1,1,0","3",""
"","html-keyboard-response","200","150995","0.0-200.0","32M8BPYGAU8JWQ9CG7IRGOCNWZ7GIT","AOS2PVHT2HYTL","3JUDR1D0D6D4CARU3YX9Y3DK5DJ2QK","","null","<img src=""img/flower2.png"" style=""width:200px; border:14px solid green;"">","null","","","","","","","","",""
"","image-keyboard-response","201","151662","0.0-201.0","32M8BPYGAU8JWQ9CG7IRGOCNWZ7GIT","AOS2PVHT2HYTL","3JUDR1D0D6D4CARU3YX9Y3DK5DJ2QK","","665.3000001907349","img/flower3.png","75","667.2000000476837","2","1","1","2","1,0,0,1,1,0,1,0,1","0,1,0,0,1,1,1,1,0","3",""
"","html-keyboard-response","202","151968","0.0-202.0","32M8BPYGAU8JWQ9CG7IRGOCNWZ7GIT","AOS2PVHT2HYTL","3JUDR1D0D6D4CARU3YX9Y3DK5DJ2QK","","null","<img src=""img/flower3.png"" style=""width:200px; border:14px solid green;"">","null","","","","","","","","",""
"","image-keyboard-response","203","152393","0.0-203.0","32M8BPYGAU8JWQ9CG7IRGOCNWZ7GIT","AOS2PVHT2HYTL","3JUDR1D0D6D4CARU3YX9Y3DK5DJ2QK","","422.2999999523163","img/flower4.png","75","424.7999999523163","2","1","2","2","1,0,0,1,1,0,1,0,1","0,1,0,0,1,1,1,1,0","3",""
"","html-keyboard-response","204","152698","0.0-204.0","32M8BPYGAU8JWQ9CG7IRGOCNWZ7GIT","AOS2PVHT2HYTL","3JUDR1D0D6D4CARU3YX9Y3DK5DJ2QK","","null","<img src=""img/flower4.png"" style=""width:200px; border:14px solid green;"">","null","","","","","","","","",""
"","image-keyboard-response","205","153079","0.0-205.0","32M8BPYGAU8JWQ9CG7IRGOCNWZ7GIT","AOS2PVHT2HYTL","3JUDR1D0D6D4CARU3YX9Y3DK5DJ2QK","","377.69999980926514","img/flower4.png","75","380.90000009536743","2","1","2","2","1,0,0,1,1,0,1,0,1","0,1,0,0,1,1,1,1,0","3",""
"","html-keyboard-response","206","153383","0.0-206.0","32M8BPYGAU8JWQ9CG7IRGOCNWZ7GIT","AOS2PVHT2HYTL","3JUDR1D0D6D4CARU3YX9Y3DK5DJ2QK","","null","<img src=""img/flower4.png"" style=""width:200px; border:14px solid green;"">","null","","","","","","","","",""
"","image-keyboard-response","207","153887","0.0-207.0","32M8BPYGAU8JWQ9CG7IRGOCNWZ7GIT","AOS2PVHT2HYTL","3JUDR1D0D6D4CARU3YX9Y3DK5DJ2QK","","501.09999990463257","img/flower3.png","75","503.7000000476837","2","1","1","2","1,0,0,1,1,0,1,0,1","0,1,0,0,1,1,1,1,0","3",""
"","html-keyboard-response","208","154190","0.0-208.0","32M8BPYGAU8JWQ9CG7IRGOCNWZ7GIT","AOS2PVHT2HYTL","3JUDR1D0D6D4CARU3YX9Y3DK5DJ2QK","","null","<img src=""img/flower3.png"" style=""width:200px; border:14px solid green;"">","null","","","","","","","","",""
"","image-keyboard-response","209","154610","0.0-209.0","32M8BPYGAU8JWQ9CG7IRGOCNWZ7GIT","AOS2PVHT2HYTL","3JUDR1D0D6D4CARU3YX9Y3DK5DJ2QK","","416.2999999523163","img/flower4.png","75","418.90000009536743","2","1","2","2","1,0,0,1,1,0,1,0,1","0,1,0,0,1,1,1,1,0","3",""
"","html-keyboard-response","210","154914","0.0-210.0","32M8BPYGAU8JWQ9CG7IRGOCNWZ7GIT","AOS2PVHT2HYTL","3JUDR1D0D6D4CARU3YX9Y3DK5DJ2QK","","null","<img src=""img/flower4.png"" style=""width:200px; border:14px solid green;"">","null","","","","","","","","",""
"","image-keyboard-response","211","155546","0.0-211.0","32M8BPYGAU8JWQ9CG7IRGOCNWZ7GIT","AOS2PVHT2HYTL","3JUDR1D0D6D4CARU3YX9Y3DK5DJ2QK","","629.0999999046326","img/flower2.png","75","631.7999999523163","2","1","3","2","1,0,0,1,1,0,1,0,1","0,1,0,0,1,1,1,1,0","3",""
"","html-keyboard-response","212","155850","0.0-212.0","32M8BPYGAU8JWQ9CG7IRGOCNWZ7GIT","AOS2PVHT2HYTL","3JUDR1D0D6D4CARU3YX9Y3DK5DJ2QK","","null","<img src=""img/flower2.png"" style=""width:200px; border:14px solid green;"">","null","","","","","","","","",""
"","image-keyboard-response","213","156244","0.0-213.0","32M8BPYGAU8JWQ9CG7IRGOCNWZ7GIT","AOS2PVHT2HYTL","3JUDR1D0D6D4CARU3YX9Y3DK5DJ2QK","","392.5","img/flower3.png","75","394.2000000476837","2","1","1","2","1,0,0,1,1,0,1,0,1","0,1,0,0,1,1,1,1,0","3",""
"","html-keyboard-response","214","156550","0.0-214.0","32M8BPYGAU8JWQ9CG7IRGOCNWZ7GIT","AOS2PVHT2HYTL","3JUDR1D0D6D4CARU3YX9Y3DK5DJ2QK","","null","<img src=""img/flower3.png"" style=""width:200px; border:14px solid green;"">","null","","","","","","","","",""
"","image-keyboard-response","215","156927","0.0-215.0","32M8BPYGAU8JWQ9CG7IRGOCNWZ7GIT","AOS2PVHT2HYTL","3JUDR1D0D6D4CARU3YX9Y3DK5DJ2QK","","374.59999990463257","img/flower4.png","75","376.5","2","1","2","2","1,0,0,1,1,0,1,0,1","0,1,0,0,1,1,1,1,0","3",""
"","html-keyboard-response","216","157231","0.0-216.0","32M8BPYGAU8JWQ9CG7IRGOCNWZ7GIT","AOS2PVHT2HYTL","3JUDR1D0D6D4CARU3YX9Y3DK5DJ2QK","","null","<img src=""img/flower4.png"" style=""width:200px; border:14px solid green;"">","null","","","","","","","","",""
"","image-keyboard-response","217","157659","0.0-217.0","32M8BPYGAU8JWQ9CG7IRGOCNWZ7GIT","AOS2PVHT2HYTL","3JUDR1D0D6D4CARU3YX9Y3DK5DJ2QK","","427.2000000476837","img/flower3.png","75","428.90000009536743","2","1","1","2","1,0,0,1,1,0,1,0,1","0,1,0,0,1,1,1,1,0","3",""
"","html-keyboard-response","218","157963","0.0-218.0","32M8BPYGAU8JWQ9CG7IRGOCNWZ7GIT","AOS2PVHT2HYTL","3JUDR1D0D6D4CARU3YX9Y3DK5DJ2QK","","null","<img src=""img/flower3.png"" style=""width:200px; border:14px solid green;"">","null","","","","","","","","",""
"","image-keyboard-response","219","158356","0.0-219.0","32M8BPYGAU8JWQ9CG7IRGOCNWZ7GIT","AOS2PVHT2HYTL","3JUDR1D0D6D4CARU3YX9Y3DK5DJ2QK","","389.7999999523163","img/flower4.png","75","392","2","1","2","2","1,0,0,1,1,0,1,0,1","0,1,0,0,1,1,1,1,0","3",""
"","html-keyboard-response","220","158659","0.0-220.0","32M8BPYGAU8JWQ9CG7IRGOCNWZ7GIT","AOS2PVHT2HYTL","3JUDR1D0D6D4CARU3YX9Y3DK5DJ2QK","","null","<img src=""img/flower4.png"" style=""width:200px; border:14px solid green;"">","null","","","","","","","","",""
"","image-keyboard-response","221","159047","0.0-221.0","32M8BPYGAU8JWQ9CG7IRGOCNWZ7GIT","AOS2PVHT2HYTL","3JUDR1D0D6D4CARU3YX9Y3DK5DJ2QK","","385.39999985694885","img/flower4.png","75","387.40000009536743","2","1","2","2","1,0,0,1,1,0,1,0,1","0,1,0,0,1,1,1,1,0","3",""
"","html-keyboard-response","222","159352","0.0-222.0","32M8BPYGAU8JWQ9CG7IRGOCNWZ7GIT","AOS2PVHT2HYTL","3JUDR1D0D6D4CARU3YX9Y3DK5DJ2QK","","null","<img src=""img/flower4.png"" style=""width:200px; border:14px solid green;"">","null","","","","","","","","",""
"","image-keyboard-response","223","159700","0.0-223.0","32M8BPYGAU8JWQ9CG7IRGOCNWZ7GIT","AOS2PVHT2HYTL","3JUDR1D0D6D4CARU3YX9Y3DK5DJ2QK","","345.39999985694885","img/flower4.png","75","348.10000014305115","2","1","2","2","1,0,0,1,1,0,1,0,1","0,1,0,0,1,1,1,1,0","3",""
"","html-keyboard-response","224","160005","0.0-224.0","32M8BPYGAU8JWQ9CG7IRGOCNWZ7GIT","AOS2PVHT2HYTL","3JUDR1D0D6D4CARU3YX9Y3DK5DJ2QK","","null","<img src=""img/flower4.png"" style=""width:200px; border:14px solid green;"">","null","","","","","","","","",""
"","image-keyboard-response","225","160332","0.0-225.0","32M8BPYGAU8JWQ9CG7IRGOCNWZ7GIT","AOS2PVHT2HYTL","3JUDR1D0D6D4CARU3YX9Y3DK5DJ2QK","","324.5","img/flower3.png","75","327.10000014305115","2","1","1","2","1,0,0,1,1,0,1,0,1","0,1,0,0,1,1,1,1,0","3",""
"","html-keyboard-response","226","160636","0.0-226.0","32M8BPYGAU8JWQ9CG7IRGOCNWZ7GIT","AOS2PVHT2HYTL","3JUDR1D0D6D4CARU3YX9Y3DK5DJ2QK","","null","<img src=""img/flower3.png"" style=""width:200px; border:14px solid green;"">","null","","","","","","","","",""
"","image-keyboard-response","227","161040","0.0-227.0","32M8BPYGAU8JWQ9CG7IRGOCNWZ7GIT","AOS2PVHT2HYTL","3JUDR1D0D6D4CARU3YX9Y3DK5DJ2QK","","401.2999999523163","img/flower3.png","75","403.59999990463257","2","1","1","2","1,0,0,1,1,0,1,0,1","0,1,0,0,1,1,1,1,0","3",""
"","html-keyboard-response","228","161346","0.0-228.0","32M8BPYGAU8JWQ9CG7IRGOCNWZ7GIT","AOS2PVHT2HYTL","3JUDR1D0D6D4CARU3YX9Y3DK5DJ2QK","","null","<img src=""img/flower3.png"" style=""width:200px; border:14px solid green;"">","null","","","","","","","","",""
"","image-keyboard-response","229","161655","0.0-229.0","32M8BPYGAU8JWQ9CG7IRGOCNWZ7GIT","AOS2PVHT2HYTL","3JUDR1D0D6D4CARU3YX9Y3DK5DJ2QK","","305.09999990463257","img/flower2.png","75","308.10000014305115","2","1","3","2","1,0,0,1,1,0,1,0,1","0,1,0,0,1,1,1,1,0","3",""
"","html-keyboard-response","230","161959","0.0-230.0","32M8BPYGAU8JWQ9CG7IRGOCNWZ7GIT","AOS2PVHT2HYTL","3JUDR1D0D6D4CARU3YX9Y3DK5DJ2QK","","null","<img src=""img/flower2.png"" style=""width:200px; border:14px solid green;"">","null","","","","","","","","",""
"","image-keyboard-response","231","162255","0.0-231.0","32M8BPYGAU8JWQ9CG7IRGOCNWZ7GIT","AOS2PVHT2HYTL","3JUDR1D0D6D4CARU3YX9Y3DK5DJ2QK","","294.2999999523163","img/flower4.png","75","296.2999999523163","2","1","2","2","1,0,0,1,1,0,1,0,1","0,1,0,0,1,1,1,1,0","3",""
"","html-keyboard-response","232","162559","0.0-232.0","32M8BPYGAU8JWQ9CG7IRGOCNWZ7GIT","AOS2PVHT2HYTL","3JUDR1D0D6D4CARU3YX9Y3DK5DJ2QK","","null","<img src=""img/flower4.png"" style=""width:200px; border:14px solid green;"">","null","","","","","","","","",""
"","image-keyboard-response","233","162884","0.0-233.0","32M8BPYGAU8JWQ9CG7IRGOCNWZ7GIT","AOS2PVHT2HYTL","3JUDR1D0D6D4CARU3YX9Y3DK5DJ2QK","","321.60000014305115","img/flower2.png","75","324.2000000476837","2","1","3","2","1,0,0,1,1,0,1,0,1","0,1,0,0,1,1,1,1,0","3",""
"","html-keyboard-response","234","163187","0.0-234.0","32M8BPYGAU8JWQ9CG7IRGOCNWZ7GIT","AOS2PVHT2HYTL","3JUDR1D0D6D4CARU3YX9Y3DK5DJ2QK","","null","<img src=""img/flower2.png"" style=""width:200px; border:14px solid green;"">","null","","","","","","","","",""
"","image-keyboard-response","235","163471","0.0-235.0","32M8BPYGAU8JWQ9CG7IRGOCNWZ7GIT","AOS2PVHT2HYTL","3JUDR1D0D6D4CARU3YX9Y3DK5DJ2QK","","282","img/flower2.png","75","283.7999999523163","2","1","3","2","1,0,0,1,1,0,1,0,1","0,1,0,0,1,1,1,1,0","3",""
"","html-keyboard-response","236","163776","0.0-236.0","32M8BPYGAU8JWQ9CG7IRGOCNWZ7GIT","AOS2PVHT2HYTL","3JUDR1D0D6D4CARU3YX9Y3DK5DJ2QK","","null","<img src=""img/flower2.png"" style=""width:200px; border:14px solid green;"">","null","","","","","","","","",""
"","image-keyboard-response","237","164046","0.0-237.0","32M8BPYGAU8JWQ9CG7IRGOCNWZ7GIT","AOS2PVHT2HYTL","3JUDR1D0D6D4CARU3YX9Y3DK5DJ2QK","","267.60000014305115","img/flower3.png","75","270.2000000476837","2","1","1","2","1,0,0,1,1,0,1,0,1","0,1,0,0,1,1,1,1,0","3",""
"","html-keyboard-response","238","164351","0.0-238.0","32M8BPYGAU8JWQ9CG7IRGOCNWZ7GIT","AOS2PVHT2HYTL","3JUDR1D0D6D4CARU3YX9Y3DK5DJ2QK","","null","<img src=""img/flower3.png"" style=""width:200px; border:14px solid green;"">","null","","","","","","","","",""
"","image-keyboard-response","239","164638","0.0-239.0","32M8BPYGAU8JWQ9CG7IRGOCNWZ7GIT","AOS2PVHT2HYTL","3JUDR1D0D6D4CARU3YX9Y3DK5DJ2QK","","284.2999999523163","img/flower2.png","75","286.89999985694885","2","1","3","2","1,0,0,1,1,0,1,0,1","0,1,0,0,1,1,1,1,0","3",""
"","html-keyboard-response","240","164942","0.0-240.0","32M8BPYGAU8JWQ9CG7IRGOCNWZ7GIT","AOS2PVHT2HYTL","3JUDR1D0D6D4CARU3YX9Y3DK5DJ2QK","","null","<img src=""img/flower2.png"" style=""width:200px; border:14px solid green;"">","null","","","","","","","","",""
"","image-keyboard-response","241","165311","0.0-241.0","32M8BPYGAU8JWQ9CG7IRGOCNWZ7GIT","AOS2PVHT2HYTL","3JUDR1D0D6D4CARU3YX9Y3DK5DJ2QK","","366.59999990463257","img/flower3.png","75","368.60000014305115","2","1","1","2","1,0,0,1,1,0,1,0,1","0,1,0,0,1,1,1,1,0","3",""
"","html-keyboard-response","242","165614","0.0-242.0","32M8BPYGAU8JWQ9CG7IRGOCNWZ7GIT","AOS2PVHT2HYTL","3JUDR1D0D6D4CARU3YX9Y3DK5DJ2QK","","null","<img src=""img/flower3.png"" style=""width:200px; border:14px solid green;"">","null","","","","","","","","",""
"","image-keyboard-response","243","165905","0.0-243.0","32M8BPYGAU8JWQ9CG7IRGOCNWZ7GIT","AOS2PVHT2HYTL","3JUDR1D0D6D4CARU3YX9Y3DK5DJ2QK","","290.40000009536743","img/flower2.png","75","291.7999999523163","2","1","3","2","1,0,0,1,1,0,1,0,1","0,1,0,0,1,1,1,1,0","3",""
"","html-keyboard-response","244","166208","0.0-244.0","32M8BPYGAU8JWQ9CG7IRGOCNWZ7GIT","AOS2PVHT2HYTL","3JUDR1D0D6D4CARU3YX9Y3DK5DJ2QK","","null","<img src=""img/flower2.png"" style=""width:200px; border:14px solid green;"">","null","","","","","","","","",""
"","image-keyboard-response","245","166450","0.0-245.0","32M8BPYGAU8JWQ9CG7IRGOCNWZ7GIT","AOS2PVHT2HYTL","3JUDR1D0D6D4CARU3YX9Y3DK5DJ2QK","","238.79999995231628","img/flower3.png","75","241.40000009536743","2","1","1","2","1,0,0,1,1,0,1,0,1","0,1,0,0,1,1,1,1,0","3",""
"","html-keyboard-response","246","166754","0.0-246.0","32M8BPYGAU8JWQ9CG7IRGOCNWZ7GIT","AOS2PVHT2HYTL","3JUDR1D0D6D4CARU3YX9Y3DK5DJ2QK","","null","<img src=""img/flower3.png"" style=""width:200px; border:14px solid green;"">","null","","","","","","","","",""
"","image-keyboard-response","247","167018","0.0-247.0","32M8BPYGAU8JWQ9CG7IRGOCNWZ7GIT","AOS2PVHT2HYTL","3JUDR1D0D6D4CARU3YX9Y3DK5DJ2QK","","261.2000000476837","img/flower3.png","75","263.59999990463257","2","1","1","2","1,0,0,1,1,0,1,0,1","0,1,0,0,1,1,1,1,0","3",""
"","html-keyboard-response","248","167341","0.0-248.0","32M8BPYGAU8JWQ9CG7IRGOCNWZ7GIT","AOS2PVHT2HYTL","3JUDR1D0D6D4CARU3YX9Y3DK5DJ2QK","","null","<img src=""img/flower3.png"" style=""width:200px; border:14px solid green;"">","null","","","","","","","","",""
"","image-keyboard-response","249","167620","0.0-249.0","32M8BPYGAU8JWQ9CG7IRGOCNWZ7GIT","AOS2PVHT2HYTL","3JUDR1D0D6D4CARU3YX9Y3DK5DJ2QK","","276.59999990463257","img/flower2.png","75","278.40000009536743","2","1","3","2","1,0,0,1,1,0,1,0,1","0,1,0,0,1,1,1,1,0","3",""
"","html-keyboard-response","250","167923","0.0-250.0","32M8BPYGAU8JWQ9CG7IRGOCNWZ7GIT","AOS2PVHT2HYTL","3JUDR1D0D6D4CARU3YX9Y3DK5DJ2QK","","null","<img src=""img/flower2.png"" style=""width:200px; border:14px solid green;"">","null","","","","","","","","",""
"","image-keyboard-response","251","168191","0.0-251.0","32M8BPYGAU8JWQ9CG7IRGOCNWZ7GIT","AOS2PVHT2HYTL","3JUDR1D0D6D4CARU3YX9Y3DK5DJ2QK","","265.30000019073486","img/flower2.png","75","267.60000014305115","2","1","3","2","1,0,0,1,1,0,1,0,1","0,1,0,0,1,1,1,1,0","3",""
"","html-keyboard-response","252","168493","0.0-252.0","32M8BPYGAU8JWQ9CG7IRGOCNWZ7GIT","AOS2PVHT2HYTL","3JUDR1D0D6D4CARU3YX9Y3DK5DJ2QK","","null","<img src=""img/flower2.png"" style=""width:200px; border:14px solid green;"">","null","","","","","","","","",""
"","image-keyboard-response","253","168792","0.0-253.0","32M8BPYGAU8JWQ9CG7IRGOCNWZ7GIT","AOS2PVHT2HYTL","3JUDR1D0D6D4CARU3YX9Y3DK5DJ2QK","","296","img/flower2.png","75","298.40000009536743","2","1","3","2","1,0,0,1,1,0,1,0,1","0,1,0,0,1,1,1,1,0","3",""
"","html-keyboard-response","254","169097","0.0-254.0","32M8BPYGAU8JWQ9CG7IRGOCNWZ7GIT","AOS2PVHT2HYTL","3JUDR1D0D6D4CARU3YX9Y3DK5DJ2QK","","null","<img src=""img/flower2.png"" style=""width:200px; border:14px solid green;"">","null","","","","","","","","",""
"","image-keyboard-response","255","169406","0.0-255.0","32M8BPYGAU8JWQ9CG7IRGOCNWZ7GIT","AOS2PVHT2HYTL","3JUDR1D0D6D4CARU3YX9Y3DK5DJ2QK","","306.30000019073486","img/flower2.png","75","308.90000009536743","2","1","3","2","1,0,0,1,1,0,1,0,1","0,1,0,0,1,1,1,1,0","3",""
"","html-keyboard-response","256","169711","0.0-256.0","32M8BPYGAU8JWQ9CG7IRGOCNWZ7GIT","AOS2PVHT2HYTL","3JUDR1D0D6D4CARU3YX9Y3DK5DJ2QK","","null","<img src=""img/flower2.png"" style=""width:200px; border:14px solid green;"">","null","","","","","","","","",""
"","image-keyboard-response","257","169963","0.0-257.0","32M8BPYGAU8JWQ9CG7IRGOCNWZ7GIT","AOS2PVHT2HYTL","3JUDR1D0D6D4CARU3YX9Y3DK5DJ2QK","","250","img/flower3.png","75","252","2","1","1","2","1,0,0,1,1,0,1,0,1","0,1,0,0,1,1,1,1,0","3",""
"","html-keyboard-response","258","170266","0.0-258.0","32M8BPYGAU8JWQ9CG7IRGOCNWZ7GIT","AOS2PVHT2HYTL","3JUDR1D0D6D4CARU3YX9Y3DK5DJ2QK","","null","<img src=""img/flower3.png"" style=""width:200px; border:14px solid green;"">","null","","","","","","","","",""
"","image-keyboard-response","259","170501","0.0-259.0","32M8BPYGAU8JWQ9CG7IRGOCNWZ7GIT","AOS2PVHT2HYTL","3JUDR1D0D6D4CARU3YX9Y3DK5DJ2QK","","232.5","img/flower4.png","75","235.09999990463257","2","1","2","2","1,0,0,1,1,0,1,0,1","0,1,0,0,1,1,1,1,0","3",""
"","html-keyboard-response","260","170805","0.0-260.0","32M8BPYGAU8JWQ9CG7IRGOCNWZ7GIT","AOS2PVHT2HYTL","3JUDR1D0D6D4CARU3YX9Y3DK5DJ2QK","","null","<img src=""img/flower4.png"" style=""width:200px; border:14px solid green;"">","null","","","","","","","","",""
"","image-keyboard-response","261","171094","0.0-261.0","32M8BPYGAU8JWQ9CG7IRGOCNWZ7GIT","AOS2PVHT2HYTL","3JUDR1D0D6D4CARU3YX9Y3DK5DJ2QK","","286.19999980926514","img/flower4.png","75","288.5","2","1","2","2","1,0,0,1,1,0,1,0,1","0,1,0,0,1,1,1,1,0","3",""
"","html-keyboard-response","262","171398","0.0-262.0","32M8BPYGAU8JWQ9CG7IRGOCNWZ7GIT","AOS2PVHT2HYTL","3JUDR1D0D6D4CARU3YX9Y3DK5DJ2QK","","null","<img src=""img/flower4.png"" style=""width:200px; border:14px solid green;"">","null","","","","","","","","",""
"","image-keyboard-response","263","171685","0.0-263.0","32M8BPYGAU8JWQ9CG7IRGOCNWZ7GIT","AOS2PVHT2HYTL","3JUDR1D0D6D4CARU3YX9Y3DK5DJ2QK","","284.09999990463257","img/flower2.png","75","286.7999999523163","2","1","3","2","1,0,0,1,1,0,1,0,1","0,1,0,0,1,1,1,1,0","3",""
"","html-keyboard-response","264","171990","0.0-264.0","32M8BPYGAU8JWQ9CG7IRGOCNWZ7GIT","AOS2PVHT2HYTL","3JUDR1D0D6D4CARU3YX9Y3DK5DJ2QK","","null","<img src=""img/flower2.png"" style=""width:200px; border:14px solid green;"">","null","","","","","","","","",""
"","image-keyboard-response","265","172268","0.0-265.0","32M8BPYGAU8JWQ9CG7IRGOCNWZ7GIT","AOS2PVHT2HYTL","3JUDR1D0D6D4CARU3YX9Y3DK5DJ2QK","","274.7000000476837","img/flower3.png","75","277.40000009536743","2","1","1","2","1,0,0,1,1,0,1,0,1","0,1,0,0,1,1,1,1,0","3",""
"","html-keyboard-response","266","172572","0.0-266.0","32M8BPYGAU8JWQ9CG7IRGOCNWZ7GIT","AOS2PVHT2HYTL","3JUDR1D0D6D4CARU3YX9Y3DK5DJ2QK","","null","<img src=""img/flower3.png"" style=""width:200px; border:14px solid green;"">","null","","","","","","","","",""
"","image-keyboard-response","267","172868","0.0-267.0","32M8BPYGAU8JWQ9CG7IRGOCNWZ7GIT","AOS2PVHT2HYTL","3JUDR1D0D6D4CARU3YX9Y3DK5DJ2QK","","293.7000000476837","img/flower3.png","75","295.90000009536743","2","1","1","2","1,0,0,1,1,0,1,0,1","0,1,0,0,1,1,1,1,0","3",""
"","html-keyboard-response","268","173173","0.0-268.0","32M8BPYGAU8JWQ9CG7IRGOCNWZ7GIT","AOS2PVHT2HYTL","3JUDR1D0D6D4CARU3YX9Y3DK5DJ2QK","","null","<img src=""img/flower3.png"" style=""width:200px; border:14px solid green;"">","null","","","","","","","","",""
"","image-keyboard-response","269","173446","0.0-269.0","32M8BPYGAU8JWQ9CG7IRGOCNWZ7GIT","AOS2PVHT2HYTL","3JUDR1D0D6D4CARU3YX9Y3DK5DJ2QK","","270","img/flower4.png","75","272.7999999523163","2","1","2","2","1,0,0,1,1,0,1,0,1","0,1,0,0,1,1,1,1,0","3",""
"","html-keyboard-response","270","173750","0.0-270.0","32M8BPYGAU8JWQ9CG7IRGOCNWZ7GIT","AOS2PVHT2HYTL","3JUDR1D0D6D4CARU3YX9Y3DK5DJ2QK","","null","<img src=""img/flower4.png"" style=""width:200px; border:14px solid green;"">","null","","","","","","","","",""
"","image-keyboard-response","271","174022","0.0-271.0","32M8BPYGAU8JWQ9CG7IRGOCNWZ7GIT","AOS2PVHT2HYTL","3JUDR1D0D6D4CARU3YX9Y3DK5DJ2QK","","269.09999990463257","img/flower3.png","75","271.7000000476837","2","1","1","2","1,0,0,1,1,0,1,0,1","0,1,0,0,1,1,1,1,0","3",""
"","html-keyboard-response","272","174326","0.0-272.0","32M8BPYGAU8JWQ9CG7IRGOCNWZ7GIT","AOS2PVHT2HYTL","3JUDR1D0D6D4CARU3YX9Y3DK5DJ2QK","","null","<img src=""img/flower3.png"" style=""width:200px; border:14px solid green;"">","null","","","","","","","","",""
"","image-keyboard-response","273","174549","0.0-273.0","32M8BPYGAU8JWQ9CG7IRGOCNWZ7GIT","AOS2PVHT2HYTL","3JUDR1D0D6D4CARU3YX9Y3DK5DJ2QK","","217.59999990463257","img/flower4.png","75","219.40000009536743","2","1","2","2","1,0,0,1,1,0,1,0,1","0,1,0,0,1,1,1,1,0","3",""
"","html-keyboard-response","274","174852","0.0-274.0","32M8BPYGAU8JWQ9CG7IRGOCNWZ7GIT","AOS2PVHT2HYTL","3JUDR1D0D6D4CARU3YX9Y3DK5DJ2QK","","null","<img src=""img/flower4.png"" style=""width:200px; border:14px solid green;"">","null","","","","","","","","",""
"","image-keyboard-response","275","175169","0.0-275.0","32M8BPYGAU8JWQ9CG7IRGOCNWZ7GIT","AOS2PVHT2HYTL","3JUDR1D0D6D4CARU3YX9Y3DK5DJ2QK","","313.2999999523163","img/flower4.png","75","315.7999999523163","2","1","2","2","1,0,0,1,1,0,1,0,1","0,1,0,0,1,1,1,1,0","3",""
"","html-keyboard-response","276","175476","0.0-276.0","32M8BPYGAU8JWQ9CG7IRGOCNWZ7GIT","AOS2PVHT2HYTL","3JUDR1D0D6D4CARU3YX9Y3DK5DJ2QK","","null","<img src=""img/flower4.png"" style=""width:200px; border:14px solid green;"">","null","","","","","","","","",""
"","image-keyboard-response","277","175675","0.0-277.0","32M8BPYGAU8JWQ9CG7IRGOCNWZ7GIT","AOS2PVHT2HYTL","3JUDR1D0D6D4CARU3YX9Y3DK5DJ2QK","","196.79999995231628","img/flower4.png","75","198.80000019073486","2","1","2","2","1,0,0,1,1,0,1,0,1","0,1,0,0,1,1,1,1,0","3",""
"","html-keyboard-response","278","175979","0.0-278.0","32M8BPYGAU8JWQ9CG7IRGOCNWZ7GIT","AOS2PVHT2HYTL","3JUDR1D0D6D4CARU3YX9Y3DK5DJ2QK","","null","<img src=""img/flower4.png"" style=""width:200px; border:14px solid green;"">","null","","","","","","","","",""
"","image-keyboard-response","279","176269","0.0-279.0","32M8BPYGAU8JWQ9CG7IRGOCNWZ7GIT","AOS2PVHT2HYTL","3JUDR1D0D6D4CARU3YX9Y3DK5DJ2QK","","287.2999999523163","img/flower2.png","75","289.7999999523163","2","1","3","2","1,0,0,1,1,0,1,0,1","0,1,0,0,1,1,1,1,0","3",""
"","html-keyboard-response","280","176576","0.0-280.0","32M8BPYGAU8JWQ9CG7IRGOCNWZ7GIT","AOS2PVHT2HYTL","3JUDR1D0D6D4CARU3YX9Y3DK5DJ2QK","","null","<img src=""img/flower2.png"" style=""width:200px; border:14px solid green;"">","null","","","","","","","","",""
"","image-keyboard-response","281","176934","0.0-281.0","32M8BPYGAU8JWQ9CG7IRGOCNWZ7GIT","AOS2PVHT2HYTL","3JUDR1D0D6D4CARU3YX9Y3DK5DJ2QK","","354.10000014305115","img/flower2.png","75","357.19999980926514","2","1","3","2","1,0,0,1,1,0,1,0,1","0,1,0,0,1,1,1,1,0","3",""
"","html-keyboard-response","282","177237","0.0-282.0","32M8BPYGAU8JWQ9CG7IRGOCNWZ7GIT","AOS2PVHT2HYTL","3JUDR1D0D6D4CARU3YX9Y3DK5DJ2QK","","null","<img src=""img/flower2.png"" style=""width:200px; border:14px solid green;"">","null","","","","","","","","",""
"","image-keyboard-response","283","177566","0.0-283.0","32M8BPYGAU8JWQ9CG7IRGOCNWZ7GIT","AOS2PVHT2HYTL","3JUDR1D0D6D4CARU3YX9Y3DK5DJ2QK","","325.7000000476837","img/flower2.png","75","328.39999985694885","2","1","3","2","1,0,0,1,1,0,1,0,1","0,1,0,0,1,1,1,1,0","3",""
"","html-keyboard-response","284","177869","0.0-284.0","32M8BPYGAU8JWQ9CG7IRGOCNWZ7GIT","AOS2PVHT2HYTL","3JUDR1D0D6D4CARU3YX9Y3DK5DJ2QK","","null","<img src=""img/flower2.png"" style=""width:200px; border:14px solid green;"">","null","","","","","","","","",""
"","image-keyboard-response","285","178122","0.0-285.0","32M8BPYGAU8JWQ9CG7IRGOCNWZ7GIT","AOS2PVHT2HYTL","3JUDR1D0D6D4CARU3YX9Y3DK5DJ2QK","","249.79999995231628","img/flower3.png","75","252.30000019073486","2","1","1","2","1,0,0,1,1,0,1,0,1","0,1,0,0,1,1,1,1,0","3",""
"","html-keyboard-response","286","178425","0.0-286.0","32M8BPYGAU8JWQ9CG7IRGOCNWZ7GIT","AOS2PVHT2HYTL","3JUDR1D0D6D4CARU3YX9Y3DK5DJ2QK","","null","<img src=""img/flower3.png"" style=""width:200px; border:14px solid green;"">","null","","","","","","","","",""
"","image-keyboard-response","287","178709","0.0-287.0","32M8BPYGAU8JWQ9CG7IRGOCNWZ7GIT","AOS2PVHT2HYTL","3JUDR1D0D6D4CARU3YX9Y3DK5DJ2QK","","280.2999999523163","img/flower4.png","75","282.89999985694885","2","1","2","2","1,0,0,1,1,0,1,0,1","0,1,0,0,1,1,1,1,0","3",""
"","html-keyboard-response","288","179029","0.0-288.0","32M8BPYGAU8JWQ9CG7IRGOCNWZ7GIT","AOS2PVHT2HYTL","3JUDR1D0D6D4CARU3YX9Y3DK5DJ2QK","","null","<img src=""img/flower4.png"" style=""width:200px; border:14px solid green;"">","null","","","","","","","","",""
"","image-keyboard-response","289","179265","0.0-289.0","32M8BPYGAU8JWQ9CG7IRGOCNWZ7GIT","AOS2PVHT2HYTL","3JUDR1D0D6D4CARU3YX9Y3DK5DJ2QK","","234.20000004768372","img/flower2.png","75","236","2","1","3","2","1,0,0,1,1,0,1,0,1","0,1,0,0,1,1,1,1,0","3",""
"","html-keyboard-response","290","179569","0.0-290.0","32M8BPYGAU8JWQ9CG7IRGOCNWZ7GIT","AOS2PVHT2HYTL","3JUDR1D0D6D4CARU3YX9Y3DK5DJ2QK","","null","<img src=""img/flower2.png"" style=""width:200px; border:14px solid green;"">","null","","","","","","","","",""
"","image-keyboard-response","291","179819","0.0-291.0","32M8BPYGAU8JWQ9CG7IRGOCNWZ7GIT","AOS2PVHT2HYTL","3JUDR1D0D6D4CARU3YX9Y3DK5DJ2QK","","246.70000004768372","img/flower4.png","75","249.20000004768372","2","1","2","2","1,0,0,1,1,0,1,0,1","0,1,0,0,1,1,1,1,0","3",""
"","html-keyboard-response","292","180122","0.0-292.0","32M8BPYGAU8JWQ9CG7IRGOCNWZ7GIT","AOS2PVHT2HYTL","3JUDR1D0D6D4CARU3YX9Y3DK5DJ2QK","","null","<img src=""img/flower4.png"" style=""width:200px; border:14px solid green;"">","null","","","","","","","","",""
"","image-keyboard-response","293","180380","0.0-293.0","32M8BPYGAU8JWQ9CG7IRGOCNWZ7GIT","AOS2PVHT2HYTL","3JUDR1D0D6D4CARU3YX9Y3DK5DJ2QK","","255.5","img/flower2.png","75","258","2","1","3","2","1,0,0,1,1,0,1,0,1","0,1,0,0,1,1,1,1,0","3",""
"","html-keyboard-response","294","180684","0.0-294.0","32M8BPYGAU8JWQ9CG7IRGOCNWZ7GIT","AOS2PVHT2HYTL","3JUDR1D0D6D4CARU3YX9Y3DK5DJ2QK","","null","<img src=""img/flower2.png"" style=""width:200px; border:14px solid green;"">","null","","","","","","","","",""
"","image-keyboard-response","295","180948","0.0-295.0","32M8BPYGAU8JWQ9CG7IRGOCNWZ7GIT","AOS2PVHT2HYTL","3JUDR1D0D6D4CARU3YX9Y3DK5DJ2QK","","261","img/flower3.png","75","263.59999990463257","2","1","1","2","1,0,0,1,1,0,1,0,1","0,1,0,0,1,1,1,1,0","3",""
"","html-keyboard-response","296","181252","0.0-296.0","32M8BPYGAU8JWQ9CG7IRGOCNWZ7GIT","AOS2PVHT2HYTL","3JUDR1D0D6D4CARU3YX9Y3DK5DJ2QK","","null","<img src=""img/flower3.png"" style=""width:200px; border:14px solid green;"">","null","","","","","","","","",""
"","image-keyboard-response","297","181490","0.0-297.0","32M8BPYGAU8JWQ9CG7IRGOCNWZ7GIT","AOS2PVHT2HYTL","3JUDR1D0D6D4CARU3YX9Y3DK5DJ2QK","","235.20000004768372","img/flower2.png","75","237.20000004768372","2","1","3","2","1,0,0,1,1,0,1,0,1","0,1,0,0,1,1,1,1,0","3",""
"","html-keyboard-response","298","181793","0.0-298.0","32M8BPYGAU8JWQ9CG7IRGOCNWZ7GIT","AOS2PVHT2HYTL","3JUDR1D0D6D4CARU3YX9Y3DK5DJ2QK","","null","<img src=""img/flower2.png"" style=""width:200px; border:14px solid green;"">","null","","","","","","","","",""
"","image-keyboard-response","299","182049","0.0-299.0","32M8BPYGAU8JWQ9CG7IRGOCNWZ7GIT","AOS2PVHT2HYTL","3JUDR1D0D6D4CARU3YX9Y3DK5DJ2QK","","252.70000004768372","img/flower2.png","75","255.20000004768372","2","1","3","2","1,0,0,1,1,0,1,0,1","0,1,0,0,1,1,1,1,0","3",""
"","html-keyboard-response","300","182353","0.0-300.0","32M8BPYGAU8JWQ9CG7IRGOCNWZ7GIT","AOS2PVHT2HYTL","3JUDR1D0D6D4CARU3YX9Y3DK5DJ2QK","","null","<img src=""img/flower2.png"" style=""width:200px; border:14px solid green;"">","null","","","","","","","","",""
"","image-keyboard-response","301","182557","0.0-301.0","32M8BPYGAU8JWQ9CG7IRGOCNWZ7GIT","AOS2PVHT2HYTL","3JUDR1D0D6D4CARU3YX9Y3DK5DJ2QK","","201.30000019073486","img/flower2.png","75","203.30000019073486","2","1","3","2","1,0,0,1,1,0,1,0,1","0,1,0,0,1,1,1,1,0","3",""
"","html-keyboard-response","302","182860","0.0-302.0","32M8BPYGAU8JWQ9CG7IRGOCNWZ7GIT","AOS2PVHT2HYTL","3JUDR1D0D6D4CARU3YX9Y3DK5DJ2QK","","null","<img src=""img/flower2.png"" style=""width:200px; border:14px solid green;"">","null","","","","","","","","",""
"","image-keyboard-response","303","183118","0.0-303.0","32M8BPYGAU8JWQ9CG7IRGOCNWZ7GIT","AOS2PVHT2HYTL","3JUDR1D0D6D4CARU3YX9Y3DK5DJ2QK","","255.29999995231628","img/flower2.png","75","257.69999980926514","2","1","3","2","1,0,0,1,1,0,1,0,1","0,1,0,0,1,1,1,1,0","3",""
"","html-keyboard-response","304","183422","0.0-304.0","32M8BPYGAU8JWQ9CG7IRGOCNWZ7GIT","AOS2PVHT2HYTL","3JUDR1D0D6D4CARU3YX9Y3DK5DJ2QK","","null","<img src=""img/flower2.png"" style=""width:200px; border:14px solid green;"">","null","","","","","","","","",""
"","image-keyboard-response","305","183622","0.0-305.0","32M8BPYGAU8JWQ9CG7IRGOCNWZ7GIT","AOS2PVHT2HYTL","3JUDR1D0D6D4CARU3YX9Y3DK5DJ2QK","","196.59999990463257","img/flower3.png","75","199.30000019073486","2","1","1","2","1,0,0,1,1,0,1,0,1","0,1,0,0,1,1,1,1,0","3",""
"","html-keyboard-response","306","183926","0.0-306.0","32M8BPYGAU8JWQ9CG7IRGOCNWZ7GIT","AOS2PVHT2HYTL","3JUDR1D0D6D4CARU3YX9Y3DK5DJ2QK","","null","<img src=""img/flower3.png"" style=""width:200px; border:14px solid green;"">","null","","","","","","","","",""
"","image-keyboard-response","307","184216","0.0-307.0","32M8BPYGAU8JWQ9CG7IRGOCNWZ7GIT","AOS2PVHT2HYTL","3JUDR1D0D6D4CARU3YX9Y3DK5DJ2QK","","288","img/flower2.png","75","289.7999999523163","2","1","3","2","1,0,0,1,1,0,1,0,1","0,1,0,0,1,1,1,1,0","3",""
"","html-keyboard-response","308","184520","0.0-308.0","32M8BPYGAU8JWQ9CG7IRGOCNWZ7GIT","AOS2PVHT2HYTL","3JUDR1D0D6D4CARU3YX9Y3DK5DJ2QK","","null","<img src=""img/flower2.png"" style=""width:200px; border:14px solid green;"">","null","","","","","","","","",""
"","image-keyboard-response","309","184751","0.0-309.0","32M8BPYGAU8JWQ9CG7IRGOCNWZ7GIT","AOS2PVHT2HYTL","3JUDR1D0D6D4CARU3YX9Y3DK5DJ2QK","","228.90000009536743","img/flower2.png","75","231.5","2","1","3","2","1,0,0,1,1,0,1,0,1","0,1,0,0,1,1,1,1,0","3",""
"","html-keyboard-response","310","185075","0.0-310.0","32M8BPYGAU8JWQ9CG7IRGOCNWZ7GIT","AOS2PVHT2HYTL","3JUDR1D0D6D4CARU3YX9Y3DK5DJ2QK","","null","<img src=""img/flower2.png"" style=""width:200px; border:14px solid green;"">","null","","","","","","","","",""
"","image-keyboard-response","311","185267","0.0-311.0","32M8BPYGAU8JWQ9CG7IRGOCNWZ7GIT","AOS2PVHT2HYTL","3JUDR1D0D6D4CARU3YX9Y3DK5DJ2QK","","190.09999990463257","img/flower2.png","75","192.20000004768372","2","1","3","2","1,0,0,1,1,0,1,0,1","0,1,0,0,1,1,1,1,0","3",""
"","html-keyboard-response","312","185571","0.0-312.0","32M8BPYGAU8JWQ9CG7IRGOCNWZ7GIT","AOS2PVHT2HYTL","3JUDR1D0D6D4CARU3YX9Y3DK5DJ2QK","","null","<img src=""img/flower2.png"" style=""width:200px; border:14px solid green;"">","null","","","","","","","","",""
"","image-keyboard-response","313","185839","0.0-313.0","32M8BPYGAU8JWQ9CG7IRGOCNWZ7GIT","AOS2PVHT2HYTL","3JUDR1D0D6D4CARU3YX9Y3DK5DJ2QK","","264.7000000476837","img/flower3.png","75","267.2000000476837","2","1","1","2","1,0,0,1,1,0,1,0,1","0,1,0,0,1,1,1,1,0","3",""
"","html-keyboard-response","314","186144","0.0-314.0","32M8BPYGAU8JWQ9CG7IRGOCNWZ7GIT","AOS2PVHT2HYTL","3JUDR1D0D6D4CARU3YX9Y3DK5DJ2QK","","null","<img src=""img/flower3.png"" style=""width:200px; border:14px solid green;"">","null","","","","","","","","",""
"","image-keyboard-response","315","186376","0.0-315.0","32M8BPYGAU8JWQ9CG7IRGOCNWZ7GIT","AOS2PVHT2HYTL","3JUDR1D0D6D4CARU3YX9Y3DK5DJ2QK","","225.39999985694885","img/flower3.png","75","230.40000009536743","2","1","1","2","1,0,0,1,1,0,1,0,1","0,1,0,0,1,1,1,1,0","3",""
"","html-keyboard-response","316","186679","0.0-316.0","32M8BPYGAU8JWQ9CG7IRGOCNWZ7GIT","AOS2PVHT2HYTL","3JUDR1D0D6D4CARU3YX9Y3DK5DJ2QK","","null","<img src=""img/flower3.png"" style=""width:200px; border:14px solid green;"">","null","","","","","","","","",""
"","image-keyboard-response","317","186840","0.0-317.0","32M8BPYGAU8JWQ9CG7IRGOCNWZ7GIT","AOS2PVHT2HYTL","3JUDR1D0D6D4CARU3YX9Y3DK5DJ2QK","","158.29999995231628","img/flower4.png","75","160.29999995231628","2","1","2","2","1,0,0,1,1,0,1,0,1","0,1,0,0,1,1,1,1,0","3",""
"","html-keyboard-response","318","187143","0.0-318.0","32M8BPYGAU8JWQ9CG7IRGOCNWZ7GIT","AOS2PVHT2HYTL","3JUDR1D0D6D4CARU3YX9Y3DK5DJ2QK","","null","<img src=""img/flower4.png"" style=""width:200px; border:14px solid green;"">","null","","","","","","","","",""
"","image-keyboard-response","319","187390","0.0-319.0","32M8BPYGAU8JWQ9CG7IRGOCNWZ7GIT","AOS2PVHT2HYTL","3JUDR1D0D6D4CARU3YX9Y3DK5DJ2QK","","245.5","img/flower3.png","75","247.20000004768372","2","1","1","2","1,0,0,1,1,0,1,0,1","0,1,0,0,1,1,1,1,0","3",""
"","html-keyboard-response","320","187694","0.0-320.0","32M8BPYGAU8JWQ9CG7IRGOCNWZ7GIT","AOS2PVHT2HYTL","3JUDR1D0D6D4CARU3YX9Y3DK5DJ2QK","","null","<img src=""img/flower3.png"" style=""width:200px; border:14px solid green;"">","null","","","","","","","","",""
"","image-keyboard-response","321","187913","0.0-321.0","32M8BPYGAU8JWQ9CG7IRGOCNWZ7GIT","AOS2PVHT2HYTL","3JUDR1D0D6D4CARU3YX9Y3DK5DJ2QK","","215.79999995231628","img/flower2.png","75","218.40000009536743","2","1","3","2","1,0,0,1,1,0,1,0,1","0,1,0,0,1,1,1,1,0","3",""
"","html-keyboard-response","322","188217","0.0-322.0","32M8BPYGAU8JWQ9CG7IRGOCNWZ7GIT","AOS2PVHT2HYTL","3JUDR1D0D6D4CARU3YX9Y3DK5DJ2QK","","null","<img src=""img/flower2.png"" style=""width:200px; border:14px solid green;"">","null","","","","","","","","",""
"","image-keyboard-response","323","188410","0.0-323.0","32M8BPYGAU8JWQ9CG7IRGOCNWZ7GIT","AOS2PVHT2HYTL","3JUDR1D0D6D4CARU3YX9Y3DK5DJ2QK","","189.89999985694885","img/flower3.png","75","192.5","2","1","1","2","1,0,0,1,1,0,1,0,1","0,1,0,0,1,1,1,1,0","3",""
"","html-keyboard-response","324","188715","0.0-324.0","32M8BPYGAU8JWQ9CG7IRGOCNWZ7GIT","AOS2PVHT2HYTL","3JUDR1D0D6D4CARU3YX9Y3DK5DJ2QK","","null","<img src=""img/flower3.png"" style=""width:200px; border:14px solid green;"">","null","","","","","","","","",""
"","image-keyboard-response","325","188946","0.0-325.0","32M8BPYGAU8JWQ9CG7IRGOCNWZ7GIT","AOS2PVHT2HYTL","3JUDR1D0D6D4CARU3YX9Y3DK5DJ2QK","","228.40000009536743","img/flower4.png","75","230.5","2","1","2","2","1,0,0,1,1,0,1,0,1","0,1,0,0,1,1,1,1,0","3",""
"","html-keyboard-response","326","189250","0.0-326.0","32M8BPYGAU8JWQ9CG7IRGOCNWZ7GIT","AOS2PVHT2HYTL","3JUDR1D0D6D4CARU3YX9Y3DK5DJ2QK","","null","<img src=""img/flower4.png"" style=""width:200px; border:14px solid green;"">","null","","","","","","","","",""
"","image-keyboard-response","327","189497","0.0-327.0","32M8BPYGAU8JWQ9CG7IRGOCNWZ7GIT","AOS2PVHT2HYTL","3JUDR1D0D6D4CARU3YX9Y3DK5DJ2QK","","243.79999995231628","img/flower3.png","75","246.40000009536743","2","1","1","2","1,0,0,1,1,0,1,0,1","0,1,0,0,1,1,1,1,0","3",""
"","html-keyboard-response","328","189800","0.0-328.0","32M8BPYGAU8JWQ9CG7IRGOCNWZ7GIT","AOS2PVHT2HYTL","3JUDR1D0D6D4CARU3YX9Y3DK5DJ2QK","","null","<img src=""img/flower3.png"" style=""width:200px; border:14px solid green;"">","null","","","","","","","","",""
"","image-keyboard-response","329","189999","0.0-329.0","32M8BPYGAU8JWQ9CG7IRGOCNWZ7GIT","AOS2PVHT2HYTL","3JUDR1D0D6D4CARU3YX9Y3DK5DJ2QK","","194.19999980926514","img/flower4.png","75","198.20000004768372","2","1","2","2","1,0,0,1,1,0,1,0,1","0,1,0,0,1,1,1,1,0","3",""
"","html-keyboard-response","330","190302","0.0-330.0","32M8BPYGAU8JWQ9CG7IRGOCNWZ7GIT","AOS2PVHT2HYTL","3JUDR1D0D6D4CARU3YX9Y3DK5DJ2QK","","null","<img src=""img/flower4.png"" style=""width:200px; border:14px solid green;"">","null","","","","","","","","",""
"","image-keyboard-response","331","190498","0.0-331.0","32M8BPYGAU8JWQ9CG7IRGOCNWZ7GIT","AOS2PVHT2HYTL","3JUDR1D0D6D4CARU3YX9Y3DK5DJ2QK","","192.29999995231628","img/flower2.png","75","194.70000004768372","2","1","3","2","1,0,0,1,1,0,1,0,1","0,1,0,0,1,1,1,1,0","3",""
"","html-keyboard-response","332","190802","0.0-332.0","32M8BPYGAU8JWQ9CG7IRGOCNWZ7GIT","AOS2PVHT2HYTL","3JUDR1D0D6D4CARU3YX9Y3DK5DJ2QK","","null","<img src=""img/flower2.png"" style=""width:200px; border:14px solid green;"">","null","","","","","","","","",""
"","image-keyboard-response","333","190969","0.0-333.0","32M8BPYGAU8JWQ9CG7IRGOCNWZ7GIT","AOS2PVHT2HYTL","3JUDR1D0D6D4CARU3YX9Y3DK5DJ2QK","","165.20000004768372","img/flower4.png","75","167.29999995231628","2","1","2","2","1,0,0,1,1,0,1,0,1","0,1,0,0,1,1,1,1,0","3",""
"","html-keyboard-response","334","191277","0.0-334.0","32M8BPYGAU8JWQ9CG7IRGOCNWZ7GIT","AOS2PVHT2HYTL","3JUDR1D0D6D4CARU3YX9Y3DK5DJ2QK","","null","<img src=""img/flower4.png"" style=""width:200px; border:14px solid green;"">","null","","","","","","","","",""
"","image-keyboard-response","335","191463","0.0-335.0","32M8BPYGAU8JWQ9CG7IRGOCNWZ7GIT","AOS2PVHT2HYTL","3JUDR1D0D6D4CARU3YX9Y3DK5DJ2QK","","184.70000004768372","img/flower4.png","75","186.60000014305115","2","1","2","2","1,0,0,1,1,0,1,0,1","0,1,0,0,1,1,1,1,0","3",""
"","html-keyboard-response","336","191767","0.0-336.0","32M8BPYGAU8JWQ9CG7IRGOCNWZ7GIT","AOS2PVHT2HYTL","3JUDR1D0D6D4CARU3YX9Y3DK5DJ2QK","","null","<img src=""img/flower4.png"" style=""width:200px; border:14px solid green;"">","null","","","","","","","","",""
"","image-keyboard-response","337","191941","0.0-337.0","32M8BPYGAU8JWQ9CG7IRGOCNWZ7GIT","AOS2PVHT2HYTL","3JUDR1D0D6D4CARU3YX9Y3DK5DJ2QK","","170.79999995231628","img/flower2.png","75","173.30000019073486","2","1","3","2","1,0,0,1,1,0,1,0,1","0,1,0,0,1,1,1,1,0","3",""
"","html-keyboard-response","338","192245","0.0-338.0","32M8BPYGAU8JWQ9CG7IRGOCNWZ7GIT","AOS2PVHT2HYTL","3JUDR1D0D6D4CARU3YX9Y3DK5DJ2QK","","null","<img src=""img/flower2.png"" style=""width:200px; border:14px solid green;"">","null","","","","","","","","",""
"","image-keyboard-response","339","192437","0.0-339.0","32M8BPYGAU8JWQ9CG7IRGOCNWZ7GIT","AOS2PVHT2HYTL","3JUDR1D0D6D4CARU3YX9Y3DK5DJ2QK","","189.10000014305115","img/flower2.png","75","191.70000004768372","2","1","3","2","1,0,0,1,1,0,1,0,1","0,1,0,0,1,1,1,1,0","3",""
"","html-keyboard-response","340","192741","0.0-340.0","32M8BPYGAU8JWQ9CG7IRGOCNWZ7GIT","AOS2PVHT2HYTL","3JUDR1D0D6D4CARU3YX9Y3DK5DJ2QK","","null","<img src=""img/flower2.png"" style=""width:200px; border:14px solid green;"">","null","","","","","","","","",""
"","image-keyboard-response","341","192936","0.0-341.0","32M8BPYGAU8JWQ9CG7IRGOCNWZ7GIT","AOS2PVHT2HYTL","3JUDR1D0D6D4CARU3YX9Y3DK5DJ2QK","","192.20000004768372","img/flower4.png","75","194.89999985694885","2","1","2","2","1,0,0,1,1,0,1,0,1","0,1,0,0,1,1,1,1,0","3",""
"","html-keyboard-response","342","193241","0.0-342.0","32M8BPYGAU8JWQ9CG7IRGOCNWZ7GIT","AOS2PVHT2HYTL","3JUDR1D0D6D4CARU3YX9Y3DK5DJ2QK","","null","<img src=""img/flower4.png"" style=""width:200px; border:14px solid green;"">","null","","","","","","","","",""
"","image-keyboard-response","343","193451","0.0-343.0","32M8BPYGAU8JWQ9CG7IRGOCNWZ7GIT","AOS2PVHT2HYTL","3JUDR1D0D6D4CARU3YX9Y3DK5DJ2QK","","207.90000009536743","img/flower4.png","75","209.79999995231628","2","1","2","2","1,0,0,1,1,0,1,0,1","0,1,0,0,1,1,1,1,0","3",""
"","html-keyboard-response","344","193755","0.0-344.0","32M8BPYGAU8JWQ9CG7IRGOCNWZ7GIT","AOS2PVHT2HYTL","3JUDR1D0D6D4CARU3YX9Y3DK5DJ2QK","","null","<img src=""img/flower4.png"" style=""width:200px; border:14px solid green;"">","null","","","","","","","","",""
"","image-keyboard-response","345","193981","0.0-345.0","32M8BPYGAU8JWQ9CG7IRGOCNWZ7GIT","AOS2PVHT2HYTL","3JUDR1D0D6D4CARU3YX9Y3DK5DJ2QK","","223.29999995231628","img/flower4.png","75","226","2","1","2","2","1,0,0,1,1,0,1,0,1","0,1,0,0,1,1,1,1,0","3",""
"","html-keyboard-response","346","194336","0.0-346.0","32M8BPYGAU8JWQ9CG7IRGOCNWZ7GIT","AOS2PVHT2HYTL","3JUDR1D0D6D4CARU3YX9Y3DK5DJ2QK","","null","<img src=""img/flower4.png"" style=""width:200px; border:14px solid green;"">","null","","","","","","","","",""
"","image-keyboard-response","347","194601","0.0-347.0","32M8BPYGAU8JWQ9CG7IRGOCNWZ7GIT","AOS2PVHT2HYTL","3JUDR1D0D6D4CARU3YX9Y3DK5DJ2QK","","263.59999990463257","img/flower2.png","75","264.90000009536743","2","1","3","2","1,0,0,1,1,0,1,0,1","0,1,0,0,1,1,1,1,0","3",""
"","html-keyboard-response","348","194903","0.0-348.0","32M8BPYGAU8JWQ9CG7IRGOCNWZ7GIT","AOS2PVHT2HYTL","3JUDR1D0D6D4CARU3YX9Y3DK5DJ2QK","","null","<img src=""img/flower2.png"" style=""width:200px; border:14px solid green;"">","null","","","","","","","","",""
"","image-keyboard-response","349","195110","0.0-349.0","32M8BPYGAU8JWQ9CG7IRGOCNWZ7GIT","AOS2PVHT2HYTL","3JUDR1D0D6D4CARU3YX9Y3DK5DJ2QK","","204.89999985694885","img/flower4.png","75","206.20000004768372","2","1","2","2","1,0,0,1,1,0,1,0,1","0,1,0,0,1,1,1,1,0","3",""
"","html-keyboard-response","350","195412","0.0-350.0","32M8BPYGAU8JWQ9CG7IRGOCNWZ7GIT","AOS2PVHT2HYTL","3JUDR1D0D6D4CARU3YX9Y3DK5DJ2QK","","null","<img src=""img/flower4.png"" style=""width:200px; border:14px solid green;"">","null","","","","","","","","",""
"","image-keyboard-response","351","195574","0.0-351.0","32M8BPYGAU8JWQ9CG7IRGOCNWZ7GIT","AOS2PVHT2HYTL","3JUDR1D0D6D4CARU3YX9Y3DK5DJ2QK","","158.79999995231628","img/flower4.png","75","161.29999995231628","2","1","2","2","1,0,0,1,1,0,1,0,1","0,1,0,0,1,1,1,1,0","3",""
"","html-keyboard-response","352","195879","0.0-352.0","32M8BPYGAU8JWQ9CG7IRGOCNWZ7GIT","AOS2PVHT2HYTL","3JUDR1D0D6D4CARU3YX9Y3DK5DJ2QK","","null","<img src=""img/flower4.png"" style=""width:200px; border:14px solid green;"">","null","","","","","","","","",""
"","image-keyboard-response","353","196083","0.0-353.0","32M8BPYGAU8JWQ9CG7IRGOCNWZ7GIT","AOS2PVHT2HYTL","3JUDR1D0D6D4CARU3YX9Y3DK5DJ2QK","","201.19999980926514","img/flower3.png","75","203.89999985694885","2","1","1","2","1,0,0,1,1,0,1,0,1","0,1,0,0,1,1,1,1,0","3",""
"","html-keyboard-response","354","196386","0.0-354.0","32M8BPYGAU8JWQ9CG7IRGOCNWZ7GIT","AOS2PVHT2HYTL","3JUDR1D0D6D4CARU3YX9Y3DK5DJ2QK","","null","<img src=""img/flower3.png"" style=""width:200px; border:14px solid green;"">","null","","","","","","","","",""
"","image-keyboard-response","355","196608","0.0-355.0","32M8BPYGAU8JWQ9CG7IRGOCNWZ7GIT","AOS2PVHT2HYTL","3JUDR1D0D6D4CARU3YX9Y3DK5DJ2QK","","219.09999990463257","img/flower3.png","75","221.70000004768372","2","1","1","2","1,0,0,1,1,0,1,0,1","0,1,0,0,1,1,1,1,0","3",""
"","html-keyboard-response","356","196913","0.0-356.0","32M8BPYGAU8JWQ9CG7IRGOCNWZ7GIT","AOS2PVHT2HYTL","3JUDR1D0D6D4CARU3YX9Y3DK5DJ2QK","","null","<img src=""img/flower3.png"" style=""width:200px; border:14px solid green;"">","null","","","","","","","","",""
"","image-keyboard-response","357","197148","0.0-357.0","32M8BPYGAU8JWQ9CG7IRGOCNWZ7GIT","AOS2PVHT2HYTL","3JUDR1D0D6D4CARU3YX9Y3DK5DJ2QK","","232.5","img/flower4.png","75","234.09999990463257","2","1","2","2","1,0,0,1,1,0,1,0,1","0,1,0,0,1,1,1,1,0","3",""
"","html-keyboard-response","358","197452","0.0-358.0","32M8BPYGAU8JWQ9CG7IRGOCNWZ7GIT","AOS2PVHT2HYTL","3JUDR1D0D6D4CARU3YX9Y3DK5DJ2QK","","null","<img src=""img/flower4.png"" style=""width:200px; border:14px solid green;"">","null","","","","","","","","",""
"","image-keyboard-response","359","197635","0.0-359.0","32M8BPYGAU8JWQ9CG7IRGOCNWZ7GIT","AOS2PVHT2HYTL","3JUDR1D0D6D4CARU3YX9Y3DK5DJ2QK","","179.60000014305115","img/flower3.png","75","182.29999995231628","2","1","1","2","1,0,0,1,1,0,1,0,1","0,1,0,0,1,1,1,1,0","3",""
"","html-keyboard-response","360","197942","0.0-360.0","32M8BPYGAU8JWQ9CG7IRGOCNWZ7GIT","AOS2PVHT2HYTL","3JUDR1D0D6D4CARU3YX9Y3DK5DJ2QK","","null","<img src=""img/flower3.png"" style=""width:200px; border:14px solid green;"">","null","","","","","","","","",""
"","image-keyboard-response","361","198115","0.0-361.0","32M8BPYGAU8JWQ9CG7IRGOCNWZ7GIT","AOS2PVHT2HYTL","3JUDR1D0D6D4CARU3YX9Y3DK5DJ2QK","","168.40000009536743","img/flower3.png","75","172.20000004768372","2","1","1","2","1,0,0,1,1,0,1,0,1","0,1,0,0,1,1,1,1,0","3",""
"","html-keyboard-response","362","198418","0.0-362.0","32M8BPYGAU8JWQ9CG7IRGOCNWZ7GIT","AOS2PVHT2HYTL","3JUDR1D0D6D4CARU3YX9Y3DK5DJ2QK","","null","<img src=""img/flower3.png"" style=""width:200px; border:14px solid green;"">","null","","","","","","","","",""
"","instructions","363","202008","0.0-363.0","32M8BPYGAU8JWQ9CG7IRGOCNWZ7GIT","AOS2PVHT2HYTL","3JUDR1D0D6D4CARU3YX9Y3DK5DJ2QK","[{""page_index"":0,""viewing_time"":3587}]","3588.4000000953674","","","","","","","","","","",""
"","survey-text","364","210484","0.0-364.0","32M8BPYGAU8JWQ9CG7IRGOCNWZ7GIT","AOS2PVHT2HYTL","3JUDR1D0D6D4CARU3YX9Y3DK5DJ2QK","","8446.5","","","","","","","","","","","{""Q0"":""AOS2PVHT2HYTL""}"
