"success","trial_type","trial_index","time_elapsed","internal_node_id","assignmentID","mturkID","hitID","view_history","rt","stimulus","key_press","reactionTime","a","r","s","cond","reward_cond","reward_cond_actual","reward_matrix_idx","responses"
"true","fullscreen","0","2388","0.0-0.0","3AQF3RZ5594XP6IG3M3K10M6MY3F60","APDDA1Y59RHV9","3566S7OX5D5NH74JOVOPTTMK8IR17K","","","","","","","","","","","","",""
"","instructions","1","30635","0.0-1.0","3AQF3RZ5594XP6IG3M3K10M6MY3F60","APDDA1Y59RHV9","3566S7OX5D5NH74JOVOPTTMK8IR17K","[{""page_index"":0,""viewing_time"":4423.5},{""page_index"":1,""viewing_time"":2108},{""page_index"":2,""viewing_time"":2061.7999997138977},{""page_index"":3,""viewing_time"":3226.2000002861023},{""page_index"":4,""viewing_time"":4978},{""page_index"":5,""viewing_time"":2464.0999999046326},{""page_index"":6,""viewing_time"":6105.900000095367},{""page_index"":7,""viewing_time"":2878}]","28245.89999961853","","","","","","","","","","",""
"","image-keyboard-response","2","31027","0.0-2.0","3AQF3RZ5594XP6IG3M3K10M6MY3F60","APDDA1Y59RHV9","3566S7OX5D5NH74JOVOPTTMK8IR17K","","390.69999980926514","img/flower6.png","74","391.5","1","0","2","1","1,0.333,0.333,0.333,1,0.333,0.333,0.333,1","1,0.333,0.333,0.333,1,0.333,0.333,0.333,1","1",""
"","html-keyboard-response","3","31329","0.0-3.0","3AQF3RZ5594XP6IG3M3K10M6MY3F60","APDDA1Y59RHV9","3566S7OX5D5NH74JOVOPTTMK8IR17K","","null","<img src=""img/flower6.png"" style=""width:200px;border:14px solid red;"">","null","","","","","","","","",""
"","image-keyboard-response","4","31827","0.0-4.0","3AQF3RZ5594XP6IG3M3K10M6MY3F60","APDDA1Y59RHV9","3566S7OX5D5NH74JOVOPTTMK8IR17K","","495.7999997138977","img/flower1.png","75","496.90000009536743","2","0","1","1","1,0.333,0.333,0.333,1,0.333,0.333,0.333,1","1,0.333,0.333,0.333,1,0.333,0.333,0.333,1","1",""
"","html-keyboard-response","5","32128","0.0-5.0","3AQF3RZ5594XP6IG3M3K10M6MY3F60","APDDA1Y59RHV9","3566S7OX5D5NH74JOVOPTTMK8IR17K","","null","<img src=""img/flower1.png"" style=""width:200px;border:14px solid red;"">","null","","","","","","","","",""
"","image-keyboard-response","6","32572","0.0-6.0","3AQF3RZ5594XP6IG3M3K10M6MY3F60","APDDA1Y59RHV9","3566S7OX5D5NH74JOVOPTTMK8IR17K","","442.69999980926514","img/flower4.png","76","443.5","3","1","3","1","1,0.333,0.333,0.333,1,0.333,0.333,0.333,1","1,0.333,0.333,0.333,1,0.333,0.333,0.333,1","1",""
"","html-keyboard-response","7","32875","0.0-7.0","3AQF3RZ5594XP6IG3M3K10M6MY3F60","APDDA1Y59RHV9","3566S7OX5D5NH74JOVOPTTMK8IR17K","","null","<img src=""img/flower4.png"" style=""width:200px; border:14px solid green;"">","null","","","","","","","","",""
"","image-keyboard-response","8","33652","0.0-8.0","3AQF3RZ5594XP6IG3M3K10M6MY3F60","APDDA1Y59RHV9","3566S7OX5D5NH74JOVOPTTMK8IR17K","","776.3000001907349","img/flower6.png","75","777.1000003814697","2","1","2","1","1,0.333,0.333,0.333,1,0.333,0.333,0.333,1","1,0.333,0.333,0.333,1,0.333,0.333,0.333,1","1",""
"","html-keyboard-response","9","33954","0.0-9.0","3AQF3RZ5594XP6IG3M3K10M6MY3F60","APDDA1Y59RHV9","3566S7OX5D5NH74JOVOPTTMK8IR17K","","null","<img src=""img/flower6.png"" style=""width:200px; border:14px solid green;"">","null","","","","","","","","",""
"","image-keyboard-response","10","34628","0.0-10.0","3AQF3RZ5594XP6IG3M3K10M6MY3F60","APDDA1Y59RHV9","3566S7OX5D5NH74JOVOPTTMK8IR17K","","672.0999999046326","img/flower6.png","76","673.4000000953674","3","0","2","1","1,0.333,0.333,0.333,1,0.333,0.333,0.333,1","1,0.333,0.333,0.333,1,0.333,0.333,0.333,1","1",""
"","html-keyboard-response","11","34929","0.0-11.0","3AQF3RZ5594XP6IG3M3K10M6MY3F60","APDDA1Y59RHV9","3566S7OX5D5NH74JOVOPTTMK8IR17K","","null","<img src=""img/flower6.png"" style=""width:200px;border:14px solid red;"">","null","","","","","","","","",""
"","image-keyboard-response","12","35171","0.0-12.0","3AQF3RZ5594XP6IG3M3K10M6MY3F60","APDDA1Y59RHV9","3566S7OX5D5NH74JOVOPTTMK8IR17K","","241.40000009536743","img/flower1.png","75","241.89999961853027","2","1","1","1","1,0.333,0.333,0.333,1,0.333,0.333,0.333,1","1,0.333,0.333,0.333,1,0.333,0.333,0.333,1","1",""
"","html-keyboard-response","13","35473","0.0-13.0","3AQF3RZ5594XP6IG3M3K10M6MY3F60","APDDA1Y59RHV9","3566S7OX5D5NH74JOVOPTTMK8IR17K","","null","<img src=""img/flower1.png"" style=""width:200px; border:14px solid green;"">","null","","","","","","","","",""
"","image-keyboard-response","14","35932","0.0-14.0","3AQF3RZ5594XP6IG3M3K10M6MY3F60","APDDA1Y59RHV9","3566S7OX5D5NH74JOVOPTTMK8IR17K","","458.7000002861023","img/flower4.png","75","459.3999996185303","2","1","3","1","1,0.333,0.333,0.333,1,0.333,0.333,0.333,1","1,0.333,0.333,0.333,1,0.333,0.333,0.333,1","1",""
"","html-keyboard-response","15","36234","0.0-15.0","3AQF3RZ5594XP6IG3M3K10M6MY3F60","APDDA1Y59RHV9","3566S7OX5D5NH74JOVOPTTMK8IR17K","","null","<img src=""img/flower4.png"" style=""width:200px; border:14px solid green;"">","null","","","","","","","","",""
"","image-keyboard-response","16","36563","0.0-16.0","3AQF3RZ5594XP6IG3M3K10M6MY3F60","APDDA1Y59RHV9","3566S7OX5D5NH74JOVOPTTMK8IR17K","","328.1000003814697","img/flower6.png","75","328.80000019073486","2","1","2","1","1,0.333,0.333,0.333,1,0.333,0.333,0.333,1","1,0.333,0.333,0.333,1,0.333,0.333,0.333,1","1",""
"","html-keyboard-response","17","36864","0.0-17.0","3AQF3RZ5594XP6IG3M3K10M6MY3F60","APDDA1Y59RHV9","3566S7OX5D5NH74JOVOPTTMK8IR17K","","null","<img src=""img/flower6.png"" style=""width:200px; border:14px solid green;"">","null","","","","","","","","",""
"","image-keyboard-response","18","37460","0.0-18.0","3AQF3RZ5594XP6IG3M3K10M6MY3F60","APDDA1Y59RHV9","3566S7OX5D5NH74JOVOPTTMK8IR17K","","595","img/flower6.png","75","595.9000000953674","2","1","2","1","1,0.333,0.333,0.333,1,0.333,0.333,0.333,1","1,0.333,0.333,0.333,1,0.333,0.333,0.333,1","1",""
"","html-keyboard-response","19","37762","0.0-19.0","3AQF3RZ5594XP6IG3M3K10M6MY3F60","APDDA1Y59RHV9","3566S7OX5D5NH74JOVOPTTMK8IR17K","","null","<img src=""img/flower6.png"" style=""width:200px; border:14px solid green;"">","null","","","","","","","","",""
"","image-keyboard-response","20","38059","0.0-20.0","3AQF3RZ5594XP6IG3M3K10M6MY3F60","APDDA1Y59RHV9","3566S7OX5D5NH74JOVOPTTMK8IR17K","","295.2999997138977","img/flower1.png","75","296.30000019073486","2","1","1","1","1,0.333,0.333,0.333,1,0.333,0.333,0.333,1","1,0.333,0.333,0.333,1,0.333,0.333,0.333,1","1",""
"","html-keyboard-response","21","38361","0.0-21.0","3AQF3RZ5594XP6IG3M3K10M6MY3F60","APDDA1Y59RHV9","3566S7OX5D5NH74JOVOPTTMK8IR17K","","null","<img src=""img/flower1.png"" style=""width:200px; border:14px solid green;"">","null","","","","","","","","",""
"","image-keyboard-response","22","38595","0.0-22.0","3AQF3RZ5594XP6IG3M3K10M6MY3F60","APDDA1Y59RHV9","3566S7OX5D5NH74JOVOPTTMK8IR17K","","233.2999997138977","img/flower4.png","74","234.30000019073486","1","1","3","1","1,0.333,0.333,0.333,1,0.333,0.333,0.333,1","1,0.333,0.333,0.333,1,0.333,0.333,0.333,1","1",""
"","html-keyboard-response","23","38897","0.0-23.0","3AQF3RZ5594XP6IG3M3K10M6MY3F60","APDDA1Y59RHV9","3566S7OX5D5NH74JOVOPTTMK8IR17K","","null","<img src=""img/flower4.png"" style=""width:200px; border:14px solid green;"">","null","","","","","","","","",""
"","image-keyboard-response","24","39332","0.0-24.0","3AQF3RZ5594XP6IG3M3K10M6MY3F60","APDDA1Y59RHV9","3566S7OX5D5NH74JOVOPTTMK8IR17K","","433.5","img/flower1.png","75","434.59999990463257","2","0","1","1","1,0.333,0.333,0.333,1,0.333,0.333,0.333,1","1,0.333,0.333,0.333,1,0.333,0.333,0.333,1","1",""
"","html-keyboard-response","25","39634","0.0-25.0","3AQF3RZ5594XP6IG3M3K10M6MY3F60","APDDA1Y59RHV9","3566S7OX5D5NH74JOVOPTTMK8IR17K","","null","<img src=""img/flower1.png"" style=""width:200px;border:14px solid red;"">","null","","","","","","","","",""
"","image-keyboard-response","26","39971","0.0-26.0","3AQF3RZ5594XP6IG3M3K10M6MY3F60","APDDA1Y59RHV9","3566S7OX5D5NH74JOVOPTTMK8IR17K","","336.09999990463257","img/flower1.png","75","336.59999990463257","2","0","1","1","1,0.333,0.333,0.333,1,0.333,0.333,0.333,1","1,0.333,0.333,0.333,1,0.333,0.333,0.333,1","1",""
"","html-keyboard-response","27","40273","0.0-27.0","3AQF3RZ5594XP6IG3M3K10M6MY3F60","APDDA1Y59RHV9","3566S7OX5D5NH74JOVOPTTMK8IR17K","","null","<img src=""img/flower1.png"" style=""width:200px;border:14px solid red;"">","null","","","","","","","","",""
"","image-keyboard-response","28","40413","0.0-28.0","3AQF3RZ5594XP6IG3M3K10M6MY3F60","APDDA1Y59RHV9","3566S7OX5D5NH74JOVOPTTMK8IR17K","","138.80000019073486","img/flower6.png","74","139.7000002861023","1","0","2","1","1,0.333,0.333,0.333,1,0.333,0.333,0.333,1","1,0.333,0.333,0.333,1,0.333,0.333,0.333,1","1",""
"","html-keyboard-response","29","40715","0.0-29.0","3AQF3RZ5594XP6IG3M3K10M6MY3F60","APDDA1Y59RHV9","3566S7OX5D5NH74JOVOPTTMK8IR17K","","null","<img src=""img/flower6.png"" style=""width:200px;border:14px solid red;"">","null","","","","","","","","",""
"","image-keyboard-response","30","41029","0.0-30.0","3AQF3RZ5594XP6IG3M3K10M6MY3F60","APDDA1Y59RHV9","3566S7OX5D5NH74JOVOPTTMK8IR17K","","313.1000003814697","img/flower1.png","76","313.59999990463257","3","0","1","1","1,0.333,0.333,0.333,1,0.333,0.333,0.333,1","1,0.333,0.333,0.333,1,0.333,0.333,0.333,1","1",""
"","html-keyboard-response","31","41331","0.0-31.0","3AQF3RZ5594XP6IG3M3K10M6MY3F60","APDDA1Y59RHV9","3566S7OX5D5NH74JOVOPTTMK8IR17K","","null","<img src=""img/flower1.png"" style=""width:200px;border:14px solid red;"">","null","","","","","","","","",""
"","image-keyboard-response","32","41668","0.0-32.0","3AQF3RZ5594XP6IG3M3K10M6MY3F60","APDDA1Y59RHV9","3566S7OX5D5NH74JOVOPTTMK8IR17K","","335.7000002861023","img/flower1.png","75","336.7999997138977","2","0","1","1","1,0.333,0.333,0.333,1,0.333,0.333,0.333,1","1,0.333,0.333,0.333,1,0.333,0.333,0.333,1","1",""
"","html-keyboard-response","33","41970","0.0-33.0","3AQF3RZ5594XP6IG3M3K10M6MY3F60","APDDA1Y59RHV9","3566S7OX5D5NH74JOVOPTTMK8IR17K","","null","<img src=""img/flower1.png"" style=""width:200px;border:14px solid red;"">","null","","","","","","","","",""
"","image-keyboard-response","34","42188","0.0-34.0","3AQF3RZ5594XP6IG3M3K10M6MY3F60","APDDA1Y59RHV9","3566S7OX5D5NH74JOVOPTTMK8IR17K","","216.19999980926514","img/flower6.png","75","217.30000019073486","2","1","2","1","1,0.333,0.333,0.333,1,0.333,0.333,0.333,1","1,0.333,0.333,0.333,1,0.333,0.333,0.333,1","1",""
"","html-keyboard-response","35","42490","0.0-35.0","3AQF3RZ5594XP6IG3M3K10M6MY3F60","APDDA1Y59RHV9","3566S7OX5D5NH74JOVOPTTMK8IR17K","","null","<img src=""img/flower6.png"" style=""width:200px; border:14px solid green;"">","null","","","","","","","","",""
"","image-keyboard-response","36","42804","0.0-36.0","3AQF3RZ5594XP6IG3M3K10M6MY3F60","APDDA1Y59RHV9","3566S7OX5D5NH74JOVOPTTMK8IR17K","","312.5","img/flower4.png","75","313.59999990463257","2","1","3","1","1,0.333,0.333,0.333,1,0.333,0.333,0.333,1","1,0.333,0.333,0.333,1,0.333,0.333,0.333,1","1",""
"","html-keyboard-response","37","43107","0.0-37.0","3AQF3RZ5594XP6IG3M3K10M6MY3F60","APDDA1Y59RHV9","3566S7OX5D5NH74JOVOPTTMK8IR17K","","null","<img src=""img/flower4.png"" style=""width:200px; border:14px solid green;"">","null","","","","","","","","",""
"","image-keyboard-response","38","43315","0.0-38.0","3AQF3RZ5594XP6IG3M3K10M6MY3F60","APDDA1Y59RHV9","3566S7OX5D5NH74JOVOPTTMK8IR17K","","206.30000019073486","img/flower6.png","75","207.30000019073486","2","1","2","1","1,0.333,0.333,0.333,1,0.333,0.333,0.333,1","1,0.333,0.333,0.333,1,0.333,0.333,0.333,1","1",""
"","html-keyboard-response","39","43617","0.0-39.0","3AQF3RZ5594XP6IG3M3K10M6MY3F60","APDDA1Y59RHV9","3566S7OX5D5NH74JOVOPTTMK8IR17K","","null","<img src=""img/flower6.png"" style=""width:200px; border:14px solid green;"">","null","","","","","","","","",""
"","image-keyboard-response","40","43867","0.0-40.0","3AQF3RZ5594XP6IG3M3K10M6MY3F60","APDDA1Y59RHV9","3566S7OX5D5NH74JOVOPTTMK8IR17K","","249.90000009536743","img/flower4.png","75","250.30000019073486","2","0","3","1","1,0.333,0.333,0.333,1,0.333,0.333,0.333,1","1,0.333,0.333,0.333,1,0.333,0.333,0.333,1","1",""
"","html-keyboard-response","41","44169","0.0-41.0","3AQF3RZ5594XP6IG3M3K10M6MY3F60","APDDA1Y59RHV9","3566S7OX5D5NH74JOVOPTTMK8IR17K","","null","<img src=""img/flower4.png"" style=""width:200px;border:14px solid red;"">","null","","","","","","","","",""
"","image-keyboard-response","42","44292","0.0-42.0","3AQF3RZ5594XP6IG3M3K10M6MY3F60","APDDA1Y59RHV9","3566S7OX5D5NH74JOVOPTTMK8IR17K","","121.69999980926514","img/flower4.png","76","122.40000009536743","3","1","3","1","1,0.333,0.333,0.333,1,0.333,0.333,0.333,1","1,0.333,0.333,0.333,1,0.333,0.333,0.333,1","1",""
"","html-keyboard-response","43","44594","0.0-43.0","3AQF3RZ5594XP6IG3M3K10M6MY3F60","APDDA1Y59RHV9","3566S7OX5D5NH74JOVOPTTMK8IR17K","","null","<img src=""img/flower4.png"" style=""width:200px; border:14px solid green;"">","null","","","","","","","","",""
"","image-keyboard-response","44","45676","0.0-44.0","3AQF3RZ5594XP6IG3M3K10M6MY3F60","APDDA1Y59RHV9","3566S7OX5D5NH74JOVOPTTMK8IR17K","","1080","img/flower4.png","76","1081","3","1","3","1","1,0.333,0.333,0.333,1,0.333,0.333,0.333,1","1,0.333,0.333,0.333,1,0.333,0.333,0.333,1","1",""
"","html-keyboard-response","45","45977","0.0-45.0","3AQF3RZ5594XP6IG3M3K10M6MY3F60","APDDA1Y59RHV9","3566S7OX5D5NH74JOVOPTTMK8IR17K","","null","<img src=""img/flower4.png"" style=""width:200px; border:14px solid green;"">","null","","","","","","","","",""
"","image-keyboard-response","46","46603","0.0-46.0","3AQF3RZ5594XP6IG3M3K10M6MY3F60","APDDA1Y59RHV9","3566S7OX5D5NH74JOVOPTTMK8IR17K","","624.8999996185303","img/flower6.png","75","625.5","2","1","2","1","1,0.333,0.333,0.333,1,0.333,0.333,0.333,1","1,0.333,0.333,0.333,1,0.333,0.333,0.333,1","1",""
"","html-keyboard-response","47","46904","0.0-47.0","3AQF3RZ5594XP6IG3M3K10M6MY3F60","APDDA1Y59RHV9","3566S7OX5D5NH74JOVOPTTMK8IR17K","","null","<img src=""img/flower6.png"" style=""width:200px; border:14px solid green;"">","null","","","","","","","","",""
"","image-keyboard-response","48","47163","0.0-48.0","3AQF3RZ5594XP6IG3M3K10M6MY3F60","APDDA1Y59RHV9","3566S7OX5D5NH74JOVOPTTMK8IR17K","","257.30000019073486","img/flower6.png","75","258.30000019073486","2","1","2","1","1,0.333,0.333,0.333,1,0.333,0.333,0.333,1","1,0.333,0.333,0.333,1,0.333,0.333,0.333,1","1",""
"","html-keyboard-response","49","47464","0.0-49.0","3AQF3RZ5594XP6IG3M3K10M6MY3F60","APDDA1Y59RHV9","3566S7OX5D5NH74JOVOPTTMK8IR17K","","null","<img src=""img/flower6.png"" style=""width:200px; border:14px solid green;"">","null","","","","","","","","",""
"","image-keyboard-response","50","47748","0.0-50.0","3AQF3RZ5594XP6IG3M3K10M6MY3F60","APDDA1Y59RHV9","3566S7OX5D5NH74JOVOPTTMK8IR17K","","282.59999990463257","img/flower1.png","75","283.59999990463257","2","0","1","1","1,0.333,0.333,0.333,1,0.333,0.333,0.333,1","1,0.333,0.333,0.333,1,0.333,0.333,0.333,1","1",""
"","html-keyboard-response","51","48050","0.0-51.0","3AQF3RZ5594XP6IG3M3K10M6MY3F60","APDDA1Y59RHV9","3566S7OX5D5NH74JOVOPTTMK8IR17K","","null","<img src=""img/flower1.png"" style=""width:200px;border:14px solid red;"">","null","","","","","","","","",""
"","image-keyboard-response","52","48300","0.0-52.0","3AQF3RZ5594XP6IG3M3K10M6MY3F60","APDDA1Y59RHV9","3566S7OX5D5NH74JOVOPTTMK8IR17K","","249","img/flower1.png","76","249.5","3","1","1","1","1,0.333,0.333,0.333,1,0.333,0.333,0.333,1","1,0.333,0.333,0.333,1,0.333,0.333,0.333,1","1",""
"","html-keyboard-response","53","48603","0.0-53.0","3AQF3RZ5594XP6IG3M3K10M6MY3F60","APDDA1Y59RHV9","3566S7OX5D5NH74JOVOPTTMK8IR17K","","null","<img src=""img/flower1.png"" style=""width:200px; border:14px solid green;"">","null","","","","","","","","",""
"","image-keyboard-response","54","49284","0.0-54.0","3AQF3RZ5594XP6IG3M3K10M6MY3F60","APDDA1Y59RHV9","3566S7OX5D5NH74JOVOPTTMK8IR17K","","680.6999998092651","img/flower1.png","74","681.3999996185303","1","1","1","1","1,0.333,0.333,0.333,1,0.333,0.333,0.333,1","1,0.333,0.333,0.333,1,0.333,0.333,0.333,1","1",""
"","html-keyboard-response","55","49587","0.0-55.0","3AQF3RZ5594XP6IG3M3K10M6MY3F60","APDDA1Y59RHV9","3566S7OX5D5NH74JOVOPTTMK8IR17K","","null","<img src=""img/flower1.png"" style=""width:200px; border:14px solid green;"">","null","","","","","","","","",""
"","image-keyboard-response","56","49795","0.0-56.0","3AQF3RZ5594XP6IG3M3K10M6MY3F60","APDDA1Y59RHV9","3566S7OX5D5NH74JOVOPTTMK8IR17K","","207.90000009536743","img/flower4.png","75","208.40000009536743","2","0","3","1","1,0.333,0.333,0.333,1,0.333,0.333,0.333,1","1,0.333,0.333,0.333,1,0.333,0.333,0.333,1","1",""
"","html-keyboard-response","57","50097","0.0-57.0","3AQF3RZ5594XP6IG3M3K10M6MY3F60","APDDA1Y59RHV9","3566S7OX5D5NH74JOVOPTTMK8IR17K","","null","<img src=""img/flower4.png"" style=""width:200px;border:14px solid red;"">","null","","","","","","","","",""
"","image-keyboard-response","58","50323","0.0-58.0","3AQF3RZ5594XP6IG3M3K10M6MY3F60","APDDA1Y59RHV9","3566S7OX5D5NH74JOVOPTTMK8IR17K","","224.69999980926514","img/flower4.png","76","225.80000019073486","3","1","3","1","1,0.333,0.333,0.333,1,0.333,0.333,0.333,1","1,0.333,0.333,0.333,1,0.333,0.333,0.333,1","1",""
"","html-keyboard-response","59","50625","0.0-59.0","3AQF3RZ5594XP6IG3M3K10M6MY3F60","APDDA1Y59RHV9","3566S7OX5D5NH74JOVOPTTMK8IR17K","","null","<img src=""img/flower4.png"" style=""width:200px; border:14px solid green;"">","null","","","","","","","","",""
"","image-keyboard-response","60","50859","0.0-60.0","3AQF3RZ5594XP6IG3M3K10M6MY3F60","APDDA1Y59RHV9","3566S7OX5D5NH74JOVOPTTMK8IR17K","","232.7000002861023","img/flower4.png","75","233.40000009536743","2","0","3","1","1,0.333,0.333,0.333,1,0.333,0.333,0.333,1","1,0.333,0.333,0.333,1,0.333,0.333,0.333,1","1",""
"","html-keyboard-response","61","51161","0.0-61.0","3AQF3RZ5594XP6IG3M3K10M6MY3F60","APDDA1Y59RHV9","3566S7OX5D5NH74JOVOPTTMK8IR17K","","null","<img src=""img/flower4.png"" style=""width:200px;border:14px solid red;"">","null","","","","","","","","",""
"","image-keyboard-response","62","51373","0.0-62.0","3AQF3RZ5594XP6IG3M3K10M6MY3F60","APDDA1Y59RHV9","3566S7OX5D5NH74JOVOPTTMK8IR17K","","210.10000038146973","img/flower4.png","76","211.39999961853027","3","1","3","1","1,0.333,0.333,0.333,1,0.333,0.333,0.333,1","1,0.333,0.333,0.333,1,0.333,0.333,0.333,1","1",""
"","html-keyboard-response","63","51675","0.0-63.0","3AQF3RZ5594XP6IG3M3K10M6MY3F60","APDDA1Y59RHV9","3566S7OX5D5NH74JOVOPTTMK8IR17K","","null","<img src=""img/flower4.png"" style=""width:200px; border:14px solid green;"">","null","","","","","","","","",""
"","image-keyboard-response","64","51915","0.0-64.0","3AQF3RZ5594XP6IG3M3K10M6MY3F60","APDDA1Y59RHV9","3566S7OX5D5NH74JOVOPTTMK8IR17K","","239.40000009536743","img/flower6.png","76","239.90000009536743","3","0","2","1","1,0.333,0.333,0.333,1,0.333,0.333,0.333,1","1,0.333,0.333,0.333,1,0.333,0.333,0.333,1","1",""
"","html-keyboard-response","65","52217","0.0-65.0","3AQF3RZ5594XP6IG3M3K10M6MY3F60","APDDA1Y59RHV9","3566S7OX5D5NH74JOVOPTTMK8IR17K","","null","<img src=""img/flower6.png"" style=""width:200px;border:14px solid red;"">","null","","","","","","","","",""
"","image-keyboard-response","66","52443","0.0-66.0","3AQF3RZ5594XP6IG3M3K10M6MY3F60","APDDA1Y59RHV9","3566S7OX5D5NH74JOVOPTTMK8IR17K","","224.09999990463257","img/flower6.png","76","225.2000002861023","3","0","2","1","1,0.333,0.333,0.333,1,0.333,0.333,0.333,1","1,0.333,0.333,0.333,1,0.333,0.333,0.333,1","1",""
"","html-keyboard-response","67","52744","0.0-67.0","3AQF3RZ5594XP6IG3M3K10M6MY3F60","APDDA1Y59RHV9","3566S7OX5D5NH74JOVOPTTMK8IR17K","","null","<img src=""img/flower6.png"" style=""width:200px;border:14px solid red;"">","null","","","","","","","","",""
"","image-keyboard-response","68","52980","0.0-68.0","3AQF3RZ5594XP6IG3M3K10M6MY3F60","APDDA1Y59RHV9","3566S7OX5D5NH74JOVOPTTMK8IR17K","","235.5","img/flower4.png","75","236.30000019073486","2","1","3","1","1,0.333,0.333,0.333,1,0.333,0.333,0.333,1","1,0.333,0.333,0.333,1,0.333,0.333,0.333,1","1",""
"","html-keyboard-response","69","53282","0.0-69.0","3AQF3RZ5594XP6IG3M3K10M6MY3F60","APDDA1Y59RHV9","3566S7OX5D5NH74JOVOPTTMK8IR17K","","null","<img src=""img/flower4.png"" style=""width:200px; border:14px solid green;"">","null","","","","","","","","",""
"","image-keyboard-response","70","53500","0.0-70.0","3AQF3RZ5594XP6IG3M3K10M6MY3F60","APDDA1Y59RHV9","3566S7OX5D5NH74JOVOPTTMK8IR17K","","216","img/flower6.png","75","217","2","1","2","1","1,0.333,0.333,0.333,1,0.333,0.333,0.333,1","1,0.333,0.333,0.333,1,0.333,0.333,0.333,1","1",""
"","html-keyboard-response","71","53802","0.0-71.0","3AQF3RZ5594XP6IG3M3K10M6MY3F60","APDDA1Y59RHV9","3566S7OX5D5NH74JOVOPTTMK8IR17K","","null","<img src=""img/flower6.png"" style=""width:200px; border:14px solid green;"">","null","","","","","","","","",""
"","image-keyboard-response","72","53979","0.0-72.0","3AQF3RZ5594XP6IG3M3K10M6MY3F60","APDDA1Y59RHV9","3566S7OX5D5NH74JOVOPTTMK8IR17K","","176.59999990463257","img/flower6.png","75","177.5","2","1","2","1","1,0.333,0.333,0.333,1,0.333,0.333,0.333,1","1,0.333,0.333,0.333,1,0.333,0.333,0.333,1","1",""
"","html-keyboard-response","73","54282","0.0-73.0","3AQF3RZ5594XP6IG3M3K10M6MY3F60","APDDA1Y59RHV9","3566S7OX5D5NH74JOVOPTTMK8IR17K","","null","<img src=""img/flower6.png"" style=""width:200px; border:14px solid green;"">","null","","","","","","","","",""
"","image-keyboard-response","74","54467","0.0-74.0","3AQF3RZ5594XP6IG3M3K10M6MY3F60","APDDA1Y59RHV9","3566S7OX5D5NH74JOVOPTTMK8IR17K","","184.60000038146973","img/flower1.png","75","185.5","2","0","1","1","1,0.333,0.333,0.333,1,0.333,0.333,0.333,1","1,0.333,0.333,0.333,1,0.333,0.333,0.333,1","1",""
"","html-keyboard-response","75","54769","0.0-75.0","3AQF3RZ5594XP6IG3M3K10M6MY3F60","APDDA1Y59RHV9","3566S7OX5D5NH74JOVOPTTMK8IR17K","","null","<img src=""img/flower1.png"" style=""width:200px;border:14px solid red;"">","null","","","","","","","","",""
"","image-keyboard-response","76","55035","0.0-76.0","3AQF3RZ5594XP6IG3M3K10M6MY3F60","APDDA1Y59RHV9","3566S7OX5D5NH74JOVOPTTMK8IR17K","","264.90000009536743","img/flower4.png","74","266","1","1","3","1","1,0.333,0.333,0.333,1,0.333,0.333,0.333,1","1,0.333,0.333,0.333,1,0.333,0.333,0.333,1","1",""
"","html-keyboard-response","77","55336","0.0-77.0","3AQF3RZ5594XP6IG3M3K10M6MY3F60","APDDA1Y59RHV9","3566S7OX5D5NH74JOVOPTTMK8IR17K","","null","<img src=""img/flower4.png"" style=""width:200px; border:14px solid green;"">","null","","","","","","","","",""
"","image-keyboard-response","78","55516","0.0-78.0","3AQF3RZ5594XP6IG3M3K10M6MY3F60","APDDA1Y59RHV9","3566S7OX5D5NH74JOVOPTTMK8IR17K","","178.69999980926514","img/flower6.png","74","179.80000019073486","1","0","2","1","1,0.333,0.333,0.333,1,0.333,0.333,0.333,1","1,0.333,0.333,0.333,1,0.333,0.333,0.333,1","1",""
"","html-keyboard-response","79","55827","0.0-79.0","3AQF3RZ5594XP6IG3M3K10M6MY3F60","APDDA1Y59RHV9","3566S7OX5D5NH74JOVOPTTMK8IR17K","","null","<img src=""img/flower6.png"" style=""width:200px;border:14px solid red;"">","null","","","","","","","","",""
"","image-keyboard-response","80","55986","0.0-80.0","3AQF3RZ5594XP6IG3M3K10M6MY3F60","APDDA1Y59RHV9","3566S7OX5D5NH74JOVOPTTMK8IR17K","","158.7999997138977","img/flower4.png","74","159.40000009536743","1","0","3","1","1,0.333,0.333,0.333,1,0.333,0.333,0.333,1","1,0.333,0.333,0.333,1,0.333,0.333,0.333,1","1",""
"","html-keyboard-response","81","56288","0.0-81.0","3AQF3RZ5594XP6IG3M3K10M6MY3F60","APDDA1Y59RHV9","3566S7OX5D5NH74JOVOPTTMK8IR17K","","null","<img src=""img/flower4.png"" style=""width:200px;border:14px solid red;"">","null","","","","","","","","",""
"","image-keyboard-response","82","56467","0.0-82.0","3AQF3RZ5594XP6IG3M3K10M6MY3F60","APDDA1Y59RHV9","3566S7OX5D5NH74JOVOPTTMK8IR17K","","177.7999997138977","img/flower6.png","75","178.60000038146973","2","1","2","1","1,0.333,0.333,0.333,1,0.333,0.333,0.333,1","1,0.333,0.333,0.333,1,0.333,0.333,0.333,1","1",""
"","html-keyboard-response","83","56769","0.0-83.0","3AQF3RZ5594XP6IG3M3K10M6MY3F60","APDDA1Y59RHV9","3566S7OX5D5NH74JOVOPTTMK8IR17K","","null","<img src=""img/flower6.png"" style=""width:200px; border:14px solid green;"">","null","","","","","","","","",""
"","image-keyboard-response","84","57059","0.0-84.0","3AQF3RZ5594XP6IG3M3K10M6MY3F60","APDDA1Y59RHV9","3566S7OX5D5NH74JOVOPTTMK8IR17K","","288.30000019073486","img/flower6.png","75","289.2999997138977","2","1","2","1","1,0.333,0.333,0.333,1,0.333,0.333,0.333,1","1,0.333,0.333,0.333,1,0.333,0.333,0.333,1","1",""
"","html-keyboard-response","85","57361","0.0-85.0","3AQF3RZ5594XP6IG3M3K10M6MY3F60","APDDA1Y59RHV9","3566S7OX5D5NH74JOVOPTTMK8IR17K","","null","<img src=""img/flower6.png"" style=""width:200px; border:14px solid green;"">","null","","","","","","","","",""
"","image-keyboard-response","86","57515","0.0-86.0","3AQF3RZ5594XP6IG3M3K10M6MY3F60","APDDA1Y59RHV9","3566S7OX5D5NH74JOVOPTTMK8IR17K","","154.19999980926514","img/flower6.png","75","154.90000009536743","2","1","2","1","1,0.333,0.333,0.333,1,0.333,0.333,0.333,1","1,0.333,0.333,0.333,1,0.333,0.333,0.333,1","1",""
"","html-keyboard-response","87","57817","0.0-87.0","3AQF3RZ5594XP6IG3M3K10M6MY3F60","APDDA1Y59RHV9","3566S7OX5D5NH74JOVOPTTMK8IR17K","","null","<img src=""img/flower6.png"" style=""width:200px; border:14px solid green;"">","null","","","","","","","","",""
"","image-keyboard-response","88","57964","0.0-88.0","3AQF3RZ5594XP6IG3M3K10M6MY3F60","APDDA1Y59RHV9","3566S7OX5D5NH74JOVOPTTMK8IR17K","","145.5","img/flower6.png","75","146.7000002861023","2","1","2","1","1,0.333,0.333,0.333,1,0.333,0.333,0.333,1","1,0.333,0.333,0.333,1,0.333,0.333,0.333,1","1",""
"","html-keyboard-response","89","58266","0.0-89.0","3AQF3RZ5594XP6IG3M3K10M6MY3F60","APDDA1Y59RHV9","3566S7OX5D5NH74JOVOPTTMK8IR17K","","null","<img src=""img/flower6.png"" style=""width:200px; border:14px solid green;"">","null","","","","","","","","",""
"","image-keyboard-response","90","58451","0.0-90.0","3AQF3RZ5594XP6IG3M3K10M6MY3F60","APDDA1Y59RHV9","3566S7OX5D5NH74JOVOPTTMK8IR17K","","184.2999997138977","img/flower4.png","75","184.90000009536743","2","1","3","1","1,0.333,0.333,0.333,1,0.333,0.333,0.333,1","1,0.333,0.333,0.333,1,0.333,0.333,0.333,1","1",""
"","html-keyboard-response","91","58766","0.0-91.0","3AQF3RZ5594XP6IG3M3K10M6MY3F60","APDDA1Y59RHV9","3566S7OX5D5NH74JOVOPTTMK8IR17K","","null","<img src=""img/flower4.png"" style=""width:200px; border:14px solid green;"">","null","","","","","","","","",""
"","image-keyboard-response","92","59219","0.0-92.0","3AQF3RZ5594XP6IG3M3K10M6MY3F60","APDDA1Y59RHV9","3566S7OX5D5NH74JOVOPTTMK8IR17K","","451.19999980926514","img/flower1.png","75","452.30000019073486","2","0","1","1","1,0.333,0.333,0.333,1,0.333,0.333,0.333,1","1,0.333,0.333,0.333,1,0.333,0.333,0.333,1","1",""
"","html-keyboard-response","93","59520","0.0-93.0","3AQF3RZ5594XP6IG3M3K10M6MY3F60","APDDA1Y59RHV9","3566S7OX5D5NH74JOVOPTTMK8IR17K","","null","<img src=""img/flower1.png"" style=""width:200px;border:14px solid red;"">","null","","","","","","","","",""
"","image-keyboard-response","94","59796","0.0-94.0","3AQF3RZ5594XP6IG3M3K10M6MY3F60","APDDA1Y59RHV9","3566S7OX5D5NH74JOVOPTTMK8IR17K","","275.2000002861023","img/flower4.png","74","276","1","0","3","1","1,0.333,0.333,0.333,1,0.333,0.333,0.333,1","1,0.333,0.333,0.333,1,0.333,0.333,0.333,1","1",""
"","html-keyboard-response","95","60097","0.0-95.0","3AQF3RZ5594XP6IG3M3K10M6MY3F60","APDDA1Y59RHV9","3566S7OX5D5NH74JOVOPTTMK8IR17K","","null","<img src=""img/flower4.png"" style=""width:200px;border:14px solid red;"">","null","","","","","","","","",""
"","image-keyboard-response","96","60290","0.0-96.0","3AQF3RZ5594XP6IG3M3K10M6MY3F60","APDDA1Y59RHV9","3566S7OX5D5NH74JOVOPTTMK8IR17K","","192.09999990463257","img/flower1.png","74","192.5","1","1","1","1","1,0.333,0.333,0.333,1,0.333,0.333,0.333,1","1,0.333,0.333,0.333,1,0.333,0.333,0.333,1","1",""
"","html-keyboard-response","97","60592","0.0-97.0","3AQF3RZ5594XP6IG3M3K10M6MY3F60","APDDA1Y59RHV9","3566S7OX5D5NH74JOVOPTTMK8IR17K","","null","<img src=""img/flower1.png"" style=""width:200px; border:14px solid green;"">","null","","","","","","","","",""
"","image-keyboard-response","98","60867","0.0-98.0","3AQF3RZ5594XP6IG3M3K10M6MY3F60","APDDA1Y59RHV9","3566S7OX5D5NH74JOVOPTTMK8IR17K","","273.5","img/flower6.png","76","274.5","3","0","2","1","1,0.333,0.333,0.333,1,0.333,0.333,0.333,1","1,0.333,0.333,0.333,1,0.333,0.333,0.333,1","1",""
"","html-keyboard-response","99","61168","0.0-99.0","3AQF3RZ5594XP6IG3M3K10M6MY3F60","APDDA1Y59RHV9","3566S7OX5D5NH74JOVOPTTMK8IR17K","","null","<img src=""img/flower6.png"" style=""width:200px;border:14px solid red;"">","null","","","","","","","","",""
"","image-keyboard-response","100","61378","0.0-100.0","3AQF3RZ5594XP6IG3M3K10M6MY3F60","APDDA1Y59RHV9","3566S7OX5D5NH74JOVOPTTMK8IR17K","","209.7000002861023","img/flower1.png","76","210.2000002861023","3","0","1","1","1,0.333,0.333,0.333,1,0.333,0.333,0.333,1","1,0.333,0.333,0.333,1,0.333,0.333,0.333,1","1",""
"","html-keyboard-response","101","61680","0.0-101.0","3AQF3RZ5594XP6IG3M3K10M6MY3F60","APDDA1Y59RHV9","3566S7OX5D5NH74JOVOPTTMK8IR17K","","null","<img src=""img/flower1.png"" style=""width:200px;border:14px solid red;"">","null","","","","","","","","",""
"","image-keyboard-response","102","61812","0.0-102.0","3AQF3RZ5594XP6IG3M3K10M6MY3F60","APDDA1Y59RHV9","3566S7OX5D5NH74JOVOPTTMK8IR17K","","130.60000038146973","img/flower4.png","75","131.69999980926514","2","0","3","1","1,0.333,0.333,0.333,1,0.333,0.333,0.333,1","1,0.333,0.333,0.333,1,0.333,0.333,0.333,1","1",""
"","html-keyboard-response","103","62114","0.0-103.0","3AQF3RZ5594XP6IG3M3K10M6MY3F60","APDDA1Y59RHV9","3566S7OX5D5NH74JOVOPTTMK8IR17K","","null","<img src=""img/flower4.png"" style=""width:200px;border:14px solid red;"">","null","","","","","","","","",""
"","image-keyboard-response","104","62250","0.0-104.0","3AQF3RZ5594XP6IG3M3K10M6MY3F60","APDDA1Y59RHV9","3566S7OX5D5NH74JOVOPTTMK8IR17K","","135","img/flower6.png","75","135.69999980926514","2","1","2","1","1,0.333,0.333,0.333,1,0.333,0.333,0.333,1","1,0.333,0.333,0.333,1,0.333,0.333,0.333,1","1",""
"","html-keyboard-response","105","62552","0.0-105.0","3AQF3RZ5594XP6IG3M3K10M6MY3F60","APDDA1Y59RHV9","3566S7OX5D5NH74JOVOPTTMK8IR17K","","null","<img src=""img/flower6.png"" style=""width:200px; border:14px solid green;"">","null","","","","","","","","",""
"","image-keyboard-response","106","62708","0.0-106.0","3AQF3RZ5594XP6IG3M3K10M6MY3F60","APDDA1Y59RHV9","3566S7OX5D5NH74JOVOPTTMK8IR17K","","154.80000019073486","img/flower1.png","75","155.7999997138977","2","0","1","1","1,0.333,0.333,0.333,1,0.333,0.333,0.333,1","1,0.333,0.333,0.333,1,0.333,0.333,0.333,1","1",""
"","html-keyboard-response","107","63009","0.0-107.0","3AQF3RZ5594XP6IG3M3K10M6MY3F60","APDDA1Y59RHV9","3566S7OX5D5NH74JOVOPTTMK8IR17K","","null","<img src=""img/flower1.png"" style=""width:200px;border:14px solid red;"">","null","","","","","","","","",""
"","image-keyboard-response","108","63130","0.0-108.0","3AQF3RZ5594XP6IG3M3K10M6MY3F60","APDDA1Y59RHV9","3566S7OX5D5NH74JOVOPTTMK8IR17K","","120.2999997138977","img/flower1.png","75","120.7000002861023","2","0","1","1","1,0.333,0.333,0.333,1,0.333,0.333,0.333,1","1,0.333,0.333,0.333,1,0.333,0.333,0.333,1","1",""
"","html-keyboard-response","109","63431","0.0-109.0","3AQF3RZ5594XP6IG3M3K10M6MY3F60","APDDA1Y59RHV9","3566S7OX5D5NH74JOVOPTTMK8IR17K","","null","<img src=""img/flower1.png"" style=""width:200px;border:14px solid red;"">","null","","","","","","","","",""
"","image-keyboard-response","110","63555","0.0-110.0","3AQF3RZ5594XP6IG3M3K10M6MY3F60","APDDA1Y59RHV9","3566S7OX5D5NH74JOVOPTTMK8IR17K","","122.90000009536743","img/flower4.png","75","123.7000002861023","2","1","3","1","1,0.333,0.333,0.333,1,0.333,0.333,0.333,1","1,0.333,0.333,0.333,1,0.333,0.333,0.333,1","1",""
"","html-keyboard-response","111","63858","0.0-111.0","3AQF3RZ5594XP6IG3M3K10M6MY3F60","APDDA1Y59RHV9","3566S7OX5D5NH74JOVOPTTMK8IR17K","","null","<img src=""img/flower4.png"" style=""width:200px; border:14px solid green;"">","null","","","","","","","","",""
"","image-keyboard-response","112","63980","0.0-112.0","3AQF3RZ5594XP6IG3M3K10M6MY3F60","APDDA1Y59RHV9","3566S7OX5D5NH74JOVOPTTMK8IR17K","","120.5","img/flower4.png","74","121.60000038146973","1","0","3","1","1,0.333,0.333,0.333,1,0.333,0.333,0.333,1","1,0.333,0.333,0.333,1,0.333,0.333,0.333,1","1",""
"","html-keyboard-response","113","64282","0.0-113.0","3AQF3RZ5594XP6IG3M3K10M6MY3F60","APDDA1Y59RHV9","3566S7OX5D5NH74JOVOPTTMK8IR17K","","null","<img src=""img/flower4.png"" style=""width:200px;border:14px solid red;"">","null","","","","","","","","",""
"","image-keyboard-response","114","64451","0.0-114.0","3AQF3RZ5594XP6IG3M3K10M6MY3F60","APDDA1Y59RHV9","3566S7OX5D5NH74JOVOPTTMK8IR17K","","168.39999961853027","img/flower6.png","74","168.80000019073486","1","1","2","1","1,0.333,0.333,0.333,1,0.333,0.333,0.333,1","1,0.333,0.333,0.333,1,0.333,0.333,0.333,1","1",""
"","html-keyboard-response","115","64752","0.0-115.0","3AQF3RZ5594XP6IG3M3K10M6MY3F60","APDDA1Y59RHV9","3566S7OX5D5NH74JOVOPTTMK8IR17K","","null","<img src=""img/flower6.png"" style=""width:200px; border:14px solid green;"">","null","","","","","","","","",""
"","image-keyboard-response","116","64866","0.0-116.0","3AQF3RZ5594XP6IG3M3K10M6MY3F60","APDDA1Y59RHV9","3566S7OX5D5NH74JOVOPTTMK8IR17K","","114","img/flower1.png","75","114.5","2","1","1","1","1,0.333,0.333,0.333,1,0.333,0.333,0.333,1","1,0.333,0.333,0.333,1,0.333,0.333,0.333,1","1",""
"","html-keyboard-response","117","65167","0.0-117.0","3AQF3RZ5594XP6IG3M3K10M6MY3F60","APDDA1Y59RHV9","3566S7OX5D5NH74JOVOPTTMK8IR17K","","null","<img src=""img/flower1.png"" style=""width:200px; border:14px solid green;"">","null","","","","","","","","",""
"","image-keyboard-response","118","65251","0.0-118.0","3AQF3RZ5594XP6IG3M3K10M6MY3F60","APDDA1Y59RHV9","3566S7OX5D5NH74JOVOPTTMK8IR17K","","82.39999961853027","img/flower1.png","75","83.30000019073486","2","0","1","1","1,0.333,0.333,0.333,1,0.333,0.333,0.333,1","1,0.333,0.333,0.333,1,0.333,0.333,0.333,1","1",""
"","html-keyboard-response","119","65553","0.0-119.0","3AQF3RZ5594XP6IG3M3K10M6MY3F60","APDDA1Y59RHV9","3566S7OX5D5NH74JOVOPTTMK8IR17K","","null","<img src=""img/flower1.png"" style=""width:200px;border:14px solid red;"">","null","","","","","","","","",""
"","image-keyboard-response","120","65612","0.0-120.0","3AQF3RZ5594XP6IG3M3K10M6MY3F60","APDDA1Y59RHV9","3566S7OX5D5NH74JOVOPTTMK8IR17K","","57.200000286102295","img/flower4.png","75","58.39999961853027","2","1","3","1","1,0.333,0.333,0.333,1,0.333,0.333,0.333,1","1,0.333,0.333,0.333,1,0.333,0.333,0.333,1","1",""
"","html-keyboard-response","121","65914","0.0-121.0","3AQF3RZ5594XP6IG3M3K10M6MY3F60","APDDA1Y59RHV9","3566S7OX5D5NH74JOVOPTTMK8IR17K","","null","<img src=""img/flower4.png"" style=""width:200px; border:14px solid green;"">","null","","","","","","","","",""
"","image-keyboard-response","122","65994","0.0-122.0","3AQF3RZ5594XP6IG3M3K10M6MY3F60","APDDA1Y59RHV9","3566S7OX5D5NH74JOVOPTTMK8IR17K","","79.10000038146973","img/flower4.png","75","80.19999980926514","2","0","3","1","1,0.333,0.333,0.333,1,0.333,0.333,0.333,1","1,0.333,0.333,0.333,1,0.333,0.333,0.333,1","1",""
"","html-keyboard-response","123","66295","0.0-123.0","3AQF3RZ5594XP6IG3M3K10M6MY3F60","APDDA1Y59RHV9","3566S7OX5D5NH74JOVOPTTMK8IR17K","","null","<img src=""img/flower4.png"" style=""width:200px;border:14px solid red;"">","null","","","","","","","","",""
"","image-keyboard-response","124","66403","0.0-124.0","3AQF3RZ5594XP6IG3M3K10M6MY3F60","APDDA1Y59RHV9","3566S7OX5D5NH74JOVOPTTMK8IR17K","","106.80000019073486","img/flower4.png","75","107.19999980926514","2","1","3","1","1,0.333,0.333,0.333,1,0.333,0.333,0.333,1","1,0.333,0.333,0.333,1,0.333,0.333,0.333,1","1",""
"","html-keyboard-response","125","66707","0.0-125.0","3AQF3RZ5594XP6IG3M3K10M6MY3F60","APDDA1Y59RHV9","3566S7OX5D5NH74JOVOPTTMK8IR17K","","null","<img src=""img/flower4.png"" style=""width:200px; border:14px solid green;"">","null","","","","","","","","",""
"","image-keyboard-response","126","66826","0.0-126.0","3AQF3RZ5594XP6IG3M3K10M6MY3F60","APDDA1Y59RHV9","3566S7OX5D5NH74JOVOPTTMK8IR17K","","118.59999990463257","img/flower1.png","76","119","3","0","1","1","1,0.333,0.333,0.333,1,0.333,0.333,0.333,1","1,0.333,0.333,0.333,1,0.333,0.333,0.333,1","1",""
"","html-keyboard-response","127","67128","0.0-127.0","3AQF3RZ5594XP6IG3M3K10M6MY3F60","APDDA1Y59RHV9","3566S7OX5D5NH74JOVOPTTMK8IR17K","","null","<img src=""img/flower1.png"" style=""width:200px;border:14px solid red;"">","null","","","","","","","","",""
"","image-keyboard-response","128","67267","0.0-128.0","3AQF3RZ5594XP6IG3M3K10M6MY3F60","APDDA1Y59RHV9","3566S7OX5D5NH74JOVOPTTMK8IR17K","","137.40000009536743","img/flower4.png","75","138.40000009536743","2","1","3","1","1,0.333,0.333,0.333,1,0.333,0.333,0.333,1","1,0.333,0.333,0.333,1,0.333,0.333,0.333,1","1",""
"","html-keyboard-response","129","67569","0.0-129.0","3AQF3RZ5594XP6IG3M3K10M6MY3F60","APDDA1Y59RHV9","3566S7OX5D5NH74JOVOPTTMK8IR17K","","null","<img src=""img/flower4.png"" style=""width:200px; border:14px solid green;"">","null","","","","","","","","",""
"","image-keyboard-response","130","67674","0.0-130.0","3AQF3RZ5594XP6IG3M3K10M6MY3F60","APDDA1Y59RHV9","3566S7OX5D5NH74JOVOPTTMK8IR17K","","104.60000038146973","img/flower6.png","75","105.59999990463257","2","1","2","1","1,0.333,0.333,0.333,1,0.333,0.333,0.333,1","1,0.333,0.333,0.333,1,0.333,0.333,0.333,1","1",""
"","html-keyboard-response","131","67977","0.0-131.0","3AQF3RZ5594XP6IG3M3K10M6MY3F60","APDDA1Y59RHV9","3566S7OX5D5NH74JOVOPTTMK8IR17K","","null","<img src=""img/flower6.png"" style=""width:200px; border:14px solid green;"">","null","","","","","","","","",""
"","image-keyboard-response","132","67996","0.0-132.0","3AQF3RZ5594XP6IG3M3K10M6MY3F60","APDDA1Y59RHV9","3566S7OX5D5NH74JOVOPTTMK8IR17K","","17.40000009536743","img/flower1.png","75","18.5","2","0","1","1","1,0.333,0.333,0.333,1,0.333,0.333,0.333,1","1,0.333,0.333,0.333,1,0.333,0.333,0.333,1","1",""
"","html-keyboard-response","133","68298","0.0-133.0","3AQF3RZ5594XP6IG3M3K10M6MY3F60","APDDA1Y59RHV9","3566S7OX5D5NH74JOVOPTTMK8IR17K","","null","<img src=""img/flower1.png"" style=""width:200px;border:14px solid red;"">","null","","","","","","","","",""
"","image-keyboard-response","134","68364","0.0-134.0","3AQF3RZ5594XP6IG3M3K10M6MY3F60","APDDA1Y59RHV9","3566S7OX5D5NH74JOVOPTTMK8IR17K","","65.5","img/flower6.png","75","66.2000002861023","2","1","2","1","1,0.333,0.333,0.333,1,0.333,0.333,0.333,1","1,0.333,0.333,0.333,1,0.333,0.333,0.333,1","1",""
"","html-keyboard-response","135","68666","0.0-135.0","3AQF3RZ5594XP6IG3M3K10M6MY3F60","APDDA1Y59RHV9","3566S7OX5D5NH74JOVOPTTMK8IR17K","","null","<img src=""img/flower6.png"" style=""width:200px; border:14px solid green;"">","null","","","","","","","","",""
"","image-keyboard-response","136","68786","0.0-136.0","3AQF3RZ5594XP6IG3M3K10M6MY3F60","APDDA1Y59RHV9","3566S7OX5D5NH74JOVOPTTMK8IR17K","","119.59999990463257","img/flower6.png","74","120.09999990463257","1","1","2","1","1,0.333,0.333,0.333,1,0.333,0.333,0.333,1","1,0.333,0.333,0.333,1,0.333,0.333,0.333,1","1",""
"","html-keyboard-response","137","69088","0.0-137.0","3AQF3RZ5594XP6IG3M3K10M6MY3F60","APDDA1Y59RHV9","3566S7OX5D5NH74JOVOPTTMK8IR17K","","null","<img src=""img/flower6.png"" style=""width:200px; border:14px solid green;"">","null","","","","","","","","",""
"","image-keyboard-response","138","69180","0.0-138.0","3AQF3RZ5594XP6IG3M3K10M6MY3F60","APDDA1Y59RHV9","3566S7OX5D5NH74JOVOPTTMK8IR17K","","91.09999990463257","img/flower6.png","74","91.7999997138977","1","1","2","1","1,0.333,0.333,0.333,1,0.333,0.333,0.333,1","1,0.333,0.333,0.333,1,0.333,0.333,0.333,1","1",""
"","html-keyboard-response","139","69481","0.0-139.0","3AQF3RZ5594XP6IG3M3K10M6MY3F60","APDDA1Y59RHV9","3566S7OX5D5NH74JOVOPTTMK8IR17K","","null","<img src=""img/flower6.png"" style=""width:200px; border:14px solid green;"">","null","","","","","","","","",""
"","image-keyboard-response","140","69523","0.0-140.0","3AQF3RZ5594XP6IG3M3K10M6MY3F60","APDDA1Y59RHV9","3566S7OX5D5NH74JOVOPTTMK8IR17K","","40.5","img/flower4.png","74","41.69999980926514","1","0","3","1","1,0.333,0.333,0.333,1,0.333,0.333,0.333,1","1,0.333,0.333,0.333,1,0.333,0.333,0.333,1","1",""
"","html-keyboard-response","141","69826","0.0-141.0","3AQF3RZ5594XP6IG3M3K10M6MY3F60","APDDA1Y59RHV9","3566S7OX5D5NH74JOVOPTTMK8IR17K","","null","<img src=""img/flower4.png"" style=""width:200px;border:14px solid red;"">","null","","","","","","","","",""
"","image-keyboard-response","142","69963","0.0-142.0","3AQF3RZ5594XP6IG3M3K10M6MY3F60","APDDA1Y59RHV9","3566S7OX5D5NH74JOVOPTTMK8IR17K","","136.5","img/flower4.png","74","137","1","0","3","1","1,0.333,0.333,0.333,1,0.333,0.333,0.333,1","1,0.333,0.333,0.333,1,0.333,0.333,0.333,1","1",""
"","html-keyboard-response","143","70265","0.0-143.0","3AQF3RZ5594XP6IG3M3K10M6MY3F60","APDDA1Y59RHV9","3566S7OX5D5NH74JOVOPTTMK8IR17K","","null","<img src=""img/flower4.png"" style=""width:200px;border:14px solid red;"">","null","","","","","","","","",""
"","image-keyboard-response","144","70442","0.0-144.0","3AQF3RZ5594XP6IG3M3K10M6MY3F60","APDDA1Y59RHV9","3566S7OX5D5NH74JOVOPTTMK8IR17K","","176.59999990463257","img/flower6.png","75","177.2000002861023","2","1","2","1","1,0.333,0.333,0.333,1,0.333,0.333,0.333,1","1,0.333,0.333,0.333,1,0.333,0.333,0.333,1","1",""
"","html-keyboard-response","145","70744","0.0-145.0","3AQF3RZ5594XP6IG3M3K10M6MY3F60","APDDA1Y59RHV9","3566S7OX5D5NH74JOVOPTTMK8IR17K","","null","<img src=""img/flower6.png"" style=""width:200px; border:14px solid green;"">","null","","","","","","","","",""
"","image-keyboard-response","146","70932","0.0-146.0","3AQF3RZ5594XP6IG3M3K10M6MY3F60","APDDA1Y59RHV9","3566S7OX5D5NH74JOVOPTTMK8IR17K","","187.2000002861023","img/flower1.png","75","187.7999997138977","2","1","1","1","1,0.333,0.333,0.333,1,0.333,0.333,0.333,1","1,0.333,0.333,0.333,1,0.333,0.333,0.333,1","1",""
"","html-keyboard-response","147","71234","0.0-147.0","3AQF3RZ5594XP6IG3M3K10M6MY3F60","APDDA1Y59RHV9","3566S7OX5D5NH74JOVOPTTMK8IR17K","","null","<img src=""img/flower1.png"" style=""width:200px; border:14px solid green;"">","null","","","","","","","","",""
"","image-keyboard-response","148","71372","0.0-148.0","3AQF3RZ5594XP6IG3M3K10M6MY3F60","APDDA1Y59RHV9","3566S7OX5D5NH74JOVOPTTMK8IR17K","","136","img/flower6.png","75","137.19999980926514","2","1","2","1","1,0.333,0.333,0.333,1,0.333,0.333,0.333,1","1,0.333,0.333,0.333,1,0.333,0.333,0.333,1","1",""
"","html-keyboard-response","149","71674","0.0-149.0","3AQF3RZ5594XP6IG3M3K10M6MY3F60","APDDA1Y59RHV9","3566S7OX5D5NH74JOVOPTTMK8IR17K","","null","<img src=""img/flower6.png"" style=""width:200px; border:14px solid green;"">","null","","","","","","","","",""
"","image-keyboard-response","150","71746","0.0-150.0","3AQF3RZ5594XP6IG3M3K10M6MY3F60","APDDA1Y59RHV9","3566S7OX5D5NH74JOVOPTTMK8IR17K","","71.90000009536743","img/flower1.png","75","72.2000002861023","2","1","1","1","1,0.333,0.333,0.333,1,0.333,0.333,0.333,1","1,0.333,0.333,0.333,1,0.333,0.333,0.333,1","1",""
"","html-keyboard-response","151","72048","0.0-151.0","3AQF3RZ5594XP6IG3M3K10M6MY3F60","APDDA1Y59RHV9","3566S7OX5D5NH74JOVOPTTMK8IR17K","","null","<img src=""img/flower1.png"" style=""width:200px; border:14px solid green;"">","null","","","","","","","","",""
"","image-keyboard-response","152","72211","0.0-152.0","3AQF3RZ5594XP6IG3M3K10M6MY3F60","APDDA1Y59RHV9","3566S7OX5D5NH74JOVOPTTMK8IR17K","","161.69999980926514","img/flower1.png","75","162.2999997138977","2","0","1","1","1,0.333,0.333,0.333,1,0.333,0.333,0.333,1","1,0.333,0.333,0.333,1,0.333,0.333,0.333,1","1",""
"","html-keyboard-response","153","72512","0.0-153.0","3AQF3RZ5594XP6IG3M3K10M6MY3F60","APDDA1Y59RHV9","3566S7OX5D5NH74JOVOPTTMK8IR17K","","null","<img src=""img/flower1.png"" style=""width:200px;border:14px solid red;"">","null","","","","","","","","",""
"","image-keyboard-response","154","72762","0.0-154.0","3AQF3RZ5594XP6IG3M3K10M6MY3F60","APDDA1Y59RHV9","3566S7OX5D5NH74JOVOPTTMK8IR17K","","249.7999997138977","img/flower6.png","75","250.40000009536743","2","1","2","1","1,0.333,0.333,0.333,1,0.333,0.333,0.333,1","1,0.333,0.333,0.333,1,0.333,0.333,0.333,1","1",""
"","html-keyboard-response","155","73064","0.0-155.0","3AQF3RZ5594XP6IG3M3K10M6MY3F60","APDDA1Y59RHV9","3566S7OX5D5NH74JOVOPTTMK8IR17K","","null","<img src=""img/flower6.png"" style=""width:200px; border:14px solid green;"">","null","","","","","","","","",""
"","image-keyboard-response","156","73203","0.0-156.0","3AQF3RZ5594XP6IG3M3K10M6MY3F60","APDDA1Y59RHV9","3566S7OX5D5NH74JOVOPTTMK8IR17K","","137.2000002861023","img/flower6.png","76","138.09999990463257","3","1","2","1","1,0.333,0.333,0.333,1,0.333,0.333,0.333,1","1,0.333,0.333,0.333,1,0.333,0.333,0.333,1","1",""
"","html-keyboard-response","157","73504","0.0-157.0","3AQF3RZ5594XP6IG3M3K10M6MY3F60","APDDA1Y59RHV9","3566S7OX5D5NH74JOVOPTTMK8IR17K","","null","<img src=""img/flower6.png"" style=""width:200px; border:14px solid green;"">","null","","","","","","","","",""
"","image-keyboard-response","158","73636","0.0-158.0","3AQF3RZ5594XP6IG3M3K10M6MY3F60","APDDA1Y59RHV9","3566S7OX5D5NH74JOVOPTTMK8IR17K","","131","img/flower4.png","76","132.2000002861023","3","1","3","1","1,0.333,0.333,0.333,1,0.333,0.333,0.333,1","1,0.333,0.333,0.333,1,0.333,0.333,0.333,1","1",""
"","html-keyboard-response","159","73939","0.0-159.0","3AQF3RZ5594XP6IG3M3K10M6MY3F60","APDDA1Y59RHV9","3566S7OX5D5NH74JOVOPTTMK8IR17K","","null","<img src=""img/flower4.png"" style=""width:200px; border:14px solid green;"">","null","","","","","","","","",""
"","image-keyboard-response","160","73970","0.0-160.0","3AQF3RZ5594XP6IG3M3K10M6MY3F60","APDDA1Y59RHV9","3566S7OX5D5NH74JOVOPTTMK8IR17K","","30.600000381469727","img/flower4.png","76","31.5","3","1","3","1","1,0.333,0.333,0.333,1,0.333,0.333,0.333,1","1,0.333,0.333,0.333,1,0.333,0.333,0.333,1","1",""
"","html-keyboard-response","161","74272","0.0-161.0","3AQF3RZ5594XP6IG3M3K10M6MY3F60","APDDA1Y59RHV9","3566S7OX5D5NH74JOVOPTTMK8IR17K","","null","<img src=""img/flower4.png"" style=""width:200px; border:14px solid green;"">","null","","","","","","","","",""
"","image-keyboard-response","162","74419","0.0-162.0","3AQF3RZ5594XP6IG3M3K10M6MY3F60","APDDA1Y59RHV9","3566S7OX5D5NH74JOVOPTTMK8IR17K","","145.90000009536743","img/flower4.png","76","146.60000038146973","3","1","3","1","1,0.333,0.333,0.333,1,0.333,0.333,0.333,1","1,0.333,0.333,0.333,1,0.333,0.333,0.333,1","1",""
"","html-keyboard-response","163","74720","0.0-163.0","3AQF3RZ5594XP6IG3M3K10M6MY3F60","APDDA1Y59RHV9","3566S7OX5D5NH74JOVOPTTMK8IR17K","","null","<img src=""img/flower4.png"" style=""width:200px; border:14px solid green;"">","null","","","","","","","","",""
"","image-keyboard-response","164","74795","0.0-164.0","3AQF3RZ5594XP6IG3M3K10M6MY3F60","APDDA1Y59RHV9","3566S7OX5D5NH74JOVOPTTMK8IR17K","","74.19999980926514","img/flower4.png","76","74.90000009536743","3","1","3","1","1,0.333,0.333,0.333,1,0.333,0.333,0.333,1","1,0.333,0.333,0.333,1,0.333,0.333,0.333,1","1",""
"","html-keyboard-response","165","75097","0.0-165.0","3AQF3RZ5594XP6IG3M3K10M6MY3F60","APDDA1Y59RHV9","3566S7OX5D5NH74JOVOPTTMK8IR17K","","null","<img src=""img/flower4.png"" style=""width:200px; border:14px solid green;"">","null","","","","","","","","",""
"","image-keyboard-response","166","75306","0.0-166.0","3AQF3RZ5594XP6IG3M3K10M6MY3F60","APDDA1Y59RHV9","3566S7OX5D5NH74JOVOPTTMK8IR17K","","208.09999990463257","img/flower4.png","75","208.69999980926514","2","0","3","1","1,0.333,0.333,0.333,1,0.333,0.333,0.333,1","1,0.333,0.333,0.333,1,0.333,0.333,0.333,1","1",""
"","html-keyboard-response","167","75607","0.0-167.0","3AQF3RZ5594XP6IG3M3K10M6MY3F60","APDDA1Y59RHV9","3566S7OX5D5NH74JOVOPTTMK8IR17K","","null","<img src=""img/flower4.png"" style=""width:200px;border:14px solid red;"">","null","","","","","","","","",""
"","image-keyboard-response","168","75794","0.0-168.0","3AQF3RZ5594XP6IG3M3K10M6MY3F60","APDDA1Y59RHV9","3566S7OX5D5NH74JOVOPTTMK8IR17K","","185.80000019073486","img/flower1.png","76","186.80000019073486","3","1","1","1","1,0.333,0.333,0.333,1,0.333,0.333,0.333,1","1,0.333,0.333,0.333,1,0.333,0.333,0.333,1","1",""
"","html-keyboard-response","169","76096","0.0-169.0","3AQF3RZ5594XP6IG3M3K10M6MY3F60","APDDA1Y59RHV9","3566S7OX5D5NH74JOVOPTTMK8IR17K","","null","<img src=""img/flower1.png"" style=""width:200px; border:14px solid green;"">","null","","","","","","","","",""
"","image-keyboard-response","170","76242","0.0-170.0","3AQF3RZ5594XP6IG3M3K10M6MY3F60","APDDA1Y59RHV9","3566S7OX5D5NH74JOVOPTTMK8IR17K","","144.80000019073486","img/flower1.png","76","145.80000019073486","3","0","1","1","1,0.333,0.333,0.333,1,0.333,0.333,0.333,1","1,0.333,0.333,0.333,1,0.333,0.333,0.333,1","1",""
"","html-keyboard-response","171","76544","0.0-171.0","3AQF3RZ5594XP6IG3M3K10M6MY3F60","APDDA1Y59RHV9","3566S7OX5D5NH74JOVOPTTMK8IR17K","","null","<img src=""img/flower1.png"" style=""width:200px;border:14px solid red;"">","null","","","","","","","","",""
"","image-keyboard-response","172","76660","0.0-172.0","3AQF3RZ5594XP6IG3M3K10M6MY3F60","APDDA1Y59RHV9","3566S7OX5D5NH74JOVOPTTMK8IR17K","","114.30000019073486","img/flower1.png","76","115.39999961853027","3","0","1","1","1,0.333,0.333,0.333,1,0.333,0.333,0.333,1","1,0.333,0.333,0.333,1,0.333,0.333,0.333,1","1",""
"","html-keyboard-response","173","76962","0.0-173.0","3AQF3RZ5594XP6IG3M3K10M6MY3F60","APDDA1Y59RHV9","3566S7OX5D5NH74JOVOPTTMK8IR17K","","null","<img src=""img/flower1.png"" style=""width:200px;border:14px solid red;"">","null","","","","","","","","",""
"","image-keyboard-response","174","77123","0.0-174.0","3AQF3RZ5594XP6IG3M3K10M6MY3F60","APDDA1Y59RHV9","3566S7OX5D5NH74JOVOPTTMK8IR17K","","160","img/flower1.png","75","160.5","2","0","1","1","1,0.333,0.333,0.333,1,0.333,0.333,0.333,1","1,0.333,0.333,0.333,1,0.333,0.333,0.333,1","1",""
"","html-keyboard-response","175","77424","0.0-175.0","3AQF3RZ5594XP6IG3M3K10M6MY3F60","APDDA1Y59RHV9","3566S7OX5D5NH74JOVOPTTMK8IR17K","","null","<img src=""img/flower1.png"" style=""width:200px;border:14px solid red;"">","null","","","","","","","","",""
"","image-keyboard-response","176","77603","0.0-176.0","3AQF3RZ5594XP6IG3M3K10M6MY3F60","APDDA1Y59RHV9","3566S7OX5D5NH74JOVOPTTMK8IR17K","","177.59999990463257","img/flower1.png","74","178.19999980926514","1","1","1","1","1,0.333,0.333,0.333,1,0.333,0.333,0.333,1","1,0.333,0.333,0.333,1,0.333,0.333,0.333,1","1",""
"","html-keyboard-response","177","77905","0.0-177.0","3AQF3RZ5594XP6IG3M3K10M6MY3F60","APDDA1Y59RHV9","3566S7OX5D5NH74JOVOPTTMK8IR17K","","null","<img src=""img/flower1.png"" style=""width:200px; border:14px solid green;"">","null","","","","","","","","",""
"","image-keyboard-response","178","78164","0.0-178.0","3AQF3RZ5594XP6IG3M3K10M6MY3F60","APDDA1Y59RHV9","3566S7OX5D5NH74JOVOPTTMK8IR17K","","258.40000009536743","img/flower1.png","74","259","1","1","1","1","1,0.333,0.333,0.333,1,0.333,0.333,0.333,1","1,0.333,0.333,0.333,1,0.333,0.333,0.333,1","1",""
"","html-keyboard-response","179","78466","0.0-179.0","3AQF3RZ5594XP6IG3M3K10M6MY3F60","APDDA1Y59RHV9","3566S7OX5D5NH74JOVOPTTMK8IR17K","","null","<img src=""img/flower1.png"" style=""width:200px; border:14px solid green;"">","null","","","","","","","","",""
"","image-keyboard-response","180","78644","0.0-180.0","3AQF3RZ5594XP6IG3M3K10M6MY3F60","APDDA1Y59RHV9","3566S7OX5D5NH74JOVOPTTMK8IR17K","","177.2999997138977","img/flower1.png","74","178","1","1","1","1","1,0.333,0.333,0.333,1,0.333,0.333,0.333,1","1,0.333,0.333,0.333,1,0.333,0.333,0.333,1","1",""
"","html-keyboard-response","181","78947","0.0-181.0","3AQF3RZ5594XP6IG3M3K10M6MY3F60","APDDA1Y59RHV9","3566S7OX5D5NH74JOVOPTTMK8IR17K","","null","<img src=""img/flower1.png"" style=""width:200px; border:14px solid green;"">","null","","","","","","","","",""
"","html-keyboard-response","182","83586","0.0-182.0","3AQF3RZ5594XP6IG3M3K10M6MY3F60","APDDA1Y59RHV9","3566S7OX5D5NH74JOVOPTTMK8IR17K","","","","","","","","","","","","",""
"","image-keyboard-response","183","84124","0.0-183.0","3AQF3RZ5594XP6IG3M3K10M6MY3F60","APDDA1Y59RHV9","3566S7OX5D5NH74JOVOPTTMK8IR17K","","536.5","img/flower2.png","74","537.4000000953674","1","1","2","2","1,0,0,1,1,0,1,0,1","0,0,1,1,0,1,0,1,1","2",""
"","html-keyboard-response","184","84427","0.0-184.0","3AQF3RZ5594XP6IG3M3K10M6MY3F60","APDDA1Y59RHV9","3566S7OX5D5NH74JOVOPTTMK8IR17K","","null","<img src=""img/flower2.png"" style=""width:200px; border:14px solid green;"">","null","","","","","","","","",""
"","image-keyboard-response","185","84618","0.0-185.0","3AQF3RZ5594XP6IG3M3K10M6MY3F60","APDDA1Y59RHV9","3566S7OX5D5NH74JOVOPTTMK8IR17K","","191","img/flower2.png","74","191.60000038146973","1","1","2","2","1,0,0,1,1,0,1,0,1","0,0,1,1,0,1,0,1,1","2",""
"","html-keyboard-response","186","84920","0.0-186.0","3AQF3RZ5594XP6IG3M3K10M6MY3F60","APDDA1Y59RHV9","3566S7OX5D5NH74JOVOPTTMK8IR17K","","null","<img src=""img/flower2.png"" style=""width:200px; border:14px solid green;"">","null","","","","","","","","",""
"","image-keyboard-response","187","85082","0.0-187.0","3AQF3RZ5594XP6IG3M3K10M6MY3F60","APDDA1Y59RHV9","3566S7OX5D5NH74JOVOPTTMK8IR17K","","161.80000019073486","img/flower2.png","74","162.30000019073486","1","1","2","2","1,0,0,1,1,0,1,0,1","0,0,1,1,0,1,0,1,1","2",""
"","html-keyboard-response","188","85383","0.0-188.0","3AQF3RZ5594XP6IG3M3K10M6MY3F60","APDDA1Y59RHV9","3566S7OX5D5NH74JOVOPTTMK8IR17K","","null","<img src=""img/flower2.png"" style=""width:200px; border:14px solid green;"">","null","","","","","","","","",""
"","image-keyboard-response","189","85563","0.0-189.0","3AQF3RZ5594XP6IG3M3K10M6MY3F60","APDDA1Y59RHV9","3566S7OX5D5NH74JOVOPTTMK8IR17K","","179.2999997138977","img/flower2.png","74","179.80000019073486","1","1","2","2","1,0,0,1,1,0,1,0,1","0,0,1,1,0,1,0,1,1","2",""
"","html-keyboard-response","190","85864","0.0-190.0","3AQF3RZ5594XP6IG3M3K10M6MY3F60","APDDA1Y59RHV9","3566S7OX5D5NH74JOVOPTTMK8IR17K","","null","<img src=""img/flower2.png"" style=""width:200px; border:14px solid green;"">","null","","","","","","","","",""
"","image-keyboard-response","191","86034","0.0-191.0","3AQF3RZ5594XP6IG3M3K10M6MY3F60","APDDA1Y59RHV9","3566S7OX5D5NH74JOVOPTTMK8IR17K","","168.69999980926514","img/flower5.png","74","169.60000038146973","1","0","1","2","1,0,0,1,1,0,1,0,1","0,0,1,1,0,1,0,1,1","2",""
"","html-keyboard-response","192","86337","0.0-192.0","3AQF3RZ5594XP6IG3M3K10M6MY3F60","APDDA1Y59RHV9","3566S7OX5D5NH74JOVOPTTMK8IR17K","","null","<img src=""img/flower5.png"" style=""width:200px;border:14px solid red;"">","null","","","","","","","","",""
"","image-keyboard-response","193","86746","0.0-193.0","3AQF3RZ5594XP6IG3M3K10M6MY3F60","APDDA1Y59RHV9","3566S7OX5D5NH74JOVOPTTMK8IR17K","","408.30000019073486","img/flower2.png","75","409.30000019073486","2","0","2","2","1,0,0,1,1,0,1,0,1","0,0,1,1,0,1,0,1,1","2",""
"","html-keyboard-response","194","87047","0.0-194.0","3AQF3RZ5594XP6IG3M3K10M6MY3F60","APDDA1Y59RHV9","3566S7OX5D5NH74JOVOPTTMK8IR17K","","null","<img src=""img/flower2.png"" style=""width:200px;border:14px solid red;"">","null","","","","","","","","",""
"","image-keyboard-response","195","87131","0.0-195.0","3AQF3RZ5594XP6IG3M3K10M6MY3F60","APDDA1Y59RHV9","3566S7OX5D5NH74JOVOPTTMK8IR17K","","83","img/flower5.png","75","83.60000038146973","2","0","1","2","1,0,0,1,1,0,1,0,1","0,0,1,1,0,1,0,1,1","2",""
"","html-keyboard-response","196","87432","0.0-196.0","3AQF3RZ5594XP6IG3M3K10M6MY3F60","APDDA1Y59RHV9","3566S7OX5D5NH74JOVOPTTMK8IR17K","","null","<img src=""img/flower5.png"" style=""width:200px;border:14px solid red;"">","null","","","","","","","","",""
"","image-keyboard-response","197","87539","0.0-197.0","3AQF3RZ5594XP6IG3M3K10M6MY3F60","APDDA1Y59RHV9","3566S7OX5D5NH74JOVOPTTMK8IR17K","","106.59999990463257","img/flower5.png","74","107.30000019073486","1","0","1","2","1,0,0,1,1,0,1,0,1","0,0,1,1,0,1,0,1,1","2",""
"","html-keyboard-response","198","87842","0.0-198.0","3AQF3RZ5594XP6IG3M3K10M6MY3F60","APDDA1Y59RHV9","3566S7OX5D5NH74JOVOPTTMK8IR17K","","null","<img src=""img/flower5.png"" style=""width:200px;border:14px solid red;"">","null","","","","","","","","",""
"","image-keyboard-response","199","87923","0.0-199.0","3AQF3RZ5594XP6IG3M3K10M6MY3F60","APDDA1Y59RHV9","3566S7OX5D5NH74JOVOPTTMK8IR17K","","79.5","img/flower5.png","74","80.69999980926514","1","0","1","2","1,0,0,1,1,0,1,0,1","0,0,1,1,0,1,0,1,1","2",""
"","html-keyboard-response","200","88225","0.0-200.0","3AQF3RZ5594XP6IG3M3K10M6MY3F60","APDDA1Y59RHV9","3566S7OX5D5NH74JOVOPTTMK8IR17K","","null","<img src=""img/flower5.png"" style=""width:200px;border:14px solid red;"">","null","","","","","","","","",""
"","image-keyboard-response","201","88315","0.0-201.0","3AQF3RZ5594XP6IG3M3K10M6MY3F60","APDDA1Y59RHV9","3566S7OX5D5NH74JOVOPTTMK8IR17K","","88.7999997138977","img/flower2.png","74","89.40000009536743","1","1","2","2","1,0,0,1,1,0,1,0,1","0,0,1,1,0,1,0,1,1","2",""
"","html-keyboard-response","202","88617","0.0-202.0","3AQF3RZ5594XP6IG3M3K10M6MY3F60","APDDA1Y59RHV9","3566S7OX5D5NH74JOVOPTTMK8IR17K","","null","<img src=""img/flower2.png"" style=""width:200px; border:14px solid green;"">","null","","","","","","","","",""
"","image-keyboard-response","203","88819","0.0-203.0","3AQF3RZ5594XP6IG3M3K10M6MY3F60","APDDA1Y59RHV9","3566S7OX5D5NH74JOVOPTTMK8IR17K","","200.90000009536743","img/flower3.png","74","201.69999980926514","1","0","3","2","1,0,0,1,1,0,1,0,1","0,0,1,1,0,1,0,1,1","2",""
"","html-keyboard-response","204","89130","0.0-204.0","3AQF3RZ5594XP6IG3M3K10M6MY3F60","APDDA1Y59RHV9","3566S7OX5D5NH74JOVOPTTMK8IR17K","","null","<img src=""img/flower3.png"" style=""width:200px;border:14px solid red;"">","null","","","","","","","","",""
"","image-keyboard-response","205","89226","0.0-205.0","3AQF3RZ5594XP6IG3M3K10M6MY3F60","APDDA1Y59RHV9","3566S7OX5D5NH74JOVOPTTMK8IR17K","","94.89999961853027","img/flower3.png","74","96","1","0","3","2","1,0,0,1,1,0,1,0,1","0,0,1,1,0,1,0,1,1","2",""
"","html-keyboard-response","206","89528","0.0-206.0","3AQF3RZ5594XP6IG3M3K10M6MY3F60","APDDA1Y59RHV9","3566S7OX5D5NH74JOVOPTTMK8IR17K","","null","<img src=""img/flower3.png"" style=""width:200px;border:14px solid red;"">","null","","","","","","","","",""
"","image-keyboard-response","207","89563","0.0-207.0","3AQF3RZ5594XP6IG3M3K10M6MY3F60","APDDA1Y59RHV9","3566S7OX5D5NH74JOVOPTTMK8IR17K","","34.30000019073486","img/flower5.png","75","34.799999713897705","2","0","1","2","1,0,0,1,1,0,1,0,1","0,0,1,1,0,1,0,1,1","2",""
"","html-keyboard-response","208","89865","0.0-208.0","3AQF3RZ5594XP6IG3M3K10M6MY3F60","APDDA1Y59RHV9","3566S7OX5D5NH74JOVOPTTMK8IR17K","","null","<img src=""img/flower5.png"" style=""width:200px;border:14px solid red;"">","null","","","","","","","","",""
"","image-keyboard-response","209","89924","0.0-209.0","3AQF3RZ5594XP6IG3M3K10M6MY3F60","APDDA1Y59RHV9","3566S7OX5D5NH74JOVOPTTMK8IR17K","","57.80000019073486","img/flower3.png","75","58.40000009536743","2","1","3","2","1,0,0,1,1,0,1,0,1","0,0,1,1,0,1,0,1,1","2",""
"","html-keyboard-response","210","90226","0.0-210.0","3AQF3RZ5594XP6IG3M3K10M6MY3F60","APDDA1Y59RHV9","3566S7OX5D5NH74JOVOPTTMK8IR17K","","null","<img src=""img/flower3.png"" style=""width:200px; border:14px solid green;"">","null","","","","","","","","",""
"","image-keyboard-response","211","90274","0.0-211.0","3AQF3RZ5594XP6IG3M3K10M6MY3F60","APDDA1Y59RHV9","3566S7OX5D5NH74JOVOPTTMK8IR17K","","45.5","img/flower3.png","75","46.40000009536743","2","1","3","2","1,0,0,1,1,0,1,0,1","0,0,1,1,0,1,0,1,1","2",""
"","html-keyboard-response","212","90576","0.0-212.0","3AQF3RZ5594XP6IG3M3K10M6MY3F60","APDDA1Y59RHV9","3566S7OX5D5NH74JOVOPTTMK8IR17K","","null","<img src=""img/flower3.png"" style=""width:200px; border:14px solid green;"">","null","","","","","","","","",""
"","image-keyboard-response","213","90626","0.0-213.0","3AQF3RZ5594XP6IG3M3K10M6MY3F60","APDDA1Y59RHV9","3566S7OX5D5NH74JOVOPTTMK8IR17K","","50.10000038146973","img/flower3.png","76","50.5","3","1","3","2","1,0,0,1,1,0,1,0,1","0,0,1,1,0,1,0,1,1","2",""
"","html-keyboard-response","214","90928","0.0-214.0","3AQF3RZ5594XP6IG3M3K10M6MY3F60","APDDA1Y59RHV9","3566S7OX5D5NH74JOVOPTTMK8IR17K","","null","<img src=""img/flower3.png"" style=""width:200px; border:14px solid green;"">","null","","","","","","","","",""
"","image-keyboard-response","215","91036","0.0-215.0","3AQF3RZ5594XP6IG3M3K10M6MY3F60","APDDA1Y59RHV9","3566S7OX5D5NH74JOVOPTTMK8IR17K","","106.09999990463257","img/flower2.png","76","107.30000019073486","3","1","2","2","1,0,0,1,1,0,1,0,1","0,0,1,1,0,1,0,1,1","2",""
"","html-keyboard-response","216","91338","0.0-216.0","3AQF3RZ5594XP6IG3M3K10M6MY3F60","APDDA1Y59RHV9","3566S7OX5D5NH74JOVOPTTMK8IR17K","","null","<img src=""img/flower2.png"" style=""width:200px; border:14px solid green;"">","null","","","","","","","","",""
"","image-keyboard-response","217","91652","0.0-217.0","3AQF3RZ5594XP6IG3M3K10M6MY3F60","APDDA1Y59RHV9","3566S7OX5D5NH74JOVOPTTMK8IR17K","","312.90000009536743","img/flower5.png","76","313.5","3","1","1","2","1,0,0,1,1,0,1,0,1","0,0,1,1,0,1,0,1,1","2",""
"","html-keyboard-response","218","91954","0.0-218.0","3AQF3RZ5594XP6IG3M3K10M6MY3F60","APDDA1Y59RHV9","3566S7OX5D5NH74JOVOPTTMK8IR17K","","null","<img src=""img/flower5.png"" style=""width:200px; border:14px solid green;"">","null","","","","","","","","",""
"","image-keyboard-response","219","92035","0.0-219.0","3AQF3RZ5594XP6IG3M3K10M6MY3F60","APDDA1Y59RHV9","3566S7OX5D5NH74JOVOPTTMK8IR17K","","79.90000009536743","img/flower3.png","76","80.59999990463257","3","1","3","2","1,0,0,1,1,0,1,0,1","0,0,1,1,0,1,0,1,1","2",""
"","html-keyboard-response","220","92336","0.0-220.0","3AQF3RZ5594XP6IG3M3K10M6MY3F60","APDDA1Y59RHV9","3566S7OX5D5NH74JOVOPTTMK8IR17K","","null","<img src=""img/flower3.png"" style=""width:200px; border:14px solid green;"">","null","","","","","","","","",""
"","image-keyboard-response","221","92476","0.0-221.0","3AQF3RZ5594XP6IG3M3K10M6MY3F60","APDDA1Y59RHV9","3566S7OX5D5NH74JOVOPTTMK8IR17K","","138.09999990463257","img/flower2.png","76","139.5","3","1","2","2","1,0,0,1,1,0,1,0,1","0,0,1,1,0,1,0,1,1","2",""
"","html-keyboard-response","222","92778","0.0-222.0","3AQF3RZ5594XP6IG3M3K10M6MY3F60","APDDA1Y59RHV9","3566S7OX5D5NH74JOVOPTTMK8IR17K","","null","<img src=""img/flower2.png"" style=""width:200px; border:14px solid green;"">","null","","","","","","","","",""
"","image-keyboard-response","223","92890","0.0-223.0","3AQF3RZ5594XP6IG3M3K10M6MY3F60","APDDA1Y59RHV9","3566S7OX5D5NH74JOVOPTTMK8IR17K","","111.09999990463257","img/flower3.png","76","111.69999980926514","3","1","3","2","1,0,0,1,1,0,1,0,1","0,0,1,1,0,1,0,1,1","2",""
"","html-keyboard-response","224","93195","0.0-224.0","3AQF3RZ5594XP6IG3M3K10M6MY3F60","APDDA1Y59RHV9","3566S7OX5D5NH74JOVOPTTMK8IR17K","","null","<img src=""img/flower3.png"" style=""width:200px; border:14px solid green;"">","null","","","","","","","","",""
"","image-keyboard-response","225","93291","0.0-225.0","3AQF3RZ5594XP6IG3M3K10M6MY3F60","APDDA1Y59RHV9","3566S7OX5D5NH74JOVOPTTMK8IR17K","","94.09999990463257","img/flower5.png","75","95.2000002861023","2","0","1","2","1,0,0,1,1,0,1,0,1","0,0,1,1,0,1,0,1,1","2",""
"","html-keyboard-response","226","93592","0.0-226.0","3AQF3RZ5594XP6IG3M3K10M6MY3F60","APDDA1Y59RHV9","3566S7OX5D5NH74JOVOPTTMK8IR17K","","null","<img src=""img/flower5.png"" style=""width:200px;border:14px solid red;"">","null","","","","","","","","",""
"","image-keyboard-response","227","93764","0.0-227.0","3AQF3RZ5594XP6IG3M3K10M6MY3F60","APDDA1Y59RHV9","3566S7OX5D5NH74JOVOPTTMK8IR17K","","171.09999990463257","img/flower3.png","75","171.59999990463257","2","1","3","2","1,0,0,1,1,0,1,0,1","0,0,1,1,0,1,0,1,1","2",""
"","html-keyboard-response","228","94066","0.0-228.0","3AQF3RZ5594XP6IG3M3K10M6MY3F60","APDDA1Y59RHV9","3566S7OX5D5NH74JOVOPTTMK8IR17K","","null","<img src=""img/flower3.png"" style=""width:200px; border:14px solid green;"">","null","","","","","","","","",""
"","image-keyboard-response","229","94107","0.0-229.0","3AQF3RZ5594XP6IG3M3K10M6MY3F60","APDDA1Y59RHV9","3566S7OX5D5NH74JOVOPTTMK8IR17K","","39.799999713897705","img/flower3.png","74","40.90000009536743","1","0","3","2","1,0,0,1,1,0,1,0,1","0,0,1,1,0,1,0,1,1","2",""
"","html-keyboard-response","230","94410","0.0-230.0","3AQF3RZ5594XP6IG3M3K10M6MY3F60","APDDA1Y59RHV9","3566S7OX5D5NH74JOVOPTTMK8IR17K","","null","<img src=""img/flower3.png"" style=""width:200px;border:14px solid red;"">","null","","","","","","","","",""
"","image-keyboard-response","231","94459","0.0-231.0","3AQF3RZ5594XP6IG3M3K10M6MY3F60","APDDA1Y59RHV9","3566S7OX5D5NH74JOVOPTTMK8IR17K","","47.80000019073486","img/flower5.png","74","48.799999713897705","1","0","1","2","1,0,0,1,1,0,1,0,1","0,0,1,1,0,1,0,1,1","2",""
"","html-keyboard-response","232","94761","0.0-232.0","3AQF3RZ5594XP6IG3M3K10M6MY3F60","APDDA1Y59RHV9","3566S7OX5D5NH74JOVOPTTMK8IR17K","","null","<img src=""img/flower5.png"" style=""width:200px;border:14px solid red;"">","null","","","","","","","","",""
"","image-keyboard-response","233","94892","0.0-233.0","3AQF3RZ5594XP6IG3M3K10M6MY3F60","APDDA1Y59RHV9","3566S7OX5D5NH74JOVOPTTMK8IR17K","","130.19999980926514","img/flower3.png","74","130.90000009536743","1","0","3","2","1,0,0,1,1,0,1,0,1","0,0,1,1,0,1,0,1,1","2",""
"","html-keyboard-response","234","95194","0.0-234.0","3AQF3RZ5594XP6IG3M3K10M6MY3F60","APDDA1Y59RHV9","3566S7OX5D5NH74JOVOPTTMK8IR17K","","null","<img src=""img/flower3.png"" style=""width:200px;border:14px solid red;"">","null","","","","","","","","",""
"","image-keyboard-response","235","95242","0.0-235.0","3AQF3RZ5594XP6IG3M3K10M6MY3F60","APDDA1Y59RHV9","3566S7OX5D5NH74JOVOPTTMK8IR17K","","46.90000009536743","img/flower5.png","75","47.799999713897705","2","0","1","2","1,0,0,1,1,0,1,0,1","0,0,1,1,0,1,0,1,1","2",""
"","html-keyboard-response","236","95544","0.0-236.0","3AQF3RZ5594XP6IG3M3K10M6MY3F60","APDDA1Y59RHV9","3566S7OX5D5NH74JOVOPTTMK8IR17K","","null","<img src=""img/flower5.png"" style=""width:200px;border:14px solid red;"">","null","","","","","","","","",""
"","image-keyboard-response","237","95578","0.0-237.0","3AQF3RZ5594XP6IG3M3K10M6MY3F60","APDDA1Y59RHV9","3566S7OX5D5NH74JOVOPTTMK8IR17K","","34.30000019073486","img/flower3.png","75","34.700000286102295","2","1","3","2","1,0,0,1,1,0,1,0,1","0,0,1,1,0,1,0,1,1","2",""
"","html-keyboard-response","238","95880","0.0-238.0","3AQF3RZ5594XP6IG3M3K10M6MY3F60","APDDA1Y59RHV9","3566S7OX5D5NH74JOVOPTTMK8IR17K","","null","<img src=""img/flower3.png"" style=""width:200px; border:14px solid green;"">","null","","","","","","","","",""
"","image-keyboard-response","239","95932","0.0-239.0","3AQF3RZ5594XP6IG3M3K10M6MY3F60","APDDA1Y59RHV9","3566S7OX5D5NH74JOVOPTTMK8IR17K","","50.19999980926514","img/flower5.png","75","51.200000286102295","2","0","1","2","1,0,0,1,1,0,1,0,1","0,0,1,1,0,1,0,1,1","2",""
"","html-keyboard-response","240","96234","0.0-240.0","3AQF3RZ5594XP6IG3M3K10M6MY3F60","APDDA1Y59RHV9","3566S7OX5D5NH74JOVOPTTMK8IR17K","","null","<img src=""img/flower5.png"" style=""width:200px;border:14px solid red;"">","null","","","","","","","","",""
"","image-keyboard-response","241","96251","0.0-241.0","3AQF3RZ5594XP6IG3M3K10M6MY3F60","APDDA1Y59RHV9","3566S7OX5D5NH74JOVOPTTMK8IR17K","","16.40000009536743","img/flower3.png","76","17.299999713897705","3","1","3","2","1,0,0,1,1,0,1,0,1","0,0,1,1,0,1,0,1,1","2",""
"","html-keyboard-response","242","96553","0.0-242.0","3AQF3RZ5594XP6IG3M3K10M6MY3F60","APDDA1Y59RHV9","3566S7OX5D5NH74JOVOPTTMK8IR17K","","null","<img src=""img/flower3.png"" style=""width:200px; border:14px solid green;"">","null","","","","","","","","",""
"","image-keyboard-response","243","96635","0.0-243.0","3AQF3RZ5594XP6IG3M3K10M6MY3F60","APDDA1Y59RHV9","3566S7OX5D5NH74JOVOPTTMK8IR17K","","80.80000019073486","img/flower2.png","76","81.7999997138977","3","1","2","2","1,0,0,1,1,0,1,0,1","0,0,1,1,0,1,0,1,1","2",""
"","html-keyboard-response","244","96937","0.0-244.0","3AQF3RZ5594XP6IG3M3K10M6MY3F60","APDDA1Y59RHV9","3566S7OX5D5NH74JOVOPTTMK8IR17K","","null","<img src=""img/flower2.png"" style=""width:200px; border:14px solid green;"">","null","","","","","","","","",""
"","image-keyboard-response","245","97012","0.0-245.0","3AQF3RZ5594XP6IG3M3K10M6MY3F60","APDDA1Y59RHV9","3566S7OX5D5NH74JOVOPTTMK8IR17K","","74","img/flower3.png","76","74.7999997138977","3","1","3","2","1,0,0,1,1,0,1,0,1","0,0,1,1,0,1,0,1,1","2",""
"","html-keyboard-response","246","97314","0.0-246.0","3AQF3RZ5594XP6IG3M3K10M6MY3F60","APDDA1Y59RHV9","3566S7OX5D5NH74JOVOPTTMK8IR17K","","null","<img src=""img/flower3.png"" style=""width:200px; border:14px solid green;"">","null","","","","","","","","",""
"","image-keyboard-response","247","97372","0.0-247.0","3AQF3RZ5594XP6IG3M3K10M6MY3F60","APDDA1Y59RHV9","3566S7OX5D5NH74JOVOPTTMK8IR17K","","56.80000019073486","img/flower3.png","76","57.700000286102295","3","1","3","2","1,0,0,1,1,0,1,0,1","0,0,1,1,0,1,0,1,1","2",""
"","html-keyboard-response","248","97673","0.0-248.0","3AQF3RZ5594XP6IG3M3K10M6MY3F60","APDDA1Y59RHV9","3566S7OX5D5NH74JOVOPTTMK8IR17K","","null","<img src=""img/flower3.png"" style=""width:200px; border:14px solid green;"">","null","","","","","","","","",""
"","image-keyboard-response","249","97778","0.0-249.0","3AQF3RZ5594XP6IG3M3K10M6MY3F60","APDDA1Y59RHV9","3566S7OX5D5NH74JOVOPTTMK8IR17K","","103.19999980926514","img/flower5.png","76","104.19999980926514","3","1","1","2","1,0,0,1,1,0,1,0,1","0,0,1,1,0,1,0,1,1","2",""
"","html-keyboard-response","250","98079","0.0-250.0","3AQF3RZ5594XP6IG3M3K10M6MY3F60","APDDA1Y59RHV9","3566S7OX5D5NH74JOVOPTTMK8IR17K","","null","<img src=""img/flower5.png"" style=""width:200px; border:14px solid green;"">","null","","","","","","","","",""
"","image-keyboard-response","251","98155","0.0-251.0","3AQF3RZ5594XP6IG3M3K10M6MY3F60","APDDA1Y59RHV9","3566S7OX5D5NH74JOVOPTTMK8IR17K","","74.80000019073486","img/flower5.png","76","75.2999997138977","3","1","1","2","1,0,0,1,1,0,1,0,1","0,0,1,1,0,1,0,1,1","2",""
"","html-keyboard-response","252","98456","0.0-252.0","3AQF3RZ5594XP6IG3M3K10M6MY3F60","APDDA1Y59RHV9","3566S7OX5D5NH74JOVOPTTMK8IR17K","","null","<img src=""img/flower5.png"" style=""width:200px; border:14px solid green;"">","null","","","","","","","","",""
"","image-keyboard-response","253","98498","0.0-253.0","3AQF3RZ5594XP6IG3M3K10M6MY3F60","APDDA1Y59RHV9","3566S7OX5D5NH74JOVOPTTMK8IR17K","","41","img/flower3.png","76","42.09999990463257","3","1","3","2","1,0,0,1,1,0,1,0,1","0,0,1,1,0,1,0,1,1","2",""
"","html-keyboard-response","254","98800","0.0-254.0","3AQF3RZ5594XP6IG3M3K10M6MY3F60","APDDA1Y59RHV9","3566S7OX5D5NH74JOVOPTTMK8IR17K","","null","<img src=""img/flower3.png"" style=""width:200px; border:14px solid green;"">","null","","","","","","","","",""
"","image-keyboard-response","255","98884","0.0-255.0","3AQF3RZ5594XP6IG3M3K10M6MY3F60","APDDA1Y59RHV9","3566S7OX5D5NH74JOVOPTTMK8IR17K","","83","img/flower2.png","76","83.80000019073486","3","1","2","2","1,0,0,1,1,0,1,0,1","0,0,1,1,0,1,0,1,1","2",""
"","html-keyboard-response","256","99187","0.0-256.0","3AQF3RZ5594XP6IG3M3K10M6MY3F60","APDDA1Y59RHV9","3566S7OX5D5NH74JOVOPTTMK8IR17K","","null","<img src=""img/flower2.png"" style=""width:200px; border:14px solid green;"">","null","","","","","","","","",""
"","image-keyboard-response","257","99227","0.0-257.0","3AQF3RZ5594XP6IG3M3K10M6MY3F60","APDDA1Y59RHV9","3566S7OX5D5NH74JOVOPTTMK8IR17K","","39.59999990463257","img/flower3.png","76","40.09999990463257","3","1","3","2","1,0,0,1,1,0,1,0,1","0,0,1,1,0,1,0,1,1","2",""
"","html-keyboard-response","258","99529","0.0-258.0","3AQF3RZ5594XP6IG3M3K10M6MY3F60","APDDA1Y59RHV9","3566S7OX5D5NH74JOVOPTTMK8IR17K","","null","<img src=""img/flower3.png"" style=""width:200px; border:14px solid green;"">","null","","","","","","","","",""
"","image-keyboard-response","259","99636","0.0-259.0","3AQF3RZ5594XP6IG3M3K10M6MY3F60","APDDA1Y59RHV9","3566S7OX5D5NH74JOVOPTTMK8IR17K","","105.10000038146973","img/flower5.png","76","106.19999980926514","3","1","1","2","1,0,0,1,1,0,1,0,1","0,0,1,1,0,1,0,1,1","2",""
"","html-keyboard-response","260","99938","0.0-260.0","3AQF3RZ5594XP6IG3M3K10M6MY3F60","APDDA1Y59RHV9","3566S7OX5D5NH74JOVOPTTMK8IR17K","","null","<img src=""img/flower5.png"" style=""width:200px; border:14px solid green;"">","null","","","","","","","","",""
"","image-keyboard-response","261","100002","0.0-261.0","3AQF3RZ5594XP6IG3M3K10M6MY3F60","APDDA1Y59RHV9","3566S7OX5D5NH74JOVOPTTMK8IR17K","","63.10000038146973","img/flower3.png","76","64.2999997138977","3","1","3","2","1,0,0,1,1,0,1,0,1","0,0,1,1,0,1,0,1,1","2",""
"","html-keyboard-response","262","100304","0.0-262.0","3AQF3RZ5594XP6IG3M3K10M6MY3F60","APDDA1Y59RHV9","3566S7OX5D5NH74JOVOPTTMK8IR17K","","null","<img src=""img/flower3.png"" style=""width:200px; border:14px solid green;"">","null","","","","","","","","",""
"","image-keyboard-response","263","100356","0.0-263.0","3AQF3RZ5594XP6IG3M3K10M6MY3F60","APDDA1Y59RHV9","3566S7OX5D5NH74JOVOPTTMK8IR17K","","50.90000009536743","img/flower2.png","76","51.59999990463257","3","1","2","2","1,0,0,1,1,0,1,0,1","0,0,1,1,0,1,0,1,1","2",""
"","html-keyboard-response","264","100658","0.0-264.0","3AQF3RZ5594XP6IG3M3K10M6MY3F60","APDDA1Y59RHV9","3566S7OX5D5NH74JOVOPTTMK8IR17K","","null","<img src=""img/flower2.png"" style=""width:200px; border:14px solid green;"">","null","","","","","","","","",""
"","image-keyboard-response","265","100730","0.0-265.0","3AQF3RZ5594XP6IG3M3K10M6MY3F60","APDDA1Y59RHV9","3566S7OX5D5NH74JOVOPTTMK8IR17K","","71.19999980926514","img/flower5.png","76","71.80000019073486","3","1","1","2","1,0,0,1,1,0,1,0,1","0,0,1,1,0,1,0,1,1","2",""
"","html-keyboard-response","266","101032","0.0-266.0","3AQF3RZ5594XP6IG3M3K10M6MY3F60","APDDA1Y59RHV9","3566S7OX5D5NH74JOVOPTTMK8IR17K","","null","<img src=""img/flower5.png"" style=""width:200px; border:14px solid green;"">","null","","","","","","","","",""
"","image-keyboard-response","267","101059","0.0-267.0","3AQF3RZ5594XP6IG3M3K10M6MY3F60","APDDA1Y59RHV9","3566S7OX5D5NH74JOVOPTTMK8IR17K","","25.699999809265137","img/flower5.png","76","26.5","3","1","1","2","1,0,0,1,1,0,1,0,1","0,0,1,1,0,1,0,1,1","2",""
"","html-keyboard-response","268","101365","0.0-268.0","3AQF3RZ5594XP6IG3M3K10M6MY3F60","APDDA1Y59RHV9","3566S7OX5D5NH74JOVOPTTMK8IR17K","","null","<img src=""img/flower5.png"" style=""width:200px; border:14px solid green;"">","null","","","","","","","","",""
"","image-keyboard-response","269","101412","0.0-269.0","3AQF3RZ5594XP6IG3M3K10M6MY3F60","APDDA1Y59RHV9","3566S7OX5D5NH74JOVOPTTMK8IR17K","","45.700000286102295","img/flower2.png","76","46.90000009536743","3","1","2","2","1,0,0,1,1,0,1,0,1","0,0,1,1,0,1,0,1,1","2",""
"","html-keyboard-response","270","101715","0.0-270.0","3AQF3RZ5594XP6IG3M3K10M6MY3F60","APDDA1Y59RHV9","3566S7OX5D5NH74JOVOPTTMK8IR17K","","null","<img src=""img/flower2.png"" style=""width:200px; border:14px solid green;"">","null","","","","","","","","",""
"","image-keyboard-response","271","101755","0.0-271.0","3AQF3RZ5594XP6IG3M3K10M6MY3F60","APDDA1Y59RHV9","3566S7OX5D5NH74JOVOPTTMK8IR17K","","39.5","img/flower2.png","76","40.89999961853027","3","1","2","2","1,0,0,1,1,0,1,0,1","0,0,1,1,0,1,0,1,1","2",""
"","html-keyboard-response","272","102057","0.0-272.0","3AQF3RZ5594XP6IG3M3K10M6MY3F60","APDDA1Y59RHV9","3566S7OX5D5NH74JOVOPTTMK8IR17K","","null","<img src=""img/flower2.png"" style=""width:200px; border:14px solid green;"">","null","","","","","","","","",""
"","image-keyboard-response","273","102116","0.0-273.0","3AQF3RZ5594XP6IG3M3K10M6MY3F60","APDDA1Y59RHV9","3566S7OX5D5NH74JOVOPTTMK8IR17K","","57","img/flower3.png","76","58.40000009536743","3","1","3","2","1,0,0,1,1,0,1,0,1","0,0,1,1,0,1,0,1,1","2",""
"","html-keyboard-response","274","102418","0.0-274.0","3AQF3RZ5594XP6IG3M3K10M6MY3F60","APDDA1Y59RHV9","3566S7OX5D5NH74JOVOPTTMK8IR17K","","null","<img src=""img/flower3.png"" style=""width:200px; border:14px solid green;"">","null","","","","","","","","",""
"","image-keyboard-response","275","102428","0.0-275.0","3AQF3RZ5594XP6IG3M3K10M6MY3F60","APDDA1Y59RHV9","3566S7OX5D5NH74JOVOPTTMK8IR17K","","8.5","img/flower5.png","76","9.699999809265137","3","1","1","2","1,0,0,1,1,0,1,0,1","0,0,1,1,0,1,0,1,1","2",""
"","html-keyboard-response","276","102730","0.0-276.0","3AQF3RZ5594XP6IG3M3K10M6MY3F60","APDDA1Y59RHV9","3566S7OX5D5NH74JOVOPTTMK8IR17K","","null","<img src=""img/flower5.png"" style=""width:200px; border:14px solid green;"">","null","","","","","","","","",""
"","image-keyboard-response","277","102788","0.0-277.0","3AQF3RZ5594XP6IG3M3K10M6MY3F60","APDDA1Y59RHV9","3566S7OX5D5NH74JOVOPTTMK8IR17K","","57.40000009536743","img/flower5.png","76","58.19999980926514","3","1","1","2","1,0,0,1,1,0,1,0,1","0,0,1,1,0,1,0,1,1","2",""
"","html-keyboard-response","278","103090","0.0-278.0","3AQF3RZ5594XP6IG3M3K10M6MY3F60","APDDA1Y59RHV9","3566S7OX5D5NH74JOVOPTTMK8IR17K","","null","<img src=""img/flower5.png"" style=""width:200px; border:14px solid green;"">","null","","","","","","","","",""
"","image-keyboard-response","279","103131","0.0-279.0","3AQF3RZ5594XP6IG3M3K10M6MY3F60","APDDA1Y59RHV9","3566S7OX5D5NH74JOVOPTTMK8IR17K","","40.19999980926514","img/flower3.png","76","41.40000009536743","3","1","3","2","1,0,0,1,1,0,1,0,1","0,0,1,1,0,1,0,1,1","2",""
"","html-keyboard-response","280","103438","0.0-280.0","3AQF3RZ5594XP6IG3M3K10M6MY3F60","APDDA1Y59RHV9","3566S7OX5D5NH74JOVOPTTMK8IR17K","","null","<img src=""img/flower3.png"" style=""width:200px; border:14px solid green;"">","null","","","","","","","","",""
"","image-keyboard-response","281","103476","0.0-281.0","3AQF3RZ5594XP6IG3M3K10M6MY3F60","APDDA1Y59RHV9","3566S7OX5D5NH74JOVOPTTMK8IR17K","","36.5","img/flower5.png","76","37.90000009536743","3","1","1","2","1,0,0,1,1,0,1,0,1","0,0,1,1,0,1,0,1,1","2",""
"","html-keyboard-response","282","103778","0.0-282.0","3AQF3RZ5594XP6IG3M3K10M6MY3F60","APDDA1Y59RHV9","3566S7OX5D5NH74JOVOPTTMK8IR17K","","null","<img src=""img/flower5.png"" style=""width:200px; border:14px solid green;"">","null","","","","","","","","",""
"","image-keyboard-response","283","103812","0.0-283.0","3AQF3RZ5594XP6IG3M3K10M6MY3F60","APDDA1Y59RHV9","3566S7OX5D5NH74JOVOPTTMK8IR17K","","33","img/flower2.png","76","34.40000009536743","3","1","2","2","1,0,0,1,1,0,1,0,1","0,0,1,1,0,1,0,1,1","2",""
"","html-keyboard-response","284","104114","0.0-284.0","3AQF3RZ5594XP6IG3M3K10M6MY3F60","APDDA1Y59RHV9","3566S7OX5D5NH74JOVOPTTMK8IR17K","","null","<img src=""img/flower2.png"" style=""width:200px; border:14px solid green;"">","null","","","","","","","","",""
"","image-keyboard-response","285","104147","0.0-285.0","3AQF3RZ5594XP6IG3M3K10M6MY3F60","APDDA1Y59RHV9","3566S7OX5D5NH74JOVOPTTMK8IR17K","","31","img/flower3.png","76","32","3","1","3","2","1,0,0,1,1,0,1,0,1","0,0,1,1,0,1,0,1,1","2",""
"","html-keyboard-response","286","104448","0.0-286.0","3AQF3RZ5594XP6IG3M3K10M6MY3F60","APDDA1Y59RHV9","3566S7OX5D5NH74JOVOPTTMK8IR17K","","null","<img src=""img/flower3.png"" style=""width:200px; border:14px solid green;"">","null","","","","","","","","",""
"","image-keyboard-response","287","104483","0.0-287.0","3AQF3RZ5594XP6IG3M3K10M6MY3F60","APDDA1Y59RHV9","3566S7OX5D5NH74JOVOPTTMK8IR17K","","33.5","img/flower2.png","76","34.60000038146973","3","1","2","2","1,0,0,1,1,0,1,0,1","0,0,1,1,0,1,0,1,1","2",""
"","html-keyboard-response","288","104785","0.0-288.0","3AQF3RZ5594XP6IG3M3K10M6MY3F60","APDDA1Y59RHV9","3566S7OX5D5NH74JOVOPTTMK8IR17K","","null","<img src=""img/flower2.png"" style=""width:200px; border:14px solid green;"">","null","","","","","","","","",""
"","image-keyboard-response","289","104811","0.0-289.0","3AQF3RZ5594XP6IG3M3K10M6MY3F60","APDDA1Y59RHV9","3566S7OX5D5NH74JOVOPTTMK8IR17K","","24.59999990463257","img/flower2.png","76","25.800000190734863","3","1","2","2","1,0,0,1,1,0,1,0,1","0,0,1,1,0,1,0,1,1","2",""
"","html-keyboard-response","290","105113","0.0-290.0","3AQF3RZ5594XP6IG3M3K10M6MY3F60","APDDA1Y59RHV9","3566S7OX5D5NH74JOVOPTTMK8IR17K","","null","<img src=""img/flower2.png"" style=""width:200px; border:14px solid green;"">","null","","","","","","","","",""
"","image-keyboard-response","291","105139","0.0-291.0","3AQF3RZ5594XP6IG3M3K10M6MY3F60","APDDA1Y59RHV9","3566S7OX5D5NH74JOVOPTTMK8IR17K","","24.699999809265137","img/flower5.png","76","26","3","1","1","2","1,0,0,1,1,0,1,0,1","0,0,1,1,0,1,0,1,1","2",""
"","html-keyboard-response","292","105441","0.0-292.0","3AQF3RZ5594XP6IG3M3K10M6MY3F60","APDDA1Y59RHV9","3566S7OX5D5NH74JOVOPTTMK8IR17K","","null","<img src=""img/flower5.png"" style=""width:200px; border:14px solid green;"">","null","","","","","","","","",""
"","image-keyboard-response","293","105779","0.0-293.0","3AQF3RZ5594XP6IG3M3K10M6MY3F60","APDDA1Y59RHV9","3566S7OX5D5NH74JOVOPTTMK8IR17K","","337.7000002861023","img/flower2.png","76","338.19999980926514","3","1","2","2","1,0,0,1,1,0,1,0,1","0,0,1,1,0,1,0,1,1","2",""
"","html-keyboard-response","294","106081","0.0-294.0","3AQF3RZ5594XP6IG3M3K10M6MY3F60","APDDA1Y59RHV9","3566S7OX5D5NH74JOVOPTTMK8IR17K","","null","<img src=""img/flower2.png"" style=""width:200px; border:14px solid green;"">","null","","","","","","","","",""
"","image-keyboard-response","295","106107","0.0-295.0","3AQF3RZ5594XP6IG3M3K10M6MY3F60","APDDA1Y59RHV9","3566S7OX5D5NH74JOVOPTTMK8IR17K","","24.59999990463257","img/flower3.png","76","25.59999990463257","3","1","3","2","1,0,0,1,1,0,1,0,1","0,0,1,1,0,1,0,1,1","2",""
"","html-keyboard-response","296","106410","0.0-296.0","3AQF3RZ5594XP6IG3M3K10M6MY3F60","APDDA1Y59RHV9","3566S7OX5D5NH74JOVOPTTMK8IR17K","","null","<img src=""img/flower3.png"" style=""width:200px; border:14px solid green;"">","null","","","","","","","","",""
"","image-keyboard-response","297","106436","0.0-297.0","3AQF3RZ5594XP6IG3M3K10M6MY3F60","APDDA1Y59RHV9","3566S7OX5D5NH74JOVOPTTMK8IR17K","","24.40000009536743","img/flower5.png","76","25.699999809265137","3","1","1","2","1,0,0,1,1,0,1,0,1","0,0,1,1,0,1,0,1,1","2",""
"","html-keyboard-response","298","106738","0.0-298.0","3AQF3RZ5594XP6IG3M3K10M6MY3F60","APDDA1Y59RHV9","3566S7OX5D5NH74JOVOPTTMK8IR17K","","null","<img src=""img/flower5.png"" style=""width:200px; border:14px solid green;"">","null","","","","","","","","",""
"","image-keyboard-response","299","106771","0.0-299.0","3AQF3RZ5594XP6IG3M3K10M6MY3F60","APDDA1Y59RHV9","3566S7OX5D5NH74JOVOPTTMK8IR17K","","31.699999809265137","img/flower3.png","76","32.90000009536743","3","1","3","2","1,0,0,1,1,0,1,0,1","0,0,1,1,0,1,0,1,1","2",""
"","html-keyboard-response","300","107074","0.0-300.0","3AQF3RZ5594XP6IG3M3K10M6MY3F60","APDDA1Y59RHV9","3566S7OX5D5NH74JOVOPTTMK8IR17K","","null","<img src=""img/flower3.png"" style=""width:200px; border:14px solid green;"">","null","","","","","","","","",""
"","image-keyboard-response","301","107107","0.0-301.0","3AQF3RZ5594XP6IG3M3K10M6MY3F60","APDDA1Y59RHV9","3566S7OX5D5NH74JOVOPTTMK8IR17K","","32","img/flower5.png","76","33.299999713897705","3","1","1","2","1,0,0,1,1,0,1,0,1","0,0,1,1,0,1,0,1,1","2",""
"","html-keyboard-response","302","107410","0.0-302.0","3AQF3RZ5594XP6IG3M3K10M6MY3F60","APDDA1Y59RHV9","3566S7OX5D5NH74JOVOPTTMK8IR17K","","null","<img src=""img/flower5.png"" style=""width:200px; border:14px solid green;"">","null","","","","","","","","",""
"","image-keyboard-response","303","107451","0.0-303.0","3AQF3RZ5594XP6IG3M3K10M6MY3F60","APDDA1Y59RHV9","3566S7OX5D5NH74JOVOPTTMK8IR17K","","40.19999980926514","img/flower2.png","76","41.40000009536743","3","1","2","2","1,0,0,1,1,0,1,0,1","0,0,1,1,0,1,0,1,1","2",""
"","html-keyboard-response","304","107753","0.0-304.0","3AQF3RZ5594XP6IG3M3K10M6MY3F60","APDDA1Y59RHV9","3566S7OX5D5NH74JOVOPTTMK8IR17K","","null","<img src=""img/flower2.png"" style=""width:200px; border:14px solid green;"">","null","","","","","","","","",""
"","image-keyboard-response","305","108084","0.0-305.0","3AQF3RZ5594XP6IG3M3K10M6MY3F60","APDDA1Y59RHV9","3566S7OX5D5NH74JOVOPTTMK8IR17K","","329.40000009536743","img/flower5.png","76","330.59999990463257","3","1","1","2","1,0,0,1,1,0,1,0,1","0,0,1,1,0,1,0,1,1","2",""
"","html-keyboard-response","306","108386","0.0-306.0","3AQF3RZ5594XP6IG3M3K10M6MY3F60","APDDA1Y59RHV9","3566S7OX5D5NH74JOVOPTTMK8IR17K","","null","<img src=""img/flower5.png"" style=""width:200px; border:14px solid green;"">","null","","","","","","","","",""
"","image-keyboard-response","307","108412","0.0-307.0","3AQF3RZ5594XP6IG3M3K10M6MY3F60","APDDA1Y59RHV9","3566S7OX5D5NH74JOVOPTTMK8IR17K","","23.90000009536743","img/flower3.png","76","25","3","1","3","2","1,0,0,1,1,0,1,0,1","0,0,1,1,0,1,0,1,1","2",""
"","html-keyboard-response","308","108714","0.0-308.0","3AQF3RZ5594XP6IG3M3K10M6MY3F60","APDDA1Y59RHV9","3566S7OX5D5NH74JOVOPTTMK8IR17K","","null","<img src=""img/flower3.png"" style=""width:200px; border:14px solid green;"">","null","","","","","","","","",""
"","image-keyboard-response","309","108730","0.0-309.0","3AQF3RZ5594XP6IG3M3K10M6MY3F60","APDDA1Y59RHV9","3566S7OX5D5NH74JOVOPTTMK8IR17K","","16.09999990463257","img/flower2.png","76","16.5","3","1","2","2","1,0,0,1,1,0,1,0,1","0,0,1,1,0,1,0,1,1","2",""
"","html-keyboard-response","310","109032","0.0-310.0","3AQF3RZ5594XP6IG3M3K10M6MY3F60","APDDA1Y59RHV9","3566S7OX5D5NH74JOVOPTTMK8IR17K","","null","<img src=""img/flower2.png"" style=""width:200px; border:14px solid green;"">","null","","","","","","","","",""
"","image-keyboard-response","311","109044","0.0-311.0","3AQF3RZ5594XP6IG3M3K10M6MY3F60","APDDA1Y59RHV9","3566S7OX5D5NH74JOVOPTTMK8IR17K","","10.800000190734863","img/flower3.png","76","11.900000095367432","3","1","3","2","1,0,0,1,1,0,1,0,1","0,0,1,1,0,1,0,1,1","2",""
"","html-keyboard-response","312","109347","0.0-312.0","3AQF3RZ5594XP6IG3M3K10M6MY3F60","APDDA1Y59RHV9","3566S7OX5D5NH74JOVOPTTMK8IR17K","","null","<img src=""img/flower3.png"" style=""width:200px; border:14px solid green;"">","null","","","","","","","","",""
"","image-keyboard-response","313","109372","0.0-313.0","3AQF3RZ5594XP6IG3M3K10M6MY3F60","APDDA1Y59RHV9","3566S7OX5D5NH74JOVOPTTMK8IR17K","","23.5","img/flower5.png","76","24.399999618530273","3","1","1","2","1,0,0,1,1,0,1,0,1","0,0,1,1,0,1,0,1,1","2",""
"","html-keyboard-response","314","109674","0.0-314.0","3AQF3RZ5594XP6IG3M3K10M6MY3F60","APDDA1Y59RHV9","3566S7OX5D5NH74JOVOPTTMK8IR17K","","null","<img src=""img/flower5.png"" style=""width:200px; border:14px solid green;"">","null","","","","","","","","",""
"","image-keyboard-response","315","109692","0.0-315.0","3AQF3RZ5594XP6IG3M3K10M6MY3F60","APDDA1Y59RHV9","3566S7OX5D5NH74JOVOPTTMK8IR17K","","16.5","img/flower3.png","76","17.700000286102295","3","1","3","2","1,0,0,1,1,0,1,0,1","0,0,1,1,0,1,0,1,1","2",""
"","html-keyboard-response","316","109994","0.0-316.0","3AQF3RZ5594XP6IG3M3K10M6MY3F60","APDDA1Y59RHV9","3566S7OX5D5NH74JOVOPTTMK8IR17K","","null","<img src=""img/flower3.png"" style=""width:200px; border:14px solid green;"">","null","","","","","","","","",""
"","image-keyboard-response","317","109995","0.0-317.0","3AQF3RZ5594XP6IG3M3K10M6MY3F60","APDDA1Y59RHV9","3566S7OX5D5NH74JOVOPTTMK8IR17K","","0.09999990463256836","img/flower2.png","76","1","3","1","2","2","1,0,0,1,1,0,1,0,1","0,0,1,1,0,1,0,1,1","2",""
"","html-keyboard-response","318","110297","0.0-318.0","3AQF3RZ5594XP6IG3M3K10M6MY3F60","APDDA1Y59RHV9","3566S7OX5D5NH74JOVOPTTMK8IR17K","","null","<img src=""img/flower2.png"" style=""width:200px; border:14px solid green;"">","null","","","","","","","","",""
"","image-keyboard-response","319","110331","0.0-319.0","3AQF3RZ5594XP6IG3M3K10M6MY3F60","APDDA1Y59RHV9","3566S7OX5D5NH74JOVOPTTMK8IR17K","","32.40000009536743","img/flower2.png","76","33.40000009536743","3","1","2","2","1,0,0,1,1,0,1,0,1","0,0,1,1,0,1,0,1,1","2",""
"","html-keyboard-response","320","110631","0.0-320.0","3AQF3RZ5594XP6IG3M3K10M6MY3F60","APDDA1Y59RHV9","3566S7OX5D5NH74JOVOPTTMK8IR17K","","null","<img src=""img/flower2.png"" style=""width:200px; border:14px solid green;"">","null","","","","","","","","",""
"","image-keyboard-response","321","110915","0.0-321.0","3AQF3RZ5594XP6IG3M3K10M6MY3F60","APDDA1Y59RHV9","3566S7OX5D5NH74JOVOPTTMK8IR17K","","283.2999997138977","img/flower2.png","76","284","3","1","2","2","1,0,0,1,1,0,1,0,1","0,0,1,1,0,1,0,1,1","2",""
"","html-keyboard-response","322","111218","0.0-322.0","3AQF3RZ5594XP6IG3M3K10M6MY3F60","APDDA1Y59RHV9","3566S7OX5D5NH74JOVOPTTMK8IR17K","","null","<img src=""img/flower2.png"" style=""width:200px; border:14px solid green;"">","null","","","","","","","","",""
"","image-keyboard-response","323","111500","0.0-323.0","3AQF3RZ5594XP6IG3M3K10M6MY3F60","APDDA1Y59RHV9","3566S7OX5D5NH74JOVOPTTMK8IR17K","","280.80000019073486","img/flower2.png","76","281.5","3","1","2","2","1,0,0,1,1,0,1,0,1","0,0,1,1,0,1,0,1,1","2",""
"","html-keyboard-response","324","111802","0.0-324.0","3AQF3RZ5594XP6IG3M3K10M6MY3F60","APDDA1Y59RHV9","3566S7OX5D5NH74JOVOPTTMK8IR17K","","null","<img src=""img/flower2.png"" style=""width:200px; border:14px solid green;"">","null","","","","","","","","",""
"","image-keyboard-response","325","112116","0.0-325.0","3AQF3RZ5594XP6IG3M3K10M6MY3F60","APDDA1Y59RHV9","3566S7OX5D5NH74JOVOPTTMK8IR17K","","312.69999980926514","img/flower5.png","76","313.7000002861023","3","1","1","2","1,0,0,1,1,0,1,0,1","0,0,1,1,0,1,0,1,1","2",""
"","html-keyboard-response","326","112418","0.0-326.0","3AQF3RZ5594XP6IG3M3K10M6MY3F60","APDDA1Y59RHV9","3566S7OX5D5NH74JOVOPTTMK8IR17K","","null","<img src=""img/flower5.png"" style=""width:200px; border:14px solid green;"">","null","","","","","","","","",""
"","image-keyboard-response","327","112419","0.0-327.0","3AQF3RZ5594XP6IG3M3K10M6MY3F60","APDDA1Y59RHV9","3566S7OX5D5NH74JOVOPTTMK8IR17K","","0","img/flower3.png","76","0.6999998092651367","3","1","3","2","1,0,0,1,1,0,1,0,1","0,0,1,1,0,1,0,1,1","2",""
"","html-keyboard-response","328","112720","0.0-328.0","3AQF3RZ5594XP6IG3M3K10M6MY3F60","APDDA1Y59RHV9","3566S7OX5D5NH74JOVOPTTMK8IR17K","","null","<img src=""img/flower3.png"" style=""width:200px; border:14px solid green;"">","null","","","","","","","","",""
"","image-keyboard-response","329","112971","0.0-329.0","3AQF3RZ5594XP6IG3M3K10M6MY3F60","APDDA1Y59RHV9","3566S7OX5D5NH74JOVOPTTMK8IR17K","","249","img/flower2.png","76","250.2000002861023","3","1","2","2","1,0,0,1,1,0,1,0,1","0,0,1,1,0,1,0,1,1","2",""
"","html-keyboard-response","330","113272","0.0-330.0","3AQF3RZ5594XP6IG3M3K10M6MY3F60","APDDA1Y59RHV9","3566S7OX5D5NH74JOVOPTTMK8IR17K","","null","<img src=""img/flower2.png"" style=""width:200px; border:14px solid green;"">","null","","","","","","","","",""
"","image-keyboard-response","331","113498","0.0-331.0","3AQF3RZ5594XP6IG3M3K10M6MY3F60","APDDA1Y59RHV9","3566S7OX5D5NH74JOVOPTTMK8IR17K","","225.80000019073486","img/flower3.png","76","226.40000009536743","3","1","3","2","1,0,0,1,1,0,1,0,1","0,0,1,1,0,1,0,1,1","2",""
"","html-keyboard-response","332","113800","0.0-332.0","3AQF3RZ5594XP6IG3M3K10M6MY3F60","APDDA1Y59RHV9","3566S7OX5D5NH74JOVOPTTMK8IR17K","","null","<img src=""img/flower3.png"" style=""width:200px; border:14px solid green;"">","null","","","","","","","","",""
"","image-keyboard-response","333","113818","0.0-333.0","3AQF3RZ5594XP6IG3M3K10M6MY3F60","APDDA1Y59RHV9","3566S7OX5D5NH74JOVOPTTMK8IR17K","","17.5","img/flower2.png","76","18","3","1","2","2","1,0,0,1,1,0,1,0,1","0,0,1,1,0,1,0,1,1","2",""
"","html-keyboard-response","334","114120","0.0-334.0","3AQF3RZ5594XP6IG3M3K10M6MY3F60","APDDA1Y59RHV9","3566S7OX5D5NH74JOVOPTTMK8IR17K","","null","<img src=""img/flower2.png"" style=""width:200px; border:14px solid green;"">","null","","","","","","","","",""
"","image-keyboard-response","335","114380","0.0-335.0","3AQF3RZ5594XP6IG3M3K10M6MY3F60","APDDA1Y59RHV9","3566S7OX5D5NH74JOVOPTTMK8IR17K","","259.40000009536743","img/flower3.png","76","260.1000003814697","3","1","3","2","1,0,0,1,1,0,1,0,1","0,0,1,1,0,1,0,1,1","2",""
"","html-keyboard-response","336","114681","0.0-336.0","3AQF3RZ5594XP6IG3M3K10M6MY3F60","APDDA1Y59RHV9","3566S7OX5D5NH74JOVOPTTMK8IR17K","","null","<img src=""img/flower3.png"" style=""width:200px; border:14px solid green;"">","null","","","","","","","","",""
"","image-keyboard-response","337","114938","0.0-337.0","3AQF3RZ5594XP6IG3M3K10M6MY3F60","APDDA1Y59RHV9","3566S7OX5D5NH74JOVOPTTMK8IR17K","","256.7000002861023","img/flower3.png","76","257.30000019073486","3","1","3","2","1,0,0,1,1,0,1,0,1","0,0,1,1,0,1,0,1,1","2",""
"","html-keyboard-response","338","115240","0.0-338.0","3AQF3RZ5594XP6IG3M3K10M6MY3F60","APDDA1Y59RHV9","3566S7OX5D5NH74JOVOPTTMK8IR17K","","null","<img src=""img/flower3.png"" style=""width:200px; border:14px solid green;"">","null","","","","","","","","",""
"","image-keyboard-response","339","115514","0.0-339.0","3AQF3RZ5594XP6IG3M3K10M6MY3F60","APDDA1Y59RHV9","3566S7OX5D5NH74JOVOPTTMK8IR17K","","274.1000003814697","img/flower5.png","76","274.69999980926514","3","1","1","2","1,0,0,1,1,0,1,0,1","0,0,1,1,0,1,0,1,1","2",""
"","html-keyboard-response","340","115817","0.0-340.0","3AQF3RZ5594XP6IG3M3K10M6MY3F60","APDDA1Y59RHV9","3566S7OX5D5NH74JOVOPTTMK8IR17K","","null","<img src=""img/flower5.png"" style=""width:200px; border:14px solid green;"">","null","","","","","","","","",""
"","image-keyboard-response","341","115844","0.0-341.0","3AQF3RZ5594XP6IG3M3K10M6MY3F60","APDDA1Y59RHV9","3566S7OX5D5NH74JOVOPTTMK8IR17K","","25.40000009536743","img/flower2.png","76","26.800000190734863","3","1","2","2","1,0,0,1,1,0,1,0,1","0,0,1,1,0,1,0,1,1","2",""
"","html-keyboard-response","342","116147","0.0-342.0","3AQF3RZ5594XP6IG3M3K10M6MY3F60","APDDA1Y59RHV9","3566S7OX5D5NH74JOVOPTTMK8IR17K","","null","<img src=""img/flower2.png"" style=""width:200px; border:14px solid green;"">","null","","","","","","","","",""
"","image-keyboard-response","343","116395","0.0-343.0","3AQF3RZ5594XP6IG3M3K10M6MY3F60","APDDA1Y59RHV9","3566S7OX5D5NH74JOVOPTTMK8IR17K","","247","img/flower2.png","76","247.90000009536743","3","1","2","2","1,0,0,1,1,0,1,0,1","0,0,1,1,0,1,0,1,1","2",""
"","html-keyboard-response","344","116697","0.0-344.0","3AQF3RZ5594XP6IG3M3K10M6MY3F60","APDDA1Y59RHV9","3566S7OX5D5NH74JOVOPTTMK8IR17K","","null","<img src=""img/flower2.png"" style=""width:200px; border:14px solid green;"">","null","","","","","","","","",""
"","image-keyboard-response","345","116724","0.0-345.0","3AQF3RZ5594XP6IG3M3K10M6MY3F60","APDDA1Y59RHV9","3566S7OX5D5NH74JOVOPTTMK8IR17K","","25.799999713897705","img/flower5.png","76","27","3","1","1","2","1,0,0,1,1,0,1,0,1","0,0,1,1,0,1,0,1,1","2",""
"","html-keyboard-response","346","117026","0.0-346.0","3AQF3RZ5594XP6IG3M3K10M6MY3F60","APDDA1Y59RHV9","3566S7OX5D5NH74JOVOPTTMK8IR17K","","null","<img src=""img/flower5.png"" style=""width:200px; border:14px solid green;"">","null","","","","","","","","",""
"","image-keyboard-response","347","117323","0.0-347.0","3AQF3RZ5594XP6IG3M3K10M6MY3F60","APDDA1Y59RHV9","3566S7OX5D5NH74JOVOPTTMK8IR17K","","295.7999997138977","img/flower2.png","76","296.80000019073486","3","1","2","2","1,0,0,1,1,0,1,0,1","0,0,1,1,0,1,0,1,1","2",""
"","html-keyboard-response","348","117625","0.0-348.0","3AQF3RZ5594XP6IG3M3K10M6MY3F60","APDDA1Y59RHV9","3566S7OX5D5NH74JOVOPTTMK8IR17K","","null","<img src=""img/flower2.png"" style=""width:200px; border:14px solid green;"">","null","","","","","","","","",""
"","image-keyboard-response","349","117835","0.0-349.0","3AQF3RZ5594XP6IG3M3K10M6MY3F60","APDDA1Y59RHV9","3566S7OX5D5NH74JOVOPTTMK8IR17K","","209.40000009536743","img/flower2.png","76","210","3","1","2","2","1,0,0,1,1,0,1,0,1","0,0,1,1,0,1,0,1,1","2",""
"","html-keyboard-response","350","118136","0.0-350.0","3AQF3RZ5594XP6IG3M3K10M6MY3F60","APDDA1Y59RHV9","3566S7OX5D5NH74JOVOPTTMK8IR17K","","null","<img src=""img/flower2.png"" style=""width:200px; border:14px solid green;"">","null","","","","","","","","",""
"","image-keyboard-response","351","118420","0.0-351.0","3AQF3RZ5594XP6IG3M3K10M6MY3F60","APDDA1Y59RHV9","3566S7OX5D5NH74JOVOPTTMK8IR17K","","282.19999980926514","img/flower5.png","76","283.40000009536743","3","1","1","2","1,0,0,1,1,0,1,0,1","0,0,1,1,0,1,0,1,1","2",""
"","html-keyboard-response","352","118722","0.0-352.0","3AQF3RZ5594XP6IG3M3K10M6MY3F60","APDDA1Y59RHV9","3566S7OX5D5NH74JOVOPTTMK8IR17K","","null","<img src=""img/flower5.png"" style=""width:200px; border:14px solid green;"">","null","","","","","","","","",""
"","image-keyboard-response","353","118788","0.0-353.0","3AQF3RZ5594XP6IG3M3K10M6MY3F60","APDDA1Y59RHV9","3566S7OX5D5NH74JOVOPTTMK8IR17K","","65.09999990463257","img/flower5.png","76","65.80000019073486","3","1","1","2","1,0,0,1,1,0,1,0,1","0,0,1,1,0,1,0,1,1","2",""
"","html-keyboard-response","354","119091","0.0-354.0","3AQF3RZ5594XP6IG3M3K10M6MY3F60","APDDA1Y59RHV9","3566S7OX5D5NH74JOVOPTTMK8IR17K","","null","<img src=""img/flower5.png"" style=""width:200px; border:14px solid green;"">","null","","","","","","","","",""
"","image-keyboard-response","355","119148","0.0-355.0","3AQF3RZ5594XP6IG3M3K10M6MY3F60","APDDA1Y59RHV9","3566S7OX5D5NH74JOVOPTTMK8IR17K","","56","img/flower3.png","76","57.30000019073486","3","1","3","2","1,0,0,1,1,0,1,0,1","0,0,1,1,0,1,0,1,1","2",""
"","html-keyboard-response","356","119457","0.0-356.0","3AQF3RZ5594XP6IG3M3K10M6MY3F60","APDDA1Y59RHV9","3566S7OX5D5NH74JOVOPTTMK8IR17K","","null","<img src=""img/flower3.png"" style=""width:200px; border:14px solid green;"">","null","","","","","","","","",""
"","image-keyboard-response","357","119516","0.0-357.0","3AQF3RZ5594XP6IG3M3K10M6MY3F60","APDDA1Y59RHV9","3566S7OX5D5NH74JOVOPTTMK8IR17K","","58","img/flower2.png","76","59.19999980926514","3","1","2","2","1,0,0,1,1,0,1,0,1","0,0,1,1,0,1,0,1,1","2",""
"","html-keyboard-response","358","119819","0.0-358.0","3AQF3RZ5594XP6IG3M3K10M6MY3F60","APDDA1Y59RHV9","3566S7OX5D5NH74JOVOPTTMK8IR17K","","null","<img src=""img/flower2.png"" style=""width:200px; border:14px solid green;"">","null","","","","","","","","",""
"","image-keyboard-response","359","119860","0.0-359.0","3AQF3RZ5594XP6IG3M3K10M6MY3F60","APDDA1Y59RHV9","3566S7OX5D5NH74JOVOPTTMK8IR17K","","40.09999990463257","img/flower5.png","76","41.30000019073486","3","1","1","2","1,0,0,1,1,0,1,0,1","0,0,1,1,0,1,0,1,1","2",""
"","html-keyboard-response","360","120163","0.0-360.0","3AQF3RZ5594XP6IG3M3K10M6MY3F60","APDDA1Y59RHV9","3566S7OX5D5NH74JOVOPTTMK8IR17K","","null","<img src=""img/flower5.png"" style=""width:200px; border:14px solid green;"">","null","","","","","","","","",""
"","image-keyboard-response","361","120188","0.0-361.0","3AQF3RZ5594XP6IG3M3K10M6MY3F60","APDDA1Y59RHV9","3566S7OX5D5NH74JOVOPTTMK8IR17K","","23.299999713897705","img/flower5.png","76","24.59999990463257","3","1","1","2","1,0,0,1,1,0,1,0,1","0,0,1,1,0,1,0,1,1","2",""
"","html-keyboard-response","362","120490","0.0-362.0","3AQF3RZ5594XP6IG3M3K10M6MY3F60","APDDA1Y59RHV9","3566S7OX5D5NH74JOVOPTTMK8IR17K","","null","<img src=""img/flower5.png"" style=""width:200px; border:14px solid green;"">","null","","","","","","","","",""
"","instructions","363","123399","0.0-363.0","3AQF3RZ5594XP6IG3M3K10M6MY3F60","APDDA1Y59RHV9","3566S7OX5D5NH74JOVOPTTMK8IR17K","[{""page_index"":0,""viewing_time"":2908.4000000953674}]","2908.5999999046326","","","","","","","","","","",""
"","survey-text","364","129754","0.0-364.0","3AQF3RZ5594XP6IG3M3K10M6MY3F60","APDDA1Y59RHV9","3566S7OX5D5NH74JOVOPTTMK8IR17K","","6352.099999904633","","","","","","","","","","","{""Q0"":""APDDA1Y59RHV9""}"
