"success","trial_type","trial_index","time_elapsed","internal_node_id","assignmentID","mturkID","hitID","view_history","rt","stimulus","key_press","reactionTime","a","r","s","cond","reward_cond","reward_cond_actual","reward_matrix_idx","responses"
"true","fullscreen","0","2164","0.0-0.0","36PW28KO40I66UUNYO0QZN3S6G0EAT","API17TMVQ2J7Z","3PEG1BH7AEDCPKTV9M6N3A4F0EHKBR","","","","","","","","","","","","",""
"","instructions","1","8106","0.0-1.0","36PW28KO40I66UUNYO0QZN3S6G0EAT","API17TMVQ2J7Z","3PEG1BH7AEDCPKTV9M6N3A4F0EHKBR","[{""page_index"":0,""viewing_time"":579},{""page_index"":1,""viewing_time"":759},{""page_index"":2,""viewing_time"":441},{""page_index"":3,""viewing_time"":535},{""page_index"":4,""viewing_time"":1041},{""page_index"":5,""viewing_time"":911},{""page_index"":6,""viewing_time"":792},{""page_index"":7,""viewing_time"":881}]","5939","","","","","","","","","","",""
"","image-keyboard-response","2","8602","0.0-2.0","36PW28KO40I66UUNYO0QZN3S6G0EAT","API17TMVQ2J7Z","3PEG1BH7AEDCPKTV9M6N3A4F0EHKBR","","495","img/flower5.png","74","496","1","1","1","1","1,0.333,0.333,0.333,1,0.333,0.333,0.333,1","1,0.333,0.333,0.333,1,0.333,0.333,0.333,1","1",""
"","html-keyboard-response","3","8911","0.0-3.0","36PW28KO40I66UUNYO0QZN3S6G0EAT","API17TMVQ2J7Z","3PEG1BH7AEDCPKTV9M6N3A4F0EHKBR","","null","<img src=""img/flower5.png"" style=""width:200px; border:14px solid green;"">","null","","","","","","","","",""
"","image-keyboard-response","4","8980","0.0-4.0","36PW28KO40I66UUNYO0QZN3S6G0EAT","API17TMVQ2J7Z","3PEG1BH7AEDCPKTV9M6N3A4F0EHKBR","","67","img/flower5.png","75","68","2","1","1","1","1,0.333,0.333,0.333,1,0.333,0.333,0.333,1","1,0.333,0.333,0.333,1,0.333,0.333,0.333,1","1",""
"","html-keyboard-response","5","9296","0.0-5.0","36PW28KO40I66UUNYO0QZN3S6G0EAT","API17TMVQ2J7Z","3PEG1BH7AEDCPKTV9M6N3A4F0EHKBR","","null","<img src=""img/flower5.png"" style=""width:200px; border:14px solid green;"">","null","","","","","","","","",""
"","image-keyboard-response","6","9567","0.0-6.0","36PW28KO40I66UUNYO0QZN3S6G0EAT","API17TMVQ2J7Z","3PEG1BH7AEDCPKTV9M6N3A4F0EHKBR","","269","img/flower5.png","75","270","2","1","1","1","1,0.333,0.333,0.333,1,0.333,0.333,0.333,1","1,0.333,0.333,0.333,1,0.333,0.333,0.333,1","1",""
"","html-keyboard-response","7","9882","0.0-7.0","36PW28KO40I66UUNYO0QZN3S6G0EAT","API17TMVQ2J7Z","3PEG1BH7AEDCPKTV9M6N3A4F0EHKBR","","null","<img src=""img/flower5.png"" style=""width:200px; border:14px solid green;"">","null","","","","","","","","",""
"","image-keyboard-response","8","10011","0.0-8.0","36PW28KO40I66UUNYO0QZN3S6G0EAT","API17TMVQ2J7Z","3PEG1BH7AEDCPKTV9M6N3A4F0EHKBR","","128","img/flower5.png","75","129","2","1","1","1","1,0.333,0.333,0.333,1,0.333,0.333,0.333,1","1,0.333,0.333,0.333,1,0.333,0.333,0.333,1","1",""
"","html-keyboard-response","9","10314","0.0-9.0","36PW28KO40I66UUNYO0QZN3S6G0EAT","API17TMVQ2J7Z","3PEG1BH7AEDCPKTV9M6N3A4F0EHKBR","","null","<img src=""img/flower5.png"" style=""width:200px; border:14px solid green;"">","null","","","","","","","","",""
"","image-keyboard-response","10","10470","0.0-10.0","36PW28KO40I66UUNYO0QZN3S6G0EAT","API17TMVQ2J7Z","3PEG1BH7AEDCPKTV9M6N3A4F0EHKBR","","155","img/flower3.png","75","155","2","1","2","1","1,0.333,0.333,0.333,1,0.333,0.333,0.333,1","1,0.333,0.333,0.333,1,0.333,0.333,0.333,1","1",""
"","html-keyboard-response","11","10786","0.0-11.0","36PW28KO40I66UUNYO0QZN3S6G0EAT","API17TMVQ2J7Z","3PEG1BH7AEDCPKTV9M6N3A4F0EHKBR","","null","<img src=""img/flower3.png"" style=""width:200px; border:14px solid green;"">","null","","","","","","","","",""
"","image-keyboard-response","12","10902","0.0-12.0","36PW28KO40I66UUNYO0QZN3S6G0EAT","API17TMVQ2J7Z","3PEG1BH7AEDCPKTV9M6N3A4F0EHKBR","","114","img/flower4.png","75","116","2","0","3","1","1,0.333,0.333,0.333,1,0.333,0.333,0.333,1","1,0.333,0.333,0.333,1,0.333,0.333,0.333,1","1",""
"","html-keyboard-response","13","11221","0.0-13.0","36PW28KO40I66UUNYO0QZN3S6G0EAT","API17TMVQ2J7Z","3PEG1BH7AEDCPKTV9M6N3A4F0EHKBR","","null","<img src=""img/flower4.png"" style=""width:200px;border:14px solid red;"">","null","","","","","","","","",""
"","image-keyboard-response","14","11392","0.0-14.0","36PW28KO40I66UUNYO0QZN3S6G0EAT","API17TMVQ2J7Z","3PEG1BH7AEDCPKTV9M6N3A4F0EHKBR","","169","img/flower3.png","76","171","3","0","2","1","1,0.333,0.333,0.333,1,0.333,0.333,0.333,1","1,0.333,0.333,0.333,1,0.333,0.333,0.333,1","1",""
"","html-keyboard-response","15","11706","0.0-15.0","36PW28KO40I66UUNYO0QZN3S6G0EAT","API17TMVQ2J7Z","3PEG1BH7AEDCPKTV9M6N3A4F0EHKBR","","null","<img src=""img/flower3.png"" style=""width:200px;border:14px solid red;"">","null","","","","","","","","",""
"","image-keyboard-response","16","11926","0.0-16.0","36PW28KO40I66UUNYO0QZN3S6G0EAT","API17TMVQ2J7Z","3PEG1BH7AEDCPKTV9M6N3A4F0EHKBR","","218","img/flower5.png","74","220","1","1","1","1","1,0.333,0.333,0.333,1,0.333,0.333,0.333,1","1,0.333,0.333,0.333,1,0.333,0.333,0.333,1","1",""
"","html-keyboard-response","17","12230","0.0-17.0","36PW28KO40I66UUNYO0QZN3S6G0EAT","API17TMVQ2J7Z","3PEG1BH7AEDCPKTV9M6N3A4F0EHKBR","","null","<img src=""img/flower5.png"" style=""width:200px; border:14px solid green;"">","null","","","","","","","","",""
"","image-keyboard-response","18","12348","0.0-18.0","36PW28KO40I66UUNYO0QZN3S6G0EAT","API17TMVQ2J7Z","3PEG1BH7AEDCPKTV9M6N3A4F0EHKBR","","118","img/flower5.png","76","118","3","0","1","1","1,0.333,0.333,0.333,1,0.333,0.333,0.333,1","1,0.333,0.333,0.333,1,0.333,0.333,0.333,1","1",""
"","html-keyboard-response","19","12661","0.0-19.0","36PW28KO40I66UUNYO0QZN3S6G0EAT","API17TMVQ2J7Z","3PEG1BH7AEDCPKTV9M6N3A4F0EHKBR","","null","<img src=""img/flower5.png"" style=""width:200px;border:14px solid red;"">","null","","","","","","","","",""
"","image-keyboard-response","20","12822","0.0-20.0","36PW28KO40I66UUNYO0QZN3S6G0EAT","API17TMVQ2J7Z","3PEG1BH7AEDCPKTV9M6N3A4F0EHKBR","","160","img/flower4.png","76","161","3","1","3","1","1,0.333,0.333,0.333,1,0.333,0.333,0.333,1","1,0.333,0.333,0.333,1,0.333,0.333,0.333,1","1",""
"","html-keyboard-response","21","13132","0.0-21.0","36PW28KO40I66UUNYO0QZN3S6G0EAT","API17TMVQ2J7Z","3PEG1BH7AEDCPKTV9M6N3A4F0EHKBR","","null","<img src=""img/flower4.png"" style=""width:200px; border:14px solid green;"">","null","","","","","","","","",""
"","image-keyboard-response","22","13252","0.0-22.0","36PW28KO40I66UUNYO0QZN3S6G0EAT","API17TMVQ2J7Z","3PEG1BH7AEDCPKTV9M6N3A4F0EHKBR","","120","img/flower5.png","74","120","1","1","1","1","1,0.333,0.333,0.333,1,0.333,0.333,0.333,1","1,0.333,0.333,0.333,1,0.333,0.333,0.333,1","1",""
"","html-keyboard-response","23","13563","0.0-23.0","36PW28KO40I66UUNYO0QZN3S6G0EAT","API17TMVQ2J7Z","3PEG1BH7AEDCPKTV9M6N3A4F0EHKBR","","null","<img src=""img/flower5.png"" style=""width:200px; border:14px solid green;"">","null","","","","","","","","",""
"","image-keyboard-response","24","13779","0.0-24.0","36PW28KO40I66UUNYO0QZN3S6G0EAT","API17TMVQ2J7Z","3PEG1BH7AEDCPKTV9M6N3A4F0EHKBR","","215","img/flower4.png","75","215","2","0","3","1","1,0.333,0.333,0.333,1,0.333,0.333,0.333,1","1,0.333,0.333,0.333,1,0.333,0.333,0.333,1","1",""
"","html-keyboard-response","25","14080","0.0-25.0","36PW28KO40I66UUNYO0QZN3S6G0EAT","API17TMVQ2J7Z","3PEG1BH7AEDCPKTV9M6N3A4F0EHKBR","","null","<img src=""img/flower4.png"" style=""width:200px;border:14px solid red;"">","null","","","","","","","","",""
"","image-keyboard-response","26","14232","0.0-26.0","36PW28KO40I66UUNYO0QZN3S6G0EAT","API17TMVQ2J7Z","3PEG1BH7AEDCPKTV9M6N3A4F0EHKBR","","149","img/flower4.png","76","150","3","1","3","1","1,0.333,0.333,0.333,1,0.333,0.333,0.333,1","1,0.333,0.333,0.333,1,0.333,0.333,0.333,1","1",""
"","html-keyboard-response","27","14535","0.0-27.0","36PW28KO40I66UUNYO0QZN3S6G0EAT","API17TMVQ2J7Z","3PEG1BH7AEDCPKTV9M6N3A4F0EHKBR","","null","<img src=""img/flower4.png"" style=""width:200px; border:14px solid green;"">","null","","","","","","","","",""
"","image-keyboard-response","28","14737","0.0-28.0","36PW28KO40I66UUNYO0QZN3S6G0EAT","API17TMVQ2J7Z","3PEG1BH7AEDCPKTV9M6N3A4F0EHKBR","","202","img/flower5.png","74","202","1","1","1","1","1,0.333,0.333,0.333,1,0.333,0.333,0.333,1","1,0.333,0.333,0.333,1,0.333,0.333,0.333,1","1",""
"","html-keyboard-response","29","15053","0.0-29.0","36PW28KO40I66UUNYO0QZN3S6G0EAT","API17TMVQ2J7Z","3PEG1BH7AEDCPKTV9M6N3A4F0EHKBR","","null","<img src=""img/flower5.png"" style=""width:200px; border:14px solid green;"">","null","","","","","","","","",""
"","image-keyboard-response","30","15138","0.0-30.0","36PW28KO40I66UUNYO0QZN3S6G0EAT","API17TMVQ2J7Z","3PEG1BH7AEDCPKTV9M6N3A4F0EHKBR","","85","img/flower4.png","76","86","3","1","3","1","1,0.333,0.333,0.333,1,0.333,0.333,0.333,1","1,0.333,0.333,0.333,1,0.333,0.333,0.333,1","1",""
"","html-keyboard-response","31","15454","0.0-31.0","36PW28KO40I66UUNYO0QZN3S6G0EAT","API17TMVQ2J7Z","3PEG1BH7AEDCPKTV9M6N3A4F0EHKBR","","null","<img src=""img/flower4.png"" style=""width:200px; border:14px solid green;"">","null","","","","","","","","",""
"","image-keyboard-response","32","15620","0.0-32.0","36PW28KO40I66UUNYO0QZN3S6G0EAT","API17TMVQ2J7Z","3PEG1BH7AEDCPKTV9M6N3A4F0EHKBR","","165","img/flower5.png","76","165","3","0","1","1","1,0.333,0.333,0.333,1,0.333,0.333,0.333,1","1,0.333,0.333,0.333,1,0.333,0.333,0.333,1","1",""
"","html-keyboard-response","33","15940","0.0-33.0","36PW28KO40I66UUNYO0QZN3S6G0EAT","API17TMVQ2J7Z","3PEG1BH7AEDCPKTV9M6N3A4F0EHKBR","","null","<img src=""img/flower5.png"" style=""width:200px;border:14px solid red;"">","null","","","","","","","","",""
"","image-keyboard-response","34","16134","0.0-34.0","36PW28KO40I66UUNYO0QZN3S6G0EAT","API17TMVQ2J7Z","3PEG1BH7AEDCPKTV9M6N3A4F0EHKBR","","193","img/flower3.png","74","194","1","1","2","1","1,0.333,0.333,0.333,1,0.333,0.333,0.333,1","1,0.333,0.333,0.333,1,0.333,0.333,0.333,1","1",""
"","html-keyboard-response","35","16440","0.0-35.0","36PW28KO40I66UUNYO0QZN3S6G0EAT","API17TMVQ2J7Z","3PEG1BH7AEDCPKTV9M6N3A4F0EHKBR","","null","<img src=""img/flower3.png"" style=""width:200px; border:14px solid green;"">","null","","","","","","","","",""
"","image-keyboard-response","36","16542","0.0-36.0","36PW28KO40I66UUNYO0QZN3S6G0EAT","API17TMVQ2J7Z","3PEG1BH7AEDCPKTV9M6N3A4F0EHKBR","","102","img/flower4.png","75","103","2","0","3","1","1,0.333,0.333,0.333,1,0.333,0.333,0.333,1","1,0.333,0.333,0.333,1,0.333,0.333,0.333,1","1",""
"","html-keyboard-response","37","16857","0.0-37.0","36PW28KO40I66UUNYO0QZN3S6G0EAT","API17TMVQ2J7Z","3PEG1BH7AEDCPKTV9M6N3A4F0EHKBR","","null","<img src=""img/flower4.png"" style=""width:200px;border:14px solid red;"">","null","","","","","","","","",""
"","image-keyboard-response","38","17023","0.0-38.0","36PW28KO40I66UUNYO0QZN3S6G0EAT","API17TMVQ2J7Z","3PEG1BH7AEDCPKTV9M6N3A4F0EHKBR","","165","img/flower4.png","76","166","3","1","3","1","1,0.333,0.333,0.333,1,0.333,0.333,0.333,1","1,0.333,0.333,0.333,1,0.333,0.333,0.333,1","1",""
"","html-keyboard-response","39","17343","0.0-39.0","36PW28KO40I66UUNYO0QZN3S6G0EAT","API17TMVQ2J7Z","3PEG1BH7AEDCPKTV9M6N3A4F0EHKBR","","null","<img src=""img/flower4.png"" style=""width:200px; border:14px solid green;"">","null","","","","","","","","",""
"","image-keyboard-response","40","17610","0.0-40.0","36PW28KO40I66UUNYO0QZN3S6G0EAT","API17TMVQ2J7Z","3PEG1BH7AEDCPKTV9M6N3A4F0EHKBR","","266","img/flower5.png","76","268","3","1","1","1","1,0.333,0.333,0.333,1,0.333,0.333,0.333,1","1,0.333,0.333,0.333,1,0.333,0.333,0.333,1","1",""
"","html-keyboard-response","41","17945","0.0-41.0","36PW28KO40I66UUNYO0QZN3S6G0EAT","API17TMVQ2J7Z","3PEG1BH7AEDCPKTV9M6N3A4F0EHKBR","","null","<img src=""img/flower5.png"" style=""width:200px; border:14px solid green;"">","null","","","","","","","","",""
"","image-keyboard-response","42","18209","0.0-42.0","36PW28KO40I66UUNYO0QZN3S6G0EAT","API17TMVQ2J7Z","3PEG1BH7AEDCPKTV9M6N3A4F0EHKBR","","263","img/flower3.png","76","264","3","1","2","1","1,0.333,0.333,0.333,1,0.333,0.333,0.333,1","1,0.333,0.333,0.333,1,0.333,0.333,0.333,1","1",""
"","html-keyboard-response","43","18525","0.0-43.0","36PW28KO40I66UUNYO0QZN3S6G0EAT","API17TMVQ2J7Z","3PEG1BH7AEDCPKTV9M6N3A4F0EHKBR","","null","<img src=""img/flower3.png"" style=""width:200px; border:14px solid green;"">","null","","","","","","","","",""
"","image-keyboard-response","44","18738","0.0-44.0","36PW28KO40I66UUNYO0QZN3S6G0EAT","API17TMVQ2J7Z","3PEG1BH7AEDCPKTV9M6N3A4F0EHKBR","","213","img/flower5.png","74","214","1","1","1","1","1,0.333,0.333,0.333,1,0.333,0.333,0.333,1","1,0.333,0.333,0.333,1,0.333,0.333,0.333,1","1",""
"","html-keyboard-response","45","19048","0.0-45.0","36PW28KO40I66UUNYO0QZN3S6G0EAT","API17TMVQ2J7Z","3PEG1BH7AEDCPKTV9M6N3A4F0EHKBR","","null","<img src=""img/flower5.png"" style=""width:200px; border:14px solid green;"">","null","","","","","","","","",""
"","image-keyboard-response","46","19253","0.0-46.0","36PW28KO40I66UUNYO0QZN3S6G0EAT","API17TMVQ2J7Z","3PEG1BH7AEDCPKTV9M6N3A4F0EHKBR","","204","img/flower5.png","75","205","2","0","1","1","1,0.333,0.333,0.333,1,0.333,0.333,0.333,1","1,0.333,0.333,0.333,1,0.333,0.333,0.333,1","1",""
"","html-keyboard-response","47","19565","0.0-47.0","36PW28KO40I66UUNYO0QZN3S6G0EAT","API17TMVQ2J7Z","3PEG1BH7AEDCPKTV9M6N3A4F0EHKBR","","null","<img src=""img/flower5.png"" style=""width:200px;border:14px solid red;"">","null","","","","","","","","",""
"","image-keyboard-response","48","19728","0.0-48.0","36PW28KO40I66UUNYO0QZN3S6G0EAT","API17TMVQ2J7Z","3PEG1BH7AEDCPKTV9M6N3A4F0EHKBR","","162","img/flower3.png","76","164","3","0","2","1","1,0.333,0.333,0.333,1,0.333,0.333,0.333,1","1,0.333,0.333,0.333,1,0.333,0.333,0.333,1","1",""
"","html-keyboard-response","49","20050","0.0-49.0","36PW28KO40I66UUNYO0QZN3S6G0EAT","API17TMVQ2J7Z","3PEG1BH7AEDCPKTV9M6N3A4F0EHKBR","","null","<img src=""img/flower3.png"" style=""width:200px;border:14px solid red;"">","null","","","","","","","","",""
"","image-keyboard-response","50","20232","0.0-50.0","36PW28KO40I66UUNYO0QZN3S6G0EAT","API17TMVQ2J7Z","3PEG1BH7AEDCPKTV9M6N3A4F0EHKBR","","181","img/flower3.png","76","181","3","1","2","1","1,0.333,0.333,0.333,1,0.333,0.333,0.333,1","1,0.333,0.333,0.333,1,0.333,0.333,0.333,1","1",""
"","html-keyboard-response","51","20551","0.0-51.0","36PW28KO40I66UUNYO0QZN3S6G0EAT","API17TMVQ2J7Z","3PEG1BH7AEDCPKTV9M6N3A4F0EHKBR","","null","<img src=""img/flower3.png"" style=""width:200px; border:14px solid green;"">","null","","","","","","","","",""
"","image-keyboard-response","52","20678","0.0-52.0","36PW28KO40I66UUNYO0QZN3S6G0EAT","API17TMVQ2J7Z","3PEG1BH7AEDCPKTV9M6N3A4F0EHKBR","","126","img/flower5.png","74","127","1","1","1","1","1,0.333,0.333,0.333,1,0.333,0.333,0.333,1","1,0.333,0.333,0.333,1,0.333,0.333,0.333,1","1",""
"","html-keyboard-response","53","20983","0.0-53.0","36PW28KO40I66UUNYO0QZN3S6G0EAT","API17TMVQ2J7Z","3PEG1BH7AEDCPKTV9M6N3A4F0EHKBR","","null","<img src=""img/flower5.png"" style=""width:200px; border:14px solid green;"">","null","","","","","","","","",""
"","image-keyboard-response","54","21209","0.0-54.0","36PW28KO40I66UUNYO0QZN3S6G0EAT","API17TMVQ2J7Z","3PEG1BH7AEDCPKTV9M6N3A4F0EHKBR","","225","img/flower3.png","75","226","2","1","2","1","1,0.333,0.333,0.333,1,0.333,0.333,0.333,1","1,0.333,0.333,0.333,1,0.333,0.333,0.333,1","1",""
"","html-keyboard-response","55","21516","0.0-55.0","36PW28KO40I66UUNYO0QZN3S6G0EAT","API17TMVQ2J7Z","3PEG1BH7AEDCPKTV9M6N3A4F0EHKBR","","null","<img src=""img/flower3.png"" style=""width:200px; border:14px solid green;"">","null","","","","","","","","",""
"","image-keyboard-response","56","21741","0.0-56.0","36PW28KO40I66UUNYO0QZN3S6G0EAT","API17TMVQ2J7Z","3PEG1BH7AEDCPKTV9M6N3A4F0EHKBR","","224","img/flower5.png","74","225","1","1","1","1","1,0.333,0.333,0.333,1,0.333,0.333,0.333,1","1,0.333,0.333,0.333,1,0.333,0.333,0.333,1","1",""
"","html-keyboard-response","57","22054","0.0-57.0","36PW28KO40I66UUNYO0QZN3S6G0EAT","API17TMVQ2J7Z","3PEG1BH7AEDCPKTV9M6N3A4F0EHKBR","","null","<img src=""img/flower5.png"" style=""width:200px; border:14px solid green;"">","null","","","","","","","","",""
"","image-keyboard-response","58","22269","0.0-58.0","36PW28KO40I66UUNYO0QZN3S6G0EAT","API17TMVQ2J7Z","3PEG1BH7AEDCPKTV9M6N3A4F0EHKBR","","215","img/flower5.png","76","215","3","1","1","1","1,0.333,0.333,0.333,1,0.333,0.333,0.333,1","1,0.333,0.333,0.333,1,0.333,0.333,0.333,1","1",""
"","html-keyboard-response","59","22586","0.0-59.0","36PW28KO40I66UUNYO0QZN3S6G0EAT","API17TMVQ2J7Z","3PEG1BH7AEDCPKTV9M6N3A4F0EHKBR","","null","<img src=""img/flower5.png"" style=""width:200px; border:14px solid green;"">","null","","","","","","","","",""
"","image-keyboard-response","60","22700","0.0-60.0","36PW28KO40I66UUNYO0QZN3S6G0EAT","API17TMVQ2J7Z","3PEG1BH7AEDCPKTV9M6N3A4F0EHKBR","","113","img/flower5.png","74","115","1","1","1","1","1,0.333,0.333,0.333,1,0.333,0.333,0.333,1","1,0.333,0.333,0.333,1,0.333,0.333,0.333,1","1",""
"","html-keyboard-response","61","23001","0.0-61.0","36PW28KO40I66UUNYO0QZN3S6G0EAT","API17TMVQ2J7Z","3PEG1BH7AEDCPKTV9M6N3A4F0EHKBR","","null","<img src=""img/flower5.png"" style=""width:200px; border:14px solid green;"">","null","","","","","","","","",""
"","image-keyboard-response","62","23157","0.0-62.0","36PW28KO40I66UUNYO0QZN3S6G0EAT","API17TMVQ2J7Z","3PEG1BH7AEDCPKTV9M6N3A4F0EHKBR","","154","img/flower5.png","75","155","2","0","1","1","1,0.333,0.333,0.333,1,0.333,0.333,0.333,1","1,0.333,0.333,0.333,1,0.333,0.333,0.333,1","1",""
"","html-keyboard-response","63","23472","0.0-63.0","36PW28KO40I66UUNYO0QZN3S6G0EAT","API17TMVQ2J7Z","3PEG1BH7AEDCPKTV9M6N3A4F0EHKBR","","null","<img src=""img/flower5.png"" style=""width:200px;border:14px solid red;"">","null","","","","","","","","",""
"","image-keyboard-response","64","23576","0.0-64.0","36PW28KO40I66UUNYO0QZN3S6G0EAT","API17TMVQ2J7Z","3PEG1BH7AEDCPKTV9M6N3A4F0EHKBR","","104","img/flower5.png","76","104","3","1","1","1","1,0.333,0.333,0.333,1,0.333,0.333,0.333,1","1,0.333,0.333,0.333,1,0.333,0.333,0.333,1","1",""
"","html-keyboard-response","65","23888","0.0-65.0","36PW28KO40I66UUNYO0QZN3S6G0EAT","API17TMVQ2J7Z","3PEG1BH7AEDCPKTV9M6N3A4F0EHKBR","","null","<img src=""img/flower5.png"" style=""width:200px; border:14px solid green;"">","null","","","","","","","","",""
"","image-keyboard-response","66","24046","0.0-66.0","36PW28KO40I66UUNYO0QZN3S6G0EAT","API17TMVQ2J7Z","3PEG1BH7AEDCPKTV9M6N3A4F0EHKBR","","156","img/flower5.png","76","156","3","1","1","1","1,0.333,0.333,0.333,1,0.333,0.333,0.333,1","1,0.333,0.333,0.333,1,0.333,0.333,0.333,1","1",""
"","html-keyboard-response","67","24358","0.0-67.0","36PW28KO40I66UUNYO0QZN3S6G0EAT","API17TMVQ2J7Z","3PEG1BH7AEDCPKTV9M6N3A4F0EHKBR","","null","<img src=""img/flower5.png"" style=""width:200px; border:14px solid green;"">","null","","","","","","","","",""
"","image-keyboard-response","68","24480","0.0-68.0","36PW28KO40I66UUNYO0QZN3S6G0EAT","API17TMVQ2J7Z","3PEG1BH7AEDCPKTV9M6N3A4F0EHKBR","","120","img/flower3.png","76","122","3","1","2","1","1,0.333,0.333,0.333,1,0.333,0.333,0.333,1","1,0.333,0.333,0.333,1,0.333,0.333,0.333,1","1",""
"","html-keyboard-response","69","24791","0.0-69.0","36PW28KO40I66UUNYO0QZN3S6G0EAT","API17TMVQ2J7Z","3PEG1BH7AEDCPKTV9M6N3A4F0EHKBR","","null","<img src=""img/flower3.png"" style=""width:200px; border:14px solid green;"">","null","","","","","","","","",""
"","image-keyboard-response","70","24908","0.0-70.0","36PW28KO40I66UUNYO0QZN3S6G0EAT","API17TMVQ2J7Z","3PEG1BH7AEDCPKTV9M6N3A4F0EHKBR","","116","img/flower5.png","74","116","1","1","1","1","1,0.333,0.333,0.333,1,0.333,0.333,0.333,1","1,0.333,0.333,0.333,1,0.333,0.333,0.333,1","1",""
"","html-keyboard-response","71","25223","0.0-71.0","36PW28KO40I66UUNYO0QZN3S6G0EAT","API17TMVQ2J7Z","3PEG1BH7AEDCPKTV9M6N3A4F0EHKBR","","null","<img src=""img/flower5.png"" style=""width:200px; border:14px solid green;"">","null","","","","","","","","",""
"","image-keyboard-response","72","25336","0.0-72.0","36PW28KO40I66UUNYO0QZN3S6G0EAT","API17TMVQ2J7Z","3PEG1BH7AEDCPKTV9M6N3A4F0EHKBR","","113","img/flower3.png","75","113","2","1","2","1","1,0.333,0.333,0.333,1,0.333,0.333,0.333,1","1,0.333,0.333,0.333,1,0.333,0.333,0.333,1","1",""
"","html-keyboard-response","73","25639","0.0-73.0","36PW28KO40I66UUNYO0QZN3S6G0EAT","API17TMVQ2J7Z","3PEG1BH7AEDCPKTV9M6N3A4F0EHKBR","","null","<img src=""img/flower3.png"" style=""width:200px; border:14px solid green;"">","null","","","","","","","","",""
"","image-keyboard-response","74","25779","0.0-74.0","36PW28KO40I66UUNYO0QZN3S6G0EAT","API17TMVQ2J7Z","3PEG1BH7AEDCPKTV9M6N3A4F0EHKBR","","139","img/flower3.png","76","141","3","1","2","1","1,0.333,0.333,0.333,1,0.333,0.333,0.333,1","1,0.333,0.333,0.333,1,0.333,0.333,0.333,1","1",""
"","html-keyboard-response","75","26094","0.0-75.0","36PW28KO40I66UUNYO0QZN3S6G0EAT","API17TMVQ2J7Z","3PEG1BH7AEDCPKTV9M6N3A4F0EHKBR","","null","<img src=""img/flower3.png"" style=""width:200px; border:14px solid green;"">","null","","","","","","","","",""
"","image-keyboard-response","76","26170","0.0-76.0","36PW28KO40I66UUNYO0QZN3S6G0EAT","API17TMVQ2J7Z","3PEG1BH7AEDCPKTV9M6N3A4F0EHKBR","","76","img/flower4.png","75","76","2","0","3","1","1,0.333,0.333,0.333,1,0.333,0.333,0.333,1","1,0.333,0.333,0.333,1,0.333,0.333,0.333,1","1",""
"","html-keyboard-response","77","26479","0.0-77.0","36PW28KO40I66UUNYO0QZN3S6G0EAT","API17TMVQ2J7Z","3PEG1BH7AEDCPKTV9M6N3A4F0EHKBR","","null","<img src=""img/flower4.png"" style=""width:200px;border:14px solid red;"">","null","","","","","","","","",""
"","image-keyboard-response","78","26610","0.0-78.0","36PW28KO40I66UUNYO0QZN3S6G0EAT","API17TMVQ2J7Z","3PEG1BH7AEDCPKTV9M6N3A4F0EHKBR","","129","img/flower4.png","74","130","1","0","3","1","1,0.333,0.333,0.333,1,0.333,0.333,0.333,1","1,0.333,0.333,0.333,1,0.333,0.333,0.333,1","1",""
"","html-keyboard-response","79","26911","0.0-79.0","36PW28KO40I66UUNYO0QZN3S6G0EAT","API17TMVQ2J7Z","3PEG1BH7AEDCPKTV9M6N3A4F0EHKBR","","null","<img src=""img/flower4.png"" style=""width:200px;border:14px solid red;"">","null","","","","","","","","",""
"","image-keyboard-response","80","27077","0.0-80.0","36PW28KO40I66UUNYO0QZN3S6G0EAT","API17TMVQ2J7Z","3PEG1BH7AEDCPKTV9M6N3A4F0EHKBR","","164","img/flower4.png","74","164","1","1","3","1","1,0.333,0.333,0.333,1,0.333,0.333,0.333,1","1,0.333,0.333,0.333,1,0.333,0.333,0.333,1","1",""
"","html-keyboard-response","81","27382","0.0-81.0","36PW28KO40I66UUNYO0QZN3S6G0EAT","API17TMVQ2J7Z","3PEG1BH7AEDCPKTV9M6N3A4F0EHKBR","","null","<img src=""img/flower4.png"" style=""width:200px; border:14px solid green;"">","null","","","","","","","","",""
"","image-keyboard-response","82","27486","0.0-82.0","36PW28KO40I66UUNYO0QZN3S6G0EAT","API17TMVQ2J7Z","3PEG1BH7AEDCPKTV9M6N3A4F0EHKBR","","102","img/flower4.png","75","103","2","0","3","1","1,0.333,0.333,0.333,1,0.333,0.333,0.333,1","1,0.333,0.333,0.333,1,0.333,0.333,0.333,1","1",""
"","html-keyboard-response","83","27798","0.0-83.0","36PW28KO40I66UUNYO0QZN3S6G0EAT","API17TMVQ2J7Z","3PEG1BH7AEDCPKTV9M6N3A4F0EHKBR","","null","<img src=""img/flower4.png"" style=""width:200px;border:14px solid red;"">","null","","","","","","","","",""
"","image-keyboard-response","84","27890","0.0-84.0","36PW28KO40I66UUNYO0QZN3S6G0EAT","API17TMVQ2J7Z","3PEG1BH7AEDCPKTV9M6N3A4F0EHKBR","","90","img/flower3.png","75","91","2","1","2","1","1,0.333,0.333,0.333,1,0.333,0.333,0.333,1","1,0.333,0.333,0.333,1,0.333,0.333,0.333,1","1",""
"","html-keyboard-response","85","28201","0.0-85.0","36PW28KO40I66UUNYO0QZN3S6G0EAT","API17TMVQ2J7Z","3PEG1BH7AEDCPKTV9M6N3A4F0EHKBR","","null","<img src=""img/flower3.png"" style=""width:200px; border:14px solid green;"">","null","","","","","","","","",""
"","image-keyboard-response","86","28320","0.0-86.0","36PW28KO40I66UUNYO0QZN3S6G0EAT","API17TMVQ2J7Z","3PEG1BH7AEDCPKTV9M6N3A4F0EHKBR","","118","img/flower3.png","76","120","3","0","2","1","1,0.333,0.333,0.333,1,0.333,0.333,0.333,1","1,0.333,0.333,0.333,1,0.333,0.333,0.333,1","1",""
"","html-keyboard-response","87","28650","0.0-87.0","36PW28KO40I66UUNYO0QZN3S6G0EAT","API17TMVQ2J7Z","3PEG1BH7AEDCPKTV9M6N3A4F0EHKBR","","null","<img src=""img/flower3.png"" style=""width:200px;border:14px solid red;"">","null","","","","","","","","",""
"","image-keyboard-response","88","28747","0.0-88.0","36PW28KO40I66UUNYO0QZN3S6G0EAT","API17TMVQ2J7Z","3PEG1BH7AEDCPKTV9M6N3A4F0EHKBR","","95","img/flower5.png","76","97","3","1","1","1","1,0.333,0.333,0.333,1,0.333,0.333,0.333,1","1,0.333,0.333,0.333,1,0.333,0.333,0.333,1","1",""
"","html-keyboard-response","89","29050","0.0-89.0","36PW28KO40I66UUNYO0QZN3S6G0EAT","API17TMVQ2J7Z","3PEG1BH7AEDCPKTV9M6N3A4F0EHKBR","","null","<img src=""img/flower5.png"" style=""width:200px; border:14px solid green;"">","null","","","","","","","","",""
"","image-keyboard-response","90","29222","0.0-90.0","36PW28KO40I66UUNYO0QZN3S6G0EAT","API17TMVQ2J7Z","3PEG1BH7AEDCPKTV9M6N3A4F0EHKBR","","171","img/flower4.png","74","171","1","0","3","1","1,0.333,0.333,0.333,1,0.333,0.333,0.333,1","1,0.333,0.333,0.333,1,0.333,0.333,0.333,1","1",""
"","html-keyboard-response","91","29536","0.0-91.0","36PW28KO40I66UUNYO0QZN3S6G0EAT","API17TMVQ2J7Z","3PEG1BH7AEDCPKTV9M6N3A4F0EHKBR","","null","<img src=""img/flower4.png"" style=""width:200px;border:14px solid red;"">","null","","","","","","","","",""
"","image-keyboard-response","92","29994","0.0-92.0","36PW28KO40I66UUNYO0QZN3S6G0EAT","API17TMVQ2J7Z","3PEG1BH7AEDCPKTV9M6N3A4F0EHKBR","","456","img/flower4.png","75","457","2","1","3","1","1,0.333,0.333,0.333,1,0.333,0.333,0.333,1","1,0.333,0.333,0.333,1,0.333,0.333,0.333,1","1",""
"","html-keyboard-response","93","30308","0.0-93.0","36PW28KO40I66UUNYO0QZN3S6G0EAT","API17TMVQ2J7Z","3PEG1BH7AEDCPKTV9M6N3A4F0EHKBR","","null","<img src=""img/flower4.png"" style=""width:200px; border:14px solid green;"">","null","","","","","","","","",""
"","image-keyboard-response","94","30396","0.0-94.0","36PW28KO40I66UUNYO0QZN3S6G0EAT","API17TMVQ2J7Z","3PEG1BH7AEDCPKTV9M6N3A4F0EHKBR","","88","img/flower3.png","76","88","3","0","2","1","1,0.333,0.333,0.333,1,0.333,0.333,0.333,1","1,0.333,0.333,0.333,1,0.333,0.333,0.333,1","1",""
"","html-keyboard-response","95","30709","0.0-95.0","36PW28KO40I66UUNYO0QZN3S6G0EAT","API17TMVQ2J7Z","3PEG1BH7AEDCPKTV9M6N3A4F0EHKBR","","null","<img src=""img/flower3.png"" style=""width:200px;border:14px solid red;"">","null","","","","","","","","",""
"","image-keyboard-response","96","30897","0.0-96.0","36PW28KO40I66UUNYO0QZN3S6G0EAT","API17TMVQ2J7Z","3PEG1BH7AEDCPKTV9M6N3A4F0EHKBR","","186","img/flower4.png","75","188","2","1","3","1","1,0.333,0.333,0.333,1,0.333,0.333,0.333,1","1,0.333,0.333,0.333,1,0.333,0.333,0.333,1","1",""
"","html-keyboard-response","97","31210","0.0-97.0","36PW28KO40I66UUNYO0QZN3S6G0EAT","API17TMVQ2J7Z","3PEG1BH7AEDCPKTV9M6N3A4F0EHKBR","","null","<img src=""img/flower4.png"" style=""width:200px; border:14px solid green;"">","null","","","","","","","","",""
"","image-keyboard-response","98","31307","0.0-98.0","36PW28KO40I66UUNYO0QZN3S6G0EAT","API17TMVQ2J7Z","3PEG1BH7AEDCPKTV9M6N3A4F0EHKBR","","96","img/flower4.png","74","98","1","0","3","1","1,0.333,0.333,0.333,1,0.333,0.333,0.333,1","1,0.333,0.333,0.333,1,0.333,0.333,0.333,1","1",""
"","html-keyboard-response","99","31611","0.0-99.0","36PW28KO40I66UUNYO0QZN3S6G0EAT","API17TMVQ2J7Z","3PEG1BH7AEDCPKTV9M6N3A4F0EHKBR","","null","<img src=""img/flower4.png"" style=""width:200px;border:14px solid red;"">","null","","","","","","","","",""
"","image-keyboard-response","100","31930","0.0-100.0","36PW28KO40I66UUNYO0QZN3S6G0EAT","API17TMVQ2J7Z","3PEG1BH7AEDCPKTV9M6N3A4F0EHKBR","","316","img/flower5.png","75","318","2","1","1","1","1,0.333,0.333,0.333,1,0.333,0.333,0.333,1","1,0.333,0.333,0.333,1,0.333,0.333,0.333,1","1",""
"","html-keyboard-response","101","32242","0.0-101.0","36PW28KO40I66UUNYO0QZN3S6G0EAT","API17TMVQ2J7Z","3PEG1BH7AEDCPKTV9M6N3A4F0EHKBR","","null","<img src=""img/flower5.png"" style=""width:200px; border:14px solid green;"">","null","","","","","","","","",""
"","image-keyboard-response","102","32367","0.0-102.0","36PW28KO40I66UUNYO0QZN3S6G0EAT","API17TMVQ2J7Z","3PEG1BH7AEDCPKTV9M6N3A4F0EHKBR","","124","img/flower4.png","75","124","2","1","3","1","1,0.333,0.333,0.333,1,0.333,0.333,0.333,1","1,0.333,0.333,0.333,1,0.333,0.333,0.333,1","1",""
"","html-keyboard-response","103","32682","0.0-103.0","36PW28KO40I66UUNYO0QZN3S6G0EAT","API17TMVQ2J7Z","3PEG1BH7AEDCPKTV9M6N3A4F0EHKBR","","null","<img src=""img/flower4.png"" style=""width:200px; border:14px solid green;"">","null","","","","","","","","",""
"","image-keyboard-response","104","32817","0.0-104.0","36PW28KO40I66UUNYO0QZN3S6G0EAT","API17TMVQ2J7Z","3PEG1BH7AEDCPKTV9M6N3A4F0EHKBR","","134","img/flower5.png","76","135","3","1","1","1","1,0.333,0.333,0.333,1,0.333,0.333,0.333,1","1,0.333,0.333,0.333,1,0.333,0.333,0.333,1","1",""
"","html-keyboard-response","105","33129","0.0-105.0","36PW28KO40I66UUNYO0QZN3S6G0EAT","API17TMVQ2J7Z","3PEG1BH7AEDCPKTV9M6N3A4F0EHKBR","","null","<img src=""img/flower5.png"" style=""width:200px; border:14px solid green;"">","null","","","","","","","","",""
"","image-keyboard-response","106","33220","0.0-106.0","36PW28KO40I66UUNYO0QZN3S6G0EAT","API17TMVQ2J7Z","3PEG1BH7AEDCPKTV9M6N3A4F0EHKBR","","90","img/flower3.png","75","91","2","1","2","1","1,0.333,0.333,0.333,1,0.333,0.333,0.333,1","1,0.333,0.333,0.333,1,0.333,0.333,0.333,1","1",""
"","html-keyboard-response","107","33530","0.0-107.0","36PW28KO40I66UUNYO0QZN3S6G0EAT","API17TMVQ2J7Z","3PEG1BH7AEDCPKTV9M6N3A4F0EHKBR","","null","<img src=""img/flower3.png"" style=""width:200px; border:14px solid green;"">","null","","","","","","","","",""
"","image-keyboard-response","108","33668","0.0-108.0","36PW28KO40I66UUNYO0QZN3S6G0EAT","API17TMVQ2J7Z","3PEG1BH7AEDCPKTV9M6N3A4F0EHKBR","","137","img/flower4.png","75","137","2","0","3","1","1,0.333,0.333,0.333,1,0.333,0.333,0.333,1","1,0.333,0.333,0.333,1,0.333,0.333,0.333,1","1",""
"","html-keyboard-response","109","33984","0.0-109.0","36PW28KO40I66UUNYO0QZN3S6G0EAT","API17TMVQ2J7Z","3PEG1BH7AEDCPKTV9M6N3A4F0EHKBR","","null","<img src=""img/flower4.png"" style=""width:200px;border:14px solid red;"">","null","","","","","","","","",""
"","image-keyboard-response","110","34342","0.0-110.0","36PW28KO40I66UUNYO0QZN3S6G0EAT","API17TMVQ2J7Z","3PEG1BH7AEDCPKTV9M6N3A4F0EHKBR","","356","img/flower3.png","75","358","2","1","2","1","1,0.333,0.333,0.333,1,0.333,0.333,0.333,1","1,0.333,0.333,0.333,1,0.333,0.333,0.333,1","1",""
"","html-keyboard-response","111","34648","0.0-111.0","36PW28KO40I66UUNYO0QZN3S6G0EAT","API17TMVQ2J7Z","3PEG1BH7AEDCPKTV9M6N3A4F0EHKBR","","null","<img src=""img/flower3.png"" style=""width:200px; border:14px solid green;"">","null","","","","","","","","",""
"","image-keyboard-response","112","34682","0.0-112.0","36PW28KO40I66UUNYO0QZN3S6G0EAT","API17TMVQ2J7Z","3PEG1BH7AEDCPKTV9M6N3A4F0EHKBR","","33","img/flower4.png","74","34","1","1","3","1","1,0.333,0.333,0.333,1,0.333,0.333,0.333,1","1,0.333,0.333,0.333,1,0.333,0.333,0.333,1","1",""
"","html-keyboard-response","113","34987","0.0-113.0","36PW28KO40I66UUNYO0QZN3S6G0EAT","API17TMVQ2J7Z","3PEG1BH7AEDCPKTV9M6N3A4F0EHKBR","","null","<img src=""img/flower4.png"" style=""width:200px; border:14px solid green;"">","null","","","","","","","","",""
"","image-keyboard-response","114","35155","0.0-114.0","36PW28KO40I66UUNYO0QZN3S6G0EAT","API17TMVQ2J7Z","3PEG1BH7AEDCPKTV9M6N3A4F0EHKBR","","166","img/flower4.png","75","167","2","0","3","1","1,0.333,0.333,0.333,1,0.333,0.333,0.333,1","1,0.333,0.333,0.333,1,0.333,0.333,0.333,1","1",""
"","html-keyboard-response","115","35473","0.0-115.0","36PW28KO40I66UUNYO0QZN3S6G0EAT","API17TMVQ2J7Z","3PEG1BH7AEDCPKTV9M6N3A4F0EHKBR","","null","<img src=""img/flower4.png"" style=""width:200px;border:14px solid red;"">","null","","","","","","","","",""
"","image-keyboard-response","116","35490","0.0-116.0","36PW28KO40I66UUNYO0QZN3S6G0EAT","API17TMVQ2J7Z","3PEG1BH7AEDCPKTV9M6N3A4F0EHKBR","","14","img/flower4.png","75","15","2","0","3","1","1,0.333,0.333,0.333,1,0.333,0.333,0.333,1","1,0.333,0.333,0.333,1,0.333,0.333,0.333,1","1",""
"","html-keyboard-response","117","35805","0.0-117.0","36PW28KO40I66UUNYO0QZN3S6G0EAT","API17TMVQ2J7Z","3PEG1BH7AEDCPKTV9M6N3A4F0EHKBR","","null","<img src=""img/flower4.png"" style=""width:200px;border:14px solid red;"">","null","","","","","","","","",""
"","image-keyboard-response","118","35892","0.0-118.0","36PW28KO40I66UUNYO0QZN3S6G0EAT","API17TMVQ2J7Z","3PEG1BH7AEDCPKTV9M6N3A4F0EHKBR","","88","img/flower4.png","76","88","3","1","3","1","1,0.333,0.333,0.333,1,0.333,0.333,0.333,1","1,0.333,0.333,0.333,1,0.333,0.333,0.333,1","1",""
"","html-keyboard-response","119","36207","0.0-119.0","36PW28KO40I66UUNYO0QZN3S6G0EAT","API17TMVQ2J7Z","3PEG1BH7AEDCPKTV9M6N3A4F0EHKBR","","null","<img src=""img/flower4.png"" style=""width:200px; border:14px solid green;"">","null","","","","","","","","",""
"","image-keyboard-response","120","36279","0.0-120.0","36PW28KO40I66UUNYO0QZN3S6G0EAT","API17TMVQ2J7Z","3PEG1BH7AEDCPKTV9M6N3A4F0EHKBR","","71","img/flower4.png","75","72","2","0","3","1","1,0.333,0.333,0.333,1,0.333,0.333,0.333,1","1,0.333,0.333,0.333,1,0.333,0.333,0.333,1","1",""
"","html-keyboard-response","121","36624","0.0-121.0","36PW28KO40I66UUNYO0QZN3S6G0EAT","API17TMVQ2J7Z","3PEG1BH7AEDCPKTV9M6N3A4F0EHKBR","","null","<img src=""img/flower4.png"" style=""width:200px;border:14px solid red;"">","null","","","","","","","","",""
"","image-keyboard-response","122","36723","0.0-122.0","36PW28KO40I66UUNYO0QZN3S6G0EAT","API17TMVQ2J7Z","3PEG1BH7AEDCPKTV9M6N3A4F0EHKBR","","97","img/flower5.png","74","98","1","1","1","1","1,0.333,0.333,0.333,1,0.333,0.333,0.333,1","1,0.333,0.333,0.333,1,0.333,0.333,0.333,1","1",""
"","html-keyboard-response","123","37024","0.0-123.0","36PW28KO40I66UUNYO0QZN3S6G0EAT","API17TMVQ2J7Z","3PEG1BH7AEDCPKTV9M6N3A4F0EHKBR","","null","<img src=""img/flower5.png"" style=""width:200px; border:14px solid green;"">","null","","","","","","","","",""
"","image-keyboard-response","124","37089","0.0-124.0","36PW28KO40I66UUNYO0QZN3S6G0EAT","API17TMVQ2J7Z","3PEG1BH7AEDCPKTV9M6N3A4F0EHKBR","","65","img/flower4.png","75","65","2","0","3","1","1,0.333,0.333,0.333,1,0.333,0.333,0.333,1","1,0.333,0.333,0.333,1,0.333,0.333,0.333,1","1",""
"","html-keyboard-response","125","37394","0.0-125.0","36PW28KO40I66UUNYO0QZN3S6G0EAT","API17TMVQ2J7Z","3PEG1BH7AEDCPKTV9M6N3A4F0EHKBR","","null","<img src=""img/flower4.png"" style=""width:200px;border:14px solid red;"">","null","","","","","","","","",""
"","image-keyboard-response","126","37460","0.0-126.0","36PW28KO40I66UUNYO0QZN3S6G0EAT","API17TMVQ2J7Z","3PEG1BH7AEDCPKTV9M6N3A4F0EHKBR","","65","img/flower4.png","76","66","3","1","3","1","1,0.333,0.333,0.333,1,0.333,0.333,0.333,1","1,0.333,0.333,0.333,1,0.333,0.333,0.333,1","1",""
"","html-keyboard-response","127","37774","0.0-127.0","36PW28KO40I66UUNYO0QZN3S6G0EAT","API17TMVQ2J7Z","3PEG1BH7AEDCPKTV9M6N3A4F0EHKBR","","null","<img src=""img/flower4.png"" style=""width:200px; border:14px solid green;"">","null","","","","","","","","",""
"","image-keyboard-response","128","37905","0.0-128.0","36PW28KO40I66UUNYO0QZN3S6G0EAT","API17TMVQ2J7Z","3PEG1BH7AEDCPKTV9M6N3A4F0EHKBR","","131","img/flower4.png","74","131","1","0","3","1","1,0.333,0.333,0.333,1,0.333,0.333,0.333,1","1,0.333,0.333,0.333,1,0.333,0.333,0.333,1","1",""
"","html-keyboard-response","129","38211","0.0-129.0","36PW28KO40I66UUNYO0QZN3S6G0EAT","API17TMVQ2J7Z","3PEG1BH7AEDCPKTV9M6N3A4F0EHKBR","","null","<img src=""img/flower4.png"" style=""width:200px;border:14px solid red;"">","null","","","","","","","","",""
"","image-keyboard-response","130","38214","0.0-130.0","36PW28KO40I66UUNYO0QZN3S6G0EAT","API17TMVQ2J7Z","3PEG1BH7AEDCPKTV9M6N3A4F0EHKBR","","2","img/flower5.png","75","2","2","1","1","1","1,0.333,0.333,0.333,1,0.333,0.333,0.333,1","1,0.333,0.333,0.333,1,0.333,0.333,0.333,1","1",""
"","html-keyboard-response","131","38527","0.0-131.0","36PW28KO40I66UUNYO0QZN3S6G0EAT","API17TMVQ2J7Z","3PEG1BH7AEDCPKTV9M6N3A4F0EHKBR","","null","<img src=""img/flower5.png"" style=""width:200px; border:14px solid green;"">","null","","","","","","","","",""
"","image-keyboard-response","132","38560","0.0-132.0","36PW28KO40I66UUNYO0QZN3S6G0EAT","API17TMVQ2J7Z","3PEG1BH7AEDCPKTV9M6N3A4F0EHKBR","","31","img/flower3.png","75","33","2","1","2","1","1,0.333,0.333,0.333,1,0.333,0.333,0.333,1","1,0.333,0.333,0.333,1,0.333,0.333,0.333,1","1",""
"","html-keyboard-response","133","38875","0.0-133.0","36PW28KO40I66UUNYO0QZN3S6G0EAT","API17TMVQ2J7Z","3PEG1BH7AEDCPKTV9M6N3A4F0EHKBR","","null","<img src=""img/flower3.png"" style=""width:200px; border:14px solid green;"">","null","","","","","","","","",""
"","image-keyboard-response","134","38920","0.0-134.0","36PW28KO40I66UUNYO0QZN3S6G0EAT","API17TMVQ2J7Z","3PEG1BH7AEDCPKTV9M6N3A4F0EHKBR","","43","img/flower3.png","76","45","3","1","2","1","1,0.333,0.333,0.333,1,0.333,0.333,0.333,1","1,0.333,0.333,0.333,1,0.333,0.333,0.333,1","1",""
"","html-keyboard-response","135","39229","0.0-135.0","36PW28KO40I66UUNYO0QZN3S6G0EAT","API17TMVQ2J7Z","3PEG1BH7AEDCPKTV9M6N3A4F0EHKBR","","null","<img src=""img/flower3.png"" style=""width:200px; border:14px solid green;"">","null","","","","","","","","",""
"","image-keyboard-response","136","39282","0.0-136.0","36PW28KO40I66UUNYO0QZN3S6G0EAT","API17TMVQ2J7Z","3PEG1BH7AEDCPKTV9M6N3A4F0EHKBR","","50","img/flower4.png","75","52","2","0","3","1","1,0.333,0.333,0.333,1,0.333,0.333,0.333,1","1,0.333,0.333,0.333,1,0.333,0.333,0.333,1","1",""
"","html-keyboard-response","137","39599","0.0-137.0","36PW28KO40I66UUNYO0QZN3S6G0EAT","API17TMVQ2J7Z","3PEG1BH7AEDCPKTV9M6N3A4F0EHKBR","","null","<img src=""img/flower4.png"" style=""width:200px;border:14px solid red;"">","null","","","","","","","","",""
"","image-keyboard-response","138","39729","0.0-138.0","36PW28KO40I66UUNYO0QZN3S6G0EAT","API17TMVQ2J7Z","3PEG1BH7AEDCPKTV9M6N3A4F0EHKBR","","128","img/flower3.png","74","130","1","0","2","1","1,0.333,0.333,0.333,1,0.333,0.333,0.333,1","1,0.333,0.333,0.333,1,0.333,0.333,0.333,1","1",""
"","html-keyboard-response","139","40032","0.0-139.0","36PW28KO40I66UUNYO0QZN3S6G0EAT","API17TMVQ2J7Z","3PEG1BH7AEDCPKTV9M6N3A4F0EHKBR","","null","<img src=""img/flower3.png"" style=""width:200px;border:14px solid red;"">","null","","","","","","","","",""
"","image-keyboard-response","140","40062","0.0-140.0","36PW28KO40I66UUNYO0QZN3S6G0EAT","API17TMVQ2J7Z","3PEG1BH7AEDCPKTV9M6N3A4F0EHKBR","","29","img/flower3.png","75","30","2","1","2","1","1,0.333,0.333,0.333,1,0.333,0.333,0.333,1","1,0.333,0.333,0.333,1,0.333,0.333,0.333,1","1",""
"","html-keyboard-response","141","40364","0.0-141.0","36PW28KO40I66UUNYO0QZN3S6G0EAT","API17TMVQ2J7Z","3PEG1BH7AEDCPKTV9M6N3A4F0EHKBR","","null","<img src=""img/flower3.png"" style=""width:200px; border:14px solid green;"">","null","","","","","","","","",""
"","image-keyboard-response","142","40507","0.0-142.0","36PW28KO40I66UUNYO0QZN3S6G0EAT","API17TMVQ2J7Z","3PEG1BH7AEDCPKTV9M6N3A4F0EHKBR","","142","img/flower3.png","75","142","2","1","2","1","1,0.333,0.333,0.333,1,0.333,0.333,0.333,1","1,0.333,0.333,0.333,1,0.333,0.333,0.333,1","1",""
"","html-keyboard-response","143","40819","0.0-143.0","36PW28KO40I66UUNYO0QZN3S6G0EAT","API17TMVQ2J7Z","3PEG1BH7AEDCPKTV9M6N3A4F0EHKBR","","null","<img src=""img/flower3.png"" style=""width:200px; border:14px solid green;"">","null","","","","","","","","",""
"","image-keyboard-response","144","40857","0.0-144.0","36PW28KO40I66UUNYO0QZN3S6G0EAT","API17TMVQ2J7Z","3PEG1BH7AEDCPKTV9M6N3A4F0EHKBR","","36","img/flower4.png","75","37","2","0","3","1","1,0.333,0.333,0.333,1,0.333,0.333,0.333,1","1,0.333,0.333,0.333,1,0.333,0.333,0.333,1","1",""
"","html-keyboard-response","145","41167","0.0-145.0","36PW28KO40I66UUNYO0QZN3S6G0EAT","API17TMVQ2J7Z","3PEG1BH7AEDCPKTV9M6N3A4F0EHKBR","","null","<img src=""img/flower4.png"" style=""width:200px;border:14px solid red;"">","null","","","","","","","","",""
"","image-keyboard-response","146","41282","0.0-146.0","36PW28KO40I66UUNYO0QZN3S6G0EAT","API17TMVQ2J7Z","3PEG1BH7AEDCPKTV9M6N3A4F0EHKBR","","114","img/flower3.png","76","114","3","0","2","1","1,0.333,0.333,0.333,1,0.333,0.333,0.333,1","1,0.333,0.333,0.333,1,0.333,0.333,0.333,1","1",""
"","html-keyboard-response","147","41584","0.0-147.0","36PW28KO40I66UUNYO0QZN3S6G0EAT","API17TMVQ2J7Z","3PEG1BH7AEDCPKTV9M6N3A4F0EHKBR","","null","<img src=""img/flower3.png"" style=""width:200px;border:14px solid red;"">","null","","","","","","","","",""
"","image-keyboard-response","148","41968","0.0-148.0","36PW28KO40I66UUNYO0QZN3S6G0EAT","API17TMVQ2J7Z","3PEG1BH7AEDCPKTV9M6N3A4F0EHKBR","","382","img/flower3.png","74","382","1","1","2","1","1,0.333,0.333,0.333,1,0.333,0.333,0.333,1","1,0.333,0.333,0.333,1,0.333,0.333,0.333,1","1",""
"","html-keyboard-response","149","42270","0.0-149.0","36PW28KO40I66UUNYO0QZN3S6G0EAT","API17TMVQ2J7Z","3PEG1BH7AEDCPKTV9M6N3A4F0EHKBR","","null","<img src=""img/flower3.png"" style=""width:200px; border:14px solid green;"">","null","","","","","","","","",""
"","image-keyboard-response","150","42346","0.0-150.0","36PW28KO40I66UUNYO0QZN3S6G0EAT","API17TMVQ2J7Z","3PEG1BH7AEDCPKTV9M6N3A4F0EHKBR","","74","img/flower3.png","74","75","1","1","2","1","1,0.333,0.333,0.333,1,0.333,0.333,0.333,1","1,0.333,0.333,0.333,1,0.333,0.333,0.333,1","1",""
"","html-keyboard-response","151","42656","0.0-151.0","36PW28KO40I66UUNYO0QZN3S6G0EAT","API17TMVQ2J7Z","3PEG1BH7AEDCPKTV9M6N3A4F0EHKBR","","null","<img src=""img/flower3.png"" style=""width:200px; border:14px solid green;"">","null","","","","","","","","",""
"","image-keyboard-response","152","42718","0.0-152.0","36PW28KO40I66UUNYO0QZN3S6G0EAT","API17TMVQ2J7Z","3PEG1BH7AEDCPKTV9M6N3A4F0EHKBR","","60","img/flower5.png","74","62","1","1","1","1","1,0.333,0.333,0.333,1,0.333,0.333,0.333,1","1,0.333,0.333,0.333,1,0.333,0.333,0.333,1","1",""
"","html-keyboard-response","153","43025","0.0-153.0","36PW28KO40I66UUNYO0QZN3S6G0EAT","API17TMVQ2J7Z","3PEG1BH7AEDCPKTV9M6N3A4F0EHKBR","","null","<img src=""img/flower5.png"" style=""width:200px; border:14px solid green;"">","null","","","","","","","","",""
"","image-keyboard-response","154","43118","0.0-154.0","36PW28KO40I66UUNYO0QZN3S6G0EAT","API17TMVQ2J7Z","3PEG1BH7AEDCPKTV9M6N3A4F0EHKBR","","91","img/flower5.png","74","93","1","1","1","1","1,0.333,0.333,0.333,1,0.333,0.333,0.333,1","1,0.333,0.333,0.333,1,0.333,0.333,0.333,1","1",""
"","html-keyboard-response","155","43427","0.0-155.0","36PW28KO40I66UUNYO0QZN3S6G0EAT","API17TMVQ2J7Z","3PEG1BH7AEDCPKTV9M6N3A4F0EHKBR","","null","<img src=""img/flower5.png"" style=""width:200px; border:14px solid green;"">","null","","","","","","","","",""
"","image-keyboard-response","156","43532","0.0-156.0","36PW28KO40I66UUNYO0QZN3S6G0EAT","API17TMVQ2J7Z","3PEG1BH7AEDCPKTV9M6N3A4F0EHKBR","","103","img/flower3.png","74","105","1","0","2","1","1,0.333,0.333,0.333,1,0.333,0.333,0.333,1","1,0.333,0.333,0.333,1,0.333,0.333,0.333,1","1",""
"","html-keyboard-response","157","43844","0.0-157.0","36PW28KO40I66UUNYO0QZN3S6G0EAT","API17TMVQ2J7Z","3PEG1BH7AEDCPKTV9M6N3A4F0EHKBR","","null","<img src=""img/flower3.png"" style=""width:200px;border:14px solid red;"">","null","","","","","","","","",""
"","image-keyboard-response","158","43853","0.0-158.0","36PW28KO40I66UUNYO0QZN3S6G0EAT","API17TMVQ2J7Z","3PEG1BH7AEDCPKTV9M6N3A4F0EHKBR","","8","img/flower4.png","75","9","2","0","3","1","1,0.333,0.333,0.333,1,0.333,0.333,0.333,1","1,0.333,0.333,0.333,1,0.333,0.333,0.333,1","1",""
"","html-keyboard-response","159","44160","0.0-159.0","36PW28KO40I66UUNYO0QZN3S6G0EAT","API17TMVQ2J7Z","3PEG1BH7AEDCPKTV9M6N3A4F0EHKBR","","null","<img src=""img/flower4.png"" style=""width:200px;border:14px solid red;"">","null","","","","","","","","",""
"","image-keyboard-response","160","44239","0.0-160.0","36PW28KO40I66UUNYO0QZN3S6G0EAT","API17TMVQ2J7Z","3PEG1BH7AEDCPKTV9M6N3A4F0EHKBR","","79","img/flower4.png","76","80","3","1","3","1","1,0.333,0.333,0.333,1,0.333,0.333,0.333,1","1,0.333,0.333,0.333,1,0.333,0.333,0.333,1","1",""
"","html-keyboard-response","161","44546","0.0-161.0","36PW28KO40I66UUNYO0QZN3S6G0EAT","API17TMVQ2J7Z","3PEG1BH7AEDCPKTV9M6N3A4F0EHKBR","","null","<img src=""img/flower4.png"" style=""width:200px; border:14px solid green;"">","null","","","","","","","","",""
"","image-keyboard-response","162","44632","0.0-162.0","36PW28KO40I66UUNYO0QZN3S6G0EAT","API17TMVQ2J7Z","3PEG1BH7AEDCPKTV9M6N3A4F0EHKBR","","84","img/flower3.png","75","84","2","1","2","1","1,0.333,0.333,0.333,1,0.333,0.333,0.333,1","1,0.333,0.333,0.333,1,0.333,0.333,0.333,1","1",""
"","html-keyboard-response","163","44946","0.0-163.0","36PW28KO40I66UUNYO0QZN3S6G0EAT","API17TMVQ2J7Z","3PEG1BH7AEDCPKTV9M6N3A4F0EHKBR","","null","<img src=""img/flower3.png"" style=""width:200px; border:14px solid green;"">","null","","","","","","","","",""
"","image-keyboard-response","164","44994","0.0-164.0","36PW28KO40I66UUNYO0QZN3S6G0EAT","API17TMVQ2J7Z","3PEG1BH7AEDCPKTV9M6N3A4F0EHKBR","","48","img/flower5.png","76","48","3","1","1","1","1,0.333,0.333,0.333,1,0.333,0.333,0.333,1","1,0.333,0.333,0.333,1,0.333,0.333,0.333,1","1",""
"","html-keyboard-response","165","45315","0.0-165.0","36PW28KO40I66UUNYO0QZN3S6G0EAT","API17TMVQ2J7Z","3PEG1BH7AEDCPKTV9M6N3A4F0EHKBR","","null","<img src=""img/flower5.png"" style=""width:200px; border:14px solid green;"">","null","","","","","","","","",""
"","image-keyboard-response","166","45322","0.0-166.0","36PW28KO40I66UUNYO0QZN3S6G0EAT","API17TMVQ2J7Z","3PEG1BH7AEDCPKTV9M6N3A4F0EHKBR","","5","img/flower3.png","75","5","2","1","2","1","1,0.333,0.333,0.333,1,0.333,0.333,0.333,1","1,0.333,0.333,0.333,1,0.333,0.333,0.333,1","1",""
"","html-keyboard-response","167","45632","0.0-167.0","36PW28KO40I66UUNYO0QZN3S6G0EAT","API17TMVQ2J7Z","3PEG1BH7AEDCPKTV9M6N3A4F0EHKBR","","null","<img src=""img/flower3.png"" style=""width:200px; border:14px solid green;"">","null","","","","","","","","",""
"","image-keyboard-response","168","45687","0.0-168.0","36PW28KO40I66UUNYO0QZN3S6G0EAT","API17TMVQ2J7Z","3PEG1BH7AEDCPKTV9M6N3A4F0EHKBR","","54","img/flower3.png","76","54","3","0","2","1","1,0.333,0.333,0.333,1,0.333,0.333,0.333,1","1,0.333,0.333,0.333,1,0.333,0.333,0.333,1","1",""
"","html-keyboard-response","169","45994","0.0-169.0","36PW28KO40I66UUNYO0QZN3S6G0EAT","API17TMVQ2J7Z","3PEG1BH7AEDCPKTV9M6N3A4F0EHKBR","","null","<img src=""img/flower3.png"" style=""width:200px;border:14px solid red;"">","null","","","","","","","","",""
"","image-keyboard-response","170","46005","0.0-170.0","36PW28KO40I66UUNYO0QZN3S6G0EAT","API17TMVQ2J7Z","3PEG1BH7AEDCPKTV9M6N3A4F0EHKBR","","10","img/flower4.png","75","10","2","0","3","1","1,0.333,0.333,0.333,1,0.333,0.333,0.333,1","1,0.333,0.333,0.333,1,0.333,0.333,0.333,1","1",""
"","html-keyboard-response","171","46318","0.0-171.0","36PW28KO40I66UUNYO0QZN3S6G0EAT","API17TMVQ2J7Z","3PEG1BH7AEDCPKTV9M6N3A4F0EHKBR","","null","<img src=""img/flower4.png"" style=""width:200px;border:14px solid red;"">","null","","","","","","","","",""
"","image-keyboard-response","172","46416","0.0-172.0","36PW28KO40I66UUNYO0QZN3S6G0EAT","API17TMVQ2J7Z","3PEG1BH7AEDCPKTV9M6N3A4F0EHKBR","","98","img/flower3.png","75","98","2","1","2","1","1,0.333,0.333,0.333,1,0.333,0.333,0.333,1","1,0.333,0.333,0.333,1,0.333,0.333,0.333,1","1",""
"","html-keyboard-response","173","46718","0.0-173.0","36PW28KO40I66UUNYO0QZN3S6G0EAT","API17TMVQ2J7Z","3PEG1BH7AEDCPKTV9M6N3A4F0EHKBR","","null","<img src=""img/flower3.png"" style=""width:200px; border:14px solid green;"">","null","","","","","","","","",""
"","image-keyboard-response","174","46761","0.0-174.0","36PW28KO40I66UUNYO0QZN3S6G0EAT","API17TMVQ2J7Z","3PEG1BH7AEDCPKTV9M6N3A4F0EHKBR","","41","img/flower5.png","74","43","1","1","1","1","1,0.333,0.333,0.333,1,0.333,0.333,0.333,1","1,0.333,0.333,0.333,1,0.333,0.333,0.333,1","1",""
"","html-keyboard-response","175","47066","0.0-175.0","36PW28KO40I66UUNYO0QZN3S6G0EAT","API17TMVQ2J7Z","3PEG1BH7AEDCPKTV9M6N3A4F0EHKBR","","null","<img src=""img/flower5.png"" style=""width:200px; border:14px solid green;"">","null","","","","","","","","",""
"","image-keyboard-response","176","47554","0.0-176.0","36PW28KO40I66UUNYO0QZN3S6G0EAT","API17TMVQ2J7Z","3PEG1BH7AEDCPKTV9M6N3A4F0EHKBR","","488","img/flower3.png","76","489","3","0","2","1","1,0.333,0.333,0.333,1,0.333,0.333,0.333,1","1,0.333,0.333,0.333,1,0.333,0.333,0.333,1","1",""
"","html-keyboard-response","177","47868","0.0-177.0","36PW28KO40I66UUNYO0QZN3S6G0EAT","API17TMVQ2J7Z","3PEG1BH7AEDCPKTV9M6N3A4F0EHKBR","","null","<img src=""img/flower3.png"" style=""width:200px;border:14px solid red;"">","null","","","","","","","","",""
"","image-keyboard-response","178","48275","0.0-178.0","36PW28KO40I66UUNYO0QZN3S6G0EAT","API17TMVQ2J7Z","3PEG1BH7AEDCPKTV9M6N3A4F0EHKBR","","406","img/flower5.png","74","406","1","1","1","1","1,0.333,0.333,0.333,1,0.333,0.333,0.333,1","1,0.333,0.333,0.333,1,0.333,0.333,0.333,1","1",""
"","html-keyboard-response","179","48585","0.0-179.0","36PW28KO40I66UUNYO0QZN3S6G0EAT","API17TMVQ2J7Z","3PEG1BH7AEDCPKTV9M6N3A4F0EHKBR","","null","<img src=""img/flower5.png"" style=""width:200px; border:14px solid green;"">","null","","","","","","","","",""
"","image-keyboard-response","180","48621","0.0-180.0","36PW28KO40I66UUNYO0QZN3S6G0EAT","API17TMVQ2J7Z","3PEG1BH7AEDCPKTV9M6N3A4F0EHKBR","","33","img/flower3.png","75","35","2","1","2","1","1,0.333,0.333,0.333,1,0.333,0.333,0.333,1","1,0.333,0.333,0.333,1,0.333,0.333,0.333,1","1",""
"","html-keyboard-response","181","48923","0.0-181.0","36PW28KO40I66UUNYO0QZN3S6G0EAT","API17TMVQ2J7Z","3PEG1BH7AEDCPKTV9M6N3A4F0EHKBR","","null","<img src=""img/flower3.png"" style=""width:200px; border:14px solid green;"">","null","","","","","","","","",""
"","html-keyboard-response","182","50936","0.0-182.0","36PW28KO40I66UUNYO0QZN3S6G0EAT","API17TMVQ2J7Z","3PEG1BH7AEDCPKTV9M6N3A4F0EHKBR","","","","","","","","","","","","",""
"","image-keyboard-response","183","51581","0.0-183.0","36PW28KO40I66UUNYO0QZN3S6G0EAT","API17TMVQ2J7Z","3PEG1BH7AEDCPKTV9M6N3A4F0EHKBR","","643","img/flower2.png","74","643","1","1","1","2","1,0,0,1,1,0,1,0,1","1,0,0,1,1,0,1,0,1","1",""
"","html-keyboard-response","184","51884","0.0-184.0","36PW28KO40I66UUNYO0QZN3S6G0EAT","API17TMVQ2J7Z","3PEG1BH7AEDCPKTV9M6N3A4F0EHKBR","","null","<img src=""img/flower2.png"" style=""width:200px; border:14px solid green;"">","null","","","","","","","","",""
"","image-keyboard-response","185","51889","0.0-185.0","36PW28KO40I66UUNYO0QZN3S6G0EAT","API17TMVQ2J7Z","3PEG1BH7AEDCPKTV9M6N3A4F0EHKBR","","4","img/flower2.png","75","5","2","0","1","2","1,0,0,1,1,0,1,0,1","1,0,0,1,1,0,1,0,1","1",""
"","html-keyboard-response","186","52200","0.0-186.0","36PW28KO40I66UUNYO0QZN3S6G0EAT","API17TMVQ2J7Z","3PEG1BH7AEDCPKTV9M6N3A4F0EHKBR","","null","<img src=""img/flower2.png"" style=""width:200px;border:14px solid red;"">","null","","","","","","","","",""
"","image-keyboard-response","187","52261","0.0-187.0","36PW28KO40I66UUNYO0QZN3S6G0EAT","API17TMVQ2J7Z","3PEG1BH7AEDCPKTV9M6N3A4F0EHKBR","","62","img/flower1.png","76","62","3","1","3","2","1,0,0,1,1,0,1,0,1","1,0,0,1,1,0,1,0,1","1",""
"","html-keyboard-response","188","52570","0.0-188.0","36PW28KO40I66UUNYO0QZN3S6G0EAT","API17TMVQ2J7Z","3PEG1BH7AEDCPKTV9M6N3A4F0EHKBR","","null","<img src=""img/flower1.png"" style=""width:200px; border:14px solid green;"">","null","","","","","","","","",""
"","image-keyboard-response","189","52994","0.0-189.0","36PW28KO40I66UUNYO0QZN3S6G0EAT","API17TMVQ2J7Z","3PEG1BH7AEDCPKTV9M6N3A4F0EHKBR","","423","img/flower6.png","74","424","1","1","2","2","1,0,0,1,1,0,1,0,1","1,0,0,1,1,0,1,0,1","1",""
"","html-keyboard-response","190","53303","0.0-190.0","36PW28KO40I66UUNYO0QZN3S6G0EAT","API17TMVQ2J7Z","3PEG1BH7AEDCPKTV9M6N3A4F0EHKBR","","null","<img src=""img/flower6.png"" style=""width:200px; border:14px solid green;"">","null","","","","","","","","",""
"","image-keyboard-response","191","53362","0.0-191.0","36PW28KO40I66UUNYO0QZN3S6G0EAT","API17TMVQ2J7Z","3PEG1BH7AEDCPKTV9M6N3A4F0EHKBR","","59","img/flower1.png","75","61","2","0","3","2","1,0,0,1,1,0,1,0,1","1,0,0,1,1,0,1,0,1","1",""
"","html-keyboard-response","192","53672","0.0-192.0","36PW28KO40I66UUNYO0QZN3S6G0EAT","API17TMVQ2J7Z","3PEG1BH7AEDCPKTV9M6N3A4F0EHKBR","","null","<img src=""img/flower1.png"" style=""width:200px;border:14px solid red;"">","null","","","","","","","","",""
"","image-keyboard-response","193","53765","0.0-193.0","36PW28KO40I66UUNYO0QZN3S6G0EAT","API17TMVQ2J7Z","3PEG1BH7AEDCPKTV9M6N3A4F0EHKBR","","92","img/flower2.png","75","93","2","0","1","2","1,0,0,1,1,0,1,0,1","1,0,0,1,1,0,1,0,1","1",""
"","html-keyboard-response","194","54072","0.0-194.0","36PW28KO40I66UUNYO0QZN3S6G0EAT","API17TMVQ2J7Z","3PEG1BH7AEDCPKTV9M6N3A4F0EHKBR","","null","<img src=""img/flower2.png"" style=""width:200px;border:14px solid red;"">","null","","","","","","","","",""
"","image-keyboard-response","195","54107","0.0-195.0","36PW28KO40I66UUNYO0QZN3S6G0EAT","API17TMVQ2J7Z","3PEG1BH7AEDCPKTV9M6N3A4F0EHKBR","","34","img/flower1.png","74","34","1","1","3","2","1,0,0,1,1,0,1,0,1","1,0,0,1,1,0,1,0,1","1",""
"","html-keyboard-response","196","54419","0.0-196.0","36PW28KO40I66UUNYO0QZN3S6G0EAT","API17TMVQ2J7Z","3PEG1BH7AEDCPKTV9M6N3A4F0EHKBR","","null","<img src=""img/flower1.png"" style=""width:200px; border:14px solid green;"">","null","","","","","","","","",""
"","image-keyboard-response","197","54472","0.0-197.0","36PW28KO40I66UUNYO0QZN3S6G0EAT","API17TMVQ2J7Z","3PEG1BH7AEDCPKTV9M6N3A4F0EHKBR","","52","img/flower6.png","75","53","2","1","2","2","1,0,0,1,1,0,1,0,1","1,0,0,1,1,0,1,0,1","1",""
"","html-keyboard-response","198","54788","0.0-198.0","36PW28KO40I66UUNYO0QZN3S6G0EAT","API17TMVQ2J7Z","3PEG1BH7AEDCPKTV9M6N3A4F0EHKBR","","null","<img src=""img/flower6.png"" style=""width:200px; border:14px solid green;"">","null","","","","","","","","",""
"","image-keyboard-response","199","54826","0.0-199.0","36PW28KO40I66UUNYO0QZN3S6G0EAT","API17TMVQ2J7Z","3PEG1BH7AEDCPKTV9M6N3A4F0EHKBR","","37","img/flower2.png","75","38","2","0","1","2","1,0,0,1,1,0,1,0,1","1,0,0,1,1,0,1,0,1","1",""
"","html-keyboard-response","200","55142","0.0-200.0","36PW28KO40I66UUNYO0QZN3S6G0EAT","API17TMVQ2J7Z","3PEG1BH7AEDCPKTV9M6N3A4F0EHKBR","","null","<img src=""img/flower2.png"" style=""width:200px;border:14px solid red;"">","null","","","","","","","","",""
"","image-keyboard-response","201","55153","0.0-201.0","36PW28KO40I66UUNYO0QZN3S6G0EAT","API17TMVQ2J7Z","3PEG1BH7AEDCPKTV9M6N3A4F0EHKBR","","11","img/flower2.png","74","11","1","1","1","2","1,0,0,1,1,0,1,0,1","1,0,0,1,1,0,1,0,1","1",""
"","html-keyboard-response","202","55457","0.0-202.0","36PW28KO40I66UUNYO0QZN3S6G0EAT","API17TMVQ2J7Z","3PEG1BH7AEDCPKTV9M6N3A4F0EHKBR","","null","<img src=""img/flower2.png"" style=""width:200px; border:14px solid green;"">","null","","","","","","","","",""
"","image-keyboard-response","203","55538","0.0-203.0","36PW28KO40I66UUNYO0QZN3S6G0EAT","API17TMVQ2J7Z","3PEG1BH7AEDCPKTV9M6N3A4F0EHKBR","","79","img/flower1.png","75","80","2","0","3","2","1,0,0,1,1,0,1,0,1","1,0,0,1,1,0,1,0,1","1",""
"","html-keyboard-response","204","55845","0.0-204.0","36PW28KO40I66UUNYO0QZN3S6G0EAT","API17TMVQ2J7Z","3PEG1BH7AEDCPKTV9M6N3A4F0EHKBR","","null","<img src=""img/flower1.png"" style=""width:200px;border:14px solid red;"">","null","","","","","","","","",""
"","image-keyboard-response","205","55883","0.0-205.0","36PW28KO40I66UUNYO0QZN3S6G0EAT","API17TMVQ2J7Z","3PEG1BH7AEDCPKTV9M6N3A4F0EHKBR","","36","img/flower1.png","74","38","1","1","3","2","1,0,0,1,1,0,1,0,1","1,0,0,1,1,0,1,0,1","1",""
"","html-keyboard-response","206","56191","0.0-206.0","36PW28KO40I66UUNYO0QZN3S6G0EAT","API17TMVQ2J7Z","3PEG1BH7AEDCPKTV9M6N3A4F0EHKBR","","null","<img src=""img/flower1.png"" style=""width:200px; border:14px solid green;"">","null","","","","","","","","",""
"","image-keyboard-response","207","56210","0.0-207.0","36PW28KO40I66UUNYO0QZN3S6G0EAT","API17TMVQ2J7Z","3PEG1BH7AEDCPKTV9M6N3A4F0EHKBR","","17","img/flower6.png","75","18","2","1","2","2","1,0,0,1,1,0,1,0,1","1,0,0,1,1,0,1,0,1","1",""
"","html-keyboard-response","208","56524","0.0-208.0","36PW28KO40I66UUNYO0QZN3S6G0EAT","API17TMVQ2J7Z","3PEG1BH7AEDCPKTV9M6N3A4F0EHKBR","","null","<img src=""img/flower6.png"" style=""width:200px; border:14px solid green;"">","null","","","","","","","","",""
"","image-keyboard-response","209","56929","0.0-209.0","36PW28KO40I66UUNYO0QZN3S6G0EAT","API17TMVQ2J7Z","3PEG1BH7AEDCPKTV9M6N3A4F0EHKBR","","405","img/flower2.png","76","406","3","0","1","2","1,0,0,1,1,0,1,0,1","1,0,0,1,1,0,1,0,1","1",""
"","html-keyboard-response","210","57248","0.0-210.0","36PW28KO40I66UUNYO0QZN3S6G0EAT","API17TMVQ2J7Z","3PEG1BH7AEDCPKTV9M6N3A4F0EHKBR","","null","<img src=""img/flower2.png"" style=""width:200px;border:14px solid red;"">","null","","","","","","","","",""
"","image-keyboard-response","211","57318","0.0-211.0","36PW28KO40I66UUNYO0QZN3S6G0EAT","API17TMVQ2J7Z","3PEG1BH7AEDCPKTV9M6N3A4F0EHKBR","","69","img/flower2.png","75","70","2","0","1","2","1,0,0,1,1,0,1,0,1","1,0,0,1,1,0,1,0,1","1",""
"","html-keyboard-response","212","57627","0.0-212.0","36PW28KO40I66UUNYO0QZN3S6G0EAT","API17TMVQ2J7Z","3PEG1BH7AEDCPKTV9M6N3A4F0EHKBR","","null","<img src=""img/flower2.png"" style=""width:200px;border:14px solid red;"">","null","","","","","","","","",""
"","image-keyboard-response","213","57751","0.0-213.0","36PW28KO40I66UUNYO0QZN3S6G0EAT","API17TMVQ2J7Z","3PEG1BH7AEDCPKTV9M6N3A4F0EHKBR","","123","img/flower6.png","74","124","1","1","2","2","1,0,0,1,1,0,1,0,1","1,0,0,1,1,0,1,0,1","1",""
"","html-keyboard-response","214","58065","0.0-214.0","36PW28KO40I66UUNYO0QZN3S6G0EAT","API17TMVQ2J7Z","3PEG1BH7AEDCPKTV9M6N3A4F0EHKBR","","null","<img src=""img/flower6.png"" style=""width:200px; border:14px solid green;"">","null","","","","","","","","",""
"","image-keyboard-response","215","58087","0.0-215.0","36PW28KO40I66UUNYO0QZN3S6G0EAT","API17TMVQ2J7Z","3PEG1BH7AEDCPKTV9M6N3A4F0EHKBR","","21","img/flower1.png","75","22","2","0","3","2","1,0,0,1,1,0,1,0,1","1,0,0,1,1,0,1,0,1","1",""
"","html-keyboard-response","216","58398","0.0-216.0","36PW28KO40I66UUNYO0QZN3S6G0EAT","API17TMVQ2J7Z","3PEG1BH7AEDCPKTV9M6N3A4F0EHKBR","","null","<img src=""img/flower1.png"" style=""width:200px;border:14px solid red;"">","null","","","","","","","","",""
"","image-keyboard-response","217","58478","0.0-217.0","36PW28KO40I66UUNYO0QZN3S6G0EAT","API17TMVQ2J7Z","3PEG1BH7AEDCPKTV9M6N3A4F0EHKBR","","79","img/flower2.png","74","81","1","1","1","2","1,0,0,1,1,0,1,0,1","1,0,0,1,1,0,1,0,1","1",""
"","html-keyboard-response","218","58783","0.0-218.0","36PW28KO40I66UUNYO0QZN3S6G0EAT","API17TMVQ2J7Z","3PEG1BH7AEDCPKTV9M6N3A4F0EHKBR","","null","<img src=""img/flower2.png"" style=""width:200px; border:14px solid green;"">","null","","","","","","","","",""
"","image-keyboard-response","219","58879","0.0-219.0","36PW28KO40I66UUNYO0QZN3S6G0EAT","API17TMVQ2J7Z","3PEG1BH7AEDCPKTV9M6N3A4F0EHKBR","","94","img/flower6.png","74","95","1","1","2","2","1,0,0,1,1,0,1,0,1","1,0,0,1,1,0,1,0,1","1",""
"","html-keyboard-response","220","59184","0.0-220.0","36PW28KO40I66UUNYO0QZN3S6G0EAT","API17TMVQ2J7Z","3PEG1BH7AEDCPKTV9M6N3A4F0EHKBR","","null","<img src=""img/flower6.png"" style=""width:200px; border:14px solid green;"">","null","","","","","","","","",""
"","image-keyboard-response","221","59222","0.0-221.0","36PW28KO40I66UUNYO0QZN3S6G0EAT","API17TMVQ2J7Z","3PEG1BH7AEDCPKTV9M6N3A4F0EHKBR","","37","img/flower2.png","76","37","3","0","1","2","1,0,0,1,1,0,1,0,1","1,0,0,1,1,0,1,0,1","1",""
"","html-keyboard-response","222","59532","0.0-222.0","36PW28KO40I66UUNYO0QZN3S6G0EAT","API17TMVQ2J7Z","3PEG1BH7AEDCPKTV9M6N3A4F0EHKBR","","null","<img src=""img/flower2.png"" style=""width:200px;border:14px solid red;"">","null","","","","","","","","",""
"","image-keyboard-response","223","59567","0.0-223.0","36PW28KO40I66UUNYO0QZN3S6G0EAT","API17TMVQ2J7Z","3PEG1BH7AEDCPKTV9M6N3A4F0EHKBR","","34","img/flower6.png","74","36","1","1","2","2","1,0,0,1,1,0,1,0,1","1,0,0,1,1,0,1,0,1","1",""
"","html-keyboard-response","224","59870","0.0-224.0","36PW28KO40I66UUNYO0QZN3S6G0EAT","API17TMVQ2J7Z","3PEG1BH7AEDCPKTV9M6N3A4F0EHKBR","","null","<img src=""img/flower6.png"" style=""width:200px; border:14px solid green;"">","null","","","","","","","","",""
"","image-keyboard-response","225","59928","0.0-225.0","36PW28KO40I66UUNYO0QZN3S6G0EAT","API17TMVQ2J7Z","3PEG1BH7AEDCPKTV9M6N3A4F0EHKBR","","57","img/flower1.png","75","58","2","0","3","2","1,0,0,1,1,0,1,0,1","1,0,0,1,1,0,1,0,1","1",""
"","html-keyboard-response","226","60233","0.0-226.0","36PW28KO40I66UUNYO0QZN3S6G0EAT","API17TMVQ2J7Z","3PEG1BH7AEDCPKTV9M6N3A4F0EHKBR","","null","<img src=""img/flower1.png"" style=""width:200px;border:14px solid red;"">","null","","","","","","","","",""
"","image-keyboard-response","227","60309","0.0-227.0","36PW28KO40I66UUNYO0QZN3S6G0EAT","API17TMVQ2J7Z","3PEG1BH7AEDCPKTV9M6N3A4F0EHKBR","","75","img/flower2.png","76","76","3","0","1","2","1,0,0,1,1,0,1,0,1","1,0,0,1,1,0,1,0,1","1",""
"","html-keyboard-response","228","60618","0.0-228.0","36PW28KO40I66UUNYO0QZN3S6G0EAT","API17TMVQ2J7Z","3PEG1BH7AEDCPKTV9M6N3A4F0EHKBR","","null","<img src=""img/flower2.png"" style=""width:200px;border:14px solid red;"">","null","","","","","","","","",""
"","image-keyboard-response","229","60663","0.0-229.0","36PW28KO40I66UUNYO0QZN3S6G0EAT","API17TMVQ2J7Z","3PEG1BH7AEDCPKTV9M6N3A4F0EHKBR","","44","img/flower2.png","76","46","3","0","1","2","1,0,0,1,1,0,1,0,1","1,0,0,1,1,0,1,0,1","1",""
"","html-keyboard-response","230","60973","0.0-230.0","36PW28KO40I66UUNYO0QZN3S6G0EAT","API17TMVQ2J7Z","3PEG1BH7AEDCPKTV9M6N3A4F0EHKBR","","null","<img src=""img/flower2.png"" style=""width:200px;border:14px solid red;"">","null","","","","","","","","",""
"","image-keyboard-response","231","61074","0.0-231.0","36PW28KO40I66UUNYO0QZN3S6G0EAT","API17TMVQ2J7Z","3PEG1BH7AEDCPKTV9M6N3A4F0EHKBR","","99","img/flower6.png","75","101","2","1","2","2","1,0,0,1,1,0,1,0,1","1,0,0,1,1,0,1,0,1","1",""
"","html-keyboard-response","232","61390","0.0-232.0","36PW28KO40I66UUNYO0QZN3S6G0EAT","API17TMVQ2J7Z","3PEG1BH7AEDCPKTV9M6N3A4F0EHKBR","","null","<img src=""img/flower6.png"" style=""width:200px; border:14px solid green;"">","null","","","","","","","","",""
"","image-keyboard-response","233","61433","0.0-233.0","36PW28KO40I66UUNYO0QZN3S6G0EAT","API17TMVQ2J7Z","3PEG1BH7AEDCPKTV9M6N3A4F0EHKBR","","43","img/flower6.png","74","44","1","1","2","2","1,0,0,1,1,0,1,0,1","1,0,0,1,1,0,1,0,1","1",""
"","html-keyboard-response","234","61737","0.0-234.0","36PW28KO40I66UUNYO0QZN3S6G0EAT","API17TMVQ2J7Z","3PEG1BH7AEDCPKTV9M6N3A4F0EHKBR","","null","<img src=""img/flower6.png"" style=""width:200px; border:14px solid green;"">","null","","","","","","","","",""
"","image-keyboard-response","235","61776","0.0-235.0","36PW28KO40I66UUNYO0QZN3S6G0EAT","API17TMVQ2J7Z","3PEG1BH7AEDCPKTV9M6N3A4F0EHKBR","","37","img/flower1.png","75","39","2","0","3","2","1,0,0,1,1,0,1,0,1","1,0,0,1,1,0,1,0,1","1",""
"","html-keyboard-response","236","62091","0.0-236.0","36PW28KO40I66UUNYO0QZN3S6G0EAT","API17TMVQ2J7Z","3PEG1BH7AEDCPKTV9M6N3A4F0EHKBR","","null","<img src=""img/flower1.png"" style=""width:200px;border:14px solid red;"">","null","","","","","","","","",""
"","image-keyboard-response","237","62180","0.0-237.0","36PW28KO40I66UUNYO0QZN3S6G0EAT","API17TMVQ2J7Z","3PEG1BH7AEDCPKTV9M6N3A4F0EHKBR","","88","img/flower6.png","74","89","1","1","2","2","1,0,0,1,1,0,1,0,1","1,0,0,1,1,0,1,0,1","1",""
"","html-keyboard-response","238","62493","0.0-238.0","36PW28KO40I66UUNYO0QZN3S6G0EAT","API17TMVQ2J7Z","3PEG1BH7AEDCPKTV9M6N3A4F0EHKBR","","null","<img src=""img/flower6.png"" style=""width:200px; border:14px solid green;"">","null","","","","","","","","",""
"","image-keyboard-response","239","62566","0.0-239.0","36PW28KO40I66UUNYO0QZN3S6G0EAT","API17TMVQ2J7Z","3PEG1BH7AEDCPKTV9M6N3A4F0EHKBR","","72","img/flower6.png","74","73","1","1","2","2","1,0,0,1,1,0,1,0,1","1,0,0,1,1,0,1,0,1","1",""
"","html-keyboard-response","240","62878","0.0-240.0","36PW28KO40I66UUNYO0QZN3S6G0EAT","API17TMVQ2J7Z","3PEG1BH7AEDCPKTV9M6N3A4F0EHKBR","","null","<img src=""img/flower6.png"" style=""width:200px; border:14px solid green;"">","null","","","","","","","","",""
"","image-keyboard-response","241","62910","0.0-241.0","36PW28KO40I66UUNYO0QZN3S6G0EAT","API17TMVQ2J7Z","3PEG1BH7AEDCPKTV9M6N3A4F0EHKBR","","30","img/flower2.png","74","31","1","1","1","2","1,0,0,1,1,0,1,0,1","1,0,0,1,1,0,1,0,1","1",""
"","html-keyboard-response","242","63211","0.0-242.0","36PW28KO40I66UUNYO0QZN3S6G0EAT","API17TMVQ2J7Z","3PEG1BH7AEDCPKTV9M6N3A4F0EHKBR","","null","<img src=""img/flower2.png"" style=""width:200px; border:14px solid green;"">","null","","","","","","","","",""
"","image-keyboard-response","243","63255","0.0-243.0","36PW28KO40I66UUNYO0QZN3S6G0EAT","API17TMVQ2J7Z","3PEG1BH7AEDCPKTV9M6N3A4F0EHKBR","","41","img/flower6.png","74","43","1","1","2","2","1,0,0,1,1,0,1,0,1","1,0,0,1,1,0,1,0,1","1",""
"","html-keyboard-response","244","63566","0.0-244.0","36PW28KO40I66UUNYO0QZN3S6G0EAT","API17TMVQ2J7Z","3PEG1BH7AEDCPKTV9M6N3A4F0EHKBR","","null","<img src=""img/flower6.png"" style=""width:200px; border:14px solid green;"">","null","","","","","","","","",""
"","image-keyboard-response","245","63628","0.0-245.0","36PW28KO40I66UUNYO0QZN3S6G0EAT","API17TMVQ2J7Z","3PEG1BH7AEDCPKTV9M6N3A4F0EHKBR","","58","img/flower1.png","74","60","1","1","3","2","1,0,0,1,1,0,1,0,1","1,0,0,1,1,0,1,0,1","1",""
"","html-keyboard-response","246","63943","0.0-246.0","36PW28KO40I66UUNYO0QZN3S6G0EAT","API17TMVQ2J7Z","3PEG1BH7AEDCPKTV9M6N3A4F0EHKBR","","null","<img src=""img/flower1.png"" style=""width:200px; border:14px solid green;"">","null","","","","","","","","",""
"","image-keyboard-response","247","64007","0.0-247.0","36PW28KO40I66UUNYO0QZN3S6G0EAT","API17TMVQ2J7Z","3PEG1BH7AEDCPKTV9M6N3A4F0EHKBR","","62","img/flower2.png","74","63","1","1","1","2","1,0,0,1,1,0,1,0,1","1,0,0,1,1,0,1,0,1","1",""
"","html-keyboard-response","248","64313","0.0-248.0","36PW28KO40I66UUNYO0QZN3S6G0EAT","API17TMVQ2J7Z","3PEG1BH7AEDCPKTV9M6N3A4F0EHKBR","","null","<img src=""img/flower2.png"" style=""width:200px; border:14px solid green;"">","null","","","","","","","","",""
"","image-keyboard-response","249","64363","0.0-249.0","36PW28KO40I66UUNYO0QZN3S6G0EAT","API17TMVQ2J7Z","3PEG1BH7AEDCPKTV9M6N3A4F0EHKBR","","48","img/flower6.png","74","49","1","1","2","2","1,0,0,1,1,0,1,0,1","1,0,0,1,1,0,1,0,1","1",""
"","html-keyboard-response","250","64668","0.0-250.0","36PW28KO40I66UUNYO0QZN3S6G0EAT","API17TMVQ2J7Z","3PEG1BH7AEDCPKTV9M6N3A4F0EHKBR","","null","<img src=""img/flower6.png"" style=""width:200px; border:14px solid green;"">","null","","","","","","","","",""
"","image-keyboard-response","251","64756","0.0-251.0","36PW28KO40I66UUNYO0QZN3S6G0EAT","API17TMVQ2J7Z","3PEG1BH7AEDCPKTV9M6N3A4F0EHKBR","","87","img/flower1.png","74","87","1","1","3","2","1,0,0,1,1,0,1,0,1","1,0,0,1,1,0,1,0,1","1",""
"","html-keyboard-response","252","65069","0.0-252.0","36PW28KO40I66UUNYO0QZN3S6G0EAT","API17TMVQ2J7Z","3PEG1BH7AEDCPKTV9M6N3A4F0EHKBR","","null","<img src=""img/flower1.png"" style=""width:200px; border:14px solid green;"">","null","","","","","","","","",""
"","image-keyboard-response","253","65079","0.0-253.0","36PW28KO40I66UUNYO0QZN3S6G0EAT","API17TMVQ2J7Z","3PEG1BH7AEDCPKTV9M6N3A4F0EHKBR","","8","img/flower1.png","74","9","1","1","3","2","1,0,0,1,1,0,1,0,1","1,0,0,1,1,0,1,0,1","1",""
"","html-keyboard-response","254","65385","0.0-254.0","36PW28KO40I66UUNYO0QZN3S6G0EAT","API17TMVQ2J7Z","3PEG1BH7AEDCPKTV9M6N3A4F0EHKBR","","null","<img src=""img/flower1.png"" style=""width:200px; border:14px solid green;"">","null","","","","","","","","",""
"","image-keyboard-response","255","65477","0.0-255.0","36PW28KO40I66UUNYO0QZN3S6G0EAT","API17TMVQ2J7Z","3PEG1BH7AEDCPKTV9M6N3A4F0EHKBR","","91","img/flower6.png","74","93","1","1","2","2","1,0,0,1,1,0,1,0,1","1,0,0,1,1,0,1,0,1","1",""
"","html-keyboard-response","256","65786","0.0-256.0","36PW28KO40I66UUNYO0QZN3S6G0EAT","API17TMVQ2J7Z","3PEG1BH7AEDCPKTV9M6N3A4F0EHKBR","","null","<img src=""img/flower6.png"" style=""width:200px; border:14px solid green;"">","null","","","","","","","","",""
"","image-keyboard-response","257","65836","0.0-257.0","36PW28KO40I66UUNYO0QZN3S6G0EAT","API17TMVQ2J7Z","3PEG1BH7AEDCPKTV9M6N3A4F0EHKBR","","50","img/flower6.png","74","50","1","1","2","2","1,0,0,1,1,0,1,0,1","1,0,0,1,1,0,1,0,1","1",""
"","html-keyboard-response","258","66150","0.0-258.0","36PW28KO40I66UUNYO0QZN3S6G0EAT","API17TMVQ2J7Z","3PEG1BH7AEDCPKTV9M6N3A4F0EHKBR","","null","<img src=""img/flower6.png"" style=""width:200px; border:14px solid green;"">","null","","","","","","","","",""
"","image-keyboard-response","259","66182","0.0-259.0","36PW28KO40I66UUNYO0QZN3S6G0EAT","API17TMVQ2J7Z","3PEG1BH7AEDCPKTV9M6N3A4F0EHKBR","","31","img/flower2.png","74","32","1","1","1","2","1,0,0,1,1,0,1,0,1","1,0,0,1,1,0,1,0,1","1",""
"","html-keyboard-response","260","66488","0.0-260.0","36PW28KO40I66UUNYO0QZN3S6G0EAT","API17TMVQ2J7Z","3PEG1BH7AEDCPKTV9M6N3A4F0EHKBR","","null","<img src=""img/flower2.png"" style=""width:200px; border:14px solid green;"">","null","","","","","","","","",""
"","image-keyboard-response","261","66527","0.0-261.0","36PW28KO40I66UUNYO0QZN3S6G0EAT","API17TMVQ2J7Z","3PEG1BH7AEDCPKTV9M6N3A4F0EHKBR","","38","img/flower6.png","74","38","1","1","2","2","1,0,0,1,1,0,1,0,1","1,0,0,1,1,0,1,0,1","1",""
"","html-keyboard-response","262","66835","0.0-262.0","36PW28KO40I66UUNYO0QZN3S6G0EAT","API17TMVQ2J7Z","3PEG1BH7AEDCPKTV9M6N3A4F0EHKBR","","null","<img src=""img/flower6.png"" style=""width:200px; border:14px solid green;"">","null","","","","","","","","",""
"","image-keyboard-response","263","66883","0.0-263.0","36PW28KO40I66UUNYO0QZN3S6G0EAT","API17TMVQ2J7Z","3PEG1BH7AEDCPKTV9M6N3A4F0EHKBR","","47","img/flower6.png","74","47","1","1","2","2","1,0,0,1,1,0,1,0,1","1,0,0,1,1,0,1,0,1","1",""
"","html-keyboard-response","264","67189","0.0-264.0","36PW28KO40I66UUNYO0QZN3S6G0EAT","API17TMVQ2J7Z","3PEG1BH7AEDCPKTV9M6N3A4F0EHKBR","","null","<img src=""img/flower6.png"" style=""width:200px; border:14px solid green;"">","null","","","","","","","","",""
"","image-keyboard-response","265","67202","0.0-265.0","36PW28KO40I66UUNYO0QZN3S6G0EAT","API17TMVQ2J7Z","3PEG1BH7AEDCPKTV9M6N3A4F0EHKBR","","13","img/flower1.png","74","13","1","1","3","2","1,0,0,1,1,0,1,0,1","1,0,0,1,1,0,1,0,1","1",""
"","html-keyboard-response","266","67506","0.0-266.0","36PW28KO40I66UUNYO0QZN3S6G0EAT","API17TMVQ2J7Z","3PEG1BH7AEDCPKTV9M6N3A4F0EHKBR","","null","<img src=""img/flower1.png"" style=""width:200px; border:14px solid green;"">","null","","","","","","","","",""
"","image-keyboard-response","267","67581","0.0-267.0","36PW28KO40I66UUNYO0QZN3S6G0EAT","API17TMVQ2J7Z","3PEG1BH7AEDCPKTV9M6N3A4F0EHKBR","","75","img/flower1.png","74","76","1","1","3","2","1,0,0,1,1,0,1,0,1","1,0,0,1,1,0,1,0,1","1",""
"","html-keyboard-response","268","67891","0.0-268.0","36PW28KO40I66UUNYO0QZN3S6G0EAT","API17TMVQ2J7Z","3PEG1BH7AEDCPKTV9M6N3A4F0EHKBR","","null","<img src=""img/flower1.png"" style=""width:200px; border:14px solid green;"">","null","","","","","","","","",""
"","image-keyboard-response","269","67945","0.0-269.0","36PW28KO40I66UUNYO0QZN3S6G0EAT","API17TMVQ2J7Z","3PEG1BH7AEDCPKTV9M6N3A4F0EHKBR","","53","img/flower2.png","74","55","1","1","1","2","1,0,0,1,1,0,1,0,1","1,0,0,1,1,0,1,0,1","1",""
"","html-keyboard-response","270","68253","0.0-270.0","36PW28KO40I66UUNYO0QZN3S6G0EAT","API17TMVQ2J7Z","3PEG1BH7AEDCPKTV9M6N3A4F0EHKBR","","null","<img src=""img/flower2.png"" style=""width:200px; border:14px solid green;"">","null","","","","","","","","",""
"","image-keyboard-response","271","68303","0.0-271.0","36PW28KO40I66UUNYO0QZN3S6G0EAT","API17TMVQ2J7Z","3PEG1BH7AEDCPKTV9M6N3A4F0EHKBR","","49","img/flower6.png","74","49","1","1","2","2","1,0,0,1,1,0,1,0,1","1,0,0,1,1,0,1,0,1","1",""
"","html-keyboard-response","272","68606","0.0-272.0","36PW28KO40I66UUNYO0QZN3S6G0EAT","API17TMVQ2J7Z","3PEG1BH7AEDCPKTV9M6N3A4F0EHKBR","","null","<img src=""img/flower6.png"" style=""width:200px; border:14px solid green;"">","null","","","","","","","","",""
"","image-keyboard-response","273","68663","0.0-273.0","36PW28KO40I66UUNYO0QZN3S6G0EAT","API17TMVQ2J7Z","3PEG1BH7AEDCPKTV9M6N3A4F0EHKBR","","56","img/flower1.png","74","56","1","1","3","2","1,0,0,1,1,0,1,0,1","1,0,0,1,1,0,1,0,1","1",""
"","html-keyboard-response","274","68976","0.0-274.0","36PW28KO40I66UUNYO0QZN3S6G0EAT","API17TMVQ2J7Z","3PEG1BH7AEDCPKTV9M6N3A4F0EHKBR","","null","<img src=""img/flower1.png"" style=""width:200px; border:14px solid green;"">","null","","","","","","","","",""
"","image-keyboard-response","275","69016","0.0-275.0","36PW28KO40I66UUNYO0QZN3S6G0EAT","API17TMVQ2J7Z","3PEG1BH7AEDCPKTV9M6N3A4F0EHKBR","","38","img/flower2.png","74","40","1","1","1","2","1,0,0,1,1,0,1,0,1","1,0,0,1,1,0,1,0,1","1",""
"","html-keyboard-response","276","69323","0.0-276.0","36PW28KO40I66UUNYO0QZN3S6G0EAT","API17TMVQ2J7Z","3PEG1BH7AEDCPKTV9M6N3A4F0EHKBR","","null","<img src=""img/flower2.png"" style=""width:200px; border:14px solid green;"">","null","","","","","","","","",""
"","image-keyboard-response","277","69378","0.0-277.0","36PW28KO40I66UUNYO0QZN3S6G0EAT","API17TMVQ2J7Z","3PEG1BH7AEDCPKTV9M6N3A4F0EHKBR","","53","img/flower1.png","74","55","1","1","3","2","1,0,0,1,1,0,1,0,1","1,0,0,1,1,0,1,0,1","1",""
"","html-keyboard-response","278","69693","0.0-278.0","36PW28KO40I66UUNYO0QZN3S6G0EAT","API17TMVQ2J7Z","3PEG1BH7AEDCPKTV9M6N3A4F0EHKBR","","null","<img src=""img/flower1.png"" style=""width:200px; border:14px solid green;"">","null","","","","","","","","",""
"","image-keyboard-response","279","69736","0.0-279.0","36PW28KO40I66UUNYO0QZN3S6G0EAT","API17TMVQ2J7Z","3PEG1BH7AEDCPKTV9M6N3A4F0EHKBR","","42","img/flower2.png","74","43","1","1","1","2","1,0,0,1,1,0,1,0,1","1,0,0,1,1,0,1,0,1","1",""
"","html-keyboard-response","280","70040","0.0-280.0","36PW28KO40I66UUNYO0QZN3S6G0EAT","API17TMVQ2J7Z","3PEG1BH7AEDCPKTV9M6N3A4F0EHKBR","","null","<img src=""img/flower2.png"" style=""width:200px; border:14px solid green;"">","null","","","","","","","","",""
"","image-keyboard-response","281","70127","0.0-281.0","36PW28KO40I66UUNYO0QZN3S6G0EAT","API17TMVQ2J7Z","3PEG1BH7AEDCPKTV9M6N3A4F0EHKBR","","85","img/flower1.png","74","86","1","1","3","2","1,0,0,1,1,0,1,0,1","1,0,0,1,1,0,1,0,1","1",""
"","html-keyboard-response","282","70433","0.0-282.0","36PW28KO40I66UUNYO0QZN3S6G0EAT","API17TMVQ2J7Z","3PEG1BH7AEDCPKTV9M6N3A4F0EHKBR","","null","<img src=""img/flower1.png"" style=""width:200px; border:14px solid green;"">","null","","","","","","","","",""
"","image-keyboard-response","283","70768","0.0-283.0","36PW28KO40I66UUNYO0QZN3S6G0EAT","API17TMVQ2J7Z","3PEG1BH7AEDCPKTV9M6N3A4F0EHKBR","","333","img/flower1.png","74","334","1","1","3","2","1,0,0,1,1,0,1,0,1","1,0,0,1,1,0,1,0,1","1",""
"","html-keyboard-response","284","71089","0.0-284.0","36PW28KO40I66UUNYO0QZN3S6G0EAT","API17TMVQ2J7Z","3PEG1BH7AEDCPKTV9M6N3A4F0EHKBR","","null","<img src=""img/flower1.png"" style=""width:200px; border:14px solid green;"">","null","","","","","","","","",""
"","image-keyboard-response","285","71126","0.0-285.0","36PW28KO40I66UUNYO0QZN3S6G0EAT","API17TMVQ2J7Z","3PEG1BH7AEDCPKTV9M6N3A4F0EHKBR","","36","img/flower1.png","74","37","1","1","3","2","1,0,0,1,1,0,1,0,1","1,0,0,1,1,0,1,0,1","1",""
"","html-keyboard-response","286","71433","0.0-286.0","36PW28KO40I66UUNYO0QZN3S6G0EAT","API17TMVQ2J7Z","3PEG1BH7AEDCPKTV9M6N3A4F0EHKBR","","null","<img src=""img/flower1.png"" style=""width:200px; border:14px solid green;"">","null","","","","","","","","",""
"","image-keyboard-response","287","71491","0.0-287.0","36PW28KO40I66UUNYO0QZN3S6G0EAT","API17TMVQ2J7Z","3PEG1BH7AEDCPKTV9M6N3A4F0EHKBR","","57","img/flower6.png","74","57","1","1","2","2","1,0,0,1,1,0,1,0,1","1,0,0,1,1,0,1,0,1","1",""
"","html-keyboard-response","288","71797","0.0-288.0","36PW28KO40I66UUNYO0QZN3S6G0EAT","API17TMVQ2J7Z","3PEG1BH7AEDCPKTV9M6N3A4F0EHKBR","","null","<img src=""img/flower6.png"" style=""width:200px; border:14px solid green;"">","null","","","","","","","","",""
"","image-keyboard-response","289","71846","0.0-289.0","36PW28KO40I66UUNYO0QZN3S6G0EAT","API17TMVQ2J7Z","3PEG1BH7AEDCPKTV9M6N3A4F0EHKBR","","48","img/flower2.png","74","48","1","1","1","2","1,0,0,1,1,0,1,0,1","1,0,0,1,1,0,1,0,1","1",""
"","html-keyboard-response","290","72162","0.0-290.0","36PW28KO40I66UUNYO0QZN3S6G0EAT","API17TMVQ2J7Z","3PEG1BH7AEDCPKTV9M6N3A4F0EHKBR","","null","<img src=""img/flower2.png"" style=""width:200px; border:14px solid green;"">","null","","","","","","","","",""
"","image-keyboard-response","291","72194","0.0-291.0","36PW28KO40I66UUNYO0QZN3S6G0EAT","API17TMVQ2J7Z","3PEG1BH7AEDCPKTV9M6N3A4F0EHKBR","","32","img/flower6.png","74","32","1","1","2","2","1,0,0,1,1,0,1,0,1","1,0,0,1,1,0,1,0,1","1",""
"","html-keyboard-response","292","72508","0.0-292.0","36PW28KO40I66UUNYO0QZN3S6G0EAT","API17TMVQ2J7Z","3PEG1BH7AEDCPKTV9M6N3A4F0EHKBR","","null","<img src=""img/flower6.png"" style=""width:200px; border:14px solid green;"">","null","","","","","","","","",""
"","image-keyboard-response","293","72540","0.0-293.0","36PW28KO40I66UUNYO0QZN3S6G0EAT","API17TMVQ2J7Z","3PEG1BH7AEDCPKTV9M6N3A4F0EHKBR","","31","img/flower2.png","74","31","1","1","1","2","1,0,0,1,1,0,1,0,1","1,0,0,1,1,0,1,0,1","1",""
"","html-keyboard-response","294","72855","0.0-294.0","36PW28KO40I66UUNYO0QZN3S6G0EAT","API17TMVQ2J7Z","3PEG1BH7AEDCPKTV9M6N3A4F0EHKBR","","null","<img src=""img/flower2.png"" style=""width:200px; border:14px solid green;"">","null","","","","","","","","",""
"","image-keyboard-response","295","72893","0.0-295.0","36PW28KO40I66UUNYO0QZN3S6G0EAT","API17TMVQ2J7Z","3PEG1BH7AEDCPKTV9M6N3A4F0EHKBR","","38","img/flower2.png","74","38","1","1","1","2","1,0,0,1,1,0,1,0,1","1,0,0,1,1,0,1,0,1","1",""
"","html-keyboard-response","296","73205","0.0-296.0","36PW28KO40I66UUNYO0QZN3S6G0EAT","API17TMVQ2J7Z","3PEG1BH7AEDCPKTV9M6N3A4F0EHKBR","","null","<img src=""img/flower2.png"" style=""width:200px; border:14px solid green;"">","null","","","","","","","","",""
"","image-keyboard-response","297","73242","0.0-297.0","36PW28KO40I66UUNYO0QZN3S6G0EAT","API17TMVQ2J7Z","3PEG1BH7AEDCPKTV9M6N3A4F0EHKBR","","37","img/flower6.png","74","37","1","1","2","2","1,0,0,1,1,0,1,0,1","1,0,0,1,1,0,1,0,1","1",""
"","html-keyboard-response","298","73551","0.0-298.0","36PW28KO40I66UUNYO0QZN3S6G0EAT","API17TMVQ2J7Z","3PEG1BH7AEDCPKTV9M6N3A4F0EHKBR","","null","<img src=""img/flower6.png"" style=""width:200px; border:14px solid green;"">","null","","","","","","","","",""
"","image-keyboard-response","299","73882","0.0-299.0","36PW28KO40I66UUNYO0QZN3S6G0EAT","API17TMVQ2J7Z","3PEG1BH7AEDCPKTV9M6N3A4F0EHKBR","","330","img/flower6.png","74","330","1","1","2","2","1,0,0,1,1,0,1,0,1","1,0,0,1,1,0,1,0,1","1",""
"","html-keyboard-response","300","74200","0.0-300.0","36PW28KO40I66UUNYO0QZN3S6G0EAT","API17TMVQ2J7Z","3PEG1BH7AEDCPKTV9M6N3A4F0EHKBR","","null","<img src=""img/flower6.png"" style=""width:200px; border:14px solid green;"">","null","","","","","","","","",""
"","image-keyboard-response","301","74228","0.0-301.0","36PW28KO40I66UUNYO0QZN3S6G0EAT","API17TMVQ2J7Z","3PEG1BH7AEDCPKTV9M6N3A4F0EHKBR","","29","img/flower1.png","74","29","1","1","3","2","1,0,0,1,1,0,1,0,1","1,0,0,1,1,0,1,0,1","1",""
"","html-keyboard-response","302","74544","0.0-302.0","36PW28KO40I66UUNYO0QZN3S6G0EAT","API17TMVQ2J7Z","3PEG1BH7AEDCPKTV9M6N3A4F0EHKBR","","null","<img src=""img/flower1.png"" style=""width:200px; border:14px solid green;"">","null","","","","","","","","",""
"","image-keyboard-response","303","74580","0.0-303.0","36PW28KO40I66UUNYO0QZN3S6G0EAT","API17TMVQ2J7Z","3PEG1BH7AEDCPKTV9M6N3A4F0EHKBR","","35","img/flower1.png","74","36","1","1","3","2","1,0,0,1,1,0,1,0,1","1,0,0,1,1,0,1,0,1","1",""
"","html-keyboard-response","304","74888","0.0-304.0","36PW28KO40I66UUNYO0QZN3S6G0EAT","API17TMVQ2J7Z","3PEG1BH7AEDCPKTV9M6N3A4F0EHKBR","","null","<img src=""img/flower1.png"" style=""width:200px; border:14px solid green;"">","null","","","","","","","","",""
"","image-keyboard-response","305","74917","0.0-305.0","36PW28KO40I66UUNYO0QZN3S6G0EAT","API17TMVQ2J7Z","3PEG1BH7AEDCPKTV9M6N3A4F0EHKBR","","29","img/flower1.png","74","29","1","1","3","2","1,0,0,1,1,0,1,0,1","1,0,0,1,1,0,1,0,1","1",""
"","html-keyboard-response","306","75234","0.0-306.0","36PW28KO40I66UUNYO0QZN3S6G0EAT","API17TMVQ2J7Z","3PEG1BH7AEDCPKTV9M6N3A4F0EHKBR","","null","<img src=""img/flower1.png"" style=""width:200px; border:14px solid green;"">","null","","","","","","","","",""
"","image-keyboard-response","307","75259","0.0-307.0","36PW28KO40I66UUNYO0QZN3S6G0EAT","API17TMVQ2J7Z","3PEG1BH7AEDCPKTV9M6N3A4F0EHKBR","","26","img/flower1.png","74","26","1","1","3","2","1,0,0,1,1,0,1,0,1","1,0,0,1,1,0,1,0,1","1",""
"","html-keyboard-response","308","75579","0.0-308.0","36PW28KO40I66UUNYO0QZN3S6G0EAT","API17TMVQ2J7Z","3PEG1BH7AEDCPKTV9M6N3A4F0EHKBR","","null","<img src=""img/flower1.png"" style=""width:200px; border:14px solid green;"">","null","","","","","","","","",""
"","image-keyboard-response","309","75592","0.0-309.0","36PW28KO40I66UUNYO0QZN3S6G0EAT","API17TMVQ2J7Z","3PEG1BH7AEDCPKTV9M6N3A4F0EHKBR","","11","img/flower1.png","74","12","1","1","3","2","1,0,0,1,1,0,1,0,1","1,0,0,1,1,0,1,0,1","1",""
"","html-keyboard-response","310","75894","0.0-310.0","36PW28KO40I66UUNYO0QZN3S6G0EAT","API17TMVQ2J7Z","3PEG1BH7AEDCPKTV9M6N3A4F0EHKBR","","null","<img src=""img/flower1.png"" style=""width:200px; border:14px solid green;"">","null","","","","","","","","",""
"","image-keyboard-response","311","75973","0.0-311.0","36PW28KO40I66UUNYO0QZN3S6G0EAT","API17TMVQ2J7Z","3PEG1BH7AEDCPKTV9M6N3A4F0EHKBR","","77","img/flower2.png","74","77","1","1","1","2","1,0,0,1,1,0,1,0,1","1,0,0,1,1,0,1,0,1","1",""
"","html-keyboard-response","312","76280","0.0-312.0","36PW28KO40I66UUNYO0QZN3S6G0EAT","API17TMVQ2J7Z","3PEG1BH7AEDCPKTV9M6N3A4F0EHKBR","","null","<img src=""img/flower2.png"" style=""width:200px; border:14px solid green;"">","null","","","","","","","","",""
"","image-keyboard-response","313","76299","0.0-313.0","36PW28KO40I66UUNYO0QZN3S6G0EAT","API17TMVQ2J7Z","3PEG1BH7AEDCPKTV9M6N3A4F0EHKBR","","18","img/flower2.png","74","19","1","1","1","2","1,0,0,1,1,0,1,0,1","1,0,0,1,1,0,1,0,1","1",""
"","html-keyboard-response","314","76612","0.0-314.0","36PW28KO40I66UUNYO0QZN3S6G0EAT","API17TMVQ2J7Z","3PEG1BH7AEDCPKTV9M6N3A4F0EHKBR","","null","<img src=""img/flower2.png"" style=""width:200px; border:14px solid green;"">","null","","","","","","","","",""
"","image-keyboard-response","315","76661","0.0-315.0","36PW28KO40I66UUNYO0QZN3S6G0EAT","API17TMVQ2J7Z","3PEG1BH7AEDCPKTV9M6N3A4F0EHKBR","","47","img/flower2.png","74","48","1","1","1","2","1,0,0,1,1,0,1,0,1","1,0,0,1,1,0,1,0,1","1",""
"","html-keyboard-response","316","76962","0.0-316.0","36PW28KO40I66UUNYO0QZN3S6G0EAT","API17TMVQ2J7Z","3PEG1BH7AEDCPKTV9M6N3A4F0EHKBR","","null","<img src=""img/flower2.png"" style=""width:200px; border:14px solid green;"">","null","","","","","","","","",""
"","image-keyboard-response","317","77008","0.0-317.0","36PW28KO40I66UUNYO0QZN3S6G0EAT","API17TMVQ2J7Z","3PEG1BH7AEDCPKTV9M6N3A4F0EHKBR","","47","img/flower6.png","74","47","1","1","2","2","1,0,0,1,1,0,1,0,1","1,0,0,1,1,0,1,0,1","1",""
"","html-keyboard-response","318","77326","0.0-318.0","36PW28KO40I66UUNYO0QZN3S6G0EAT","API17TMVQ2J7Z","3PEG1BH7AEDCPKTV9M6N3A4F0EHKBR","","null","<img src=""img/flower6.png"" style=""width:200px; border:14px solid green;"">","null","","","","","","","","",""
"","image-keyboard-response","319","77357","0.0-319.0","36PW28KO40I66UUNYO0QZN3S6G0EAT","API17TMVQ2J7Z","3PEG1BH7AEDCPKTV9M6N3A4F0EHKBR","","30","img/flower2.png","74","31","1","1","1","2","1,0,0,1,1,0,1,0,1","1,0,0,1,1,0,1,0,1","1",""
"","html-keyboard-response","320","77674","0.0-320.0","36PW28KO40I66UUNYO0QZN3S6G0EAT","API17TMVQ2J7Z","3PEG1BH7AEDCPKTV9M6N3A4F0EHKBR","","null","<img src=""img/flower2.png"" style=""width:200px; border:14px solid green;"">","null","","","","","","","","",""
"","image-keyboard-response","321","77734","0.0-321.0","36PW28KO40I66UUNYO0QZN3S6G0EAT","API17TMVQ2J7Z","3PEG1BH7AEDCPKTV9M6N3A4F0EHKBR","","59","img/flower6.png","74","59","1","1","2","2","1,0,0,1,1,0,1,0,1","1,0,0,1,1,0,1,0,1","1",""
"","html-keyboard-response","322","78059","0.0-322.0","36PW28KO40I66UUNYO0QZN3S6G0EAT","API17TMVQ2J7Z","3PEG1BH7AEDCPKTV9M6N3A4F0EHKBR","","null","<img src=""img/flower6.png"" style=""width:200px; border:14px solid green;"">","null","","","","","","","","",""
"","image-keyboard-response","323","78103","0.0-323.0","36PW28KO40I66UUNYO0QZN3S6G0EAT","API17TMVQ2J7Z","3PEG1BH7AEDCPKTV9M6N3A4F0EHKBR","","43","img/flower2.png","74","43","1","1","1","2","1,0,0,1,1,0,1,0,1","1,0,0,1,1,0,1,0,1","1",""
"","html-keyboard-response","324","78407","0.0-324.0","36PW28KO40I66UUNYO0QZN3S6G0EAT","API17TMVQ2J7Z","3PEG1BH7AEDCPKTV9M6N3A4F0EHKBR","","null","<img src=""img/flower2.png"" style=""width:200px; border:14px solid green;"">","null","","","","","","","","",""
"","image-keyboard-response","325","78458","0.0-325.0","36PW28KO40I66UUNYO0QZN3S6G0EAT","API17TMVQ2J7Z","3PEG1BH7AEDCPKTV9M6N3A4F0EHKBR","","48","img/flower6.png","74","49","1","1","2","2","1,0,0,1,1,0,1,0,1","1,0,0,1,1,0,1,0,1","1",""
"","html-keyboard-response","326","78762","0.0-326.0","36PW28KO40I66UUNYO0QZN3S6G0EAT","API17TMVQ2J7Z","3PEG1BH7AEDCPKTV9M6N3A4F0EHKBR","","null","<img src=""img/flower6.png"" style=""width:200px; border:14px solid green;"">","null","","","","","","","","",""
"","image-keyboard-response","327","78824","0.0-327.0","36PW28KO40I66UUNYO0QZN3S6G0EAT","API17TMVQ2J7Z","3PEG1BH7AEDCPKTV9M6N3A4F0EHKBR","","62","img/flower1.png","74","63","1","1","3","2","1,0,0,1,1,0,1,0,1","1,0,0,1,1,0,1,0,1","1",""
"","html-keyboard-response","328","79131","0.0-328.0","36PW28KO40I66UUNYO0QZN3S6G0EAT","API17TMVQ2J7Z","3PEG1BH7AEDCPKTV9M6N3A4F0EHKBR","","null","<img src=""img/flower1.png"" style=""width:200px; border:14px solid green;"">","null","","","","","","","","",""
"","image-keyboard-response","329","79164","0.0-329.0","36PW28KO40I66UUNYO0QZN3S6G0EAT","API17TMVQ2J7Z","3PEG1BH7AEDCPKTV9M6N3A4F0EHKBR","","31","img/flower2.png","74","33","1","1","1","2","1,0,0,1,1,0,1,0,1","1,0,0,1,1,0,1,0,1","1",""
"","html-keyboard-response","330","79478","0.0-330.0","36PW28KO40I66UUNYO0QZN3S6G0EAT","API17TMVQ2J7Z","3PEG1BH7AEDCPKTV9M6N3A4F0EHKBR","","null","<img src=""img/flower2.png"" style=""width:200px; border:14px solid green;"">","null","","","","","","","","",""
"","image-keyboard-response","331","79491","0.0-331.0","36PW28KO40I66UUNYO0QZN3S6G0EAT","API17TMVQ2J7Z","3PEG1BH7AEDCPKTV9M6N3A4F0EHKBR","","11","img/flower1.png","74","13","1","1","3","2","1,0,0,1,1,0,1,0,1","1,0,0,1,1,0,1,0,1","1",""
"","html-keyboard-response","332","79794","0.0-332.0","36PW28KO40I66UUNYO0QZN3S6G0EAT","API17TMVQ2J7Z","3PEG1BH7AEDCPKTV9M6N3A4F0EHKBR","","null","<img src=""img/flower1.png"" style=""width:200px; border:14px solid green;"">","null","","","","","","","","",""
"","image-keyboard-response","333","79824","0.0-333.0","36PW28KO40I66UUNYO0QZN3S6G0EAT","API17TMVQ2J7Z","3PEG1BH7AEDCPKTV9M6N3A4F0EHKBR","","28","img/flower1.png","74","29","1","1","3","2","1,0,0,1,1,0,1,0,1","1,0,0,1,1,0,1,0,1","1",""
"","html-keyboard-response","334","80132","0.0-334.0","36PW28KO40I66UUNYO0QZN3S6G0EAT","API17TMVQ2J7Z","3PEG1BH7AEDCPKTV9M6N3A4F0EHKBR","","null","<img src=""img/flower1.png"" style=""width:200px; border:14px solid green;"">","null","","","","","","","","",""
"","image-keyboard-response","335","80186","0.0-335.0","36PW28KO40I66UUNYO0QZN3S6G0EAT","API17TMVQ2J7Z","3PEG1BH7AEDCPKTV9M6N3A4F0EHKBR","","52","img/flower2.png","74","53","1","1","1","2","1,0,0,1,1,0,1,0,1","1,0,0,1,1,0,1,0,1","1",""
"","html-keyboard-response","336","80495","0.0-336.0","36PW28KO40I66UUNYO0QZN3S6G0EAT","API17TMVQ2J7Z","3PEG1BH7AEDCPKTV9M6N3A4F0EHKBR","","null","<img src=""img/flower2.png"" style=""width:200px; border:14px solid green;"">","null","","","","","","","","",""
"","image-keyboard-response","337","80531","0.0-337.0","36PW28KO40I66UUNYO0QZN3S6G0EAT","API17TMVQ2J7Z","3PEG1BH7AEDCPKTV9M6N3A4F0EHKBR","","34","img/flower1.png","74","34","1","1","3","2","1,0,0,1,1,0,1,0,1","1,0,0,1,1,0,1,0,1","1",""
"","html-keyboard-response","338","80834","0.0-338.0","36PW28KO40I66UUNYO0QZN3S6G0EAT","API17TMVQ2J7Z","3PEG1BH7AEDCPKTV9M6N3A4F0EHKBR","","null","<img src=""img/flower1.png"" style=""width:200px; border:14px solid green;"">","null","","","","","","","","",""
"","image-keyboard-response","339","80838","0.0-339.0","36PW28KO40I66UUNYO0QZN3S6G0EAT","API17TMVQ2J7Z","3PEG1BH7AEDCPKTV9M6N3A4F0EHKBR","","2","img/flower2.png","74","3","1","1","1","2","1,0,0,1,1,0,1,0,1","1,0,0,1,1,0,1,0,1","1",""
"","html-keyboard-response","340","81151","0.0-340.0","36PW28KO40I66UUNYO0QZN3S6G0EAT","API17TMVQ2J7Z","3PEG1BH7AEDCPKTV9M6N3A4F0EHKBR","","null","<img src=""img/flower2.png"" style=""width:200px; border:14px solid green;"">","null","","","","","","","","",""
"","image-keyboard-response","341","81197","0.0-341.0","36PW28KO40I66UUNYO0QZN3S6G0EAT","API17TMVQ2J7Z","3PEG1BH7AEDCPKTV9M6N3A4F0EHKBR","","44","img/flower2.png","74","46","1","1","1","2","1,0,0,1,1,0,1,0,1","1,0,0,1,1,0,1,0,1","1",""
"","html-keyboard-response","342","81498","0.0-342.0","36PW28KO40I66UUNYO0QZN3S6G0EAT","API17TMVQ2J7Z","3PEG1BH7AEDCPKTV9M6N3A4F0EHKBR","","null","<img src=""img/flower2.png"" style=""width:200px; border:14px solid green;"">","null","","","","","","","","",""
"","image-keyboard-response","343","81518","0.0-343.0","36PW28KO40I66UUNYO0QZN3S6G0EAT","API17TMVQ2J7Z","3PEG1BH7AEDCPKTV9M6N3A4F0EHKBR","","20","img/flower6.png","74","20","1","1","2","2","1,0,0,1,1,0,1,0,1","1,0,0,1,1,0,1,0,1","1",""
"","html-keyboard-response","344","81838","0.0-344.0","36PW28KO40I66UUNYO0QZN3S6G0EAT","API17TMVQ2J7Z","3PEG1BH7AEDCPKTV9M6N3A4F0EHKBR","","null","<img src=""img/flower6.png"" style=""width:200px; border:14px solid green;"">","null","","","","","","","","",""
"","image-keyboard-response","345","81847","0.0-345.0","36PW28KO40I66UUNYO0QZN3S6G0EAT","API17TMVQ2J7Z","3PEG1BH7AEDCPKTV9M6N3A4F0EHKBR","","8","img/flower6.png","74","8","1","1","2","2","1,0,0,1,1,0,1,0,1","1,0,0,1,1,0,1,0,1","1",""
"","html-keyboard-response","346","82153","0.0-346.0","36PW28KO40I66UUNYO0QZN3S6G0EAT","API17TMVQ2J7Z","3PEG1BH7AEDCPKTV9M6N3A4F0EHKBR","","null","<img src=""img/flower6.png"" style=""width:200px; border:14px solid green;"">","null","","","","","","","","",""
"","image-keyboard-response","347","82167","0.0-347.0","36PW28KO40I66UUNYO0QZN3S6G0EAT","API17TMVQ2J7Z","3PEG1BH7AEDCPKTV9M6N3A4F0EHKBR","","13","img/flower6.png","74","14","1","1","2","2","1,0,0,1,1,0,1,0,1","1,0,0,1,1,0,1,0,1","1",""
"","html-keyboard-response","348","82470","0.0-348.0","36PW28KO40I66UUNYO0QZN3S6G0EAT","API17TMVQ2J7Z","3PEG1BH7AEDCPKTV9M6N3A4F0EHKBR","","null","<img src=""img/flower6.png"" style=""width:200px; border:14px solid green;"">","null","","","","","","","","",""
"","image-keyboard-response","349","82544","0.0-349.0","36PW28KO40I66UUNYO0QZN3S6G0EAT","API17TMVQ2J7Z","3PEG1BH7AEDCPKTV9M6N3A4F0EHKBR","","74","img/flower1.png","74","74","1","1","3","2","1,0,0,1,1,0,1,0,1","1,0,0,1,1,0,1,0,1","1",""
"","html-keyboard-response","350","82854","0.0-350.0","36PW28KO40I66UUNYO0QZN3S6G0EAT","API17TMVQ2J7Z","3PEG1BH7AEDCPKTV9M6N3A4F0EHKBR","","null","<img src=""img/flower1.png"" style=""width:200px; border:14px solid green;"">","null","","","","","","","","",""
"","image-keyboard-response","351","82856","0.0-351.0","36PW28KO40I66UUNYO0QZN3S6G0EAT","API17TMVQ2J7Z","3PEG1BH7AEDCPKTV9M6N3A4F0EHKBR","","0","img/flower2.png","74","2","1","1","1","2","1,0,0,1,1,0,1,0,1","1,0,0,1,1,0,1,0,1","1",""
"","html-keyboard-response","352","83171","0.0-352.0","36PW28KO40I66UUNYO0QZN3S6G0EAT","API17TMVQ2J7Z","3PEG1BH7AEDCPKTV9M6N3A4F0EHKBR","","null","<img src=""img/flower2.png"" style=""width:200px; border:14px solid green;"">","null","","","","","","","","",""
"","image-keyboard-response","353","83188","0.0-353.0","36PW28KO40I66UUNYO0QZN3S6G0EAT","API17TMVQ2J7Z","3PEG1BH7AEDCPKTV9M6N3A4F0EHKBR","","14","img/flower1.png","74","16","1","1","3","2","1,0,0,1,1,0,1,0,1","1,0,0,1,1,0,1,0,1","1",""
"","html-keyboard-response","354","83503","0.0-354.0","36PW28KO40I66UUNYO0QZN3S6G0EAT","API17TMVQ2J7Z","3PEG1BH7AEDCPKTV9M6N3A4F0EHKBR","","null","<img src=""img/flower1.png"" style=""width:200px; border:14px solid green;"">","null","","","","","","","","",""
"","image-keyboard-response","355","83537","0.0-355.0","36PW28KO40I66UUNYO0QZN3S6G0EAT","API17TMVQ2J7Z","3PEG1BH7AEDCPKTV9M6N3A4F0EHKBR","","32","img/flower6.png","74","33","1","1","2","2","1,0,0,1,1,0,1,0,1","1,0,0,1,1,0,1,0,1","1",""
"","html-keyboard-response","356","83842","0.0-356.0","36PW28KO40I66UUNYO0QZN3S6G0EAT","API17TMVQ2J7Z","3PEG1BH7AEDCPKTV9M6N3A4F0EHKBR","","null","<img src=""img/flower6.png"" style=""width:200px; border:14px solid green;"">","null","","","","","","","","",""
"","image-keyboard-response","357","83854","0.0-357.0","36PW28KO40I66UUNYO0QZN3S6G0EAT","API17TMVQ2J7Z","3PEG1BH7AEDCPKTV9M6N3A4F0EHKBR","","12","img/flower1.png","74","13","1","1","3","2","1,0,0,1,1,0,1,0,1","1,0,0,1,1,0,1,0,1","1",""
"","html-keyboard-response","358","84158","0.0-358.0","36PW28KO40I66UUNYO0QZN3S6G0EAT","API17TMVQ2J7Z","3PEG1BH7AEDCPKTV9M6N3A4F0EHKBR","","null","<img src=""img/flower1.png"" style=""width:200px; border:14px solid green;"">","null","","","","","","","","",""
"","image-keyboard-response","359","84189","0.0-359.0","36PW28KO40I66UUNYO0QZN3S6G0EAT","API17TMVQ2J7Z","3PEG1BH7AEDCPKTV9M6N3A4F0EHKBR","","31","img/flower6.png","74","31","1","1","2","2","1,0,0,1,1,0,1,0,1","1,0,0,1,1,0,1,0,1","1",""
"","html-keyboard-response","360","84491","0.0-360.0","36PW28KO40I66UUNYO0QZN3S6G0EAT","API17TMVQ2J7Z","3PEG1BH7AEDCPKTV9M6N3A4F0EHKBR","","null","<img src=""img/flower6.png"" style=""width:200px; border:14px solid green;"">","null","","","","","","","","",""
"","image-keyboard-response","361","84595","0.0-361.0","36PW28KO40I66UUNYO0QZN3S6G0EAT","API17TMVQ2J7Z","3PEG1BH7AEDCPKTV9M6N3A4F0EHKBR","","104","img/flower6.png","74","104","1","1","2","2","1,0,0,1,1,0,1,0,1","1,0,0,1,1,0,1,0,1","1",""
"","html-keyboard-response","362","84906","0.0-362.0","36PW28KO40I66UUNYO0QZN3S6G0EAT","API17TMVQ2J7Z","3PEG1BH7AEDCPKTV9M6N3A4F0EHKBR","","null","<img src=""img/flower6.png"" style=""width:200px; border:14px solid green;"">","null","","","","","","","","",""
"","instructions","363","90056","0.0-363.0","36PW28KO40I66UUNYO0QZN3S6G0EAT","API17TMVQ2J7Z","3PEG1BH7AEDCPKTV9M6N3A4F0EHKBR","[{""page_index"":0,""viewing_time"":5149}]","5150","","","","","","","","","","",""
"","survey-text","364","93072","0.0-364.0","36PW28KO40I66UUNYO0QZN3S6G0EAT","API17TMVQ2J7Z","3PEG1BH7AEDCPKTV9M6N3A4F0EHKBR","","3014","","","","","","","","","","","{""Q0"":""API17TMVQ2J7Z""}"
