"rt","url","trial_type","trial_index","time_elapsed","internal_node_id","assignmentID","mturkID","hitID","success","view_history","stimulus","key_press","reactionTime","a","r","s","reward_cond","responses"
"15429.300000011921","consent.html","external-html","0","15500","0.0-0.0","3PZDLQMM0U724TF5PI1G3HKR8CBC2Y","APVZGZM1RA3AZ","338431Z1FL1IVIVZ3BK6A6QS21HROA","","","","","","","","","",""
"","","fullscreen","1","23965","0.0-1.0","3PZDLQMM0U724TF5PI1G3HKR8CBC2Y","APVZGZM1RA3AZ","338431Z1FL1IVIVZ3BK6A6QS21HROA","true","","","","","","","","",""
"181310.09999999404","","instructions","2","205276","0.0-2.0","3PZDLQMM0U724TF5PI1G3HKR8CBC2Y","APVZGZM1RA3AZ","338431Z1FL1IVIVZ3BK6A6QS21HROA","","[{""page_index"":0,""viewing_time"":24093.19999998808},{""page_index"":1,""viewing_time"":20600.80000001192},{""page_index"":2,""viewing_time"":25615.90000000596},{""page_index"":3,""viewing_time"":31848},{""page_index"":4,""viewing_time"":4111},{""page_index"":5,""viewing_time"":30121.40000000596},{""page_index"":6,""viewing_time"":44919.09999999404}]","","","","","","","",""
"47648.80000001192","","instructions","3","252926","0.0-3.0","3PZDLQMM0U724TF5PI1G3HKR8CBC2Y","APVZGZM1RA3AZ","338431Z1FL1IVIVZ3BK6A6QS21HROA","","[{""page_index"":0,""viewing_time"":47648.40000000596}]","","","","","","","",""
"3148","","image-keyboard-response","4","256076","0.0-4.0","3PZDLQMM0U724TF5PI1G3HKR8CBC2Y","APVZGZM1RA3AZ","338431Z1FL1IVIVZ3BK6A6QS21HROA","","","img/flower5.png","75","3149.9000000059605","2","1","2","",""
"null","","html-keyboard-response","5","256391","0.0-5.0","3PZDLQMM0U724TF5PI1G3HKR8CBC2Y","APVZGZM1RA3AZ","338431Z1FL1IVIVZ3BK6A6QS21HROA","","","<img src=""img/flower5.png"" style=""width:200px; border:14px solid green;"">","null","","","","","",""
"2308.199999988079","","image-keyboard-response","6","258700","0.0-6.0","3PZDLQMM0U724TF5PI1G3HKR8CBC2Y","APVZGZM1RA3AZ","338431Z1FL1IVIVZ3BK6A6QS21HROA","","","img/flower4.png","74","2309.5","1","1","1","",""
"null","","html-keyboard-response","7","259008","0.0-7.0","3PZDLQMM0U724TF5PI1G3HKR8CBC2Y","APVZGZM1RA3AZ","338431Z1FL1IVIVZ3BK6A6QS21HROA","","","<img src=""img/flower4.png"" style=""width:200px; border:14px solid green;"">","null","","","","","",""
"1603.2000000178814","","image-keyboard-response","8","260612","0.0-8.0","3PZDLQMM0U724TF5PI1G3HKR8CBC2Y","APVZGZM1RA3AZ","338431Z1FL1IVIVZ3BK6A6QS21HROA","","","img/flower5.png","75","1603.7000000178814","2","0","2","",""
"null","","html-keyboard-response","9","260921","0.0-9.0","3PZDLQMM0U724TF5PI1G3HKR8CBC2Y","APVZGZM1RA3AZ","338431Z1FL1IVIVZ3BK6A6QS21HROA","","","<img src=""img/flower5.png"" style=""width:200px;border:14px solid red;"">","null","","","","","",""
"2793.0999999940395","","image-keyboard-response","10","263715","0.0-10.0","3PZDLQMM0U724TF5PI1G3HKR8CBC2Y","APVZGZM1RA3AZ","338431Z1FL1IVIVZ3BK6A6QS21HROA","","","img/flower6.png","76","2793.9000000059605","3","1","3","",""
"null","","html-keyboard-response","11","264017","0.0-11.0","3PZDLQMM0U724TF5PI1G3HKR8CBC2Y","APVZGZM1RA3AZ","338431Z1FL1IVIVZ3BK6A6QS21HROA","","","<img src=""img/flower6.png"" style=""width:200px; border:14px solid green;"">","null","","","","","",""
"2798.2999999821186","","image-keyboard-response","12","266819","0.0-12.0","3PZDLQMM0U724TF5PI1G3HKR8CBC2Y","APVZGZM1RA3AZ","338431Z1FL1IVIVZ3BK6A6QS21HROA","","","img/flower5.png","75","2799.9000000059605","2","0","2","",""
"null","","html-keyboard-response","13","267129","0.0-13.0","3PZDLQMM0U724TF5PI1G3HKR8CBC2Y","APVZGZM1RA3AZ","338431Z1FL1IVIVZ3BK6A6QS21HROA","","","<img src=""img/flower5.png"" style=""width:200px;border:14px solid red;"">","null","","","","","",""
"4010.4000000059605","","image-keyboard-response","14","271140","0.0-14.0","3PZDLQMM0U724TF5PI1G3HKR8CBC2Y","APVZGZM1RA3AZ","338431Z1FL1IVIVZ3BK6A6QS21HROA","","","img/flower4.png","74","4011.199999988079","1","1","1","",""
"null","","html-keyboard-response","15","271449","0.0-15.0","3PZDLQMM0U724TF5PI1G3HKR8CBC2Y","APVZGZM1RA3AZ","338431Z1FL1IVIVZ3BK6A6QS21HROA","","","<img src=""img/flower4.png"" style=""width:200px; border:14px solid green;"">","null","","","","","",""
"1193.5999999940395","","image-keyboard-response","16","272644","0.0-16.0","3PZDLQMM0U724TF5PI1G3HKR8CBC2Y","APVZGZM1RA3AZ","338431Z1FL1IVIVZ3BK6A6QS21HROA","","","img/flower5.png","74","1194.5","1","0","2","",""
"null","","html-keyboard-response","17","272956","0.0-17.0","3PZDLQMM0U724TF5PI1G3HKR8CBC2Y","APVZGZM1RA3AZ","338431Z1FL1IVIVZ3BK6A6QS21HROA","","","<img src=""img/flower5.png"" style=""width:200px;border:14px solid red;"">","null","","","","","",""
"1294.9000000059605","","image-keyboard-response","18","274252","0.0-18.0","3PZDLQMM0U724TF5PI1G3HKR8CBC2Y","APVZGZM1RA3AZ","338431Z1FL1IVIVZ3BK6A6QS21HROA","","","img/flower5.png","76","1295.800000011921","3","0","2","",""
"null","","html-keyboard-response","19","274557","0.0-19.0","3PZDLQMM0U724TF5PI1G3HKR8CBC2Y","APVZGZM1RA3AZ","338431Z1FL1IVIVZ3BK6A6QS21HROA","","","<img src=""img/flower5.png"" style=""width:200px;border:14px solid red;"">","null","","","","","",""
"3292.5","","image-keyboard-response","20","277851","0.0-20.0","3PZDLQMM0U724TF5PI1G3HKR8CBC2Y","APVZGZM1RA3AZ","338431Z1FL1IVIVZ3BK6A6QS21HROA","","","img/flower4.png","74","3293.699999988079","1","1","1","",""
"null","","html-keyboard-response","21","278153","0.0-21.0","3PZDLQMM0U724TF5PI1G3HKR8CBC2Y","APVZGZM1RA3AZ","338431Z1FL1IVIVZ3BK6A6QS21HROA","","","<img src=""img/flower4.png"" style=""width:200px; border:14px solid green;"">","null","","","","","",""
"1937.7999999821186","","image-keyboard-response","22","280092","0.0-22.0","3PZDLQMM0U724TF5PI1G3HKR8CBC2Y","APVZGZM1RA3AZ","338431Z1FL1IVIVZ3BK6A6QS21HROA","","","img/flower6.png","76","1939.0999999940395","3","1","3","",""
"null","","html-keyboard-response","23","280405","0.0-23.0","3PZDLQMM0U724TF5PI1G3HKR8CBC2Y","APVZGZM1RA3AZ","338431Z1FL1IVIVZ3BK6A6QS21HROA","","","<img src=""img/flower6.png"" style=""width:200px; border:14px solid green;"">","null","","","","","",""
"1524.0999999940395","","image-keyboard-response","24","281931","0.0-24.0","3PZDLQMM0U724TF5PI1G3HKR8CBC2Y","APVZGZM1RA3AZ","338431Z1FL1IVIVZ3BK6A6QS21HROA","","","img/flower5.png","75","1525.3999999761581","2","0","2","",""
"null","","html-keyboard-response","25","282244","0.0-25.0","3PZDLQMM0U724TF5PI1G3HKR8CBC2Y","APVZGZM1RA3AZ","338431Z1FL1IVIVZ3BK6A6QS21HROA","","","<img src=""img/flower5.png"" style=""width:200px;border:14px solid red;"">","null","","","","","",""
"3654.4000000059605","","image-keyboard-response","26","285899","0.0-26.0","3PZDLQMM0U724TF5PI1G3HKR8CBC2Y","APVZGZM1RA3AZ","338431Z1FL1IVIVZ3BK6A6QS21HROA","","","img/flower4.png","74","3654.9000000059605","1","0","1","",""
"null","","html-keyboard-response","27","286205","0.0-27.0","3PZDLQMM0U724TF5PI1G3HKR8CBC2Y","APVZGZM1RA3AZ","338431Z1FL1IVIVZ3BK6A6QS21HROA","","","<img src=""img/flower4.png"" style=""width:200px;border:14px solid red;"">","null","","","","","",""
"4604.199999988079","","image-keyboard-response","28","290811","0.0-28.0","3PZDLQMM0U724TF5PI1G3HKR8CBC2Y","APVZGZM1RA3AZ","338431Z1FL1IVIVZ3BK6A6QS21HROA","","","img/flower5.png","74","4605.300000011921","1","1","2","",""
"null","","html-keyboard-response","29","291121","0.0-29.0","3PZDLQMM0U724TF5PI1G3HKR8CBC2Y","APVZGZM1RA3AZ","338431Z1FL1IVIVZ3BK6A6QS21HROA","","","<img src=""img/flower5.png"" style=""width:200px; border:14px solid green;"">","null","","","","","",""
"1456.300000011921","","image-keyboard-response","30","292579","0.0-30.0","3PZDLQMM0U724TF5PI1G3HKR8CBC2Y","APVZGZM1RA3AZ","338431Z1FL1IVIVZ3BK6A6QS21HROA","","","img/flower6.png","76","1457.5","3","1","3","",""
"null","","html-keyboard-response","31","292890","0.0-31.0","3PZDLQMM0U724TF5PI1G3HKR8CBC2Y","APVZGZM1RA3AZ","338431Z1FL1IVIVZ3BK6A6QS21HROA","","","<img src=""img/flower6.png"" style=""width:200px; border:14px solid green;"">","null","","","","","",""
"1559.699999988079","","image-keyboard-response","32","294452","0.0-32.0","3PZDLQMM0U724TF5PI1G3HKR8CBC2Y","APVZGZM1RA3AZ","338431Z1FL1IVIVZ3BK6A6QS21HROA","","","img/flower5.png","74","1561.199999988079","1","0","2","",""
"null","","html-keyboard-response","33","294753","0.0-33.0","3PZDLQMM0U724TF5PI1G3HKR8CBC2Y","APVZGZM1RA3AZ","338431Z1FL1IVIVZ3BK6A6QS21HROA","","","<img src=""img/flower5.png"" style=""width:200px;border:14px solid red;"">","null","","","","","",""
"2700.2000000178814","","image-keyboard-response","34","297455","0.0-34.0","3PZDLQMM0U724TF5PI1G3HKR8CBC2Y","APVZGZM1RA3AZ","338431Z1FL1IVIVZ3BK6A6QS21HROA","","","img/flower6.png","76","2701.0999999940395","3","1","3","",""
"null","","html-keyboard-response","35","297756","0.0-35.0","3PZDLQMM0U724TF5PI1G3HKR8CBC2Y","APVZGZM1RA3AZ","338431Z1FL1IVIVZ3BK6A6QS21HROA","","","<img src=""img/flower6.png"" style=""width:200px; border:14px solid green;"">","null","","","","","",""
"1029.5","","image-keyboard-response","36","298786","0.0-36.0","3PZDLQMM0U724TF5PI1G3HKR8CBC2Y","APVZGZM1RA3AZ","338431Z1FL1IVIVZ3BK6A6QS21HROA","","","img/flower6.png","76","1030.4000000059605","3","0","3","",""
"null","","html-keyboard-response","37","299094","0.0-37.0","3PZDLQMM0U724TF5PI1G3HKR8CBC2Y","APVZGZM1RA3AZ","338431Z1FL1IVIVZ3BK6A6QS21HROA","","","<img src=""img/flower6.png"" style=""width:200px;border:14px solid red;"">","null","","","","","",""
"2155.9000000059605","","image-keyboard-response","38","301250","0.0-38.0","3PZDLQMM0U724TF5PI1G3HKR8CBC2Y","APVZGZM1RA3AZ","338431Z1FL1IVIVZ3BK6A6QS21HROA","","","img/flower6.png","76","2156.399999976158","3","1","3","",""
"null","","html-keyboard-response","39","301564","0.0-39.0","3PZDLQMM0U724TF5PI1G3HKR8CBC2Y","APVZGZM1RA3AZ","338431Z1FL1IVIVZ3BK6A6QS21HROA","","","<img src=""img/flower6.png"" style=""width:200px; border:14px solid green;"">","null","","","","","",""
"3154.5","","image-keyboard-response","40","304719","0.0-40.0","3PZDLQMM0U724TF5PI1G3HKR8CBC2Y","APVZGZM1RA3AZ","338431Z1FL1IVIVZ3BK6A6QS21HROA","","","img/flower4.png","74","3155","1","1","1","",""
"null","","html-keyboard-response","41","305021","0.0-41.0","3PZDLQMM0U724TF5PI1G3HKR8CBC2Y","APVZGZM1RA3AZ","338431Z1FL1IVIVZ3BK6A6QS21HROA","","","<img src=""img/flower4.png"" style=""width:200px; border:14px solid green;"">","null","","","","","",""
"1387.800000011921","","image-keyboard-response","42","306411","0.0-42.0","3PZDLQMM0U724TF5PI1G3HKR8CBC2Y","APVZGZM1RA3AZ","338431Z1FL1IVIVZ3BK6A6QS21HROA","","","img/flower6.png","76","1389.2999999821186","3","1","3","",""
"null","","html-keyboard-response","43","306712","0.0-43.0","3PZDLQMM0U724TF5PI1G3HKR8CBC2Y","APVZGZM1RA3AZ","338431Z1FL1IVIVZ3BK6A6QS21HROA","","","<img src=""img/flower6.png"" style=""width:200px; border:14px solid green;"">","null","","","","","",""
"4060","","image-keyboard-response","44","310773","0.0-44.0","3PZDLQMM0U724TF5PI1G3HKR8CBC2Y","APVZGZM1RA3AZ","338431Z1FL1IVIVZ3BK6A6QS21HROA","","","img/flower6.png","76","4060.5999999940395","3","1","3","",""
"null","","html-keyboard-response","45","311083","0.0-45.0","3PZDLQMM0U724TF5PI1G3HKR8CBC2Y","APVZGZM1RA3AZ","338431Z1FL1IVIVZ3BK6A6QS21HROA","","","<img src=""img/flower6.png"" style=""width:200px; border:14px solid green;"">","null","","","","","",""
"3578.0999999940395","","image-keyboard-response","46","314662","0.0-46.0","3PZDLQMM0U724TF5PI1G3HKR8CBC2Y","APVZGZM1RA3AZ","338431Z1FL1IVIVZ3BK6A6QS21HROA","","","img/flower5.png","74","3578.7999999821186","1","0","2","",""
"null","","html-keyboard-response","47","314963","0.0-47.0","3PZDLQMM0U724TF5PI1G3HKR8CBC2Y","APVZGZM1RA3AZ","338431Z1FL1IVIVZ3BK6A6QS21HROA","","","<img src=""img/flower5.png"" style=""width:200px;border:14px solid red;"">","null","","","","","",""
"1159.300000011921","","image-keyboard-response","48","316124","0.0-48.0","3PZDLQMM0U724TF5PI1G3HKR8CBC2Y","APVZGZM1RA3AZ","338431Z1FL1IVIVZ3BK6A6QS21HROA","","","img/flower4.png","74","1160.199999988079","1","1","1","",""
"null","","html-keyboard-response","49","316425","0.0-49.0","3PZDLQMM0U724TF5PI1G3HKR8CBC2Y","APVZGZM1RA3AZ","338431Z1FL1IVIVZ3BK6A6QS21HROA","","","<img src=""img/flower4.png"" style=""width:200px; border:14px solid green;"">","null","","","","","",""
"1114.5999999940395","","image-keyboard-response","50","317541","0.0-50.0","3PZDLQMM0U724TF5PI1G3HKR8CBC2Y","APVZGZM1RA3AZ","338431Z1FL1IVIVZ3BK6A6QS21HROA","","","img/flower6.png","76","1115.5999999940395","3","1","3","",""
"null","","html-keyboard-response","51","317854","0.0-51.0","3PZDLQMM0U724TF5PI1G3HKR8CBC2Y","APVZGZM1RA3AZ","338431Z1FL1IVIVZ3BK6A6QS21HROA","","","<img src=""img/flower6.png"" style=""width:200px; border:14px solid green;"">","null","","","","","",""
"1436","","image-keyboard-response","52","319291","0.0-52.0","3PZDLQMM0U724TF5PI1G3HKR8CBC2Y","APVZGZM1RA3AZ","338431Z1FL1IVIVZ3BK6A6QS21HROA","","","img/flower4.png","74","1436.7999999821186","1","1","1","",""
"null","","html-keyboard-response","53","319600","0.0-53.0","3PZDLQMM0U724TF5PI1G3HKR8CBC2Y","APVZGZM1RA3AZ","338431Z1FL1IVIVZ3BK6A6QS21HROA","","","<img src=""img/flower4.png"" style=""width:200px; border:14px solid green;"">","null","","","","","",""
"1242.5","","image-keyboard-response","54","320843","0.0-54.0","3PZDLQMM0U724TF5PI1G3HKR8CBC2Y","APVZGZM1RA3AZ","338431Z1FL1IVIVZ3BK6A6QS21HROA","","","img/flower4.png","75","1243.0999999940395","2","0","1","",""
"null","","html-keyboard-response","55","321145","0.0-55.0","3PZDLQMM0U724TF5PI1G3HKR8CBC2Y","APVZGZM1RA3AZ","338431Z1FL1IVIVZ3BK6A6QS21HROA","","","<img src=""img/flower4.png"" style=""width:200px;border:14px solid red;"">","null","","","","","",""
"1946.3999999761581","","image-keyboard-response","56","323093","0.0-56.0","3PZDLQMM0U724TF5PI1G3HKR8CBC2Y","APVZGZM1RA3AZ","338431Z1FL1IVIVZ3BK6A6QS21HROA","","","img/flower4.png","76","1947.4000000059605","3","0","1","",""
"null","","html-keyboard-response","57","323400","0.0-57.0","3PZDLQMM0U724TF5PI1G3HKR8CBC2Y","APVZGZM1RA3AZ","338431Z1FL1IVIVZ3BK6A6QS21HROA","","","<img src=""img/flower4.png"" style=""width:200px;border:14px solid red;"">","null","","","","","",""
"1940.2999999821186","","image-keyboard-response","58","325342","0.0-58.0","3PZDLQMM0U724TF5PI1G3HKR8CBC2Y","APVZGZM1RA3AZ","338431Z1FL1IVIVZ3BK6A6QS21HROA","","","img/flower5.png","76","1941.0999999940395","3","1","2","",""
"null","","html-keyboard-response","59","325648","0.0-59.0","3PZDLQMM0U724TF5PI1G3HKR8CBC2Y","APVZGZM1RA3AZ","338431Z1FL1IVIVZ3BK6A6QS21HROA","","","<img src=""img/flower5.png"" style=""width:200px; border:14px solid green;"">","null","","","","","",""
"1817.9000000059605","","image-keyboard-response","60","327467","0.0-60.0","3PZDLQMM0U724TF5PI1G3HKR8CBC2Y","APVZGZM1RA3AZ","338431Z1FL1IVIVZ3BK6A6QS21HROA","","","img/flower4.png","74","1818.9000000059605","1","1","1","",""
"null","","html-keyboard-response","61","327779","0.0-61.0","3PZDLQMM0U724TF5PI1G3HKR8CBC2Y","APVZGZM1RA3AZ","338431Z1FL1IVIVZ3BK6A6QS21HROA","","","<img src=""img/flower4.png"" style=""width:200px; border:14px solid green;"">","null","","","","","",""
"959.6999999880791","","image-keyboard-response","62","328739","0.0-62.0","3PZDLQMM0U724TF5PI1G3HKR8CBC2Y","APVZGZM1RA3AZ","338431Z1FL1IVIVZ3BK6A6QS21HROA","","","img/flower6.png","76","960.2999999821186","3","0","3","",""
"null","","html-keyboard-response","63","329042","0.0-63.0","3PZDLQMM0U724TF5PI1G3HKR8CBC2Y","APVZGZM1RA3AZ","338431Z1FL1IVIVZ3BK6A6QS21HROA","","","<img src=""img/flower6.png"" style=""width:200px;border:14px solid red;"">","null","","","","","",""
"22403.5","","instructions","64","351446","0.0-64.0","3PZDLQMM0U724TF5PI1G3HKR8CBC2Y","APVZGZM1RA3AZ","338431Z1FL1IVIVZ3BK6A6QS21HROA","","[{""page_index"":0,""viewing_time"":4667},{""page_index"":1,""viewing_time"":17736.09999999404}]","","","","","","","",""
"1565.0999999940395","","image-keyboard-response","65","353012","0.0-65.0","3PZDLQMM0U724TF5PI1G3HKR8CBC2Y","APVZGZM1RA3AZ","338431Z1FL1IVIVZ3BK6A6QS21HROA","","","img/flower4.png","74","1566.0999999940395","1","1","1","",""
"null","","html-keyboard-response","66","353328","0.0-66.0","3PZDLQMM0U724TF5PI1G3HKR8CBC2Y","APVZGZM1RA3AZ","338431Z1FL1IVIVZ3BK6A6QS21HROA","","","<img src=""img/flower4.png"" style=""width:200px; border:14px solid green;"">","null","","","","","",""
"1129.199999988079","","image-keyboard-response","67","354459","0.0-67.0","3PZDLQMM0U724TF5PI1G3HKR8CBC2Y","APVZGZM1RA3AZ","338431Z1FL1IVIVZ3BK6A6QS21HROA","","","img/flower6.png","76","1130.5999999940395","3","0","3","",""
"null","","html-keyboard-response","68","354764","0.0-68.0","3PZDLQMM0U724TF5PI1G3HKR8CBC2Y","APVZGZM1RA3AZ","338431Z1FL1IVIVZ3BK6A6QS21HROA","","","<img src=""img/flower6.png"" style=""width:200px;border:14px solid red;"">","null","","","","","",""
"1031.800000011921","","image-keyboard-response","69","355797","0.0-69.0","3PZDLQMM0U724TF5PI1G3HKR8CBC2Y","APVZGZM1RA3AZ","338431Z1FL1IVIVZ3BK6A6QS21HROA","","","img/flower4.png","74","1032.8999999761581","1","0","1","",""
"null","","html-keyboard-response","70","356102","0.0-70.0","3PZDLQMM0U724TF5PI1G3HKR8CBC2Y","APVZGZM1RA3AZ","338431Z1FL1IVIVZ3BK6A6QS21HROA","","","<img src=""img/flower4.png"" style=""width:200px;border:14px solid red;"">","null","","","","","",""
"1501.300000011921","","image-keyboard-response","71","357604","0.0-71.0","3PZDLQMM0U724TF5PI1G3HKR8CBC2Y","APVZGZM1RA3AZ","338431Z1FL1IVIVZ3BK6A6QS21HROA","","","img/flower4.png","74","1502","1","0","1","",""
"null","","html-keyboard-response","72","357915","0.0-72.0","3PZDLQMM0U724TF5PI1G3HKR8CBC2Y","APVZGZM1RA3AZ","338431Z1FL1IVIVZ3BK6A6QS21HROA","","","<img src=""img/flower4.png"" style=""width:200px;border:14px solid red;"">","null","","","","","",""
"1022.8999999761581","","image-keyboard-response","73","358939","0.0-73.0","3PZDLQMM0U724TF5PI1G3HKR8CBC2Y","APVZGZM1RA3AZ","338431Z1FL1IVIVZ3BK6A6QS21HROA","","","img/flower5.png","75","1023.7000000178814","2","1","2","",""
"null","","html-keyboard-response","74","359254","0.0-74.0","3PZDLQMM0U724TF5PI1G3HKR8CBC2Y","APVZGZM1RA3AZ","338431Z1FL1IVIVZ3BK6A6QS21HROA","","","<img src=""img/flower5.png"" style=""width:200px; border:14px solid green;"">","null","","","","","",""
"1533","","image-keyboard-response","75","360788","0.0-75.0","3PZDLQMM0U724TF5PI1G3HKR8CBC2Y","APVZGZM1RA3AZ","338431Z1FL1IVIVZ3BK6A6QS21HROA","","","img/flower6.png","75","1533.8999999761581","2","1","3","",""
"null","","html-keyboard-response","76","361096","0.0-76.0","3PZDLQMM0U724TF5PI1G3HKR8CBC2Y","APVZGZM1RA3AZ","338431Z1FL1IVIVZ3BK6A6QS21HROA","","","<img src=""img/flower6.png"" style=""width:200px; border:14px solid green;"">","null","","","","","",""
"1626.300000011921","","image-keyboard-response","77","362723","0.0-77.0","3PZDLQMM0U724TF5PI1G3HKR8CBC2Y","APVZGZM1RA3AZ","338431Z1FL1IVIVZ3BK6A6QS21HROA","","","img/flower6.png","75","1626.9000000059605","2","0","3","",""
"null","","html-keyboard-response","78","363032","0.0-78.0","3PZDLQMM0U724TF5PI1G3HKR8CBC2Y","APVZGZM1RA3AZ","338431Z1FL1IVIVZ3BK6A6QS21HROA","","","<img src=""img/flower6.png"" style=""width:200px;border:14px solid red;"">","null","","","","","",""
"1074","","image-keyboard-response","79","364107","0.0-79.0","3PZDLQMM0U724TF5PI1G3HKR8CBC2Y","APVZGZM1RA3AZ","338431Z1FL1IVIVZ3BK6A6QS21HROA","","","img/flower6.png","76","1074.800000011921","3","1","3","",""
"null","","html-keyboard-response","80","364414","0.0-80.0","3PZDLQMM0U724TF5PI1G3HKR8CBC2Y","APVZGZM1RA3AZ","338431Z1FL1IVIVZ3BK6A6QS21HROA","","","<img src=""img/flower6.png"" style=""width:200px; border:14px solid green;"">","null","","","","","",""
"1868.4000000059605","","image-keyboard-response","81","366283","0.0-81.0","3PZDLQMM0U724TF5PI1G3HKR8CBC2Y","APVZGZM1RA3AZ","338431Z1FL1IVIVZ3BK6A6QS21HROA","","","img/flower6.png","75","1869.0999999940395","2","0","3","",""
"null","","html-keyboard-response","82","366590","0.0-82.0","3PZDLQMM0U724TF5PI1G3HKR8CBC2Y","APVZGZM1RA3AZ","338431Z1FL1IVIVZ3BK6A6QS21HROA","","","<img src=""img/flower6.png"" style=""width:200px;border:14px solid red;"">","null","","","","","",""
"575.6999999880791","","image-keyboard-response","83","367167","0.0-83.0","3PZDLQMM0U724TF5PI1G3HKR8CBC2Y","APVZGZM1RA3AZ","338431Z1FL1IVIVZ3BK6A6QS21HROA","","","img/flower6.png","76","576.8000000119209","3","0","3","",""
"null","","html-keyboard-response","84","367475","0.0-84.0","3PZDLQMM0U724TF5PI1G3HKR8CBC2Y","APVZGZM1RA3AZ","338431Z1FL1IVIVZ3BK6A6QS21HROA","","","<img src=""img/flower6.png"" style=""width:200px;border:14px solid red;"">","null","","","","","",""
"839.7999999821186","","image-keyboard-response","85","368316","0.0-85.0","3PZDLQMM0U724TF5PI1G3HKR8CBC2Y","APVZGZM1RA3AZ","338431Z1FL1IVIVZ3BK6A6QS21HROA","","","img/flower6.png","74","840.4000000059605","1","1","3","",""
"null","","html-keyboard-response","86","368625","0.0-86.0","3PZDLQMM0U724TF5PI1G3HKR8CBC2Y","APVZGZM1RA3AZ","338431Z1FL1IVIVZ3BK6A6QS21HROA","","","<img src=""img/flower6.png"" style=""width:200px; border:14px solid green;"">","null","","","","","",""
"1650.5","","image-keyboard-response","87","370276","0.0-87.0","3PZDLQMM0U724TF5PI1G3HKR8CBC2Y","APVZGZM1RA3AZ","338431Z1FL1IVIVZ3BK6A6QS21HROA","","","img/flower4.png","74","1651.300000011921","1","1","1","",""
"null","","html-keyboard-response","88","370586","0.0-88.0","3PZDLQMM0U724TF5PI1G3HKR8CBC2Y","APVZGZM1RA3AZ","338431Z1FL1IVIVZ3BK6A6QS21HROA","","","<img src=""img/flower4.png"" style=""width:200px; border:14px solid green;"">","null","","","","","",""
"1335.9000000059605","","image-keyboard-response","89","371924","0.0-89.0","3PZDLQMM0U724TF5PI1G3HKR8CBC2Y","APVZGZM1RA3AZ","338431Z1FL1IVIVZ3BK6A6QS21HROA","","","img/flower4.png","74","1337.0999999940395","1","1","1","",""
"null","","html-keyboard-response","90","372238","0.0-90.0","3PZDLQMM0U724TF5PI1G3HKR8CBC2Y","APVZGZM1RA3AZ","338431Z1FL1IVIVZ3BK6A6QS21HROA","","","<img src=""img/flower4.png"" style=""width:200px; border:14px solid green;"">","null","","","","","",""
"1002.5","","image-keyboard-response","91","373241","0.0-91.0","3PZDLQMM0U724TF5PI1G3HKR8CBC2Y","APVZGZM1RA3AZ","338431Z1FL1IVIVZ3BK6A6QS21HROA","","","img/flower6.png","76","1003.1999999880791","3","0","3","",""
"null","","html-keyboard-response","92","373549","0.0-92.0","3PZDLQMM0U724TF5PI1G3HKR8CBC2Y","APVZGZM1RA3AZ","338431Z1FL1IVIVZ3BK6A6QS21HROA","","","<img src=""img/flower6.png"" style=""width:200px;border:14px solid red;"">","null","","","","","",""
"973.2999999821186","","image-keyboard-response","93","374523","0.0-93.0","3PZDLQMM0U724TF5PI1G3HKR8CBC2Y","APVZGZM1RA3AZ","338431Z1FL1IVIVZ3BK6A6QS21HROA","","","img/flower5.png","75","974.0999999940395","2","1","2","",""
"null","","html-keyboard-response","94","374833","0.0-94.0","3PZDLQMM0U724TF5PI1G3HKR8CBC2Y","APVZGZM1RA3AZ","338431Z1FL1IVIVZ3BK6A6QS21HROA","","","<img src=""img/flower5.png"" style=""width:200px; border:14px solid green;"">","null","","","","","",""
"898.4000000059605","","image-keyboard-response","95","375733","0.0-95.0","3PZDLQMM0U724TF5PI1G3HKR8CBC2Y","APVZGZM1RA3AZ","338431Z1FL1IVIVZ3BK6A6QS21HROA","","","img/flower5.png","75","899.9000000059605","2","1","2","",""
"null","","html-keyboard-response","96","376042","0.0-96.0","3PZDLQMM0U724TF5PI1G3HKR8CBC2Y","APVZGZM1RA3AZ","338431Z1FL1IVIVZ3BK6A6QS21HROA","","","<img src=""img/flower5.png"" style=""width:200px; border:14px solid green;"">","null","","","","","",""
"1456.199999988079","","image-keyboard-response","97","377500","0.0-97.0","3PZDLQMM0U724TF5PI1G3HKR8CBC2Y","APVZGZM1RA3AZ","338431Z1FL1IVIVZ3BK6A6QS21HROA","","","img/flower6.png","74","1457.2000000178814","1","1","3","",""
"null","","html-keyboard-response","98","377807","0.0-98.0","3PZDLQMM0U724TF5PI1G3HKR8CBC2Y","APVZGZM1RA3AZ","338431Z1FL1IVIVZ3BK6A6QS21HROA","","","<img src=""img/flower6.png"" style=""width:200px; border:14px solid green;"">","null","","","","","",""
"1708","","image-keyboard-response","99","379516","0.0-99.0","3PZDLQMM0U724TF5PI1G3HKR8CBC2Y","APVZGZM1RA3AZ","338431Z1FL1IVIVZ3BK6A6QS21HROA","","","img/flower5.png","75","1708.7000000178814","2","1","2","",""
"null","","html-keyboard-response","100","379827","0.0-100.0","3PZDLQMM0U724TF5PI1G3HKR8CBC2Y","APVZGZM1RA3AZ","338431Z1FL1IVIVZ3BK6A6QS21HROA","","","<img src=""img/flower5.png"" style=""width:200px; border:14px solid green;"">","null","","","","","",""
"1166.8999999761581","","image-keyboard-response","101","380995","0.0-101.0","3PZDLQMM0U724TF5PI1G3HKR8CBC2Y","APVZGZM1RA3AZ","338431Z1FL1IVIVZ3BK6A6QS21HROA","","","img/flower4.png","76","1167.7000000178814","3","0","1","",""
"null","","html-keyboard-response","102","381304","0.0-102.0","3PZDLQMM0U724TF5PI1G3HKR8CBC2Y","APVZGZM1RA3AZ","338431Z1FL1IVIVZ3BK6A6QS21HROA","","","<img src=""img/flower4.png"" style=""width:200px;border:14px solid red;"">","null","","","","","",""
"1825","","image-keyboard-response","103","383131","0.0-103.0","3PZDLQMM0U724TF5PI1G3HKR8CBC2Y","APVZGZM1RA3AZ","338431Z1FL1IVIVZ3BK6A6QS21HROA","","","img/flower4.png","75","1826.1000000238419","2","1","1","",""
"null","","html-keyboard-response","104","383443","0.0-104.0","3PZDLQMM0U724TF5PI1G3HKR8CBC2Y","APVZGZM1RA3AZ","338431Z1FL1IVIVZ3BK6A6QS21HROA","","","<img src=""img/flower4.png"" style=""width:200px; border:14px solid green;"">","null","","","","","",""
"1006.2999999821186","","image-keyboard-response","105","384451","0.0-105.0","3PZDLQMM0U724TF5PI1G3HKR8CBC2Y","APVZGZM1RA3AZ","338431Z1FL1IVIVZ3BK6A6QS21HROA","","","img/flower4.png","75","1007.3000000119209","2","1","1","",""
"null","","html-keyboard-response","106","384763","0.0-106.0","3PZDLQMM0U724TF5PI1G3HKR8CBC2Y","APVZGZM1RA3AZ","338431Z1FL1IVIVZ3BK6A6QS21HROA","","","<img src=""img/flower4.png"" style=""width:200px; border:14px solid green;"">","null","","","","","",""
"1031.300000011921","","image-keyboard-response","107","385795","0.0-107.0","3PZDLQMM0U724TF5PI1G3HKR8CBC2Y","APVZGZM1RA3AZ","338431Z1FL1IVIVZ3BK6A6QS21HROA","","","img/flower6.png","74","1032.2999999821186","1","1","3","",""
"null","","html-keyboard-response","108","386100","0.0-108.0","3PZDLQMM0U724TF5PI1G3HKR8CBC2Y","APVZGZM1RA3AZ","338431Z1FL1IVIVZ3BK6A6QS21HROA","","","<img src=""img/flower6.png"" style=""width:200px; border:14px solid green;"">","null","","","","","",""
"918.2999999821186","","image-keyboard-response","109","387019","0.0-109.0","3PZDLQMM0U724TF5PI1G3HKR8CBC2Y","APVZGZM1RA3AZ","338431Z1FL1IVIVZ3BK6A6QS21HROA","","","img/flower5.png","74","919","1","1","2","",""
"null","","html-keyboard-response","110","387325","0.0-110.0","3PZDLQMM0U724TF5PI1G3HKR8CBC2Y","APVZGZM1RA3AZ","338431Z1FL1IVIVZ3BK6A6QS21HROA","","","<img src=""img/flower5.png"" style=""width:200px; border:14px solid green;"">","null","","","","","",""
"925.5999999940395","","image-keyboard-response","111","388251","0.0-111.0","3PZDLQMM0U724TF5PI1G3HKR8CBC2Y","APVZGZM1RA3AZ","338431Z1FL1IVIVZ3BK6A6QS21HROA","","","img/flower5.png","74","926.5","1","0","2","",""
"null","","html-keyboard-response","112","388554","0.0-112.0","3PZDLQMM0U724TF5PI1G3HKR8CBC2Y","APVZGZM1RA3AZ","338431Z1FL1IVIVZ3BK6A6QS21HROA","","","<img src=""img/flower5.png"" style=""width:200px;border:14px solid red;"">","null","","","","","",""
"904.6000000238419","","image-keyboard-response","113","389460","0.0-113.0","3PZDLQMM0U724TF5PI1G3HKR8CBC2Y","APVZGZM1RA3AZ","338431Z1FL1IVIVZ3BK6A6QS21HROA","","","img/flower5.png","75","905.5999999940395","2","1","2","",""
"null","","html-keyboard-response","114","389774","0.0-114.0","3PZDLQMM0U724TF5PI1G3HKR8CBC2Y","APVZGZM1RA3AZ","338431Z1FL1IVIVZ3BK6A6QS21HROA","","","<img src=""img/flower5.png"" style=""width:200px; border:14px solid green;"">","null","","","","","",""
"1397","","image-keyboard-response","115","391172","0.0-115.0","3PZDLQMM0U724TF5PI1G3HKR8CBC2Y","APVZGZM1RA3AZ","338431Z1FL1IVIVZ3BK6A6QS21HROA","","","img/flower4.png","76","1397.5999999940395","3","0","1","",""
"null","","html-keyboard-response","116","391482","0.0-116.0","3PZDLQMM0U724TF5PI1G3HKR8CBC2Y","APVZGZM1RA3AZ","338431Z1FL1IVIVZ3BK6A6QS21HROA","","","<img src=""img/flower4.png"" style=""width:200px;border:14px solid red;"">","null","","","","","",""
"580.0999999940395","","image-keyboard-response","117","392063","0.0-117.0","3PZDLQMM0U724TF5PI1G3HKR8CBC2Y","APVZGZM1RA3AZ","338431Z1FL1IVIVZ3BK6A6QS21HROA","","","img/flower5.png","75","580.9000000059605","2","1","2","",""
"null","","html-keyboard-response","118","392375","0.0-118.0","3PZDLQMM0U724TF5PI1G3HKR8CBC2Y","APVZGZM1RA3AZ","338431Z1FL1IVIVZ3BK6A6QS21HROA","","","<img src=""img/flower5.png"" style=""width:200px; border:14px solid green;"">","null","","","","","",""
"1298.6000000238419","","image-keyboard-response","119","393674","0.0-119.0","3PZDLQMM0U724TF5PI1G3HKR8CBC2Y","APVZGZM1RA3AZ","338431Z1FL1IVIVZ3BK6A6QS21HROA","","","img/flower5.png","75","1299.5","2","1","2","",""
"null","","html-keyboard-response","120","393983","0.0-120.0","3PZDLQMM0U724TF5PI1G3HKR8CBC2Y","APVZGZM1RA3AZ","338431Z1FL1IVIVZ3BK6A6QS21HROA","","","<img src=""img/flower5.png"" style=""width:200px; border:14px solid green;"">","null","","","","","",""
"1283","","image-keyboard-response","121","395267","0.0-121.0","3PZDLQMM0U724TF5PI1G3HKR8CBC2Y","APVZGZM1RA3AZ","338431Z1FL1IVIVZ3BK6A6QS21HROA","","","img/flower4.png","75","1284","2","0","1","",""
"null","","html-keyboard-response","122","395573","0.0-122.0","3PZDLQMM0U724TF5PI1G3HKR8CBC2Y","APVZGZM1RA3AZ","338431Z1FL1IVIVZ3BK6A6QS21HROA","","","<img src=""img/flower4.png"" style=""width:200px;border:14px solid red;"">","null","","","","","",""
"605.4000000059605","","image-keyboard-response","123","396179","0.0-123.0","3PZDLQMM0U724TF5PI1G3HKR8CBC2Y","APVZGZM1RA3AZ","338431Z1FL1IVIVZ3BK6A6QS21HROA","","","img/flower5.png","74","606.0999999940395","1","0","2","",""
"null","","html-keyboard-response","124","396483","0.0-124.0","3PZDLQMM0U724TF5PI1G3HKR8CBC2Y","APVZGZM1RA3AZ","338431Z1FL1IVIVZ3BK6A6QS21HROA","","","<img src=""img/flower5.png"" style=""width:200px;border:14px solid red;"">","null","","","","","",""
"5378.300000011921","","instructions","125","401862","0.0-125.0","3PZDLQMM0U724TF5PI1G3HKR8CBC2Y","APVZGZM1RA3AZ","338431Z1FL1IVIVZ3BK6A6QS21HROA","","[{""page_index"":0,""viewing_time"":5377.9000000059605}]","","","","","","","",""
"7852.4000000059605","","image-keyboard-response","126","409716","0.0-126.0","3PZDLQMM0U724TF5PI1G3HKR8CBC2Y","APVZGZM1RA3AZ","338431Z1FL1IVIVZ3BK6A6QS21HROA","","","img/flower4.png","74","7853.800000011921","1","1","1","1,1,0,0,1,1,1,0,1",""
"null","","html-keyboard-response","127","410025","0.0-127.0","3PZDLQMM0U724TF5PI1G3HKR8CBC2Y","APVZGZM1RA3AZ","338431Z1FL1IVIVZ3BK6A6QS21HROA","","","<img src=""img/flower4.png"" style=""width:200px; border:14px solid green;"">","null","","","","","",""
"1181.9000000059605","","image-keyboard-response","128","411208","0.0-128.0","3PZDLQMM0U724TF5PI1G3HKR8CBC2Y","APVZGZM1RA3AZ","338431Z1FL1IVIVZ3BK6A6QS21HROA","","","img/flower1.png","75","1182.5","2","0","3","1,1,0,0,1,1,1,0,1",""
"null","","html-keyboard-response","129","411512","0.0-129.0","3PZDLQMM0U724TF5PI1G3HKR8CBC2Y","APVZGZM1RA3AZ","338431Z1FL1IVIVZ3BK6A6QS21HROA","","","<img src=""img/flower1.png"" style=""width:200px;border:14px solid red;"">","null","","","","","",""
"732.1000000238419","","image-keyboard-response","130","412245","0.0-130.0","3PZDLQMM0U724TF5PI1G3HKR8CBC2Y","APVZGZM1RA3AZ","338431Z1FL1IVIVZ3BK6A6QS21HROA","","","img/flower4.png","76","733.2999999821186","3","0","1","1,1,0,0,1,1,1,0,1",""
"null","","html-keyboard-response","131","412554","0.0-131.0","3PZDLQMM0U724TF5PI1G3HKR8CBC2Y","APVZGZM1RA3AZ","338431Z1FL1IVIVZ3BK6A6QS21HROA","","","<img src=""img/flower4.png"" style=""width:200px;border:14px solid red;"">","null","","","","","",""
"752","","image-keyboard-response","132","413307","0.0-132.0","3PZDLQMM0U724TF5PI1G3HKR8CBC2Y","APVZGZM1RA3AZ","338431Z1FL1IVIVZ3BK6A6QS21HROA","","","img/flower6.png","74","753.1000000238419","1","0","2","1,1,0,0,1,1,1,0,1",""
"null","","html-keyboard-response","133","413623","0.0-133.0","3PZDLQMM0U724TF5PI1G3HKR8CBC2Y","APVZGZM1RA3AZ","338431Z1FL1IVIVZ3BK6A6QS21HROA","","","<img src=""img/flower6.png"" style=""width:200px;border:14px solid red;"">","null","","","","","",""
"555.5","","image-keyboard-response","134","414180","0.0-134.0","3PZDLQMM0U724TF5PI1G3HKR8CBC2Y","APVZGZM1RA3AZ","338431Z1FL1IVIVZ3BK6A6QS21HROA","","","img/flower1.png","76","556.3000000119209","3","1","3","1,1,0,0,1,1,1,0,1",""
"null","","html-keyboard-response","135","414489","0.0-135.0","3PZDLQMM0U724TF5PI1G3HKR8CBC2Y","APVZGZM1RA3AZ","338431Z1FL1IVIVZ3BK6A6QS21HROA","","","<img src=""img/flower1.png"" style=""width:200px; border:14px solid green;"">","null","","","","","",""
"1625","","image-keyboard-response","136","416115","0.0-136.0","3PZDLQMM0U724TF5PI1G3HKR8CBC2Y","APVZGZM1RA3AZ","338431Z1FL1IVIVZ3BK6A6QS21HROA","","","img/flower4.png","75","1625.7000000178814","2","1","1","1,1,0,0,1,1,1,0,1",""
"null","","html-keyboard-response","137","416424","0.0-137.0","3PZDLQMM0U724TF5PI1G3HKR8CBC2Y","APVZGZM1RA3AZ","338431Z1FL1IVIVZ3BK6A6QS21HROA","","","<img src=""img/flower4.png"" style=""width:200px; border:14px solid green;"">","null","","","","","",""
"1442.800000011921","","image-keyboard-response","138","417868","0.0-138.0","3PZDLQMM0U724TF5PI1G3HKR8CBC2Y","APVZGZM1RA3AZ","338431Z1FL1IVIVZ3BK6A6QS21HROA","","","img/flower6.png","76","1444.1000000238419","3","1","2","1,1,0,0,1,1,1,0,1",""
"null","","html-keyboard-response","139","418171","0.0-139.0","3PZDLQMM0U724TF5PI1G3HKR8CBC2Y","APVZGZM1RA3AZ","338431Z1FL1IVIVZ3BK6A6QS21HROA","","","<img src=""img/flower6.png"" style=""width:200px; border:14px solid green;"">","null","","","","","",""
"1831.5","","image-keyboard-response","140","420004","0.0-140.0","3PZDLQMM0U724TF5PI1G3HKR8CBC2Y","APVZGZM1RA3AZ","338431Z1FL1IVIVZ3BK6A6QS21HROA","","","img/flower4.png","74","1832.5","1","1","1","1,1,0,0,1,1,1,0,1",""
"null","","html-keyboard-response","141","420309","0.0-141.0","3PZDLQMM0U724TF5PI1G3HKR8CBC2Y","APVZGZM1RA3AZ","338431Z1FL1IVIVZ3BK6A6QS21HROA","","","<img src=""img/flower4.png"" style=""width:200px; border:14px solid green;"">","null","","","","","",""
"1192.9000000059605","","image-keyboard-response","142","421503","0.0-142.0","3PZDLQMM0U724TF5PI1G3HKR8CBC2Y","APVZGZM1RA3AZ","338431Z1FL1IVIVZ3BK6A6QS21HROA","","","img/flower1.png","75","1193.7999999821186","2","0","3","1,1,0,0,1,1,1,0,1",""
"null","","html-keyboard-response","143","421808","0.0-143.0","3PZDLQMM0U724TF5PI1G3HKR8CBC2Y","APVZGZM1RA3AZ","338431Z1FL1IVIVZ3BK6A6QS21HROA","","","<img src=""img/flower1.png"" style=""width:200px;border:14px solid red;"">","null","","","","","",""
"706.9000000059605","","image-keyboard-response","144","422516","0.0-144.0","3PZDLQMM0U724TF5PI1G3HKR8CBC2Y","APVZGZM1RA3AZ","338431Z1FL1IVIVZ3BK6A6QS21HROA","","","img/flower6.png","76","707.5999999940395","3","1","2","1,1,0,0,1,1,1,0,1",""
"null","","html-keyboard-response","145","422826","0.0-145.0","3PZDLQMM0U724TF5PI1G3HKR8CBC2Y","APVZGZM1RA3AZ","338431Z1FL1IVIVZ3BK6A6QS21HROA","","","<img src=""img/flower6.png"" style=""width:200px; border:14px solid green;"">","null","","","","","",""
"1649.5999999940395","","image-keyboard-response","146","424477","0.0-146.0","3PZDLQMM0U724TF5PI1G3HKR8CBC2Y","APVZGZM1RA3AZ","338431Z1FL1IVIVZ3BK6A6QS21HROA","","","img/flower4.png","74","1650.5999999940395","1","1","1","1,1,0,0,1,1,1,0,1",""
"null","","html-keyboard-response","147","424790","0.0-147.0","3PZDLQMM0U724TF5PI1G3HKR8CBC2Y","APVZGZM1RA3AZ","338431Z1FL1IVIVZ3BK6A6QS21HROA","","","<img src=""img/flower4.png"" style=""width:200px; border:14px solid green;"">","null","","","","","",""
"677.5","","image-keyboard-response","148","425469","0.0-148.0","3PZDLQMM0U724TF5PI1G3HKR8CBC2Y","APVZGZM1RA3AZ","338431Z1FL1IVIVZ3BK6A6QS21HROA","","","img/flower6.png","76","678.7000000178814","3","1","2","1,1,0,0,1,1,1,0,1",""
"null","","html-keyboard-response","149","425780","0.0-149.0","3PZDLQMM0U724TF5PI1G3HKR8CBC2Y","APVZGZM1RA3AZ","338431Z1FL1IVIVZ3BK6A6QS21HROA","","","<img src=""img/flower6.png"" style=""width:200px; border:14px solid green;"">","null","","","","","",""
"919.8000000119209","","image-keyboard-response","150","426701","0.0-150.0","3PZDLQMM0U724TF5PI1G3HKR8CBC2Y","APVZGZM1RA3AZ","338431Z1FL1IVIVZ3BK6A6QS21HROA","","","img/flower1.png","74","920.5","1","1","3","1,1,0,0,1,1,1,0,1",""
"null","","html-keyboard-response","151","427005","0.0-151.0","3PZDLQMM0U724TF5PI1G3HKR8CBC2Y","APVZGZM1RA3AZ","338431Z1FL1IVIVZ3BK6A6QS21HROA","","","<img src=""img/flower1.png"" style=""width:200px; border:14px solid green;"">","null","","","","","",""
"1148.5999999940395","","image-keyboard-response","152","428155","0.0-152.0","3PZDLQMM0U724TF5PI1G3HKR8CBC2Y","APVZGZM1RA3AZ","338431Z1FL1IVIVZ3BK6A6QS21HROA","","","img/flower4.png","74","1149.2999999821186","1","1","1","1,1,0,0,1,1,1,0,1",""
"null","","html-keyboard-response","153","428469","0.0-153.0","3PZDLQMM0U724TF5PI1G3HKR8CBC2Y","APVZGZM1RA3AZ","338431Z1FL1IVIVZ3BK6A6QS21HROA","","","<img src=""img/flower4.png"" style=""width:200px; border:14px solid green;"">","null","","","","","",""
"820.5","","image-keyboard-response","154","429291","0.0-154.0","3PZDLQMM0U724TF5PI1G3HKR8CBC2Y","APVZGZM1RA3AZ","338431Z1FL1IVIVZ3BK6A6QS21HROA","","","img/flower4.png","74","821.2000000178814","1","1","1","1,1,0,0,1,1,1,0,1",""
"null","","html-keyboard-response","155","429603","0.0-155.0","3PZDLQMM0U724TF5PI1G3HKR8CBC2Y","APVZGZM1RA3AZ","338431Z1FL1IVIVZ3BK6A6QS21HROA","","","<img src=""img/flower4.png"" style=""width:200px; border:14px solid green;"">","null","","","","","",""
"774.8999999761581","","image-keyboard-response","156","430379","0.0-156.0","3PZDLQMM0U724TF5PI1G3HKR8CBC2Y","APVZGZM1RA3AZ","338431Z1FL1IVIVZ3BK6A6QS21HROA","","","img/flower1.png","76","775.5999999940395","3","1","3","1,1,0,0,1,1,1,0,1",""
"null","","html-keyboard-response","157","430685","0.0-157.0","3PZDLQMM0U724TF5PI1G3HKR8CBC2Y","APVZGZM1RA3AZ","338431Z1FL1IVIVZ3BK6A6QS21HROA","","","<img src=""img/flower1.png"" style=""width:200px; border:14px solid green;"">","null","","","","","",""
"990.5","","image-keyboard-response","158","431677","0.0-158.0","3PZDLQMM0U724TF5PI1G3HKR8CBC2Y","APVZGZM1RA3AZ","338431Z1FL1IVIVZ3BK6A6QS21HROA","","","img/flower6.png","76","991.8000000119209","3","1","2","1,1,0,0,1,1,1,0,1",""
"null","","html-keyboard-response","159","431995","0.0-159.0","3PZDLQMM0U724TF5PI1G3HKR8CBC2Y","APVZGZM1RA3AZ","338431Z1FL1IVIVZ3BK6A6QS21HROA","","","<img src=""img/flower6.png"" style=""width:200px; border:14px solid green;"">","null","","","","","",""
"959.6999999880791","","image-keyboard-response","160","432956","0.0-160.0","3PZDLQMM0U724TF5PI1G3HKR8CBC2Y","APVZGZM1RA3AZ","338431Z1FL1IVIVZ3BK6A6QS21HROA","","","img/flower1.png","76","960.8000000119209","3","1","3","1,1,0,0,1,1,1,0,1",""
"null","","html-keyboard-response","161","433264","0.0-161.0","3PZDLQMM0U724TF5PI1G3HKR8CBC2Y","APVZGZM1RA3AZ","338431Z1FL1IVIVZ3BK6A6QS21HROA","","","<img src=""img/flower1.png"" style=""width:200px; border:14px solid green;"">","null","","","","","",""
"1083","","image-keyboard-response","162","434348","0.0-162.0","3PZDLQMM0U724TF5PI1G3HKR8CBC2Y","APVZGZM1RA3AZ","338431Z1FL1IVIVZ3BK6A6QS21HROA","","","img/flower4.png","74","1083.5","1","1","1","1,1,0,0,1,1,1,0,1",""
"null","","html-keyboard-response","163","434662","0.0-163.0","3PZDLQMM0U724TF5PI1G3HKR8CBC2Y","APVZGZM1RA3AZ","338431Z1FL1IVIVZ3BK6A6QS21HROA","","","<img src=""img/flower4.png"" style=""width:200px; border:14px solid green;"">","null","","","","","",""
"867.9000000059605","","image-keyboard-response","164","435532","0.0-164.0","3PZDLQMM0U724TF5PI1G3HKR8CBC2Y","APVZGZM1RA3AZ","338431Z1FL1IVIVZ3BK6A6QS21HROA","","","img/flower4.png","74","869.3000000119209","1","1","1","1,1,0,0,1,1,1,0,1",""
"null","","html-keyboard-response","165","435838","0.0-165.0","3PZDLQMM0U724TF5PI1G3HKR8CBC2Y","APVZGZM1RA3AZ","338431Z1FL1IVIVZ3BK6A6QS21HROA","","","<img src=""img/flower4.png"" style=""width:200px; border:14px solid green;"">","null","","","","","",""
"652.4000000059605","","image-keyboard-response","166","436492","0.0-166.0","3PZDLQMM0U724TF5PI1G3HKR8CBC2Y","APVZGZM1RA3AZ","338431Z1FL1IVIVZ3BK6A6QS21HROA","","","img/flower6.png","76","653","3","1","2","1,1,0,0,1,1,1,0,1",""
"null","","html-keyboard-response","167","436805","0.0-167.0","3PZDLQMM0U724TF5PI1G3HKR8CBC2Y","APVZGZM1RA3AZ","338431Z1FL1IVIVZ3BK6A6QS21HROA","","","<img src=""img/flower6.png"" style=""width:200px; border:14px solid green;"">","null","","","","","",""
"685.2999999821186","","image-keyboard-response","168","437491","0.0-168.0","3PZDLQMM0U724TF5PI1G3HKR8CBC2Y","APVZGZM1RA3AZ","338431Z1FL1IVIVZ3BK6A6QS21HROA","","","img/flower6.png","76","686.2000000178814","3","1","2","1,1,0,0,1,1,1,0,1",""
"null","","html-keyboard-response","169","437798","0.0-169.0","3PZDLQMM0U724TF5PI1G3HKR8CBC2Y","APVZGZM1RA3AZ","338431Z1FL1IVIVZ3BK6A6QS21HROA","","","<img src=""img/flower6.png"" style=""width:200px; border:14px solid green;"">","null","","","","","",""
"702.9000000059605","","image-keyboard-response","170","438502","0.0-170.0","3PZDLQMM0U724TF5PI1G3HKR8CBC2Y","APVZGZM1RA3AZ","338431Z1FL1IVIVZ3BK6A6QS21HROA","","","img/flower1.png","74","703.9000000059605","1","1","3","1,1,0,0,1,1,1,0,1",""
"null","","html-keyboard-response","171","438808","0.0-171.0","3PZDLQMM0U724TF5PI1G3HKR8CBC2Y","APVZGZM1RA3AZ","338431Z1FL1IVIVZ3BK6A6QS21HROA","","","<img src=""img/flower1.png"" style=""width:200px; border:14px solid green;"">","null","","","","","",""
"618.6999999880791","","image-keyboard-response","172","439428","0.0-172.0","3PZDLQMM0U724TF5PI1G3HKR8CBC2Y","APVZGZM1RA3AZ","338431Z1FL1IVIVZ3BK6A6QS21HROA","","","img/flower4.png","74","620.0999999940395","1","1","1","1,1,0,0,1,1,1,0,1",""
"null","","html-keyboard-response","173","439745","0.0-173.0","3PZDLQMM0U724TF5PI1G3HKR8CBC2Y","APVZGZM1RA3AZ","338431Z1FL1IVIVZ3BK6A6QS21HROA","","","<img src=""img/flower4.png"" style=""width:200px; border:14px solid green;"">","null","","","","","",""
"593.6999999880791","","image-keyboard-response","174","440339","0.0-174.0","3PZDLQMM0U724TF5PI1G3HKR8CBC2Y","APVZGZM1RA3AZ","338431Z1FL1IVIVZ3BK6A6QS21HROA","","","img/flower1.png","76","594.5","3","1","3","1,1,0,0,1,1,1,0,1",""
"null","","html-keyboard-response","175","440655","0.0-175.0","3PZDLQMM0U724TF5PI1G3HKR8CBC2Y","APVZGZM1RA3AZ","338431Z1FL1IVIVZ3BK6A6QS21HROA","","","<img src=""img/flower1.png"" style=""width:200px; border:14px solid green;"">","null","","","","","",""
"652.0999999940395","","image-keyboard-response","176","441308","0.0-176.0","3PZDLQMM0U724TF5PI1G3HKR8CBC2Y","APVZGZM1RA3AZ","338431Z1FL1IVIVZ3BK6A6QS21HROA","","","img/flower1.png","76","653","3","1","3","1,1,0,0,1,1,1,0,1",""
"null","","html-keyboard-response","177","441620","0.0-177.0","3PZDLQMM0U724TF5PI1G3HKR8CBC2Y","APVZGZM1RA3AZ","338431Z1FL1IVIVZ3BK6A6QS21HROA","","","<img src=""img/flower1.png"" style=""width:200px; border:14px solid green;"">","null","","","","","",""
"616","","image-keyboard-response","178","442237","0.0-178.0","3PZDLQMM0U724TF5PI1G3HKR8CBC2Y","APVZGZM1RA3AZ","338431Z1FL1IVIVZ3BK6A6QS21HROA","","","img/flower1.png","76","616.6999999880791","3","1","3","1,1,0,0,1,1,1,0,1",""
"null","","html-keyboard-response","179","442549","0.0-179.0","3PZDLQMM0U724TF5PI1G3HKR8CBC2Y","APVZGZM1RA3AZ","338431Z1FL1IVIVZ3BK6A6QS21HROA","","","<img src=""img/flower1.png"" style=""width:200px; border:14px solid green;"">","null","","","","","",""
"862.0999999940395","","image-keyboard-response","180","443413","0.0-180.0","3PZDLQMM0U724TF5PI1G3HKR8CBC2Y","APVZGZM1RA3AZ","338431Z1FL1IVIVZ3BK6A6QS21HROA","","","img/flower6.png","74","863.1000000238419","1","0","2","1,1,0,0,1,1,1,0,1",""
"null","","html-keyboard-response","181","443729","0.0-181.0","3PZDLQMM0U724TF5PI1G3HKR8CBC2Y","APVZGZM1RA3AZ","338431Z1FL1IVIVZ3BK6A6QS21HROA","","","<img src=""img/flower6.png"" style=""width:200px;border:14px solid red;"">","null","","","","","",""
"722","","image-keyboard-response","182","444453","0.0-182.0","3PZDLQMM0U724TF5PI1G3HKR8CBC2Y","APVZGZM1RA3AZ","338431Z1FL1IVIVZ3BK6A6QS21HROA","","","img/flower4.png","76","723.5","3","0","1","1,1,0,0,1,1,1,0,1",""
"null","","html-keyboard-response","183","444767","0.0-183.0","3PZDLQMM0U724TF5PI1G3HKR8CBC2Y","APVZGZM1RA3AZ","338431Z1FL1IVIVZ3BK6A6QS21HROA","","","<img src=""img/flower4.png"" style=""width:200px;border:14px solid red;"">","null","","","","","",""
"674.6999999880791","","image-keyboard-response","184","445443","0.0-184.0","3PZDLQMM0U724TF5PI1G3HKR8CBC2Y","APVZGZM1RA3AZ","338431Z1FL1IVIVZ3BK6A6QS21HROA","","","img/flower1.png","74","675.7000000178814","1","1","3","1,1,0,0,1,1,1,0,1",""
"null","","html-keyboard-response","185","445759","0.0-185.0","3PZDLQMM0U724TF5PI1G3HKR8CBC2Y","APVZGZM1RA3AZ","338431Z1FL1IVIVZ3BK6A6QS21HROA","","","<img src=""img/flower1.png"" style=""width:200px; border:14px solid green;"">","null","","","","","",""
"1315.5","","image-keyboard-response","186","447076","0.0-186.0","3PZDLQMM0U724TF5PI1G3HKR8CBC2Y","APVZGZM1RA3AZ","338431Z1FL1IVIVZ3BK6A6QS21HROA","","","img/flower6.png","76","1316.5","3","1","2","1,1,0,0,1,1,1,0,1",""
"null","","html-keyboard-response","187","447392","0.0-187.0","3PZDLQMM0U724TF5PI1G3HKR8CBC2Y","APVZGZM1RA3AZ","338431Z1FL1IVIVZ3BK6A6QS21HROA","","","<img src=""img/flower6.png"" style=""width:200px; border:14px solid green;"">","null","","","","","",""
"626.7999999821186","","image-keyboard-response","188","448019","0.0-188.0","3PZDLQMM0U724TF5PI1G3HKR8CBC2Y","APVZGZM1RA3AZ","338431Z1FL1IVIVZ3BK6A6QS21HROA","","","img/flower6.png","76","627.3000000119209","3","1","2","1,1,0,0,1,1,1,0,1",""
"null","","html-keyboard-response","189","448321","0.0-189.0","3PZDLQMM0U724TF5PI1G3HKR8CBC2Y","APVZGZM1RA3AZ","338431Z1FL1IVIVZ3BK6A6QS21HROA","","","<img src=""img/flower6.png"" style=""width:200px; border:14px solid green;"">","null","","","","","",""
"1235.699999988079","","image-keyboard-response","190","449558","0.0-190.0","3PZDLQMM0U724TF5PI1G3HKR8CBC2Y","APVZGZM1RA3AZ","338431Z1FL1IVIVZ3BK6A6QS21HROA","","","img/flower6.png","76","1236.5","3","1","2","1,1,0,0,1,1,1,0,1",""
"null","","html-keyboard-response","191","449863","0.0-191.0","3PZDLQMM0U724TF5PI1G3HKR8CBC2Y","APVZGZM1RA3AZ","338431Z1FL1IVIVZ3BK6A6QS21HROA","","","<img src=""img/flower6.png"" style=""width:200px; border:14px solid green;"">","null","","","","","",""
"1083","","image-keyboard-response","192","450948","0.0-192.0","3PZDLQMM0U724TF5PI1G3HKR8CBC2Y","APVZGZM1RA3AZ","338431Z1FL1IVIVZ3BK6A6QS21HROA","","","img/flower1.png","76","1083.800000011921","3","1","3","1,1,0,0,1,1,1,0,1",""
"null","","html-keyboard-response","193","451257","0.0-193.0","3PZDLQMM0U724TF5PI1G3HKR8CBC2Y","APVZGZM1RA3AZ","338431Z1FL1IVIVZ3BK6A6QS21HROA","","","<img src=""img/flower1.png"" style=""width:200px; border:14px solid green;"">","null","","","","","",""
"865.7999999821186","","image-keyboard-response","194","452124","0.0-194.0","3PZDLQMM0U724TF5PI1G3HKR8CBC2Y","APVZGZM1RA3AZ","338431Z1FL1IVIVZ3BK6A6QS21HROA","","","img/flower4.png","74","866.7999999821186","1","1","1","1,1,0,0,1,1,1,0,1",""
"null","","html-keyboard-response","195","452433","0.0-195.0","3PZDLQMM0U724TF5PI1G3HKR8CBC2Y","APVZGZM1RA3AZ","338431Z1FL1IVIVZ3BK6A6QS21HROA","","","<img src=""img/flower4.png"" style=""width:200px; border:14px solid green;"">","null","","","","","",""
"737","","image-keyboard-response","196","453172","0.0-196.0","3PZDLQMM0U724TF5PI1G3HKR8CBC2Y","APVZGZM1RA3AZ","338431Z1FL1IVIVZ3BK6A6QS21HROA","","","img/flower4.png","74","738.5","1","1","1","1,1,0,0,1,1,1,0,1",""
"null","","html-keyboard-response","197","453487","0.0-197.0","3PZDLQMM0U724TF5PI1G3HKR8CBC2Y","APVZGZM1RA3AZ","338431Z1FL1IVIVZ3BK6A6QS21HROA","","","<img src=""img/flower4.png"" style=""width:200px; border:14px solid green;"">","null","","","","","",""
"603.7000000178814","","image-keyboard-response","198","454092","0.0-198.0","3PZDLQMM0U724TF5PI1G3HKR8CBC2Y","APVZGZM1RA3AZ","338431Z1FL1IVIVZ3BK6A6QS21HROA","","","img/flower1.png","76","604.5","3","1","3","1,1,0,0,1,1,1,0,1",""
"null","","html-keyboard-response","199","454409","0.0-199.0","3PZDLQMM0U724TF5PI1G3HKR8CBC2Y","APVZGZM1RA3AZ","338431Z1FL1IVIVZ3BK6A6QS21HROA","","","<img src=""img/flower1.png"" style=""width:200px; border:14px solid green;"">","null","","","","","",""
"770","","image-keyboard-response","200","455180","0.0-200.0","3PZDLQMM0U724TF5PI1G3HKR8CBC2Y","APVZGZM1RA3AZ","338431Z1FL1IVIVZ3BK6A6QS21HROA","","","img/flower6.png","76","770.8000000119209","3","1","2","1,1,0,0,1,1,1,0,1",""
"null","","html-keyboard-response","201","455481","0.0-201.0","3PZDLQMM0U724TF5PI1G3HKR8CBC2Y","APVZGZM1RA3AZ","338431Z1FL1IVIVZ3BK6A6QS21HROA","","","<img src=""img/flower6.png"" style=""width:200px; border:14px solid green;"">","null","","","","","",""
"1632","","image-keyboard-response","202","457115","0.0-202.0","3PZDLQMM0U724TF5PI1G3HKR8CBC2Y","APVZGZM1RA3AZ","338431Z1FL1IVIVZ3BK6A6QS21HROA","","","img/flower6.png","76","1632.8999999761581","3","1","2","1,1,0,0,1,1,1,0,1",""
"null","","html-keyboard-response","203","457431","0.0-203.0","3PZDLQMM0U724TF5PI1G3HKR8CBC2Y","APVZGZM1RA3AZ","338431Z1FL1IVIVZ3BK6A6QS21HROA","","","<img src=""img/flower6.png"" style=""width:200px; border:14px solid green;"">","null","","","","","",""
"2409","","image-keyboard-response","204","459843","0.0-204.0","3PZDLQMM0U724TF5PI1G3HKR8CBC2Y","APVZGZM1RA3AZ","338431Z1FL1IVIVZ3BK6A6QS21HROA","","","img/flower6.png","76","2410.9000000059605","3","1","2","1,1,0,0,1,1,1,0,1",""
"null","","html-keyboard-response","205","460148","0.0-205.0","3PZDLQMM0U724TF5PI1G3HKR8CBC2Y","APVZGZM1RA3AZ","338431Z1FL1IVIVZ3BK6A6QS21HROA","","","<img src=""img/flower6.png"" style=""width:200px; border:14px solid green;"">","null","","","","","",""
"974.4000000059605","","image-keyboard-response","206","461123","0.0-206.0","3PZDLQMM0U724TF5PI1G3HKR8CBC2Y","APVZGZM1RA3AZ","338431Z1FL1IVIVZ3BK6A6QS21HROA","","","img/flower1.png","76","975.0999999940395","3","1","3","1,1,0,0,1,1,1,0,1",""
"null","","html-keyboard-response","207","461428","0.0-207.0","3PZDLQMM0U724TF5PI1G3HKR8CBC2Y","APVZGZM1RA3AZ","338431Z1FL1IVIVZ3BK6A6QS21HROA","","","<img src=""img/flower1.png"" style=""width:200px; border:14px solid green;"">","null","","","","","",""
"869.9000000059605","","image-keyboard-response","208","462299","0.0-208.0","3PZDLQMM0U724TF5PI1G3HKR8CBC2Y","APVZGZM1RA3AZ","338431Z1FL1IVIVZ3BK6A6QS21HROA","","","img/flower6.png","76","870.1999999880791","3","1","2","1,1,0,0,1,1,1,0,1",""
"null","","html-keyboard-response","209","462615","0.0-209.0","3PZDLQMM0U724TF5PI1G3HKR8CBC2Y","APVZGZM1RA3AZ","338431Z1FL1IVIVZ3BK6A6QS21HROA","","","<img src=""img/flower6.png"" style=""width:200px; border:14px solid green;"">","null","","","","","",""
"827.6000000238419","","image-keyboard-response","210","463443","0.0-210.0","3PZDLQMM0U724TF5PI1G3HKR8CBC2Y","APVZGZM1RA3AZ","338431Z1FL1IVIVZ3BK6A6QS21HROA","","","img/flower4.png","74","828.3999999761581","1","1","1","1,1,0,0,1,1,1,0,1",""
"null","","html-keyboard-response","211","463752","0.0-211.0","3PZDLQMM0U724TF5PI1G3HKR8CBC2Y","APVZGZM1RA3AZ","338431Z1FL1IVIVZ3BK6A6QS21HROA","","","<img src=""img/flower4.png"" style=""width:200px; border:14px solid green;"">","null","","","","","",""
"1003.4000000059605","","image-keyboard-response","212","464756","0.0-212.0","3PZDLQMM0U724TF5PI1G3HKR8CBC2Y","APVZGZM1RA3AZ","338431Z1FL1IVIVZ3BK6A6QS21HROA","","","img/flower1.png","76","1004.2000000178814","3","1","3","1,1,0,0,1,1,1,0,1",""
"null","","html-keyboard-response","213","465064","0.0-213.0","3PZDLQMM0U724TF5PI1G3HKR8CBC2Y","APVZGZM1RA3AZ","338431Z1FL1IVIVZ3BK6A6QS21HROA","","","<img src=""img/flower1.png"" style=""width:200px; border:14px solid green;"">","null","","","","","",""
"730.0999999940395","","image-keyboard-response","214","465796","0.0-214.0","3PZDLQMM0U724TF5PI1G3HKR8CBC2Y","APVZGZM1RA3AZ","338431Z1FL1IVIVZ3BK6A6QS21HROA","","","img/flower1.png","76","731.0999999940395","3","1","3","1,1,0,0,1,1,1,0,1",""
"null","","html-keyboard-response","215","466107","0.0-215.0","3PZDLQMM0U724TF5PI1G3HKR8CBC2Y","APVZGZM1RA3AZ","338431Z1FL1IVIVZ3BK6A6QS21HROA","","","<img src=""img/flower1.png"" style=""width:200px; border:14px solid green;"">","null","","","","","",""
"655.0999999940395","","image-keyboard-response","216","466764","0.0-216.0","3PZDLQMM0U724TF5PI1G3HKR8CBC2Y","APVZGZM1RA3AZ","338431Z1FL1IVIVZ3BK6A6QS21HROA","","","img/flower4.png","74","656.4000000059605","1","1","1","1,1,0,0,1,1,1,0,1",""
"null","","html-keyboard-response","217","467069","0.0-217.0","3PZDLQMM0U724TF5PI1G3HKR8CBC2Y","APVZGZM1RA3AZ","338431Z1FL1IVIVZ3BK6A6QS21HROA","","","<img src=""img/flower4.png"" style=""width:200px; border:14px solid green;"">","null","","","","","",""
"621.1999999880791","","image-keyboard-response","218","467691","0.0-218.0","3PZDLQMM0U724TF5PI1G3HKR8CBC2Y","APVZGZM1RA3AZ","338431Z1FL1IVIVZ3BK6A6QS21HROA","","","img/flower1.png","74","621.8999999761581","1","1","3","1,1,0,0,1,1,1,0,1",""
"null","","html-keyboard-response","219","467997","0.0-219.0","3PZDLQMM0U724TF5PI1G3HKR8CBC2Y","APVZGZM1RA3AZ","338431Z1FL1IVIVZ3BK6A6QS21HROA","","","<img src=""img/flower1.png"" style=""width:200px; border:14px solid green;"">","null","","","","","",""
"1134.5","","image-keyboard-response","220","469132","0.0-220.0","3PZDLQMM0U724TF5PI1G3HKR8CBC2Y","APVZGZM1RA3AZ","338431Z1FL1IVIVZ3BK6A6QS21HROA","","","img/flower4.png","74","1135.0999999940395","1","1","1","1,1,0,0,1,1,1,0,1",""
"null","","html-keyboard-response","221","469444","0.0-221.0","3PZDLQMM0U724TF5PI1G3HKR8CBC2Y","APVZGZM1RA3AZ","338431Z1FL1IVIVZ3BK6A6QS21HROA","","","<img src=""img/flower4.png"" style=""width:200px; border:14px solid green;"">","null","","","","","",""
"815.2999999821186","","image-keyboard-response","222","470260","0.0-222.0","3PZDLQMM0U724TF5PI1G3HKR8CBC2Y","APVZGZM1RA3AZ","338431Z1FL1IVIVZ3BK6A6QS21HROA","","","img/flower6.png","76","816.2999999821186","3","1","2","1,1,0,0,1,1,1,0,1",""
"null","","html-keyboard-response","223","470569","0.0-223.0","3PZDLQMM0U724TF5PI1G3HKR8CBC2Y","APVZGZM1RA3AZ","338431Z1FL1IVIVZ3BK6A6QS21HROA","","","<img src=""img/flower6.png"" style=""width:200px; border:14px solid green;"">","null","","","","","",""
"1080.0999999940395","","image-keyboard-response","224","471651","0.0-224.0","3PZDLQMM0U724TF5PI1G3HKR8CBC2Y","APVZGZM1RA3AZ","338431Z1FL1IVIVZ3BK6A6QS21HROA","","","img/flower4.png","76","1080.8999999761581","3","0","1","1,1,0,0,1,1,1,0,1",""
"null","","html-keyboard-response","225","471964","0.0-225.0","3PZDLQMM0U724TF5PI1G3HKR8CBC2Y","APVZGZM1RA3AZ","338431Z1FL1IVIVZ3BK6A6QS21HROA","","","<img src=""img/flower4.png"" style=""width:200px;border:14px solid red;"">","null","","","","","",""
"558.0999999940395","","image-keyboard-response","226","472523","0.0-226.0","3PZDLQMM0U724TF5PI1G3HKR8CBC2Y","APVZGZM1RA3AZ","338431Z1FL1IVIVZ3BK6A6QS21HROA","","","img/flower1.png","74","558.9000000059605","1","1","3","1,1,0,0,1,1,1,0,1",""
"null","","html-keyboard-response","227","472837","0.0-227.0","3PZDLQMM0U724TF5PI1G3HKR8CBC2Y","APVZGZM1RA3AZ","338431Z1FL1IVIVZ3BK6A6QS21HROA","","","<img src=""img/flower1.png"" style=""width:200px; border:14px solid green;"">","null","","","","","",""
"558.3000000119209","","image-keyboard-response","228","473396","0.0-228.0","3PZDLQMM0U724TF5PI1G3HKR8CBC2Y","APVZGZM1RA3AZ","338431Z1FL1IVIVZ3BK6A6QS21HROA","","","img/flower1.png","74","559.2999999821186","1","1","3","1,1,0,0,1,1,1,0,1",""
"null","","html-keyboard-response","229","473703","0.0-229.0","3PZDLQMM0U724TF5PI1G3HKR8CBC2Y","APVZGZM1RA3AZ","338431Z1FL1IVIVZ3BK6A6QS21HROA","","","<img src=""img/flower1.png"" style=""width:200px; border:14px solid green;"">","null","","","","","",""
"1115.9000000059605","","image-keyboard-response","230","474820","0.0-230.0","3PZDLQMM0U724TF5PI1G3HKR8CBC2Y","APVZGZM1RA3AZ","338431Z1FL1IVIVZ3BK6A6QS21HROA","","","img/flower1.png","74","1117.2999999821186","1","1","3","1,1,0,0,1,1,1,0,1",""
"null","","html-keyboard-response","231","475134","0.0-231.0","3PZDLQMM0U724TF5PI1G3HKR8CBC2Y","APVZGZM1RA3AZ","338431Z1FL1IVIVZ3BK6A6QS21HROA","","","<img src=""img/flower1.png"" style=""width:200px; border:14px solid green;"">","null","","","","","",""
"725.1999999880791","","image-keyboard-response","232","475860","0.0-232.0","3PZDLQMM0U724TF5PI1G3HKR8CBC2Y","APVZGZM1RA3AZ","338431Z1FL1IVIVZ3BK6A6QS21HROA","","","img/flower4.png","76","726.0999999940395","3","0","1","1,1,0,0,1,1,1,0,1",""
"null","","html-keyboard-response","233","476169","0.0-233.0","3PZDLQMM0U724TF5PI1G3HKR8CBC2Y","APVZGZM1RA3AZ","338431Z1FL1IVIVZ3BK6A6QS21HROA","","","<img src=""img/flower4.png"" style=""width:200px;border:14px solid red;"">","null","","","","","",""
"1106.1000000238419","","image-keyboard-response","234","477276","0.0-234.0","3PZDLQMM0U724TF5PI1G3HKR8CBC2Y","APVZGZM1RA3AZ","338431Z1FL1IVIVZ3BK6A6QS21HROA","","","img/flower6.png","76","1107","3","1","2","1,1,0,0,1,1,1,0,1",""
"null","","html-keyboard-response","235","477592","0.0-235.0","3PZDLQMM0U724TF5PI1G3HKR8CBC2Y","APVZGZM1RA3AZ","338431Z1FL1IVIVZ3BK6A6QS21HROA","","","<img src=""img/flower6.png"" style=""width:200px; border:14px solid green;"">","null","","","","","",""
"905.5999999940395","","image-keyboard-response","236","478499","0.0-236.0","3PZDLQMM0U724TF5PI1G3HKR8CBC2Y","APVZGZM1RA3AZ","338431Z1FL1IVIVZ3BK6A6QS21HROA","","","img/flower4.png","74","906.5999999940395","1","1","1","1,1,0,0,1,1,1,0,1",""
"null","","html-keyboard-response","237","478815","0.0-237.0","3PZDLQMM0U724TF5PI1G3HKR8CBC2Y","APVZGZM1RA3AZ","338431Z1FL1IVIVZ3BK6A6QS21HROA","","","<img src=""img/flower4.png"" style=""width:200px; border:14px solid green;"">","null","","","","","",""
"1011.7999999821186","","image-keyboard-response","238","479829","0.0-238.0","3PZDLQMM0U724TF5PI1G3HKR8CBC2Y","APVZGZM1RA3AZ","338431Z1FL1IVIVZ3BK6A6QS21HROA","","","img/flower6.png","76","1013.5","3","1","2","1,1,0,0,1,1,1,0,1",""
"null","","html-keyboard-response","239","480134","0.0-239.0","3PZDLQMM0U724TF5PI1G3HKR8CBC2Y","APVZGZM1RA3AZ","338431Z1FL1IVIVZ3BK6A6QS21HROA","","","<img src=""img/flower6.png"" style=""width:200px; border:14px solid green;"">","null","","","","","",""
"678.0999999940395","","image-keyboard-response","240","480814","0.0-240.0","3PZDLQMM0U724TF5PI1G3HKR8CBC2Y","APVZGZM1RA3AZ","338431Z1FL1IVIVZ3BK6A6QS21HROA","","","img/flower6.png","76","679.9000000059605","3","1","2","1,1,0,0,1,1,1,0,1",""
"null","","html-keyboard-response","241","481119","0.0-241.0","3PZDLQMM0U724TF5PI1G3HKR8CBC2Y","APVZGZM1RA3AZ","338431Z1FL1IVIVZ3BK6A6QS21HROA","","","<img src=""img/flower6.png"" style=""width:200px; border:14px solid green;"">","null","","","","","",""
"786.5","","image-keyboard-response","242","481907","0.0-242.0","3PZDLQMM0U724TF5PI1G3HKR8CBC2Y","APVZGZM1RA3AZ","338431Z1FL1IVIVZ3BK6A6QS21HROA","","","img/flower6.png","76","787.7000000178814","3","1","2","1,1,0,0,1,1,1,0,1",""
"null","","html-keyboard-response","243","482214","0.0-243.0","3PZDLQMM0U724TF5PI1G3HKR8CBC2Y","APVZGZM1RA3AZ","338431Z1FL1IVIVZ3BK6A6QS21HROA","","","<img src=""img/flower6.png"" style=""width:200px; border:14px solid green;"">","null","","","","","",""
"661.8000000119209","","image-keyboard-response","244","482877","0.0-244.0","3PZDLQMM0U724TF5PI1G3HKR8CBC2Y","APVZGZM1RA3AZ","338431Z1FL1IVIVZ3BK6A6QS21HROA","","","img/flower1.png","74","662.8000000119209","1","1","3","1,1,0,0,1,1,1,0,1",""
"null","","html-keyboard-response","245","483189","0.0-245.0","3PZDLQMM0U724TF5PI1G3HKR8CBC2Y","APVZGZM1RA3AZ","338431Z1FL1IVIVZ3BK6A6QS21HROA","","","<img src=""img/flower1.png"" style=""width:200px; border:14px solid green;"">","null","","","","","",""
"550.3000000119209","","image-keyboard-response","246","483740","0.0-246.0","3PZDLQMM0U724TF5PI1G3HKR8CBC2Y","APVZGZM1RA3AZ","338431Z1FL1IVIVZ3BK6A6QS21HROA","","","img/flower1.png","74","551.2999999821186","1","1","3","1,1,0,0,1,1,1,0,1",""
"null","","html-keyboard-response","247","484042","0.0-247.0","3PZDLQMM0U724TF5PI1G3HKR8CBC2Y","APVZGZM1RA3AZ","338431Z1FL1IVIVZ3BK6A6QS21HROA","","","<img src=""img/flower1.png"" style=""width:200px; border:14px solid green;"">","null","","","","","",""
"1839.800000011921","","image-keyboard-response","248","485882","0.0-248.0","3PZDLQMM0U724TF5PI1G3HKR8CBC2Y","APVZGZM1RA3AZ","338431Z1FL1IVIVZ3BK6A6QS21HROA","","","img/flower4.png","74","1840.5","1","1","1","1,1,0,0,1,1,1,0,1",""
"null","","html-keyboard-response","249","486189","0.0-249.0","3PZDLQMM0U724TF5PI1G3HKR8CBC2Y","APVZGZM1RA3AZ","338431Z1FL1IVIVZ3BK6A6QS21HROA","","","<img src=""img/flower4.png"" style=""width:200px; border:14px solid green;"">","null","","","","","",""
"1022","","image-keyboard-response","250","487213","0.0-250.0","3PZDLQMM0U724TF5PI1G3HKR8CBC2Y","APVZGZM1RA3AZ","338431Z1FL1IVIVZ3BK6A6QS21HROA","","","img/flower6.png","76","1023.2000000178814","3","1","2","1,1,0,0,1,1,1,0,1",""
"null","","html-keyboard-response","251","487526","0.0-251.0","3PZDLQMM0U724TF5PI1G3HKR8CBC2Y","APVZGZM1RA3AZ","338431Z1FL1IVIVZ3BK6A6QS21HROA","","","<img src=""img/flower6.png"" style=""width:200px; border:14px solid green;"">","null","","","","","",""
"515.6999999880791","","image-keyboard-response","252","488043","0.0-252.0","3PZDLQMM0U724TF5PI1G3HKR8CBC2Y","APVZGZM1RA3AZ","338431Z1FL1IVIVZ3BK6A6QS21HROA","","","img/flower4.png","76","516.5","3","0","1","1,1,0,0,1,1,1,0,1",""
"null","","html-keyboard-response","253","488346","0.0-253.0","3PZDLQMM0U724TF5PI1G3HKR8CBC2Y","APVZGZM1RA3AZ","338431Z1FL1IVIVZ3BK6A6QS21HROA","","","<img src=""img/flower4.png"" style=""width:200px;border:14px solid red;"">","null","","","","","",""
"1192.0999999940395","","image-keyboard-response","254","489539","0.0-254.0","3PZDLQMM0U724TF5PI1G3HKR8CBC2Y","APVZGZM1RA3AZ","338431Z1FL1IVIVZ3BK6A6QS21HROA","","","img/flower1.png","76","1193","3","1","3","1,1,0,0,1,1,1,0,1",""
"null","","html-keyboard-response","255","489849","0.0-255.0","3PZDLQMM0U724TF5PI1G3HKR8CBC2Y","APVZGZM1RA3AZ","338431Z1FL1IVIVZ3BK6A6QS21HROA","","","<img src=""img/flower1.png"" style=""width:200px; border:14px solid green;"">","null","","","","","",""
"600.8000000119209","","image-keyboard-response","256","490451","0.0-256.0","3PZDLQMM0U724TF5PI1G3HKR8CBC2Y","APVZGZM1RA3AZ","338431Z1FL1IVIVZ3BK6A6QS21HROA","","","img/flower6.png","74","601.6999999880791","1","0","2","1,1,0,0,1,1,1,0,1",""
"null","","html-keyboard-response","257","490758","0.0-257.0","3PZDLQMM0U724TF5PI1G3HKR8CBC2Y","APVZGZM1RA3AZ","338431Z1FL1IVIVZ3BK6A6QS21HROA","","","<img src=""img/flower6.png"" style=""width:200px;border:14px solid red;"">","null","","","","","",""
"571.8999999761581","","image-keyboard-response","258","491331","0.0-258.0","3PZDLQMM0U724TF5PI1G3HKR8CBC2Y","APVZGZM1RA3AZ","338431Z1FL1IVIVZ3BK6A6QS21HROA","","","img/flower6.png","76","572.5999999940395","3","1","2","1,1,0,0,1,1,1,0,1",""
"null","","html-keyboard-response","259","491643","0.0-259.0","3PZDLQMM0U724TF5PI1G3HKR8CBC2Y","APVZGZM1RA3AZ","338431Z1FL1IVIVZ3BK6A6QS21HROA","","","<img src=""img/flower6.png"" style=""width:200px; border:14px solid green;"">","null","","","","","",""
"1895.2999999821186","","image-keyboard-response","260","493539","0.0-260.0","3PZDLQMM0U724TF5PI1G3HKR8CBC2Y","APVZGZM1RA3AZ","338431Z1FL1IVIVZ3BK6A6QS21HROA","","","img/flower1.png","74","1896","1","1","3","1,1,0,0,1,1,1,0,1",""
"null","","html-keyboard-response","261","493853","0.0-261.0","3PZDLQMM0U724TF5PI1G3HKR8CBC2Y","APVZGZM1RA3AZ","338431Z1FL1IVIVZ3BK6A6QS21HROA","","","<img src=""img/flower1.png"" style=""width:200px; border:14px solid green;"">","null","","","","","",""
"852.9000000059605","","image-keyboard-response","262","494707","0.0-262.0","3PZDLQMM0U724TF5PI1G3HKR8CBC2Y","APVZGZM1RA3AZ","338431Z1FL1IVIVZ3BK6A6QS21HROA","","","img/flower4.png","76","853.5999999940395","3","0","1","1,1,0,0,1,1,1,0,1",""
"null","","html-keyboard-response","263","495011","0.0-263.0","3PZDLQMM0U724TF5PI1G3HKR8CBC2Y","APVZGZM1RA3AZ","338431Z1FL1IVIVZ3BK6A6QS21HROA","","","<img src=""img/flower4.png"" style=""width:200px;border:14px solid red;"">","null","","","","","",""
"919.3000000119209","","image-keyboard-response","264","495931","0.0-264.0","3PZDLQMM0U724TF5PI1G3HKR8CBC2Y","APVZGZM1RA3AZ","338431Z1FL1IVIVZ3BK6A6QS21HROA","","","img/flower6.png","76","920","3","1","2","1,1,0,0,1,1,1,0,1",""
"null","","html-keyboard-response","265","496233","0.0-265.0","3PZDLQMM0U724TF5PI1G3HKR8CBC2Y","APVZGZM1RA3AZ","338431Z1FL1IVIVZ3BK6A6QS21HROA","","","<img src=""img/flower6.png"" style=""width:200px; border:14px solid green;"">","null","","","","","",""
"1168.4000000059605","","image-keyboard-response","266","497403","0.0-266.0","3PZDLQMM0U724TF5PI1G3HKR8CBC2Y","APVZGZM1RA3AZ","338431Z1FL1IVIVZ3BK6A6QS21HROA","","","img/flower1.png","74","1169.3999999761581","1","1","3","1,1,0,0,1,1,1,0,1",""
"null","","html-keyboard-response","267","497708","0.0-267.0","3PZDLQMM0U724TF5PI1G3HKR8CBC2Y","APVZGZM1RA3AZ","338431Z1FL1IVIVZ3BK6A6QS21HROA","","","<img src=""img/flower1.png"" style=""width:200px; border:14px solid green;"">","null","","","","","",""
"5952.0999999940395","","image-keyboard-response","268","503661","0.0-268.0","3PZDLQMM0U724TF5PI1G3HKR8CBC2Y","APVZGZM1RA3AZ","338431Z1FL1IVIVZ3BK6A6QS21HROA","","","img/flower4.png","76","5952.700000017881","3","0","1","1,1,0,0,1,1,1,0,1",""
"null","","html-keyboard-response","269","503978","0.0-269.0","3PZDLQMM0U724TF5PI1G3HKR8CBC2Y","APVZGZM1RA3AZ","338431Z1FL1IVIVZ3BK6A6QS21HROA","","","<img src=""img/flower4.png"" style=""width:200px;border:14px solid red;"">","null","","","","","",""
"544.3000000119209","","image-keyboard-response","270","504524","0.0-270.0","3PZDLQMM0U724TF5PI1G3HKR8CBC2Y","APVZGZM1RA3AZ","338431Z1FL1IVIVZ3BK6A6QS21HROA","","","img/flower1.png","74","545.5999999940395","1","1","3","1,1,0,0,1,1,1,0,1",""
"null","","html-keyboard-response","271","504830","0.0-271.0","3PZDLQMM0U724TF5PI1G3HKR8CBC2Y","APVZGZM1RA3AZ","338431Z1FL1IVIVZ3BK6A6QS21HROA","","","<img src=""img/flower1.png"" style=""width:200px; border:14px solid green;"">","null","","","","","",""
"1372.9000000059605","","image-keyboard-response","272","506204","0.0-272.0","3PZDLQMM0U724TF5PI1G3HKR8CBC2Y","APVZGZM1RA3AZ","338431Z1FL1IVIVZ3BK6A6QS21HROA","","","img/flower4.png","74","1374.2000000178814","1","1","1","1,1,0,0,1,1,1,0,1",""
"null","","html-keyboard-response","273","506506","0.0-273.0","3PZDLQMM0U724TF5PI1G3HKR8CBC2Y","APVZGZM1RA3AZ","338431Z1FL1IVIVZ3BK6A6QS21HROA","","","<img src=""img/flower4.png"" style=""width:200px; border:14px solid green;"">","null","","","","","",""
"1048","","image-keyboard-response","274","507556","0.0-274.0","3PZDLQMM0U724TF5PI1G3HKR8CBC2Y","APVZGZM1RA3AZ","338431Z1FL1IVIVZ3BK6A6QS21HROA","","","img/flower4.png","74","1049.2000000178814","1","1","1","1,1,0,0,1,1,1,0,1",""
"null","","html-keyboard-response","275","507863","0.0-275.0","3PZDLQMM0U724TF5PI1G3HKR8CBC2Y","APVZGZM1RA3AZ","338431Z1FL1IVIVZ3BK6A6QS21HROA","","","<img src=""img/flower4.png"" style=""width:200px; border:14px solid green;"">","null","","","","","",""
"916.0999999940395","","image-keyboard-response","276","508780","0.0-276.0","3PZDLQMM0U724TF5PI1G3HKR8CBC2Y","APVZGZM1RA3AZ","338431Z1FL1IVIVZ3BK6A6QS21HROA","","","img/flower1.png","76","917.0999999940395","3","1","3","1,1,0,0,1,1,1,0,1",""
"null","","html-keyboard-response","277","509091","0.0-277.0","3PZDLQMM0U724TF5PI1G3HKR8CBC2Y","APVZGZM1RA3AZ","338431Z1FL1IVIVZ3BK6A6QS21HROA","","","<img src=""img/flower1.png"" style=""width:200px; border:14px solid green;"">","null","","","","","",""
"1080.800000011921","","image-keyboard-response","278","510172","0.0-278.0","3PZDLQMM0U724TF5PI1G3HKR8CBC2Y","APVZGZM1RA3AZ","338431Z1FL1IVIVZ3BK6A6QS21HROA","","","img/flower1.png","76","1081.699999988079","3","1","3","1,1,0,0,1,1,1,0,1",""
"null","","html-keyboard-response","279","510485","0.0-279.0","3PZDLQMM0U724TF5PI1G3HKR8CBC2Y","APVZGZM1RA3AZ","338431Z1FL1IVIVZ3BK6A6QS21HROA","","","<img src=""img/flower1.png"" style=""width:200px; border:14px solid green;"">","null","","","","","",""
"1478.1000000238419","","image-keyboard-response","280","511965","0.0-280.0","3PZDLQMM0U724TF5PI1G3HKR8CBC2Y","APVZGZM1RA3AZ","338431Z1FL1IVIVZ3BK6A6QS21HROA","","","img/flower4.png","76","1479.4000000059605","3","0","1","1,1,0,0,1,1,1,0,1",""
"null","","html-keyboard-response","281","512273","0.0-281.0","3PZDLQMM0U724TF5PI1G3HKR8CBC2Y","APVZGZM1RA3AZ","338431Z1FL1IVIVZ3BK6A6QS21HROA","","","<img src=""img/flower4.png"" style=""width:200px;border:14px solid red;"">","null","","","","","",""
"1113","","image-keyboard-response","282","513388","0.0-282.0","3PZDLQMM0U724TF5PI1G3HKR8CBC2Y","APVZGZM1RA3AZ","338431Z1FL1IVIVZ3BK6A6QS21HROA","","","img/flower6.png","76","1114","3","1","2","1,1,0,0,1,1,1,0,1",""
"null","","html-keyboard-response","283","513698","0.0-283.0","3PZDLQMM0U724TF5PI1G3HKR8CBC2Y","APVZGZM1RA3AZ","338431Z1FL1IVIVZ3BK6A6QS21HROA","","","<img src=""img/flower6.png"" style=""width:200px; border:14px solid green;"">","null","","","","","",""
"902.5999999940395","","image-keyboard-response","284","514603","0.0-284.0","3PZDLQMM0U724TF5PI1G3HKR8CBC2Y","APVZGZM1RA3AZ","338431Z1FL1IVIVZ3BK6A6QS21HROA","","","img/flower4.png","74","905","1","1","1","1,1,0,0,1,1,1,0,1",""
"null","","html-keyboard-response","285","514915","0.0-285.0","3PZDLQMM0U724TF5PI1G3HKR8CBC2Y","APVZGZM1RA3AZ","338431Z1FL1IVIVZ3BK6A6QS21HROA","","","<img src=""img/flower4.png"" style=""width:200px; border:14px solid green;"">","null","","","","","",""
"1040.7000000178814","","image-keyboard-response","286","515956","0.0-286.0","3PZDLQMM0U724TF5PI1G3HKR8CBC2Y","APVZGZM1RA3AZ","338431Z1FL1IVIVZ3BK6A6QS21HROA","","","img/flower6.png","76","1041.3999999761581","3","1","2","1,1,0,0,1,1,1,0,1",""
"null","","html-keyboard-response","287","516273","0.0-287.0","3PZDLQMM0U724TF5PI1G3HKR8CBC2Y","APVZGZM1RA3AZ","338431Z1FL1IVIVZ3BK6A6QS21HROA","","","<img src=""img/flower6.png"" style=""width:200px; border:14px solid green;"">","null","","","","","",""
"929.3000000119209","","image-keyboard-response","288","517204","0.0-288.0","3PZDLQMM0U724TF5PI1G3HKR8CBC2Y","APVZGZM1RA3AZ","338431Z1FL1IVIVZ3BK6A6QS21HROA","","","img/flower4.png","74","930.6000000238419","1","1","1","1,1,0,0,1,1,1,0,1",""
"null","","html-keyboard-response","289","517508","0.0-289.0","3PZDLQMM0U724TF5PI1G3HKR8CBC2Y","APVZGZM1RA3AZ","338431Z1FL1IVIVZ3BK6A6QS21HROA","","","<img src=""img/flower4.png"" style=""width:200px; border:14px solid green;"">","null","","","","","",""
"790.8000000119209","","image-keyboard-response","290","518299","0.0-290.0","3PZDLQMM0U724TF5PI1G3HKR8CBC2Y","APVZGZM1RA3AZ","338431Z1FL1IVIVZ3BK6A6QS21HROA","","","img/flower6.png","76","791.5","3","1","2","1,1,0,0,1,1,1,0,1",""
"null","","html-keyboard-response","291","518602","0.0-291.0","3PZDLQMM0U724TF5PI1G3HKR8CBC2Y","APVZGZM1RA3AZ","338431Z1FL1IVIVZ3BK6A6QS21HROA","","","<img src=""img/flower6.png"" style=""width:200px; border:14px solid green;"">","null","","","","","",""
"1017.6999999880791","","image-keyboard-response","292","519621","0.0-292.0","3PZDLQMM0U724TF5PI1G3HKR8CBC2Y","APVZGZM1RA3AZ","338431Z1FL1IVIVZ3BK6A6QS21HROA","","","img/flower1.png","74","1018.4000000059605","1","1","3","1,1,0,0,1,1,1,0,1",""
"null","","html-keyboard-response","293","519923","0.0-293.0","3PZDLQMM0U724TF5PI1G3HKR8CBC2Y","APVZGZM1RA3AZ","338431Z1FL1IVIVZ3BK6A6QS21HROA","","","<img src=""img/flower1.png"" style=""width:200px; border:14px solid green;"">","null","","","","","",""
"776.5","","image-keyboard-response","294","520700","0.0-294.0","3PZDLQMM0U724TF5PI1G3HKR8CBC2Y","APVZGZM1RA3AZ","338431Z1FL1IVIVZ3BK6A6QS21HROA","","","img/flower6.png","76","777","3","1","2","1,1,0,0,1,1,1,0,1",""
"null","","html-keyboard-response","295","521002","0.0-295.0","3PZDLQMM0U724TF5PI1G3HKR8CBC2Y","APVZGZM1RA3AZ","338431Z1FL1IVIVZ3BK6A6QS21HROA","","","<img src=""img/flower6.png"" style=""width:200px; border:14px solid green;"">","null","","","","","",""
"568.9000000059605","","image-keyboard-response","296","521572","0.0-296.0","3PZDLQMM0U724TF5PI1G3HKR8CBC2Y","APVZGZM1RA3AZ","338431Z1FL1IVIVZ3BK6A6QS21HROA","","","img/flower6.png","76","569.7000000178814","3","1","2","1,1,0,0,1,1,1,0,1",""
"null","","html-keyboard-response","297","521886","0.0-297.0","3PZDLQMM0U724TF5PI1G3HKR8CBC2Y","APVZGZM1RA3AZ","338431Z1FL1IVIVZ3BK6A6QS21HROA","","","<img src=""img/flower6.png"" style=""width:200px; border:14px solid green;"">","null","","","","","",""
"699","","image-keyboard-response","298","522587","0.0-298.0","3PZDLQMM0U724TF5PI1G3HKR8CBC2Y","APVZGZM1RA3AZ","338431Z1FL1IVIVZ3BK6A6QS21HROA","","","img/flower4.png","74","700.3000000119209","1","1","1","1,1,0,0,1,1,1,0,1",""
"null","","html-keyboard-response","299","522897","0.0-299.0","3PZDLQMM0U724TF5PI1G3HKR8CBC2Y","APVZGZM1RA3AZ","338431Z1FL1IVIVZ3BK6A6QS21HROA","","","<img src=""img/flower4.png"" style=""width:200px; border:14px solid green;"">","null","","","","","",""
"889.3000000119209","","image-keyboard-response","300","523787","0.0-300.0","3PZDLQMM0U724TF5PI1G3HKR8CBC2Y","APVZGZM1RA3AZ","338431Z1FL1IVIVZ3BK6A6QS21HROA","","","img/flower1.png","76","890.0999999940395","3","1","3","1,1,0,0,1,1,1,0,1",""
"null","","html-keyboard-response","301","524103","0.0-301.0","3PZDLQMM0U724TF5PI1G3HKR8CBC2Y","APVZGZM1RA3AZ","338431Z1FL1IVIVZ3BK6A6QS21HROA","","","<img src=""img/flower1.png"" style=""width:200px; border:14px solid green;"">","null","","","","","",""
"3614.0999999940395","","image-keyboard-response","302","527718","0.0-302.0","3PZDLQMM0U724TF5PI1G3HKR8CBC2Y","APVZGZM1RA3AZ","338431Z1FL1IVIVZ3BK6A6QS21HROA","","","img/flower6.png","76","3614.800000011921","3","1","2","1,1,0,0,1,1,1,0,1",""
"null","","html-keyboard-response","303","528023","0.0-303.0","3PZDLQMM0U724TF5PI1G3HKR8CBC2Y","APVZGZM1RA3AZ","338431Z1FL1IVIVZ3BK6A6QS21HROA","","","<img src=""img/flower6.png"" style=""width:200px; border:14px solid green;"">","null","","","","","",""
"2562.7000000178814","","image-keyboard-response","304","530587","0.0-304.0","3PZDLQMM0U724TF5PI1G3HKR8CBC2Y","APVZGZM1RA3AZ","338431Z1FL1IVIVZ3BK6A6QS21HROA","","","img/flower4.png","74","2563.4000000059605","1","1","1","1,1,0,0,1,1,1,0,1",""
"null","","html-keyboard-response","305","530901","0.0-305.0","3PZDLQMM0U724TF5PI1G3HKR8CBC2Y","APVZGZM1RA3AZ","338431Z1FL1IVIVZ3BK6A6QS21HROA","","","<img src=""img/flower4.png"" style=""width:200px; border:14px solid green;"">","null","","","","","",""
"","","html-keyboard-response","306","722134","0.0-306.0","3PZDLQMM0U724TF5PI1G3HKR8CBC2Y","APVZGZM1RA3AZ","338431Z1FL1IVIVZ3BK6A6QS21HROA","","","","","","","","","",""
"2356.9000000059605","","image-keyboard-response","307","724492","0.0-307.0","3PZDLQMM0U724TF5PI1G3HKR8CBC2Y","APVZGZM1RA3AZ","338431Z1FL1IVIVZ3BK6A6QS21HROA","","","img/flower2.png","74","2358.0999999940395","1","1","3","1,0.5,0.5,0.5,1,0.5,0.5,0.5,1",""
"null","","html-keyboard-response","308","724797","0.0-308.0","3PZDLQMM0U724TF5PI1G3HKR8CBC2Y","APVZGZM1RA3AZ","338431Z1FL1IVIVZ3BK6A6QS21HROA","","","<img src=""img/flower2.png"" style=""width:200px; border:14px solid green;"">","null","","","","","",""
"3805.5","","image-keyboard-response","309","728604","0.0-309.0","3PZDLQMM0U724TF5PI1G3HKR8CBC2Y","APVZGZM1RA3AZ","338431Z1FL1IVIVZ3BK6A6QS21HROA","","","img/flower5.png","75","3806.5999999940395","2","1","1","1,0.5,0.5,0.5,1,0.5,0.5,0.5,1",""
"null","","html-keyboard-response","310","728911","0.0-310.0","3PZDLQMM0U724TF5PI1G3HKR8CBC2Y","APVZGZM1RA3AZ","338431Z1FL1IVIVZ3BK6A6QS21HROA","","","<img src=""img/flower5.png"" style=""width:200px; border:14px solid green;"">","null","","","","","",""
"1155.7000000178814","","image-keyboard-response","311","730069","0.0-311.0","3PZDLQMM0U724TF5PI1G3HKR8CBC2Y","APVZGZM1RA3AZ","338431Z1FL1IVIVZ3BK6A6QS21HROA","","","img/flower2.png","76","1156.699999988079","3","1","3","1,0.5,0.5,0.5,1,0.5,0.5,0.5,1",""
"null","","html-keyboard-response","312","730377","0.0-312.0","3PZDLQMM0U724TF5PI1G3HKR8CBC2Y","APVZGZM1RA3AZ","338431Z1FL1IVIVZ3BK6A6QS21HROA","","","<img src=""img/flower2.png"" style=""width:200px; border:14px solid green;"">","null","","","","","",""
"2427.5","","image-keyboard-response","313","732806","0.0-313.0","3PZDLQMM0U724TF5PI1G3HKR8CBC2Y","APVZGZM1RA3AZ","338431Z1FL1IVIVZ3BK6A6QS21HROA","","","img/flower2.png","76","2428.7999999821186","3","1","3","1,0.5,0.5,0.5,1,0.5,0.5,0.5,1",""
"null","","html-keyboard-response","314","733111","0.0-314.0","3PZDLQMM0U724TF5PI1G3HKR8CBC2Y","APVZGZM1RA3AZ","338431Z1FL1IVIVZ3BK6A6QS21HROA","","","<img src=""img/flower2.png"" style=""width:200px; border:14px solid green;"">","null","","","","","",""
"903.1999999880791","","image-keyboard-response","315","734015","0.0-315.0","3PZDLQMM0U724TF5PI1G3HKR8CBC2Y","APVZGZM1RA3AZ","338431Z1FL1IVIVZ3BK6A6QS21HROA","","","img/flower2.png","76","904.4000000059605","3","1","3","1,0.5,0.5,0.5,1,0.5,0.5,0.5,1",""
"null","","html-keyboard-response","316","734322","0.0-316.0","3PZDLQMM0U724TF5PI1G3HKR8CBC2Y","APVZGZM1RA3AZ","338431Z1FL1IVIVZ3BK6A6QS21HROA","","","<img src=""img/flower2.png"" style=""width:200px; border:14px solid green;"">","null","","","","","",""
"1433.5","","image-keyboard-response","317","735758","0.0-317.0","3PZDLQMM0U724TF5PI1G3HKR8CBC2Y","APVZGZM1RA3AZ","338431Z1FL1IVIVZ3BK6A6QS21HROA","","","img/flower3.png","74","1434.699999988079","1","0","2","1,0.5,0.5,0.5,1,0.5,0.5,0.5,1",""
"null","","html-keyboard-response","318","736064","0.0-318.0","3PZDLQMM0U724TF5PI1G3HKR8CBC2Y","APVZGZM1RA3AZ","338431Z1FL1IVIVZ3BK6A6QS21HROA","","","<img src=""img/flower3.png"" style=""width:200px;border:14px solid red;"">","null","","","","","",""
"1300.2000000178814","","image-keyboard-response","319","737365","0.0-319.0","3PZDLQMM0U724TF5PI1G3HKR8CBC2Y","APVZGZM1RA3AZ","338431Z1FL1IVIVZ3BK6A6QS21HROA","","","img/flower2.png","76","1301","3","1","3","1,0.5,0.5,0.5,1,0.5,0.5,0.5,1",""
"null","","html-keyboard-response","320","737670","0.0-320.0","3PZDLQMM0U724TF5PI1G3HKR8CBC2Y","APVZGZM1RA3AZ","338431Z1FL1IVIVZ3BK6A6QS21HROA","","","<img src=""img/flower2.png"" style=""width:200px; border:14px solid green;"">","null","","","","","",""
"866.4000000059605","","image-keyboard-response","321","738538","0.0-321.0","3PZDLQMM0U724TF5PI1G3HKR8CBC2Y","APVZGZM1RA3AZ","338431Z1FL1IVIVZ3BK6A6QS21HROA","","","img/flower2.png","76","867.5","3","1","3","1,0.5,0.5,0.5,1,0.5,0.5,0.5,1",""
"null","","html-keyboard-response","322","738841","0.0-322.0","3PZDLQMM0U724TF5PI1G3HKR8CBC2Y","APVZGZM1RA3AZ","338431Z1FL1IVIVZ3BK6A6QS21HROA","","","<img src=""img/flower2.png"" style=""width:200px; border:14px solid green;"">","null","","","","","",""
"844.3000000119209","","image-keyboard-response","323","739686","0.0-323.0","3PZDLQMM0U724TF5PI1G3HKR8CBC2Y","APVZGZM1RA3AZ","338431Z1FL1IVIVZ3BK6A6QS21HROA","","","img/flower3.png","75","845.5","2","1","2","1,0.5,0.5,0.5,1,0.5,0.5,0.5,1",""
"null","","html-keyboard-response","324","739997","0.0-324.0","3PZDLQMM0U724TF5PI1G3HKR8CBC2Y","APVZGZM1RA3AZ","338431Z1FL1IVIVZ3BK6A6QS21HROA","","","<img src=""img/flower3.png"" style=""width:200px; border:14px solid green;"">","null","","","","","",""
"982.3000000119209","","image-keyboard-response","325","740981","0.0-325.0","3PZDLQMM0U724TF5PI1G3HKR8CBC2Y","APVZGZM1RA3AZ","338431Z1FL1IVIVZ3BK6A6QS21HROA","","","img/flower2.png","76","983.5","3","1","3","1,0.5,0.5,0.5,1,0.5,0.5,0.5,1",""
"null","","html-keyboard-response","326","741290","0.0-326.0","3PZDLQMM0U724TF5PI1G3HKR8CBC2Y","APVZGZM1RA3AZ","338431Z1FL1IVIVZ3BK6A6QS21HROA","","","<img src=""img/flower2.png"" style=""width:200px; border:14px solid green;"">","null","","","","","",""
"1252.2000000178814","","image-keyboard-response","327","742544","0.0-327.0","3PZDLQMM0U724TF5PI1G3HKR8CBC2Y","APVZGZM1RA3AZ","338431Z1FL1IVIVZ3BK6A6QS21HROA","","","img/flower5.png","74","1253.2999999821186","1","1","1","1,0.5,0.5,0.5,1,0.5,0.5,0.5,1",""
"null","","html-keyboard-response","328","742848","0.0-328.0","3PZDLQMM0U724TF5PI1G3HKR8CBC2Y","APVZGZM1RA3AZ","338431Z1FL1IVIVZ3BK6A6QS21HROA","","","<img src=""img/flower5.png"" style=""width:200px; border:14px solid green;"">","null","","","","","",""
"796.4000000059605","","image-keyboard-response","329","743646","0.0-329.0","3PZDLQMM0U724TF5PI1G3HKR8CBC2Y","APVZGZM1RA3AZ","338431Z1FL1IVIVZ3BK6A6QS21HROA","","","img/flower5.png","74","797.4000000059605","1","1","1","1,0.5,0.5,0.5,1,0.5,0.5,0.5,1",""
"null","","html-keyboard-response","330","743958","0.0-330.0","3PZDLQMM0U724TF5PI1G3HKR8CBC2Y","APVZGZM1RA3AZ","338431Z1FL1IVIVZ3BK6A6QS21HROA","","","<img src=""img/flower5.png"" style=""width:200px; border:14px solid green;"">","null","","","","","",""
"876.5999999940395","","image-keyboard-response","331","744836","0.0-331.0","3PZDLQMM0U724TF5PI1G3HKR8CBC2Y","APVZGZM1RA3AZ","338431Z1FL1IVIVZ3BK6A6QS21HROA","","","img/flower2.png","75","877.9000000059605","2","1","3","1,0.5,0.5,0.5,1,0.5,0.5,0.5,1",""
"null","","html-keyboard-response","332","745148","0.0-332.0","3PZDLQMM0U724TF5PI1G3HKR8CBC2Y","APVZGZM1RA3AZ","338431Z1FL1IVIVZ3BK6A6QS21HROA","","","<img src=""img/flower2.png"" style=""width:200px; border:14px solid green;"">","null","","","","","",""
"974.9000000059605","","image-keyboard-response","333","746124","0.0-333.0","3PZDLQMM0U724TF5PI1G3HKR8CBC2Y","APVZGZM1RA3AZ","338431Z1FL1IVIVZ3BK6A6QS21HROA","","","img/flower3.png","76","975.6999999880791","3","0","2","1,0.5,0.5,0.5,1,0.5,0.5,0.5,1",""
"null","","html-keyboard-response","334","746426","0.0-334.0","3PZDLQMM0U724TF5PI1G3HKR8CBC2Y","APVZGZM1RA3AZ","338431Z1FL1IVIVZ3BK6A6QS21HROA","","","<img src=""img/flower3.png"" style=""width:200px;border:14px solid red;"">","null","","","","","",""
"1713.699999988079","","image-keyboard-response","335","748140","0.0-335.0","3PZDLQMM0U724TF5PI1G3HKR8CBC2Y","APVZGZM1RA3AZ","338431Z1FL1IVIVZ3BK6A6QS21HROA","","","img/flower3.png","75","1714.5999999940395","2","1","2","1,0.5,0.5,0.5,1,0.5,0.5,0.5,1",""
"null","","html-keyboard-response","336","748456","0.0-336.0","3PZDLQMM0U724TF5PI1G3HKR8CBC2Y","APVZGZM1RA3AZ","338431Z1FL1IVIVZ3BK6A6QS21HROA","","","<img src=""img/flower3.png"" style=""width:200px; border:14px solid green;"">","null","","","","","",""
"967.2999999821186","","image-keyboard-response","337","749424","0.0-337.0","3PZDLQMM0U724TF5PI1G3HKR8CBC2Y","APVZGZM1RA3AZ","338431Z1FL1IVIVZ3BK6A6QS21HROA","","","img/flower3.png","75","968.0999999940395","2","1","2","1,0.5,0.5,0.5,1,0.5,0.5,0.5,1",""
"null","","html-keyboard-response","338","749730","0.0-338.0","3PZDLQMM0U724TF5PI1G3HKR8CBC2Y","APVZGZM1RA3AZ","338431Z1FL1IVIVZ3BK6A6QS21HROA","","","<img src=""img/flower3.png"" style=""width:200px; border:14px solid green;"">","null","","","","","",""
"1149.9000000059605","","image-keyboard-response","339","750882","0.0-339.0","3PZDLQMM0U724TF5PI1G3HKR8CBC2Y","APVZGZM1RA3AZ","338431Z1FL1IVIVZ3BK6A6QS21HROA","","","img/flower2.png","74","1151.4000000059605","1","1","3","1,0.5,0.5,0.5,1,0.5,0.5,0.5,1",""
"null","","html-keyboard-response","340","751185","0.0-340.0","3PZDLQMM0U724TF5PI1G3HKR8CBC2Y","APVZGZM1RA3AZ","338431Z1FL1IVIVZ3BK6A6QS21HROA","","","<img src=""img/flower2.png"" style=""width:200px; border:14px solid green;"">","null","","","","","",""
"1585.4000000059605","","image-keyboard-response","341","752772","0.0-341.0","3PZDLQMM0U724TF5PI1G3HKR8CBC2Y","APVZGZM1RA3AZ","338431Z1FL1IVIVZ3BK6A6QS21HROA","","","img/flower5.png","76","1586.5","3","0","1","1,0.5,0.5,0.5,1,0.5,0.5,0.5,1",""
"null","","html-keyboard-response","342","753079","0.0-342.0","3PZDLQMM0U724TF5PI1G3HKR8CBC2Y","APVZGZM1RA3AZ","338431Z1FL1IVIVZ3BK6A6QS21HROA","","","<img src=""img/flower5.png"" style=""width:200px;border:14px solid red;"">","null","","","","","",""
"989.0999999940395","","image-keyboard-response","343","754069","0.0-343.0","3PZDLQMM0U724TF5PI1G3HKR8CBC2Y","APVZGZM1RA3AZ","338431Z1FL1IVIVZ3BK6A6QS21HROA","","","img/flower5.png","75","989.9000000059605","2","0","1","1,0.5,0.5,0.5,1,0.5,0.5,0.5,1",""
"null","","html-keyboard-response","344","754385","0.0-344.0","3PZDLQMM0U724TF5PI1G3HKR8CBC2Y","APVZGZM1RA3AZ","338431Z1FL1IVIVZ3BK6A6QS21HROA","","","<img src=""img/flower5.png"" style=""width:200px;border:14px solid red;"">","null","","","","","",""
"499.69999998807907","","image-keyboard-response","345","754886","0.0-345.0","3PZDLQMM0U724TF5PI1G3HKR8CBC2Y","APVZGZM1RA3AZ","338431Z1FL1IVIVZ3BK6A6QS21HROA","","","img/flower5.png","74","500.2999999821186","1","1","1","1,0.5,0.5,0.5,1,0.5,0.5,0.5,1",""
"null","","html-keyboard-response","346","755194","0.0-346.0","3PZDLQMM0U724TF5PI1G3HKR8CBC2Y","APVZGZM1RA3AZ","338431Z1FL1IVIVZ3BK6A6QS21HROA","","","<img src=""img/flower5.png"" style=""width:200px; border:14px solid green;"">","null","","","","","",""
"947","","image-keyboard-response","347","756142","0.0-347.0","3PZDLQMM0U724TF5PI1G3HKR8CBC2Y","APVZGZM1RA3AZ","338431Z1FL1IVIVZ3BK6A6QS21HROA","","","img/flower2.png","74","947.9000000059605","1","1","3","1,0.5,0.5,0.5,1,0.5,0.5,0.5,1",""
"null","","html-keyboard-response","348","756454","0.0-348.0","3PZDLQMM0U724TF5PI1G3HKR8CBC2Y","APVZGZM1RA3AZ","338431Z1FL1IVIVZ3BK6A6QS21HROA","","","<img src=""img/flower2.png"" style=""width:200px; border:14px solid green;"">","null","","","","","",""
"1206.199999988079","","image-keyboard-response","349","757662","0.0-349.0","3PZDLQMM0U724TF5PI1G3HKR8CBC2Y","APVZGZM1RA3AZ","338431Z1FL1IVIVZ3BK6A6QS21HROA","","","img/flower3.png","75","1207.4000000059605","2","1","2","1,0.5,0.5,0.5,1,0.5,0.5,0.5,1",""
"null","","html-keyboard-response","350","757974","0.0-350.0","3PZDLQMM0U724TF5PI1G3HKR8CBC2Y","APVZGZM1RA3AZ","338431Z1FL1IVIVZ3BK6A6QS21HROA","","","<img src=""img/flower3.png"" style=""width:200px; border:14px solid green;"">","null","","","","","",""
"1261.9000000059605","","image-keyboard-response","351","759238","0.0-351.0","3PZDLQMM0U724TF5PI1G3HKR8CBC2Y","APVZGZM1RA3AZ","338431Z1FL1IVIVZ3BK6A6QS21HROA","","","img/flower3.png","75","1263.1000000238419","2","1","2","1,0.5,0.5,0.5,1,0.5,0.5,0.5,1",""
"null","","html-keyboard-response","352","759546","0.0-352.0","3PZDLQMM0U724TF5PI1G3HKR8CBC2Y","APVZGZM1RA3AZ","338431Z1FL1IVIVZ3BK6A6QS21HROA","","","<img src=""img/flower3.png"" style=""width:200px; border:14px solid green;"">","null","","","","","",""
"722","","image-keyboard-response","353","760269","0.0-353.0","3PZDLQMM0U724TF5PI1G3HKR8CBC2Y","APVZGZM1RA3AZ","338431Z1FL1IVIVZ3BK6A6QS21HROA","","","img/flower5.png","76","723","3","1","1","1,0.5,0.5,0.5,1,0.5,0.5,0.5,1",""
"null","","html-keyboard-response","354","760572","0.0-354.0","3PZDLQMM0U724TF5PI1G3HKR8CBC2Y","APVZGZM1RA3AZ","338431Z1FL1IVIVZ3BK6A6QS21HROA","","","<img src=""img/flower5.png"" style=""width:200px; border:14px solid green;"">","null","","","","","",""
"735.5","","image-keyboard-response","355","761309","0.0-355.0","3PZDLQMM0U724TF5PI1G3HKR8CBC2Y","APVZGZM1RA3AZ","338431Z1FL1IVIVZ3BK6A6QS21HROA","","","img/flower5.png","76","736.7000000178814","3","0","1","1,0.5,0.5,0.5,1,0.5,0.5,0.5,1",""
"null","","html-keyboard-response","356","761619","0.0-356.0","3PZDLQMM0U724TF5PI1G3HKR8CBC2Y","APVZGZM1RA3AZ","338431Z1FL1IVIVZ3BK6A6QS21HROA","","","<img src=""img/flower5.png"" style=""width:200px;border:14px solid red;"">","null","","","","","",""
"1465.5","","image-keyboard-response","357","763085","0.0-357.0","3PZDLQMM0U724TF5PI1G3HKR8CBC2Y","APVZGZM1RA3AZ","338431Z1FL1IVIVZ3BK6A6QS21HROA","","","img/flower5.png","75","1466.0999999940395","2","0","1","1,0.5,0.5,0.5,1,0.5,0.5,0.5,1",""
"null","","html-keyboard-response","358","763391","0.0-358.0","3PZDLQMM0U724TF5PI1G3HKR8CBC2Y","APVZGZM1RA3AZ","338431Z1FL1IVIVZ3BK6A6QS21HROA","","","<img src=""img/flower5.png"" style=""width:200px;border:14px solid red;"">","null","","","","","",""
"597.2999999821186","","image-keyboard-response","359","763989","0.0-359.0","3PZDLQMM0U724TF5PI1G3HKR8CBC2Y","APVZGZM1RA3AZ","338431Z1FL1IVIVZ3BK6A6QS21HROA","","","img/flower2.png","74","598.0999999940395","1","0","3","1,0.5,0.5,0.5,1,0.5,0.5,0.5,1",""
"null","","html-keyboard-response","360","764295","0.0-360.0","3PZDLQMM0U724TF5PI1G3HKR8CBC2Y","APVZGZM1RA3AZ","338431Z1FL1IVIVZ3BK6A6QS21HROA","","","<img src=""img/flower2.png"" style=""width:200px;border:14px solid red;"">","null","","","","","",""
"1206","","image-keyboard-response","361","765502","0.0-361.0","3PZDLQMM0U724TF5PI1G3HKR8CBC2Y","APVZGZM1RA3AZ","338431Z1FL1IVIVZ3BK6A6QS21HROA","","","img/flower2.png","75","1207.2999999821186","2","0","3","1,0.5,0.5,0.5,1,0.5,0.5,0.5,1",""
"null","","html-keyboard-response","362","765816","0.0-362.0","3PZDLQMM0U724TF5PI1G3HKR8CBC2Y","APVZGZM1RA3AZ","338431Z1FL1IVIVZ3BK6A6QS21HROA","","","<img src=""img/flower2.png"" style=""width:200px;border:14px solid red;"">","null","","","","","",""
"300.40000000596046","","image-keyboard-response","363","766118","0.0-363.0","3PZDLQMM0U724TF5PI1G3HKR8CBC2Y","APVZGZM1RA3AZ","338431Z1FL1IVIVZ3BK6A6QS21HROA","","","img/flower2.png","76","301.69999998807907","3","1","3","1,0.5,0.5,0.5,1,0.5,0.5,0.5,1",""
"null","","html-keyboard-response","364","766424","0.0-364.0","3PZDLQMM0U724TF5PI1G3HKR8CBC2Y","APVZGZM1RA3AZ","338431Z1FL1IVIVZ3BK6A6QS21HROA","","","<img src=""img/flower2.png"" style=""width:200px; border:14px solid green;"">","null","","","","","",""
"1290.5999999940395","","image-keyboard-response","365","767716","0.0-365.0","3PZDLQMM0U724TF5PI1G3HKR8CBC2Y","APVZGZM1RA3AZ","338431Z1FL1IVIVZ3BK6A6QS21HROA","","","img/flower3.png","76","1291.9000000059605","3","1","2","1,0.5,0.5,0.5,1,0.5,0.5,0.5,1",""
"null","","html-keyboard-response","366","768026","0.0-366.0","3PZDLQMM0U724TF5PI1G3HKR8CBC2Y","APVZGZM1RA3AZ","338431Z1FL1IVIVZ3BK6A6QS21HROA","","","<img src=""img/flower3.png"" style=""width:200px; border:14px solid green;"">","null","","","","","",""
"944.9000000059605","","image-keyboard-response","367","768973","0.0-367.0","3PZDLQMM0U724TF5PI1G3HKR8CBC2Y","APVZGZM1RA3AZ","338431Z1FL1IVIVZ3BK6A6QS21HROA","","","img/flower3.png","76","946.1000000238419","3","1","2","1,0.5,0.5,0.5,1,0.5,0.5,0.5,1",""
"null","","html-keyboard-response","368","769286","0.0-368.0","3PZDLQMM0U724TF5PI1G3HKR8CBC2Y","APVZGZM1RA3AZ","338431Z1FL1IVIVZ3BK6A6QS21HROA","","","<img src=""img/flower3.png"" style=""width:200px; border:14px solid green;"">","null","","","","","",""
"961.5999999940395","","image-keyboard-response","369","770249","0.0-369.0","3PZDLQMM0U724TF5PI1G3HKR8CBC2Y","APVZGZM1RA3AZ","338431Z1FL1IVIVZ3BK6A6QS21HROA","","","img/flower2.png","75","962.9000000059605","2","1","3","1,0.5,0.5,0.5,1,0.5,0.5,0.5,1",""
"null","","html-keyboard-response","370","770559","0.0-370.0","3PZDLQMM0U724TF5PI1G3HKR8CBC2Y","APVZGZM1RA3AZ","338431Z1FL1IVIVZ3BK6A6QS21HROA","","","<img src=""img/flower2.png"" style=""width:200px; border:14px solid green;"">","null","","","","","",""
"1219.699999988079","","image-keyboard-response","371","771781","0.0-371.0","3PZDLQMM0U724TF5PI1G3HKR8CBC2Y","APVZGZM1RA3AZ","338431Z1FL1IVIVZ3BK6A6QS21HROA","","","img/flower5.png","74","1220.9000000059605","1","1","1","1,0.5,0.5,0.5,1,0.5,0.5,0.5,1",""
"null","","html-keyboard-response","372","772094","0.0-372.0","3PZDLQMM0U724TF5PI1G3HKR8CBC2Y","APVZGZM1RA3AZ","338431Z1FL1IVIVZ3BK6A6QS21HROA","","","<img src=""img/flower5.png"" style=""width:200px; border:14px solid green;"">","null","","","","","",""
"1310","","image-keyboard-response","373","773405","0.0-373.0","3PZDLQMM0U724TF5PI1G3HKR8CBC2Y","APVZGZM1RA3AZ","338431Z1FL1IVIVZ3BK6A6QS21HROA","","","img/flower3.png","76","1311.0999999940395","3","1","2","1,0.5,0.5,0.5,1,0.5,0.5,0.5,1",""
"null","","html-keyboard-response","374","773708","0.0-374.0","3PZDLQMM0U724TF5PI1G3HKR8CBC2Y","APVZGZM1RA3AZ","338431Z1FL1IVIVZ3BK6A6QS21HROA","","","<img src=""img/flower3.png"" style=""width:200px; border:14px solid green;"">","null","","","","","",""
"1167.800000011921","","image-keyboard-response","375","774877","0.0-375.0","3PZDLQMM0U724TF5PI1G3HKR8CBC2Y","APVZGZM1RA3AZ","338431Z1FL1IVIVZ3BK6A6QS21HROA","","","img/flower5.png","74","1168.7000000178814","1","1","1","1,0.5,0.5,0.5,1,0.5,0.5,0.5,1",""
"null","","html-keyboard-response","376","775179","0.0-376.0","3PZDLQMM0U724TF5PI1G3HKR8CBC2Y","APVZGZM1RA3AZ","338431Z1FL1IVIVZ3BK6A6QS21HROA","","","<img src=""img/flower5.png"" style=""width:200px; border:14px solid green;"">","null","","","","","",""
"939.6000000238419","","image-keyboard-response","377","776121","0.0-377.0","3PZDLQMM0U724TF5PI1G3HKR8CBC2Y","APVZGZM1RA3AZ","338431Z1FL1IVIVZ3BK6A6QS21HROA","","","img/flower3.png","76","940.5999999940395","3","1","2","1,0.5,0.5,0.5,1,0.5,0.5,0.5,1",""
"null","","html-keyboard-response","378","776425","0.0-378.0","3PZDLQMM0U724TF5PI1G3HKR8CBC2Y","APVZGZM1RA3AZ","338431Z1FL1IVIVZ3BK6A6QS21HROA","","","<img src=""img/flower3.png"" style=""width:200px; border:14px solid green;"">","null","","","","","",""
"1257.800000011921","","image-keyboard-response","379","777684","0.0-379.0","3PZDLQMM0U724TF5PI1G3HKR8CBC2Y","APVZGZM1RA3AZ","338431Z1FL1IVIVZ3BK6A6QS21HROA","","","img/flower5.png","74","1258.5","1","1","1","1,0.5,0.5,0.5,1,0.5,0.5,0.5,1",""
"null","","html-keyboard-response","380","778001","0.0-380.0","3PZDLQMM0U724TF5PI1G3HKR8CBC2Y","APVZGZM1RA3AZ","338431Z1FL1IVIVZ3BK6A6QS21HROA","","","<img src=""img/flower5.png"" style=""width:200px; border:14px solid green;"">","null","","","","","",""
"994.0999999940395","","image-keyboard-response","381","778996","0.0-381.0","3PZDLQMM0U724TF5PI1G3HKR8CBC2Y","APVZGZM1RA3AZ","338431Z1FL1IVIVZ3BK6A6QS21HROA","","","img/flower5.png","74","995.2000000178814","1","1","1","1,0.5,0.5,0.5,1,0.5,0.5,0.5,1",""
"null","","html-keyboard-response","382","779304","0.0-382.0","3PZDLQMM0U724TF5PI1G3HKR8CBC2Y","APVZGZM1RA3AZ","338431Z1FL1IVIVZ3BK6A6QS21HROA","","","<img src=""img/flower5.png"" style=""width:200px; border:14px solid green;"">","null","","","","","",""
"610.7999999821186","","image-keyboard-response","383","779916","0.0-383.0","3PZDLQMM0U724TF5PI1G3HKR8CBC2Y","APVZGZM1RA3AZ","338431Z1FL1IVIVZ3BK6A6QS21HROA","","","img/flower5.png","74","611.8000000119209","1","1","1","1,0.5,0.5,0.5,1,0.5,0.5,0.5,1",""
"null","","html-keyboard-response","384","780224","0.0-384.0","3PZDLQMM0U724TF5PI1G3HKR8CBC2Y","APVZGZM1RA3AZ","338431Z1FL1IVIVZ3BK6A6QS21HROA","","","<img src=""img/flower5.png"" style=""width:200px; border:14px solid green;"">","null","","","","","",""
"1045.2000000178814","","image-keyboard-response","385","781269","0.0-385.0","3PZDLQMM0U724TF5PI1G3HKR8CBC2Y","APVZGZM1RA3AZ","338431Z1FL1IVIVZ3BK6A6QS21HROA","","","img/flower2.png","75","1046","2","1","3","1,0.5,0.5,0.5,1,0.5,0.5,0.5,1",""
"null","","html-keyboard-response","386","781575","0.0-386.0","3PZDLQMM0U724TF5PI1G3HKR8CBC2Y","APVZGZM1RA3AZ","338431Z1FL1IVIVZ3BK6A6QS21HROA","","","<img src=""img/flower2.png"" style=""width:200px; border:14px solid green;"">","null","","","","","",""
"1316.9000000059605","","image-keyboard-response","387","782892","0.0-387.0","3PZDLQMM0U724TF5PI1G3HKR8CBC2Y","APVZGZM1RA3AZ","338431Z1FL1IVIVZ3BK6A6QS21HROA","","","img/flower5.png","74","1317.6000000238419","1","1","1","1,0.5,0.5,0.5,1,0.5,0.5,0.5,1",""
"null","","html-keyboard-response","388","783209","0.0-388.0","3PZDLQMM0U724TF5PI1G3HKR8CBC2Y","APVZGZM1RA3AZ","338431Z1FL1IVIVZ3BK6A6QS21HROA","","","<img src=""img/flower5.png"" style=""width:200px; border:14px solid green;"">","null","","","","","",""
"1018","","image-keyboard-response","389","784228","0.0-389.0","3PZDLQMM0U724TF5PI1G3HKR8CBC2Y","APVZGZM1RA3AZ","338431Z1FL1IVIVZ3BK6A6QS21HROA","","","img/flower2.png","75","1018.9000000059605","2","1","3","1,0.5,0.5,0.5,1,0.5,0.5,0.5,1",""
"null","","html-keyboard-response","390","784539","0.0-390.0","3PZDLQMM0U724TF5PI1G3HKR8CBC2Y","APVZGZM1RA3AZ","338431Z1FL1IVIVZ3BK6A6QS21HROA","","","<img src=""img/flower2.png"" style=""width:200px; border:14px solid green;"">","null","","","","","",""
"1280.3999999761581","","image-keyboard-response","391","785821","0.0-391.0","3PZDLQMM0U724TF5PI1G3HKR8CBC2Y","APVZGZM1RA3AZ","338431Z1FL1IVIVZ3BK6A6QS21HROA","","","img/flower5.png","74","1281.5999999940395","1","1","1","1,0.5,0.5,0.5,1,0.5,0.5,0.5,1",""
"null","","html-keyboard-response","392","786128","0.0-392.0","3PZDLQMM0U724TF5PI1G3HKR8CBC2Y","APVZGZM1RA3AZ","338431Z1FL1IVIVZ3BK6A6QS21HROA","","","<img src=""img/flower5.png"" style=""width:200px; border:14px solid green;"">","null","","","","","",""
"882.0999999940395","","image-keyboard-response","393","787012","0.0-393.0","3PZDLQMM0U724TF5PI1G3HKR8CBC2Y","APVZGZM1RA3AZ","338431Z1FL1IVIVZ3BK6A6QS21HROA","","","img/flower2.png","75","883.2999999821186","2","0","3","1,0.5,0.5,0.5,1,0.5,0.5,0.5,1",""
"null","","html-keyboard-response","394","787325","0.0-394.0","3PZDLQMM0U724TF5PI1G3HKR8CBC2Y","APVZGZM1RA3AZ","338431Z1FL1IVIVZ3BK6A6QS21HROA","","","<img src=""img/flower2.png"" style=""width:200px;border:14px solid red;"">","null","","","","","",""
"1029.5","","image-keyboard-response","395","788358","0.0-395.0","3PZDLQMM0U724TF5PI1G3HKR8CBC2Y","APVZGZM1RA3AZ","338431Z1FL1IVIVZ3BK6A6QS21HROA","","","img/flower3.png","76","1032.5999999940395","3","1","2","1,0.5,0.5,0.5,1,0.5,0.5,0.5,1",""
"null","","html-keyboard-response","396","788661","0.0-396.0","3PZDLQMM0U724TF5PI1G3HKR8CBC2Y","APVZGZM1RA3AZ","338431Z1FL1IVIVZ3BK6A6QS21HROA","","","<img src=""img/flower3.png"" style=""width:200px; border:14px solid green;"">","null","","","","","",""
"1038.5999999940395","","image-keyboard-response","397","789701","0.0-397.0","3PZDLQMM0U724TF5PI1G3HKR8CBC2Y","APVZGZM1RA3AZ","338431Z1FL1IVIVZ3BK6A6QS21HROA","","","img/flower2.png","74","1039.9000000059605","1","1","3","1,0.5,0.5,0.5,1,0.5,0.5,0.5,1",""
"null","","html-keyboard-response","398","790015","0.0-398.0","3PZDLQMM0U724TF5PI1G3HKR8CBC2Y","APVZGZM1RA3AZ","338431Z1FL1IVIVZ3BK6A6QS21HROA","","","<img src=""img/flower2.png"" style=""width:200px; border:14px solid green;"">","null","","","","","",""
"636.5999999940395","","image-keyboard-response","399","790653","0.0-399.0","3PZDLQMM0U724TF5PI1G3HKR8CBC2Y","APVZGZM1RA3AZ","338431Z1FL1IVIVZ3BK6A6QS21HROA","","","img/flower2.png","74","638","1","1","3","1,0.5,0.5,0.5,1,0.5,0.5,0.5,1",""
"null","","html-keyboard-response","400","790967","0.0-400.0","3PZDLQMM0U724TF5PI1G3HKR8CBC2Y","APVZGZM1RA3AZ","338431Z1FL1IVIVZ3BK6A6QS21HROA","","","<img src=""img/flower2.png"" style=""width:200px; border:14px solid green;"">","null","","","","","",""
"804.3000000119209","","image-keyboard-response","401","791773","0.0-401.0","3PZDLQMM0U724TF5PI1G3HKR8CBC2Y","APVZGZM1RA3AZ","338431Z1FL1IVIVZ3BK6A6QS21HROA","","","img/flower2.png","74","805.5","1","1","3","1,0.5,0.5,0.5,1,0.5,0.5,0.5,1",""
"null","","html-keyboard-response","402","792084","0.0-402.0","3PZDLQMM0U724TF5PI1G3HKR8CBC2Y","APVZGZM1RA3AZ","338431Z1FL1IVIVZ3BK6A6QS21HROA","","","<img src=""img/flower2.png"" style=""width:200px; border:14px solid green;"">","null","","","","","",""
"1672.4000000059605","","image-keyboard-response","403","793758","0.0-403.0","3PZDLQMM0U724TF5PI1G3HKR8CBC2Y","APVZGZM1RA3AZ","338431Z1FL1IVIVZ3BK6A6QS21HROA","","","img/flower5.png","75","1673.300000011921","2","1","1","1,0.5,0.5,0.5,1,0.5,0.5,0.5,1",""
"null","","html-keyboard-response","404","794062","0.0-404.0","3PZDLQMM0U724TF5PI1G3HKR8CBC2Y","APVZGZM1RA3AZ","338431Z1FL1IVIVZ3BK6A6QS21HROA","","","<img src=""img/flower5.png"" style=""width:200px; border:14px solid green;"">","null","","","","","",""
"1076.3999999761581","","image-keyboard-response","405","795140","0.0-405.0","3PZDLQMM0U724TF5PI1G3HKR8CBC2Y","APVZGZM1RA3AZ","338431Z1FL1IVIVZ3BK6A6QS21HROA","","","img/flower2.png","76","1077.5","3","1","3","1,0.5,0.5,0.5,1,0.5,0.5,0.5,1",""
"null","","html-keyboard-response","406","795450","0.0-406.0","3PZDLQMM0U724TF5PI1G3HKR8CBC2Y","APVZGZM1RA3AZ","338431Z1FL1IVIVZ3BK6A6QS21HROA","","","<img src=""img/flower2.png"" style=""width:200px; border:14px solid green;"">","null","","","","","",""
"1577.2999999821186","","image-keyboard-response","407","797028","0.0-407.0","3PZDLQMM0U724TF5PI1G3HKR8CBC2Y","APVZGZM1RA3AZ","338431Z1FL1IVIVZ3BK6A6QS21HROA","","","img/flower5.png","74","1577.9000000059605","1","1","1","1,0.5,0.5,0.5,1,0.5,0.5,0.5,1",""
