"success","trial_type","trial_index","time_elapsed","internal_node_id","assignmentID","mturkID","hitID","view_history","rt","stimulus","key_press","reactionTime","a","r","s","cond","reward_cond","reward_cond_actual","reward_matrix_idx","responses"
"true","fullscreen","0","3276","0.0-0.0","3LS2AMNW5GCK51ETHY08UZCBE51QOZ","AQJCB00VQVQK0","3XT3KXP24ZKFDDMCDS43FE3AU9W6IW","","","","","","","","","","","","",""
"","instructions","1","16867","0.0-1.0","3LS2AMNW5GCK51ETHY08UZCBE51QOZ","AQJCB00VQVQK0","3XT3KXP24ZKFDDMCDS43FE3AU9W6IW","[{""page_index"":0,""viewing_time"":3012.0999999046326},{""page_index"":1,""viewing_time"":943},{""page_index"":2,""viewing_time"":496.10000014305115},{""page_index"":3,""viewing_time"":528},{""page_index"":4,""viewing_time"":3712},{""page_index"":5,""viewing_time"":1560.0999999046326},{""page_index"":6,""viewing_time"":1408.6000001430511},{""page_index"":7,""viewing_time"":1928.3999998569489}]","13588.900000095367","","","","","","","","","","",""
"","image-keyboard-response","2","18340","0.0-2.0","3LS2AMNW5GCK51ETHY08UZCBE51QOZ","AQJCB00VQVQK0","3XT3KXP24ZKFDDMCDS43FE3AU9W6IW","","1470.8999998569489","img/flower2.png","74","1472.7000000476837","1","1","1","1","1,0.333,0.333,0.333,1,0.333,0.333,0.333,1","1,0.333,0.333,0.333,1,0.333,0.333,0.333,1","1",""
"","html-keyboard-response","3","18653","0.0-3.0","3LS2AMNW5GCK51ETHY08UZCBE51QOZ","AQJCB00VQVQK0","3XT3KXP24ZKFDDMCDS43FE3AU9W6IW","","null","<img src=""img/flower2.png"" style=""width:200px; border:14px solid green;"">","null","","","","","","","","",""
"","image-keyboard-response","4","19284","0.0-4.0","3LS2AMNW5GCK51ETHY08UZCBE51QOZ","AQJCB00VQVQK0","3XT3KXP24ZKFDDMCDS43FE3AU9W6IW","","629.7999999523163","img/flower4.png","75","630.7999999523163","2","1","3","1","1,0.333,0.333,0.333,1,0.333,0.333,0.333,1","1,0.333,0.333,0.333,1,0.333,0.333,0.333,1","1",""
"","html-keyboard-response","5","19585","0.0-5.0","3LS2AMNW5GCK51ETHY08UZCBE51QOZ","AQJCB00VQVQK0","3XT3KXP24ZKFDDMCDS43FE3AU9W6IW","","null","<img src=""img/flower4.png"" style=""width:200px; border:14px solid green;"">","null","","","","","","","","",""
"","image-keyboard-response","6","20156","0.0-6.0","3LS2AMNW5GCK51ETHY08UZCBE51QOZ","AQJCB00VQVQK0","3XT3KXP24ZKFDDMCDS43FE3AU9W6IW","","569.7999999523163","img/flower3.png","76","570.7000000476837","3","0","2","1","1,0.333,0.333,0.333,1,0.333,0.333,0.333,1","1,0.333,0.333,0.333,1,0.333,0.333,0.333,1","1",""
"","html-keyboard-response","7","20466","0.0-7.0","3LS2AMNW5GCK51ETHY08UZCBE51QOZ","AQJCB00VQVQK0","3XT3KXP24ZKFDDMCDS43FE3AU9W6IW","","null","<img src=""img/flower3.png"" style=""width:200px;border:14px solid red;"">","null","","","","","","","","",""
"","image-keyboard-response","8","21099","0.0-8.0","3LS2AMNW5GCK51ETHY08UZCBE51QOZ","AQJCB00VQVQK0","3XT3KXP24ZKFDDMCDS43FE3AU9W6IW","","631.6000001430511","img/flower3.png","76","632.6000001430511","3","0","2","1","1,0.333,0.333,0.333,1,0.333,0.333,0.333,1","1,0.333,0.333,0.333,1,0.333,0.333,0.333,1","1",""
"","html-keyboard-response","9","21412","0.0-9.0","3LS2AMNW5GCK51ETHY08UZCBE51QOZ","AQJCB00VQVQK0","3XT3KXP24ZKFDDMCDS43FE3AU9W6IW","","null","<img src=""img/flower3.png"" style=""width:200px;border:14px solid red;"">","null","","","","","","","","",""
"","image-keyboard-response","10","22012","0.0-10.0","3LS2AMNW5GCK51ETHY08UZCBE51QOZ","AQJCB00VQVQK0","3XT3KXP24ZKFDDMCDS43FE3AU9W6IW","","598.1000001430511","img/flower4.png","75","599.1000001430511","2","0","3","1","1,0.333,0.333,0.333,1,0.333,0.333,0.333,1","1,0.333,0.333,0.333,1,0.333,0.333,0.333,1","1",""
"","html-keyboard-response","11","22324","0.0-11.0","3LS2AMNW5GCK51ETHY08UZCBE51QOZ","AQJCB00VQVQK0","3XT3KXP24ZKFDDMCDS43FE3AU9W6IW","","null","<img src=""img/flower4.png"" style=""width:200px;border:14px solid red;"">","null","","","","","","","","",""
"","image-keyboard-response","12","23020","0.0-12.0","3LS2AMNW5GCK51ETHY08UZCBE51QOZ","AQJCB00VQVQK0","3XT3KXP24ZKFDDMCDS43FE3AU9W6IW","","694.8999998569489","img/flower2.png","74","695.7999999523163","1","1","1","1","1,0.333,0.333,0.333,1,0.333,0.333,0.333,1","1,0.333,0.333,0.333,1,0.333,0.333,0.333,1","1",""
"","html-keyboard-response","13","23330","0.0-13.0","3LS2AMNW5GCK51ETHY08UZCBE51QOZ","AQJCB00VQVQK0","3XT3KXP24ZKFDDMCDS43FE3AU9W6IW","","null","<img src=""img/flower2.png"" style=""width:200px; border:14px solid green;"">","null","","","","","","","","",""
"","image-keyboard-response","14","23947","0.0-14.0","3LS2AMNW5GCK51ETHY08UZCBE51QOZ","AQJCB00VQVQK0","3XT3KXP24ZKFDDMCDS43FE3AU9W6IW","","616","img/flower3.png","76","616.7999999523163","3","0","2","1","1,0.333,0.333,0.333,1,0.333,0.333,0.333,1","1,0.333,0.333,0.333,1,0.333,0.333,0.333,1","1",""
"","html-keyboard-response","15","24261","0.0-15.0","3LS2AMNW5GCK51ETHY08UZCBE51QOZ","AQJCB00VQVQK0","3XT3KXP24ZKFDDMCDS43FE3AU9W6IW","","null","<img src=""img/flower3.png"" style=""width:200px;border:14px solid red;"">","null","","","","","","","","",""
"","image-keyboard-response","16","24795","0.0-16.0","3LS2AMNW5GCK51ETHY08UZCBE51QOZ","AQJCB00VQVQK0","3XT3KXP24ZKFDDMCDS43FE3AU9W6IW","","533.2999999523163","img/flower3.png","76","534.1000001430511","3","0","2","1","1,0.333,0.333,0.333,1,0.333,0.333,0.333,1","1,0.333,0.333,0.333,1,0.333,0.333,0.333,1","1",""
"","html-keyboard-response","17","25100","0.0-17.0","3LS2AMNW5GCK51ETHY08UZCBE51QOZ","AQJCB00VQVQK0","3XT3KXP24ZKFDDMCDS43FE3AU9W6IW","","null","<img src=""img/flower3.png"" style=""width:200px;border:14px solid red;"">","null","","","","","","","","",""
"","image-keyboard-response","18","25955","0.0-18.0","3LS2AMNW5GCK51ETHY08UZCBE51QOZ","AQJCB00VQVQK0","3XT3KXP24ZKFDDMCDS43FE3AU9W6IW","","854.1000001430511","img/flower2.png","74","854.9000000953674","1","1","1","1","1,0.333,0.333,0.333,1,0.333,0.333,0.333,1","1,0.333,0.333,0.333,1,0.333,0.333,0.333,1","1",""
"","html-keyboard-response","19","26263","0.0-19.0","3LS2AMNW5GCK51ETHY08UZCBE51QOZ","AQJCB00VQVQK0","3XT3KXP24ZKFDDMCDS43FE3AU9W6IW","","null","<img src=""img/flower2.png"" style=""width:200px; border:14px solid green;"">","null","","","","","","","","",""
"","image-keyboard-response","20","26787","0.0-20.0","3LS2AMNW5GCK51ETHY08UZCBE51QOZ","AQJCB00VQVQK0","3XT3KXP24ZKFDDMCDS43FE3AU9W6IW","","523","img/flower4.png","75","523.7999999523163","2","0","3","1","1,0.333,0.333,0.333,1,0.333,0.333,0.333,1","1,0.333,0.333,0.333,1,0.333,0.333,0.333,1","1",""
"","html-keyboard-response","21","27102","0.0-21.0","3LS2AMNW5GCK51ETHY08UZCBE51QOZ","AQJCB00VQVQK0","3XT3KXP24ZKFDDMCDS43FE3AU9W6IW","","null","<img src=""img/flower4.png"" style=""width:200px;border:14px solid red;"">","null","","","","","","","","",""
"","image-keyboard-response","22","27795","0.0-22.0","3LS2AMNW5GCK51ETHY08UZCBE51QOZ","AQJCB00VQVQK0","3XT3KXP24ZKFDDMCDS43FE3AU9W6IW","","691.8000001907349","img/flower3.png","76","692.8999998569489","3","1","2","1","1,0.333,0.333,0.333,1,0.333,0.333,0.333,1","1,0.333,0.333,0.333,1,0.333,0.333,0.333,1","1",""
"","html-keyboard-response","23","28097","0.0-23.0","3LS2AMNW5GCK51ETHY08UZCBE51QOZ","AQJCB00VQVQK0","3XT3KXP24ZKFDDMCDS43FE3AU9W6IW","","null","<img src=""img/flower3.png"" style=""width:200px; border:14px solid green;"">","null","","","","","","","","",""
"","image-keyboard-response","24","28724","0.0-24.0","3LS2AMNW5GCK51ETHY08UZCBE51QOZ","AQJCB00VQVQK0","3XT3KXP24ZKFDDMCDS43FE3AU9W6IW","","625.2999999523163","img/flower4.png","75","626.2000000476837","2","1","3","1","1,0.333,0.333,0.333,1,0.333,0.333,0.333,1","1,0.333,0.333,0.333,1,0.333,0.333,0.333,1","1",""
"","html-keyboard-response","25","29025","0.0-25.0","3LS2AMNW5GCK51ETHY08UZCBE51QOZ","AQJCB00VQVQK0","3XT3KXP24ZKFDDMCDS43FE3AU9W6IW","","null","<img src=""img/flower4.png"" style=""width:200px; border:14px solid green;"">","null","","","","","","","","",""
"","image-keyboard-response","26","29587","0.0-26.0","3LS2AMNW5GCK51ETHY08UZCBE51QOZ","AQJCB00VQVQK0","3XT3KXP24ZKFDDMCDS43FE3AU9W6IW","","561.2000000476837","img/flower4.png","75","561.9000000953674","2","0","3","1","1,0.333,0.333,0.333,1,0.333,0.333,0.333,1","1,0.333,0.333,0.333,1,0.333,0.333,0.333,1","1",""
"","html-keyboard-response","27","29889","0.0-27.0","3LS2AMNW5GCK51ETHY08UZCBE51QOZ","AQJCB00VQVQK0","3XT3KXP24ZKFDDMCDS43FE3AU9W6IW","","null","<img src=""img/flower4.png"" style=""width:200px;border:14px solid red;"">","null","","","","","","","","",""
"","image-keyboard-response","28","30347","0.0-28.0","3LS2AMNW5GCK51ETHY08UZCBE51QOZ","AQJCB00VQVQK0","3XT3KXP24ZKFDDMCDS43FE3AU9W6IW","","457.39999985694885","img/flower2.png","74","458.19999980926514","1","1","1","1","1,0.333,0.333,0.333,1,0.333,0.333,0.333,1","1,0.333,0.333,0.333,1,0.333,0.333,0.333,1","1",""
"","html-keyboard-response","29","30649","0.0-29.0","3LS2AMNW5GCK51ETHY08UZCBE51QOZ","AQJCB00VQVQK0","3XT3KXP24ZKFDDMCDS43FE3AU9W6IW","","null","<img src=""img/flower2.png"" style=""width:200px; border:14px solid green;"">","null","","","","","","","","",""
"","image-keyboard-response","30","31083","0.0-30.0","3LS2AMNW5GCK51ETHY08UZCBE51QOZ","AQJCB00VQVQK0","3XT3KXP24ZKFDDMCDS43FE3AU9W6IW","","433.7000000476837","img/flower2.png","74","434.5","1","1","1","1","1,0.333,0.333,0.333,1,0.333,0.333,0.333,1","1,0.333,0.333,0.333,1,0.333,0.333,0.333,1","1",""
"","html-keyboard-response","31","31385","0.0-31.0","3LS2AMNW5GCK51ETHY08UZCBE51QOZ","AQJCB00VQVQK0","3XT3KXP24ZKFDDMCDS43FE3AU9W6IW","","null","<img src=""img/flower2.png"" style=""width:200px; border:14px solid green;"">","null","","","","","","","","",""
"","image-keyboard-response","32","31867","0.0-32.0","3LS2AMNW5GCK51ETHY08UZCBE51QOZ","AQJCB00VQVQK0","3XT3KXP24ZKFDDMCDS43FE3AU9W6IW","","481.09999990463257","img/flower2.png","74","481.7999999523163","1","1","1","1","1,0.333,0.333,0.333,1,0.333,0.333,0.333,1","1,0.333,0.333,0.333,1,0.333,0.333,0.333,1","1",""
"","html-keyboard-response","33","32168","0.0-33.0","3LS2AMNW5GCK51ETHY08UZCBE51QOZ","AQJCB00VQVQK0","3XT3KXP24ZKFDDMCDS43FE3AU9W6IW","","null","<img src=""img/flower2.png"" style=""width:200px; border:14px solid green;"">","null","","","","","","","","",""
"","image-keyboard-response","34","32755","0.0-34.0","3LS2AMNW5GCK51ETHY08UZCBE51QOZ","AQJCB00VQVQK0","3XT3KXP24ZKFDDMCDS43FE3AU9W6IW","","586.0999999046326","img/flower4.png","75","586.8999998569489","2","0","3","1","1,0.333,0.333,0.333,1,0.333,0.333,0.333,1","1,0.333,0.333,0.333,1,0.333,0.333,0.333,1","1",""
"","html-keyboard-response","35","33057","0.0-35.0","3LS2AMNW5GCK51ETHY08UZCBE51QOZ","AQJCB00VQVQK0","3XT3KXP24ZKFDDMCDS43FE3AU9W6IW","","null","<img src=""img/flower4.png"" style=""width:200px;border:14px solid red;"">","null","","","","","","","","",""
"","image-keyboard-response","36","33675","0.0-36.0","3LS2AMNW5GCK51ETHY08UZCBE51QOZ","AQJCB00VQVQK0","3XT3KXP24ZKFDDMCDS43FE3AU9W6IW","","617.7000000476837","img/flower4.png","75","618.3999998569489","2","1","3","1","1,0.333,0.333,0.333,1,0.333,0.333,0.333,1","1,0.333,0.333,0.333,1,0.333,0.333,0.333,1","1",""
"","html-keyboard-response","37","33976","0.0-37.0","3LS2AMNW5GCK51ETHY08UZCBE51QOZ","AQJCB00VQVQK0","3XT3KXP24ZKFDDMCDS43FE3AU9W6IW","","null","<img src=""img/flower4.png"" style=""width:200px; border:14px solid green;"">","null","","","","","","","","",""
"","image-keyboard-response","38","34675","0.0-38.0","3LS2AMNW5GCK51ETHY08UZCBE51QOZ","AQJCB00VQVQK0","3XT3KXP24ZKFDDMCDS43FE3AU9W6IW","","697.9000000953674","img/flower2.png","74","698.7000000476837","1","1","1","1","1,0.333,0.333,0.333,1,0.333,0.333,0.333,1","1,0.333,0.333,0.333,1,0.333,0.333,0.333,1","1",""
"","html-keyboard-response","39","34977","0.0-39.0","3LS2AMNW5GCK51ETHY08UZCBE51QOZ","AQJCB00VQVQK0","3XT3KXP24ZKFDDMCDS43FE3AU9W6IW","","null","<img src=""img/flower2.png"" style=""width:200px; border:14px solid green;"">","null","","","","","","","","",""
"","image-keyboard-response","40","35755","0.0-40.0","3LS2AMNW5GCK51ETHY08UZCBE51QOZ","AQJCB00VQVQK0","3XT3KXP24ZKFDDMCDS43FE3AU9W6IW","","777.7000000476837","img/flower4.png","75","778.5","2","0","3","1","1,0.333,0.333,0.333,1,0.333,0.333,0.333,1","1,0.333,0.333,0.333,1,0.333,0.333,0.333,1","1",""
"","html-keyboard-response","41","36056","0.0-41.0","3LS2AMNW5GCK51ETHY08UZCBE51QOZ","AQJCB00VQVQK0","3XT3KXP24ZKFDDMCDS43FE3AU9W6IW","","null","<img src=""img/flower4.png"" style=""width:200px;border:14px solid red;"">","null","","","","","","","","",""
"","image-keyboard-response","42","36739","0.0-42.0","3LS2AMNW5GCK51ETHY08UZCBE51QOZ","AQJCB00VQVQK0","3XT3KXP24ZKFDDMCDS43FE3AU9W6IW","","681.8000001907349","img/flower2.png","74","682.6999998092651","1","1","1","1","1,0.333,0.333,0.333,1,0.333,0.333,0.333,1","1,0.333,0.333,0.333,1,0.333,0.333,0.333,1","1",""
"","html-keyboard-response","43","37042","0.0-43.0","3LS2AMNW5GCK51ETHY08UZCBE51QOZ","AQJCB00VQVQK0","3XT3KXP24ZKFDDMCDS43FE3AU9W6IW","","null","<img src=""img/flower2.png"" style=""width:200px; border:14px solid green;"">","null","","","","","","","","",""
"","image-keyboard-response","44","37643","0.0-44.0","3LS2AMNW5GCK51ETHY08UZCBE51QOZ","AQJCB00VQVQK0","3XT3KXP24ZKFDDMCDS43FE3AU9W6IW","","600.7000000476837","img/flower4.png","75","601.3999998569489","2","0","3","1","1,0.333,0.333,0.333,1,0.333,0.333,0.333,1","1,0.333,0.333,0.333,1,0.333,0.333,0.333,1","1",""
"","html-keyboard-response","45","37944","0.0-45.0","3LS2AMNW5GCK51ETHY08UZCBE51QOZ","AQJCB00VQVQK0","3XT3KXP24ZKFDDMCDS43FE3AU9W6IW","","null","<img src=""img/flower4.png"" style=""width:200px;border:14px solid red;"">","null","","","","","","","","",""
"","image-keyboard-response","46","38443","0.0-46.0","3LS2AMNW5GCK51ETHY08UZCBE51QOZ","AQJCB00VQVQK0","3XT3KXP24ZKFDDMCDS43FE3AU9W6IW","","497.90000009536743","img/flower2.png","74","498.7000000476837","1","1","1","1","1,0.333,0.333,0.333,1,0.333,0.333,0.333,1","1,0.333,0.333,0.333,1,0.333,0.333,0.333,1","1",""
"","html-keyboard-response","47","38745","0.0-47.0","3LS2AMNW5GCK51ETHY08UZCBE51QOZ","AQJCB00VQVQK0","3XT3KXP24ZKFDDMCDS43FE3AU9W6IW","","null","<img src=""img/flower2.png"" style=""width:200px; border:14px solid green;"">","null","","","","","","","","",""
"","image-keyboard-response","48","39243","0.0-48.0","3LS2AMNW5GCK51ETHY08UZCBE51QOZ","AQJCB00VQVQK0","3XT3KXP24ZKFDDMCDS43FE3AU9W6IW","","497.2000000476837","img/flower2.png","74","498","1","1","1","1","1,0.333,0.333,0.333,1,0.333,0.333,0.333,1","1,0.333,0.333,0.333,1,0.333,0.333,0.333,1","1",""
"","html-keyboard-response","49","39545","0.0-49.0","3LS2AMNW5GCK51ETHY08UZCBE51QOZ","AQJCB00VQVQK0","3XT3KXP24ZKFDDMCDS43FE3AU9W6IW","","null","<img src=""img/flower2.png"" style=""width:200px; border:14px solid green;"">","null","","","","","","","","",""
"","image-keyboard-response","50","40131","0.0-50.0","3LS2AMNW5GCK51ETHY08UZCBE51QOZ","AQJCB00VQVQK0","3XT3KXP24ZKFDDMCDS43FE3AU9W6IW","","585.3999998569489","img/flower2.png","74","586.2000000476837","1","1","1","1","1,0.333,0.333,0.333,1,0.333,0.333,0.333,1","1,0.333,0.333,0.333,1,0.333,0.333,0.333,1","1",""
"","html-keyboard-response","51","40433","0.0-51.0","3LS2AMNW5GCK51ETHY08UZCBE51QOZ","AQJCB00VQVQK0","3XT3KXP24ZKFDDMCDS43FE3AU9W6IW","","null","<img src=""img/flower2.png"" style=""width:200px; border:14px solid green;"">","null","","","","","","","","",""
"","image-keyboard-response","52","41091","0.0-52.0","3LS2AMNW5GCK51ETHY08UZCBE51QOZ","AQJCB00VQVQK0","3XT3KXP24ZKFDDMCDS43FE3AU9W6IW","","656.7999999523163","img/flower3.png","76","657.5","3","0","2","1","1,0.333,0.333,0.333,1,0.333,0.333,0.333,1","1,0.333,0.333,0.333,1,0.333,0.333,0.333,1","1",""
"","html-keyboard-response","53","41393","0.0-53.0","3LS2AMNW5GCK51ETHY08UZCBE51QOZ","AQJCB00VQVQK0","3XT3KXP24ZKFDDMCDS43FE3AU9W6IW","","null","<img src=""img/flower3.png"" style=""width:200px;border:14px solid red;"">","null","","","","","","","","",""
"","image-keyboard-response","54","41907","0.0-54.0","3LS2AMNW5GCK51ETHY08UZCBE51QOZ","AQJCB00VQVQK0","3XT3KXP24ZKFDDMCDS43FE3AU9W6IW","","513.4000000953674","img/flower3.png","76","514.2000000476837","3","0","2","1","1,0.333,0.333,0.333,1,0.333,0.333,0.333,1","1,0.333,0.333,0.333,1,0.333,0.333,0.333,1","1",""
"","html-keyboard-response","55","42209","0.0-55.0","3LS2AMNW5GCK51ETHY08UZCBE51QOZ","AQJCB00VQVQK0","3XT3KXP24ZKFDDMCDS43FE3AU9W6IW","","null","<img src=""img/flower3.png"" style=""width:200px;border:14px solid red;"">","null","","","","","","","","",""
"","image-keyboard-response","56","42931","0.0-56.0","3LS2AMNW5GCK51ETHY08UZCBE51QOZ","AQJCB00VQVQK0","3XT3KXP24ZKFDDMCDS43FE3AU9W6IW","","721.2999999523163","img/flower4.png","75","722.1999998092651","2","1","3","1","1,0.333,0.333,0.333,1,0.333,0.333,0.333,1","1,0.333,0.333,0.333,1,0.333,0.333,0.333,1","1",""
"","html-keyboard-response","57","43233","0.0-57.0","3LS2AMNW5GCK51ETHY08UZCBE51QOZ","AQJCB00VQVQK0","3XT3KXP24ZKFDDMCDS43FE3AU9W6IW","","null","<img src=""img/flower4.png"" style=""width:200px; border:14px solid green;"">","null","","","","","","","","",""
"","image-keyboard-response","58","43731","0.0-58.0","3LS2AMNW5GCK51ETHY08UZCBE51QOZ","AQJCB00VQVQK0","3XT3KXP24ZKFDDMCDS43FE3AU9W6IW","","497.2000000476837","img/flower4.png","75","498.09999990463257","2","1","3","1","1,0.333,0.333,0.333,1,0.333,0.333,0.333,1","1,0.333,0.333,0.333,1,0.333,0.333,0.333,1","1",""
"","html-keyboard-response","59","44032","0.0-59.0","3LS2AMNW5GCK51ETHY08UZCBE51QOZ","AQJCB00VQVQK0","3XT3KXP24ZKFDDMCDS43FE3AU9W6IW","","null","<img src=""img/flower4.png"" style=""width:200px; border:14px solid green;"">","null","","","","","","","","",""
"","image-keyboard-response","60","44515","0.0-60.0","3LS2AMNW5GCK51ETHY08UZCBE51QOZ","AQJCB00VQVQK0","3XT3KXP24ZKFDDMCDS43FE3AU9W6IW","","481.7999999523163","img/flower2.png","74","482.5","1","1","1","1","1,0.333,0.333,0.333,1,0.333,0.333,0.333,1","1,0.333,0.333,0.333,1,0.333,0.333,0.333,1","1",""
"","html-keyboard-response","61","44816","0.0-61.0","3LS2AMNW5GCK51ETHY08UZCBE51QOZ","AQJCB00VQVQK0","3XT3KXP24ZKFDDMCDS43FE3AU9W6IW","","null","<img src=""img/flower2.png"" style=""width:200px; border:14px solid green;"">","null","","","","","","","","",""
"","image-keyboard-response","62","45371","0.0-62.0","3LS2AMNW5GCK51ETHY08UZCBE51QOZ","AQJCB00VQVQK0","3XT3KXP24ZKFDDMCDS43FE3AU9W6IW","","554.1000001430511","img/flower4.png","75","555","2","0","3","1","1,0.333,0.333,0.333,1,0.333,0.333,0.333,1","1,0.333,0.333,0.333,1,0.333,0.333,0.333,1","1",""
"","html-keyboard-response","63","45674","0.0-63.0","3LS2AMNW5GCK51ETHY08UZCBE51QOZ","AQJCB00VQVQK0","3XT3KXP24ZKFDDMCDS43FE3AU9W6IW","","null","<img src=""img/flower4.png"" style=""width:200px;border:14px solid red;"">","null","","","","","","","","",""
"","image-keyboard-response","64","46219","0.0-64.0","3LS2AMNW5GCK51ETHY08UZCBE51QOZ","AQJCB00VQVQK0","3XT3KXP24ZKFDDMCDS43FE3AU9W6IW","","544.5","img/flower3.png","76","545.3999998569489","3","0","2","1","1,0.333,0.333,0.333,1,0.333,0.333,0.333,1","1,0.333,0.333,0.333,1,0.333,0.333,0.333,1","1",""
"","html-keyboard-response","65","46520","0.0-65.0","3LS2AMNW5GCK51ETHY08UZCBE51QOZ","AQJCB00VQVQK0","3XT3KXP24ZKFDDMCDS43FE3AU9W6IW","","null","<img src=""img/flower3.png"" style=""width:200px;border:14px solid red;"">","null","","","","","","","","",""
"","image-keyboard-response","66","47019","0.0-66.0","3LS2AMNW5GCK51ETHY08UZCBE51QOZ","AQJCB00VQVQK0","3XT3KXP24ZKFDDMCDS43FE3AU9W6IW","","497.7999999523163","img/flower3.png","76","498.7000000476837","3","0","2","1","1,0.333,0.333,0.333,1,0.333,0.333,0.333,1","1,0.333,0.333,0.333,1,0.333,0.333,0.333,1","1",""
"","html-keyboard-response","67","47322","0.0-67.0","3LS2AMNW5GCK51ETHY08UZCBE51QOZ","AQJCB00VQVQK0","3XT3KXP24ZKFDDMCDS43FE3AU9W6IW","","null","<img src=""img/flower3.png"" style=""width:200px;border:14px solid red;"">","null","","","","","","","","",""
"","image-keyboard-response","68","48019","0.0-68.0","3LS2AMNW5GCK51ETHY08UZCBE51QOZ","AQJCB00VQVQK0","3XT3KXP24ZKFDDMCDS43FE3AU9W6IW","","696.6000001430511","img/flower2.png","74","697.4000000953674","1","1","1","1","1,0.333,0.333,0.333,1,0.333,0.333,0.333,1","1,0.333,0.333,0.333,1,0.333,0.333,0.333,1","1",""
"","html-keyboard-response","69","48321","0.0-69.0","3LS2AMNW5GCK51ETHY08UZCBE51QOZ","AQJCB00VQVQK0","3XT3KXP24ZKFDDMCDS43FE3AU9W6IW","","null","<img src=""img/flower2.png"" style=""width:200px; border:14px solid green;"">","null","","","","","","","","",""
"","image-keyboard-response","70","48763","0.0-70.0","3LS2AMNW5GCK51ETHY08UZCBE51QOZ","AQJCB00VQVQK0","3XT3KXP24ZKFDDMCDS43FE3AU9W6IW","","440.69999980926514","img/flower2.png","74","441.60000014305115","1","1","1","1","1,0.333,0.333,0.333,1,0.333,0.333,0.333,1","1,0.333,0.333,0.333,1,0.333,0.333,0.333,1","1",""
"","html-keyboard-response","71","49064","0.0-71.0","3LS2AMNW5GCK51ETHY08UZCBE51QOZ","AQJCB00VQVQK0","3XT3KXP24ZKFDDMCDS43FE3AU9W6IW","","null","<img src=""img/flower2.png"" style=""width:200px; border:14px solid green;"">","null","","","","","","","","",""
"","image-keyboard-response","72","49699","0.0-72.0","3LS2AMNW5GCK51ETHY08UZCBE51QOZ","AQJCB00VQVQK0","3XT3KXP24ZKFDDMCDS43FE3AU9W6IW","","634.2000000476837","img/flower4.png","75","635","2","0","3","1","1,0.333,0.333,0.333,1,0.333,0.333,0.333,1","1,0.333,0.333,0.333,1,0.333,0.333,0.333,1","1",""
"","html-keyboard-response","73","50001","0.0-73.0","3LS2AMNW5GCK51ETHY08UZCBE51QOZ","AQJCB00VQVQK0","3XT3KXP24ZKFDDMCDS43FE3AU9W6IW","","null","<img src=""img/flower4.png"" style=""width:200px;border:14px solid red;"">","null","","","","","","","","",""
"","image-keyboard-response","74","50675","0.0-74.0","3LS2AMNW5GCK51ETHY08UZCBE51QOZ","AQJCB00VQVQK0","3XT3KXP24ZKFDDMCDS43FE3AU9W6IW","","672.7999999523163","img/flower3.png","76","673.7000000476837","3","0","2","1","1,0.333,0.333,0.333,1,0.333,0.333,0.333,1","1,0.333,0.333,0.333,1,0.333,0.333,0.333,1","1",""
"","html-keyboard-response","75","50978","0.0-75.0","3LS2AMNW5GCK51ETHY08UZCBE51QOZ","AQJCB00VQVQK0","3XT3KXP24ZKFDDMCDS43FE3AU9W6IW","","null","<img src=""img/flower3.png"" style=""width:200px;border:14px solid red;"">","null","","","","","","","","",""
"","image-keyboard-response","76","51411","0.0-76.0","3LS2AMNW5GCK51ETHY08UZCBE51QOZ","AQJCB00VQVQK0","3XT3KXP24ZKFDDMCDS43FE3AU9W6IW","","432.19999980926514","img/flower3.png","76","433","3","1","2","1","1,0.333,0.333,0.333,1,0.333,0.333,0.333,1","1,0.333,0.333,0.333,1,0.333,0.333,0.333,1","1",""
"","html-keyboard-response","77","51713","0.0-77.0","3LS2AMNW5GCK51ETHY08UZCBE51QOZ","AQJCB00VQVQK0","3XT3KXP24ZKFDDMCDS43FE3AU9W6IW","","null","<img src=""img/flower3.png"" style=""width:200px; border:14px solid green;"">","null","","","","","","","","",""
"","image-keyboard-response","78","52235","0.0-78.0","3LS2AMNW5GCK51ETHY08UZCBE51QOZ","AQJCB00VQVQK0","3XT3KXP24ZKFDDMCDS43FE3AU9W6IW","","521.3999998569489","img/flower3.png","76","522.0999999046326","3","1","2","1","1,0.333,0.333,0.333,1,0.333,0.333,0.333,1","1,0.333,0.333,0.333,1,0.333,0.333,0.333,1","1",""
"","html-keyboard-response","79","52547","0.0-79.0","3LS2AMNW5GCK51ETHY08UZCBE51QOZ","AQJCB00VQVQK0","3XT3KXP24ZKFDDMCDS43FE3AU9W6IW","","null","<img src=""img/flower3.png"" style=""width:200px; border:14px solid green;"">","null","","","","","","","","",""
"","image-keyboard-response","80","53083","0.0-80.0","3LS2AMNW5GCK51ETHY08UZCBE51QOZ","AQJCB00VQVQK0","3XT3KXP24ZKFDDMCDS43FE3AU9W6IW","","534.9000000953674","img/flower4.png","75","535.8999998569489","2","1","3","1","1,0.333,0.333,0.333,1,0.333,0.333,0.333,1","1,0.333,0.333,0.333,1,0.333,0.333,0.333,1","1",""
"","html-keyboard-response","81","53384","0.0-81.0","3LS2AMNW5GCK51ETHY08UZCBE51QOZ","AQJCB00VQVQK0","3XT3KXP24ZKFDDMCDS43FE3AU9W6IW","","null","<img src=""img/flower4.png"" style=""width:200px; border:14px solid green;"">","null","","","","","","","","",""
"","image-keyboard-response","82","54043","0.0-82.0","3LS2AMNW5GCK51ETHY08UZCBE51QOZ","AQJCB00VQVQK0","3XT3KXP24ZKFDDMCDS43FE3AU9W6IW","","658","img/flower2.png","74","658.6999998092651","1","1","1","1","1,0.333,0.333,0.333,1,0.333,0.333,0.333,1","1,0.333,0.333,0.333,1,0.333,0.333,0.333,1","1",""
"","html-keyboard-response","83","54344","0.0-83.0","3LS2AMNW5GCK51ETHY08UZCBE51QOZ","AQJCB00VQVQK0","3XT3KXP24ZKFDDMCDS43FE3AU9W6IW","","null","<img src=""img/flower2.png"" style=""width:200px; border:14px solid green;"">","null","","","","","","","","",""
"","image-keyboard-response","84","54923","0.0-84.0","3LS2AMNW5GCK51ETHY08UZCBE51QOZ","AQJCB00VQVQK0","3XT3KXP24ZKFDDMCDS43FE3AU9W6IW","","578","img/flower4.png","75","578.5999999046326","2","1","3","1","1,0.333,0.333,0.333,1,0.333,0.333,0.333,1","1,0.333,0.333,0.333,1,0.333,0.333,0.333,1","1",""
"","html-keyboard-response","85","55224","0.0-85.0","3LS2AMNW5GCK51ETHY08UZCBE51QOZ","AQJCB00VQVQK0","3XT3KXP24ZKFDDMCDS43FE3AU9W6IW","","null","<img src=""img/flower4.png"" style=""width:200px; border:14px solid green;"">","null","","","","","","","","",""
"","image-keyboard-response","86","55747","0.0-86.0","3LS2AMNW5GCK51ETHY08UZCBE51QOZ","AQJCB00VQVQK0","3XT3KXP24ZKFDDMCDS43FE3AU9W6IW","","521.5","img/flower3.png","76","522.3999998569489","3","0","2","1","1,0.333,0.333,0.333,1,0.333,0.333,0.333,1","1,0.333,0.333,0.333,1,0.333,0.333,0.333,1","1",""
"","html-keyboard-response","87","56048","0.0-87.0","3LS2AMNW5GCK51ETHY08UZCBE51QOZ","AQJCB00VQVQK0","3XT3KXP24ZKFDDMCDS43FE3AU9W6IW","","null","<img src=""img/flower3.png"" style=""width:200px;border:14px solid red;"">","null","","","","","","","","",""
"","image-keyboard-response","88","56619","0.0-88.0","3LS2AMNW5GCK51ETHY08UZCBE51QOZ","AQJCB00VQVQK0","3XT3KXP24ZKFDDMCDS43FE3AU9W6IW","","569.8000001907349","img/flower4.png","75","570.5999999046326","2","0","3","1","1,0.333,0.333,0.333,1,0.333,0.333,0.333,1","1,0.333,0.333,0.333,1,0.333,0.333,0.333,1","1",""
"","html-keyboard-response","89","56920","0.0-89.0","3LS2AMNW5GCK51ETHY08UZCBE51QOZ","AQJCB00VQVQK0","3XT3KXP24ZKFDDMCDS43FE3AU9W6IW","","null","<img src=""img/flower4.png"" style=""width:200px;border:14px solid red;"">","null","","","","","","","","",""
"","image-keyboard-response","90","57611","0.0-90.0","3LS2AMNW5GCK51ETHY08UZCBE51QOZ","AQJCB00VQVQK0","3XT3KXP24ZKFDDMCDS43FE3AU9W6IW","","689.5","img/flower4.png","75","690.5","2","0","3","1","1,0.333,0.333,0.333,1,0.333,0.333,0.333,1","1,0.333,0.333,0.333,1,0.333,0.333,0.333,1","1",""
"","html-keyboard-response","91","57912","0.0-91.0","3LS2AMNW5GCK51ETHY08UZCBE51QOZ","AQJCB00VQVQK0","3XT3KXP24ZKFDDMCDS43FE3AU9W6IW","","null","<img src=""img/flower4.png"" style=""width:200px;border:14px solid red;"">","null","","","","","","","","",""
"","image-keyboard-response","92","58395","0.0-92.0","3LS2AMNW5GCK51ETHY08UZCBE51QOZ","AQJCB00VQVQK0","3XT3KXP24ZKFDDMCDS43FE3AU9W6IW","","481.7000000476837","img/flower2.png","74","482.59999990463257","1","1","1","1","1,0.333,0.333,0.333,1,0.333,0.333,0.333,1","1,0.333,0.333,0.333,1,0.333,0.333,0.333,1","1",""
"","html-keyboard-response","93","58697","0.0-93.0","3LS2AMNW5GCK51ETHY08UZCBE51QOZ","AQJCB00VQVQK0","3XT3KXP24ZKFDDMCDS43FE3AU9W6IW","","null","<img src=""img/flower2.png"" style=""width:200px; border:14px solid green;"">","null","","","","","","","","",""
"","image-keyboard-response","94","59163","0.0-94.0","3LS2AMNW5GCK51ETHY08UZCBE51QOZ","AQJCB00VQVQK0","3XT3KXP24ZKFDDMCDS43FE3AU9W6IW","","465.2000000476837","img/flower2.png","74","465.90000009536743","1","1","1","1","1,0.333,0.333,0.333,1,0.333,0.333,0.333,1","1,0.333,0.333,0.333,1,0.333,0.333,0.333,1","1",""
"","html-keyboard-response","95","59466","0.0-95.0","3LS2AMNW5GCK51ETHY08UZCBE51QOZ","AQJCB00VQVQK0","3XT3KXP24ZKFDDMCDS43FE3AU9W6IW","","null","<img src=""img/flower2.png"" style=""width:200px; border:14px solid green;"">","null","","","","","","","","",""
"","image-keyboard-response","96","59995","0.0-96.0","3LS2AMNW5GCK51ETHY08UZCBE51QOZ","AQJCB00VQVQK0","3XT3KXP24ZKFDDMCDS43FE3AU9W6IW","","528","img/flower4.png","75","529.0999999046326","2","0","3","1","1,0.333,0.333,0.333,1,0.333,0.333,0.333,1","1,0.333,0.333,0.333,1,0.333,0.333,0.333,1","1",""
"","html-keyboard-response","97","60296","0.0-97.0","3LS2AMNW5GCK51ETHY08UZCBE51QOZ","AQJCB00VQVQK0","3XT3KXP24ZKFDDMCDS43FE3AU9W6IW","","null","<img src=""img/flower4.png"" style=""width:200px;border:14px solid red;"">","null","","","","","","","","",""
"","image-keyboard-response","98","60803","0.0-98.0","3LS2AMNW5GCK51ETHY08UZCBE51QOZ","AQJCB00VQVQK0","3XT3KXP24ZKFDDMCDS43FE3AU9W6IW","","505.90000009536743","img/flower4.png","75","506.5","2","0","3","1","1,0.333,0.333,0.333,1,0.333,0.333,0.333,1","1,0.333,0.333,0.333,1,0.333,0.333,0.333,1","1",""
"","html-keyboard-response","99","61105","0.0-99.0","3LS2AMNW5GCK51ETHY08UZCBE51QOZ","AQJCB00VQVQK0","3XT3KXP24ZKFDDMCDS43FE3AU9W6IW","","null","<img src=""img/flower4.png"" style=""width:200px;border:14px solid red;"">","null","","","","","","","","",""
"","image-keyboard-response","100","61563","0.0-100.0","3LS2AMNW5GCK51ETHY08UZCBE51QOZ","AQJCB00VQVQK0","3XT3KXP24ZKFDDMCDS43FE3AU9W6IW","","456.7999999523163","img/flower3.png","76","457.60000014305115","3","0","2","1","1,0.333,0.333,0.333,1,0.333,0.333,0.333,1","1,0.333,0.333,0.333,1,0.333,0.333,0.333,1","1",""
"","html-keyboard-response","101","61865","0.0-101.0","3LS2AMNW5GCK51ETHY08UZCBE51QOZ","AQJCB00VQVQK0","3XT3KXP24ZKFDDMCDS43FE3AU9W6IW","","null","<img src=""img/flower3.png"" style=""width:200px;border:14px solid red;"">","null","","","","","","","","",""
"","image-keyboard-response","102","62451","0.0-102.0","3LS2AMNW5GCK51ETHY08UZCBE51QOZ","AQJCB00VQVQK0","3XT3KXP24ZKFDDMCDS43FE3AU9W6IW","","585.2000000476837","img/flower4.png","75","585.8999998569489","2","1","3","1","1,0.333,0.333,0.333,1,0.333,0.333,0.333,1","1,0.333,0.333,0.333,1,0.333,0.333,0.333,1","1",""
"","html-keyboard-response","103","62752","0.0-103.0","3LS2AMNW5GCK51ETHY08UZCBE51QOZ","AQJCB00VQVQK0","3XT3KXP24ZKFDDMCDS43FE3AU9W6IW","","null","<img src=""img/flower4.png"" style=""width:200px; border:14px solid green;"">","null","","","","","","","","",""
"","image-keyboard-response","104","63475","0.0-104.0","3LS2AMNW5GCK51ETHY08UZCBE51QOZ","AQJCB00VQVQK0","3XT3KXP24ZKFDDMCDS43FE3AU9W6IW","","722.4000000953674","img/flower3.png","76","723.1000001430511","3","0","2","1","1,0.333,0.333,0.333,1,0.333,0.333,0.333,1","1,0.333,0.333,0.333,1,0.333,0.333,0.333,1","1",""
"","html-keyboard-response","105","63777","0.0-105.0","3LS2AMNW5GCK51ETHY08UZCBE51QOZ","AQJCB00VQVQK0","3XT3KXP24ZKFDDMCDS43FE3AU9W6IW","","null","<img src=""img/flower3.png"" style=""width:200px;border:14px solid red;"">","null","","","","","","","","",""
"","image-keyboard-response","106","64419","0.0-106.0","3LS2AMNW5GCK51ETHY08UZCBE51QOZ","AQJCB00VQVQK0","3XT3KXP24ZKFDDMCDS43FE3AU9W6IW","","641.2999999523163","img/flower2.png","74","642.0999999046326","1","1","1","1","1,0.333,0.333,0.333,1,0.333,0.333,0.333,1","1,0.333,0.333,0.333,1,0.333,0.333,0.333,1","1",""
"","html-keyboard-response","107","64721","0.0-107.0","3LS2AMNW5GCK51ETHY08UZCBE51QOZ","AQJCB00VQVQK0","3XT3KXP24ZKFDDMCDS43FE3AU9W6IW","","null","<img src=""img/flower2.png"" style=""width:200px; border:14px solid green;"">","null","","","","","","","","",""
"","image-keyboard-response","108","65451","0.0-108.0","3LS2AMNW5GCK51ETHY08UZCBE51QOZ","AQJCB00VQVQK0","3XT3KXP24ZKFDDMCDS43FE3AU9W6IW","","728.2999999523163","img/flower3.png","76","729.0999999046326","3","1","2","1","1,0.333,0.333,0.333,1,0.333,0.333,0.333,1","1,0.333,0.333,0.333,1,0.333,0.333,0.333,1","1",""
"","html-keyboard-response","109","65752","0.0-109.0","3LS2AMNW5GCK51ETHY08UZCBE51QOZ","AQJCB00VQVQK0","3XT3KXP24ZKFDDMCDS43FE3AU9W6IW","","null","<img src=""img/flower3.png"" style=""width:200px; border:14px solid green;"">","null","","","","","","","","",""
"","image-keyboard-response","110","66299","0.0-110.0","3LS2AMNW5GCK51ETHY08UZCBE51QOZ","AQJCB00VQVQK0","3XT3KXP24ZKFDDMCDS43FE3AU9W6IW","","545.2999999523163","img/flower4.png","75","546.1999998092651","2","1","3","1","1,0.333,0.333,0.333,1,0.333,0.333,0.333,1","1,0.333,0.333,0.333,1,0.333,0.333,0.333,1","1",""
"","html-keyboard-response","111","66600","0.0-111.0","3LS2AMNW5GCK51ETHY08UZCBE51QOZ","AQJCB00VQVQK0","3XT3KXP24ZKFDDMCDS43FE3AU9W6IW","","null","<img src=""img/flower4.png"" style=""width:200px; border:14px solid green;"">","null","","","","","","","","",""
"","image-keyboard-response","112","67171","0.0-112.0","3LS2AMNW5GCK51ETHY08UZCBE51QOZ","AQJCB00VQVQK0","3XT3KXP24ZKFDDMCDS43FE3AU9W6IW","","569.2999999523163","img/flower3.png","76","570","3","1","2","1","1,0.333,0.333,0.333,1,0.333,0.333,0.333,1","1,0.333,0.333,0.333,1,0.333,0.333,0.333,1","1",""
"","html-keyboard-response","113","67472","0.0-113.0","3LS2AMNW5GCK51ETHY08UZCBE51QOZ","AQJCB00VQVQK0","3XT3KXP24ZKFDDMCDS43FE3AU9W6IW","","null","<img src=""img/flower3.png"" style=""width:200px; border:14px solid green;"">","null","","","","","","","","",""
"","image-keyboard-response","114","67955","0.0-114.0","3LS2AMNW5GCK51ETHY08UZCBE51QOZ","AQJCB00VQVQK0","3XT3KXP24ZKFDDMCDS43FE3AU9W6IW","","481.80000019073486","img/flower3.png","76","482.59999990463257","3","0","2","1","1,0.333,0.333,0.333,1,0.333,0.333,0.333,1","1,0.333,0.333,0.333,1,0.333,0.333,0.333,1","1",""
"","html-keyboard-response","115","68256","0.0-115.0","3LS2AMNW5GCK51ETHY08UZCBE51QOZ","AQJCB00VQVQK0","3XT3KXP24ZKFDDMCDS43FE3AU9W6IW","","null","<img src=""img/flower3.png"" style=""width:200px;border:14px solid red;"">","null","","","","","","","","",""
"","image-keyboard-response","116","68819","0.0-116.0","3LS2AMNW5GCK51ETHY08UZCBE51QOZ","AQJCB00VQVQK0","3XT3KXP24ZKFDDMCDS43FE3AU9W6IW","","561.3999998569489","img/flower2.png","74","562","1","1","1","1","1,0.333,0.333,0.333,1,0.333,0.333,0.333,1","1,0.333,0.333,0.333,1,0.333,0.333,0.333,1","1",""
"","html-keyboard-response","117","69120","0.0-117.0","3LS2AMNW5GCK51ETHY08UZCBE51QOZ","AQJCB00VQVQK0","3XT3KXP24ZKFDDMCDS43FE3AU9W6IW","","null","<img src=""img/flower2.png"" style=""width:200px; border:14px solid green;"">","null","","","","","","","","",""
"","image-keyboard-response","118","69619","0.0-118.0","3LS2AMNW5GCK51ETHY08UZCBE51QOZ","AQJCB00VQVQK0","3XT3KXP24ZKFDDMCDS43FE3AU9W6IW","","497.7000000476837","img/flower3.png","75","498.5","2","1","2","1","1,0.333,0.333,0.333,1,0.333,0.333,0.333,1","1,0.333,0.333,0.333,1,0.333,0.333,0.333,1","1",""
"","html-keyboard-response","119","69920","0.0-119.0","3LS2AMNW5GCK51ETHY08UZCBE51QOZ","AQJCB00VQVQK0","3XT3KXP24ZKFDDMCDS43FE3AU9W6IW","","null","<img src=""img/flower3.png"" style=""width:200px; border:14px solid green;"">","null","","","","","","","","",""
"","image-keyboard-response","120","70907","0.0-120.0","3LS2AMNW5GCK51ETHY08UZCBE51QOZ","AQJCB00VQVQK0","3XT3KXP24ZKFDDMCDS43FE3AU9W6IW","","985.6999998092651","img/flower3.png","74","986.6000001430511","1","0","2","1","1,0.333,0.333,0.333,1,0.333,0.333,0.333,1","1,0.333,0.333,0.333,1,0.333,0.333,0.333,1","1",""
"","html-keyboard-response","121","71209","0.0-121.0","3LS2AMNW5GCK51ETHY08UZCBE51QOZ","AQJCB00VQVQK0","3XT3KXP24ZKFDDMCDS43FE3AU9W6IW","","null","<img src=""img/flower3.png"" style=""width:200px;border:14px solid red;"">","null","","","","","","","","",""
"","image-keyboard-response","122","71947","0.0-122.0","3LS2AMNW5GCK51ETHY08UZCBE51QOZ","AQJCB00VQVQK0","3XT3KXP24ZKFDDMCDS43FE3AU9W6IW","","737.0999999046326","img/flower2.png","74","737.8999998569489","1","1","1","1","1,0.333,0.333,0.333,1,0.333,0.333,0.333,1","1,0.333,0.333,0.333,1,0.333,0.333,0.333,1","1",""
"","html-keyboard-response","123","72249","0.0-123.0","3LS2AMNW5GCK51ETHY08UZCBE51QOZ","AQJCB00VQVQK0","3XT3KXP24ZKFDDMCDS43FE3AU9W6IW","","null","<img src=""img/flower2.png"" style=""width:200px; border:14px solid green;"">","null","","","","","","","","",""
"","image-keyboard-response","124","72827","0.0-124.0","3LS2AMNW5GCK51ETHY08UZCBE51QOZ","AQJCB00VQVQK0","3XT3KXP24ZKFDDMCDS43FE3AU9W6IW","","576.7999999523163","img/flower3.png","76","577.7000000476837","3","1","2","1","1,0.333,0.333,0.333,1,0.333,0.333,0.333,1","1,0.333,0.333,0.333,1,0.333,0.333,0.333,1","1",""
"","html-keyboard-response","125","73128","0.0-125.0","3LS2AMNW5GCK51ETHY08UZCBE51QOZ","AQJCB00VQVQK0","3XT3KXP24ZKFDDMCDS43FE3AU9W6IW","","null","<img src=""img/flower3.png"" style=""width:200px; border:14px solid green;"">","null","","","","","","","","",""
"","image-keyboard-response","126","73627","0.0-126.0","3LS2AMNW5GCK51ETHY08UZCBE51QOZ","AQJCB00VQVQK0","3XT3KXP24ZKFDDMCDS43FE3AU9W6IW","","497.80000019073486","img/flower3.png","76","498.5","3","0","2","1","1,0.333,0.333,0.333,1,0.333,0.333,0.333,1","1,0.333,0.333,0.333,1,0.333,0.333,0.333,1","1",""
"","html-keyboard-response","127","73928","0.0-127.0","3LS2AMNW5GCK51ETHY08UZCBE51QOZ","AQJCB00VQVQK0","3XT3KXP24ZKFDDMCDS43FE3AU9W6IW","","null","<img src=""img/flower3.png"" style=""width:200px;border:14px solid red;"">","null","","","","","","","","",""
"","image-keyboard-response","128","74459","0.0-128.0","3LS2AMNW5GCK51ETHY08UZCBE51QOZ","AQJCB00VQVQK0","3XT3KXP24ZKFDDMCDS43FE3AU9W6IW","","529.6000001430511","img/flower3.png","76","530.4000000953674","3","0","2","1","1,0.333,0.333,0.333,1,0.333,0.333,0.333,1","1,0.333,0.333,0.333,1,0.333,0.333,0.333,1","1",""
"","html-keyboard-response","129","74760","0.0-129.0","3LS2AMNW5GCK51ETHY08UZCBE51QOZ","AQJCB00VQVQK0","3XT3KXP24ZKFDDMCDS43FE3AU9W6IW","","null","<img src=""img/flower3.png"" style=""width:200px;border:14px solid red;"">","null","","","","","","","","",""
"","image-keyboard-response","130","75451","0.0-130.0","3LS2AMNW5GCK51ETHY08UZCBE51QOZ","AQJCB00VQVQK0","3XT3KXP24ZKFDDMCDS43FE3AU9W6IW","","689.3999998569489","img/flower2.png","74","690.0999999046326","1","1","1","1","1,0.333,0.333,0.333,1,0.333,0.333,0.333,1","1,0.333,0.333,0.333,1,0.333,0.333,0.333,1","1",""
"","html-keyboard-response","131","75752","0.0-131.0","3LS2AMNW5GCK51ETHY08UZCBE51QOZ","AQJCB00VQVQK0","3XT3KXP24ZKFDDMCDS43FE3AU9W6IW","","null","<img src=""img/flower2.png"" style=""width:200px; border:14px solid green;"">","null","","","","","","","","",""
"","image-keyboard-response","132","76387","0.0-132.0","3LS2AMNW5GCK51ETHY08UZCBE51QOZ","AQJCB00VQVQK0","3XT3KXP24ZKFDDMCDS43FE3AU9W6IW","","634","img/flower3.png","76","634.9000000953674","3","1","2","1","1,0.333,0.333,0.333,1,0.333,0.333,0.333,1","1,0.333,0.333,0.333,1,0.333,0.333,0.333,1","1",""
"","html-keyboard-response","133","76688","0.0-133.0","3LS2AMNW5GCK51ETHY08UZCBE51QOZ","AQJCB00VQVQK0","3XT3KXP24ZKFDDMCDS43FE3AU9W6IW","","null","<img src=""img/flower3.png"" style=""width:200px; border:14px solid green;"">","null","","","","","","","","",""
"","image-keyboard-response","134","77147","0.0-134.0","3LS2AMNW5GCK51ETHY08UZCBE51QOZ","AQJCB00VQVQK0","3XT3KXP24ZKFDDMCDS43FE3AU9W6IW","","457.5","img/flower3.png","76","458.2999999523163","3","0","2","1","1,0.333,0.333,0.333,1,0.333,0.333,0.333,1","1,0.333,0.333,0.333,1,0.333,0.333,0.333,1","1",""
"","html-keyboard-response","135","77448","0.0-135.0","3LS2AMNW5GCK51ETHY08UZCBE51QOZ","AQJCB00VQVQK0","3XT3KXP24ZKFDDMCDS43FE3AU9W6IW","","null","<img src=""img/flower3.png"" style=""width:200px;border:14px solid red;"">","null","","","","","","","","",""
"","image-keyboard-response","136","78123","0.0-136.0","3LS2AMNW5GCK51ETHY08UZCBE51QOZ","AQJCB00VQVQK0","3XT3KXP24ZKFDDMCDS43FE3AU9W6IW","","674.1000001430511","img/flower2.png","74","674.7999999523163","1","1","1","1","1,0.333,0.333,0.333,1,0.333,0.333,0.333,1","1,0.333,0.333,0.333,1,0.333,0.333,0.333,1","1",""
"","html-keyboard-response","137","78424","0.0-137.0","3LS2AMNW5GCK51ETHY08UZCBE51QOZ","AQJCB00VQVQK0","3XT3KXP24ZKFDDMCDS43FE3AU9W6IW","","null","<img src=""img/flower2.png"" style=""width:200px; border:14px solid green;"">","null","","","","","","","","",""
"","image-keyboard-response","138","78995","0.0-138.0","3LS2AMNW5GCK51ETHY08UZCBE51QOZ","AQJCB00VQVQK0","3XT3KXP24ZKFDDMCDS43FE3AU9W6IW","","569.4000000953674","img/flower4.png","75","570.3999998569489","2","0","3","1","1,0.333,0.333,0.333,1,0.333,0.333,0.333,1","1,0.333,0.333,0.333,1,0.333,0.333,0.333,1","1",""
"","html-keyboard-response","139","79296","0.0-139.0","3LS2AMNW5GCK51ETHY08UZCBE51QOZ","AQJCB00VQVQK0","3XT3KXP24ZKFDDMCDS43FE3AU9W6IW","","null","<img src=""img/flower4.png"" style=""width:200px;border:14px solid red;"">","null","","","","","","","","",""
"","image-keyboard-response","140","79811","0.0-140.0","3LS2AMNW5GCK51ETHY08UZCBE51QOZ","AQJCB00VQVQK0","3XT3KXP24ZKFDDMCDS43FE3AU9W6IW","","513.5","img/flower2.png","76","514.2999999523163","3","0","1","1","1,0.333,0.333,0.333,1,0.333,0.333,0.333,1","1,0.333,0.333,0.333,1,0.333,0.333,0.333,1","1",""
"","html-keyboard-response","141","80112","0.0-141.0","3LS2AMNW5GCK51ETHY08UZCBE51QOZ","AQJCB00VQVQK0","3XT3KXP24ZKFDDMCDS43FE3AU9W6IW","","null","<img src=""img/flower2.png"" style=""width:200px;border:14px solid red;"">","null","","","","","","","","",""
"","image-keyboard-response","142","80784","0.0-142.0","3LS2AMNW5GCK51ETHY08UZCBE51QOZ","AQJCB00VQVQK0","3XT3KXP24ZKFDDMCDS43FE3AU9W6IW","","670.5","img/flower3.png","76","671.4000000953674","3","1","2","1","1,0.333,0.333,0.333,1,0.333,0.333,0.333,1","1,0.333,0.333,0.333,1,0.333,0.333,0.333,1","1",""
"","html-keyboard-response","143","81086","0.0-143.0","3LS2AMNW5GCK51ETHY08UZCBE51QOZ","AQJCB00VQVQK0","3XT3KXP24ZKFDDMCDS43FE3AU9W6IW","","null","<img src=""img/flower3.png"" style=""width:200px; border:14px solid green;"">","null","","","","","","","","",""
"","image-keyboard-response","144","81643","0.0-144.0","3LS2AMNW5GCK51ETHY08UZCBE51QOZ","AQJCB00VQVQK0","3XT3KXP24ZKFDDMCDS43FE3AU9W6IW","","555.4000000953674","img/flower4.png","75","556.2000000476837","2","1","3","1","1,0.333,0.333,0.333,1,0.333,0.333,0.333,1","1,0.333,0.333,0.333,1,0.333,0.333,0.333,1","1",""
"","html-keyboard-response","145","81944","0.0-145.0","3LS2AMNW5GCK51ETHY08UZCBE51QOZ","AQJCB00VQVQK0","3XT3KXP24ZKFDDMCDS43FE3AU9W6IW","","null","<img src=""img/flower4.png"" style=""width:200px; border:14px solid green;"">","null","","","","","","","","",""
"","image-keyboard-response","146","82394","0.0-146.0","3LS2AMNW5GCK51ETHY08UZCBE51QOZ","AQJCB00VQVQK0","3XT3KXP24ZKFDDMCDS43FE3AU9W6IW","","449.39999985694885","img/flower4.png","75","450.30000019073486","2","0","3","1","1,0.333,0.333,0.333,1,0.333,0.333,0.333,1","1,0.333,0.333,0.333,1,0.333,0.333,0.333,1","1",""
"","html-keyboard-response","147","82697","0.0-147.0","3LS2AMNW5GCK51ETHY08UZCBE51QOZ","AQJCB00VQVQK0","3XT3KXP24ZKFDDMCDS43FE3AU9W6IW","","null","<img src=""img/flower4.png"" style=""width:200px;border:14px solid red;"">","null","","","","","","","","",""
"","image-keyboard-response","148","83098","0.0-148.0","3LS2AMNW5GCK51ETHY08UZCBE51QOZ","AQJCB00VQVQK0","3XT3KXP24ZKFDDMCDS43FE3AU9W6IW","","400.7000000476837","img/flower4.png","75","401.5","2","0","3","1","1,0.333,0.333,0.333,1,0.333,0.333,0.333,1","1,0.333,0.333,0.333,1,0.333,0.333,0.333,1","1",""
"","html-keyboard-response","149","83400","0.0-149.0","3LS2AMNW5GCK51ETHY08UZCBE51QOZ","AQJCB00VQVQK0","3XT3KXP24ZKFDDMCDS43FE3AU9W6IW","","null","<img src=""img/flower4.png"" style=""width:200px;border:14px solid red;"">","null","","","","","","","","",""
"","image-keyboard-response","150","83882","0.0-150.0","3LS2AMNW5GCK51ETHY08UZCBE51QOZ","AQJCB00VQVQK0","3XT3KXP24ZKFDDMCDS43FE3AU9W6IW","","481.2999999523163","img/flower2.png","74","481.90000009536743","1","1","1","1","1,0.333,0.333,0.333,1,0.333,0.333,0.333,1","1,0.333,0.333,0.333,1,0.333,0.333,0.333,1","1",""
"","html-keyboard-response","151","84184","0.0-151.0","3LS2AMNW5GCK51ETHY08UZCBE51QOZ","AQJCB00VQVQK0","3XT3KXP24ZKFDDMCDS43FE3AU9W6IW","","null","<img src=""img/flower2.png"" style=""width:200px; border:14px solid green;"">","null","","","","","","","","",""
"","image-keyboard-response","152","84914","0.0-152.0","3LS2AMNW5GCK51ETHY08UZCBE51QOZ","AQJCB00VQVQK0","3XT3KXP24ZKFDDMCDS43FE3AU9W6IW","","729.3999998569489","img/flower4.png","75","730.2999999523163","2","0","3","1","1,0.333,0.333,0.333,1,0.333,0.333,0.333,1","1,0.333,0.333,0.333,1,0.333,0.333,0.333,1","1",""
"","html-keyboard-response","153","85216","0.0-153.0","3LS2AMNW5GCK51ETHY08UZCBE51QOZ","AQJCB00VQVQK0","3XT3KXP24ZKFDDMCDS43FE3AU9W6IW","","null","<img src=""img/flower4.png"" style=""width:200px;border:14px solid red;"">","null","","","","","","","","",""
"","image-keyboard-response","154","85611","0.0-154.0","3LS2AMNW5GCK51ETHY08UZCBE51QOZ","AQJCB00VQVQK0","3XT3KXP24ZKFDDMCDS43FE3AU9W6IW","","393.5","img/flower4.png","75","394.40000009536743","2","0","3","1","1,0.333,0.333,0.333,1,0.333,0.333,0.333,1","1,0.333,0.333,0.333,1,0.333,0.333,0.333,1","1",""
"","html-keyboard-response","155","85912","0.0-155.0","3LS2AMNW5GCK51ETHY08UZCBE51QOZ","AQJCB00VQVQK0","3XT3KXP24ZKFDDMCDS43FE3AU9W6IW","","null","<img src=""img/flower4.png"" style=""width:200px;border:14px solid red;"">","null","","","","","","","","",""
"","image-keyboard-response","156","86482","0.0-156.0","3LS2AMNW5GCK51ETHY08UZCBE51QOZ","AQJCB00VQVQK0","3XT3KXP24ZKFDDMCDS43FE3AU9W6IW","","569.8999998569489","img/flower2.png","74","570.7000000476837","1","1","1","1","1,0.333,0.333,0.333,1,0.333,0.333,0.333,1","1,0.333,0.333,0.333,1,0.333,0.333,0.333,1","1",""
"","html-keyboard-response","157","86784","0.0-157.0","3LS2AMNW5GCK51ETHY08UZCBE51QOZ","AQJCB00VQVQK0","3XT3KXP24ZKFDDMCDS43FE3AU9W6IW","","null","<img src=""img/flower2.png"" style=""width:200px; border:14px solid green;"">","null","","","","","","","","",""
"","image-keyboard-response","158","87386","0.0-158.0","3LS2AMNW5GCK51ETHY08UZCBE51QOZ","AQJCB00VQVQK0","3XT3KXP24ZKFDDMCDS43FE3AU9W6IW","","601.0999999046326","img/flower3.png","76","601.9000000953674","3","1","2","1","1,0.333,0.333,0.333,1,0.333,0.333,0.333,1","1,0.333,0.333,0.333,1,0.333,0.333,0.333,1","1",""
"","html-keyboard-response","159","87688","0.0-159.0","3LS2AMNW5GCK51ETHY08UZCBE51QOZ","AQJCB00VQVQK0","3XT3KXP24ZKFDDMCDS43FE3AU9W6IW","","null","<img src=""img/flower3.png"" style=""width:200px; border:14px solid green;"">","null","","","","","","","","",""
"","image-keyboard-response","160","88266","0.0-160.0","3LS2AMNW5GCK51ETHY08UZCBE51QOZ","AQJCB00VQVQK0","3XT3KXP24ZKFDDMCDS43FE3AU9W6IW","","577.9000000953674","img/flower4.png","75","578.7000000476837","2","1","3","1","1,0.333,0.333,0.333,1,0.333,0.333,0.333,1","1,0.333,0.333,0.333,1,0.333,0.333,0.333,1","1",""
"","html-keyboard-response","161","88567","0.0-161.0","3LS2AMNW5GCK51ETHY08UZCBE51QOZ","AQJCB00VQVQK0","3XT3KXP24ZKFDDMCDS43FE3AU9W6IW","","null","<img src=""img/flower4.png"" style=""width:200px; border:14px solid green;"">","null","","","","","","","","",""
"","image-keyboard-response","162","89042","0.0-162.0","3LS2AMNW5GCK51ETHY08UZCBE51QOZ","AQJCB00VQVQK0","3XT3KXP24ZKFDDMCDS43FE3AU9W6IW","","474","img/flower4.png","75","474.7000000476837","2","0","3","1","1,0.333,0.333,0.333,1,0.333,0.333,0.333,1","1,0.333,0.333,0.333,1,0.333,0.333,0.333,1","1",""
"","html-keyboard-response","163","89343","0.0-163.0","3LS2AMNW5GCK51ETHY08UZCBE51QOZ","AQJCB00VQVQK0","3XT3KXP24ZKFDDMCDS43FE3AU9W6IW","","null","<img src=""img/flower4.png"" style=""width:200px;border:14px solid red;"">","null","","","","","","","","",""
"","image-keyboard-response","164","89946","0.0-164.0","3LS2AMNW5GCK51ETHY08UZCBE51QOZ","AQJCB00VQVQK0","3XT3KXP24ZKFDDMCDS43FE3AU9W6IW","","602.0999999046326","img/flower3.png","76","603","3","0","2","1","1,0.333,0.333,0.333,1,0.333,0.333,0.333,1","1,0.333,0.333,0.333,1,0.333,0.333,0.333,1","1",""
"","html-keyboard-response","165","90248","0.0-165.0","3LS2AMNW5GCK51ETHY08UZCBE51QOZ","AQJCB00VQVQK0","3XT3KXP24ZKFDDMCDS43FE3AU9W6IW","","null","<img src=""img/flower3.png"" style=""width:200px;border:14px solid red;"">","null","","","","","","","","",""
"","image-keyboard-response","166","90874","0.0-166.0","3LS2AMNW5GCK51ETHY08UZCBE51QOZ","AQJCB00VQVQK0","3XT3KXP24ZKFDDMCDS43FE3AU9W6IW","","625.7000000476837","img/flower2.png","74","626.6000001430511","1","1","1","1","1,0.333,0.333,0.333,1,0.333,0.333,0.333,1","1,0.333,0.333,0.333,1,0.333,0.333,0.333,1","1",""
"","html-keyboard-response","167","91176","0.0-167.0","3LS2AMNW5GCK51ETHY08UZCBE51QOZ","AQJCB00VQVQK0","3XT3KXP24ZKFDDMCDS43FE3AU9W6IW","","null","<img src=""img/flower2.png"" style=""width:200px; border:14px solid green;"">","null","","","","","","","","",""
"","image-keyboard-response","168","91642","0.0-168.0","3LS2AMNW5GCK51ETHY08UZCBE51QOZ","AQJCB00VQVQK0","3XT3KXP24ZKFDDMCDS43FE3AU9W6IW","","465.5","img/flower2.png","74","466.40000009536743","1","1","1","1","1,0.333,0.333,0.333,1,0.333,0.333,0.333,1","1,0.333,0.333,0.333,1,0.333,0.333,0.333,1","1",""
"","html-keyboard-response","169","91945","0.0-169.0","3LS2AMNW5GCK51ETHY08UZCBE51QOZ","AQJCB00VQVQK0","3XT3KXP24ZKFDDMCDS43FE3AU9W6IW","","null","<img src=""img/flower2.png"" style=""width:200px; border:14px solid green;"">","null","","","","","","","","",""
"","image-keyboard-response","170","92378","0.0-170.0","3LS2AMNW5GCK51ETHY08UZCBE51QOZ","AQJCB00VQVQK0","3XT3KXP24ZKFDDMCDS43FE3AU9W6IW","","433","img/flower2.png","74","433.7999999523163","1","1","1","1","1,0.333,0.333,0.333,1,0.333,0.333,0.333,1","1,0.333,0.333,0.333,1,0.333,0.333,0.333,1","1",""
"","html-keyboard-response","171","92681","0.0-171.0","3LS2AMNW5GCK51ETHY08UZCBE51QOZ","AQJCB00VQVQK0","3XT3KXP24ZKFDDMCDS43FE3AU9W6IW","","null","<img src=""img/flower2.png"" style=""width:200px; border:14px solid green;"">","null","","","","","","","","",""
"","image-keyboard-response","172","93426","0.0-172.0","3LS2AMNW5GCK51ETHY08UZCBE51QOZ","AQJCB00VQVQK0","3XT3KXP24ZKFDDMCDS43FE3AU9W6IW","","744.5999999046326","img/flower3.png","76","745.4000000953674","3","1","2","1","1,0.333,0.333,0.333,1,0.333,0.333,0.333,1","1,0.333,0.333,0.333,1,0.333,0.333,0.333,1","1",""
"","html-keyboard-response","173","93728","0.0-173.0","3LS2AMNW5GCK51ETHY08UZCBE51QOZ","AQJCB00VQVQK0","3XT3KXP24ZKFDDMCDS43FE3AU9W6IW","","null","<img src=""img/flower3.png"" style=""width:200px; border:14px solid green;"">","null","","","","","","","","",""
"","image-keyboard-response","174","94186","0.0-174.0","3LS2AMNW5GCK51ETHY08UZCBE51QOZ","AQJCB00VQVQK0","3XT3KXP24ZKFDDMCDS43FE3AU9W6IW","","457.09999990463257","img/flower3.png","76","458","3","0","2","1","1,0.333,0.333,0.333,1,0.333,0.333,0.333,1","1,0.333,0.333,0.333,1,0.333,0.333,0.333,1","1",""
"","html-keyboard-response","175","94488","0.0-175.0","3LS2AMNW5GCK51ETHY08UZCBE51QOZ","AQJCB00VQVQK0","3XT3KXP24ZKFDDMCDS43FE3AU9W6IW","","null","<img src=""img/flower3.png"" style=""width:200px;border:14px solid red;"">","null","","","","","","","","",""
"","image-keyboard-response","176","95362","0.0-176.0","3LS2AMNW5GCK51ETHY08UZCBE51QOZ","AQJCB00VQVQK0","3XT3KXP24ZKFDDMCDS43FE3AU9W6IW","","873.2999999523163","img/flower2.png","74","874.2000000476837","1","1","1","1","1,0.333,0.333,0.333,1,0.333,0.333,0.333,1","1,0.333,0.333,0.333,1,0.333,0.333,0.333,1","1",""
"","html-keyboard-response","177","95664","0.0-177.0","3LS2AMNW5GCK51ETHY08UZCBE51QOZ","AQJCB00VQVQK0","3XT3KXP24ZKFDDMCDS43FE3AU9W6IW","","null","<img src=""img/flower2.png"" style=""width:200px; border:14px solid green;"">","null","","","","","","","","",""
"","image-keyboard-response","178","96066","0.0-178.0","3LS2AMNW5GCK51ETHY08UZCBE51QOZ","AQJCB00VQVQK0","3XT3KXP24ZKFDDMCDS43FE3AU9W6IW","","401.2000000476837","img/flower2.png","74","402.10000014305115","1","1","1","1","1,0.333,0.333,0.333,1,0.333,0.333,0.333,1","1,0.333,0.333,0.333,1,0.333,0.333,0.333,1","1",""
"","html-keyboard-response","179","96368","0.0-179.0","3LS2AMNW5GCK51ETHY08UZCBE51QOZ","AQJCB00VQVQK0","3XT3KXP24ZKFDDMCDS43FE3AU9W6IW","","null","<img src=""img/flower2.png"" style=""width:200px; border:14px solid green;"">","null","","","","","","","","",""
"","image-keyboard-response","180","96875","0.0-180.0","3LS2AMNW5GCK51ETHY08UZCBE51QOZ","AQJCB00VQVQK0","3XT3KXP24ZKFDDMCDS43FE3AU9W6IW","","506","img/flower4.png","75","506.7999999523163","2","0","3","1","1,0.333,0.333,0.333,1,0.333,0.333,0.333,1","1,0.333,0.333,0.333,1,0.333,0.333,0.333,1","1",""
"","html-keyboard-response","181","97176","0.0-181.0","3LS2AMNW5GCK51ETHY08UZCBE51QOZ","AQJCB00VQVQK0","3XT3KXP24ZKFDDMCDS43FE3AU9W6IW","","null","<img src=""img/flower4.png"" style=""width:200px;border:14px solid red;"">","null","","","","","","","","",""
"","html-keyboard-response","182","139104","0.0-182.0","3LS2AMNW5GCK51ETHY08UZCBE51QOZ","AQJCB00VQVQK0","3XT3KXP24ZKFDDMCDS43FE3AU9W6IW","","","","","","","","","","","","",""
"","image-keyboard-response","183","141106","0.0-183.0","3LS2AMNW5GCK51ETHY08UZCBE51QOZ","AQJCB00VQVQK0","3XT3KXP24ZKFDDMCDS43FE3AU9W6IW","","","img/flower5.png","","2002","-1","0","3","2","1,0,0,1,1,0,1,0,1","0,1,0,0,1,1,1,1,0","3",""
"","html-keyboard-response","184","141407","0.0-184.0","3LS2AMNW5GCK51ETHY08UZCBE51QOZ","AQJCB00VQVQK0","3XT3KXP24ZKFDDMCDS43FE3AU9W6IW","","null","<img src=""img/flower5.png"" style=""width:200px;border:14px solid red;"">","null","","","","","","","","",""
"","image-keyboard-response","185","142162","0.0-185.0","3LS2AMNW5GCK51ETHY08UZCBE51QOZ","AQJCB00VQVQK0","3XT3KXP24ZKFDDMCDS43FE3AU9W6IW","","753.8999998569489","img/flower5.png","75","754.5999999046326","2","1","3","2","1,0,0,1,1,0,1,0,1","0,1,0,0,1,1,1,1,0","3",""
"","html-keyboard-response","186","142464","0.0-186.0","3LS2AMNW5GCK51ETHY08UZCBE51QOZ","AQJCB00VQVQK0","3XT3KXP24ZKFDDMCDS43FE3AU9W6IW","","null","<img src=""img/flower5.png"" style=""width:200px; border:14px solid green;"">","null","","","","","","","","",""
"","image-keyboard-response","187","143290","0.0-187.0","3LS2AMNW5GCK51ETHY08UZCBE51QOZ","AQJCB00VQVQK0","3XT3KXP24ZKFDDMCDS43FE3AU9W6IW","","825.2000000476837","img/flower6.png","76","826.0999999046326","3","0","1","2","1,0,0,1,1,0,1,0,1","0,1,0,0,1,1,1,1,0","3",""
"","html-keyboard-response","188","143592","0.0-188.0","3LS2AMNW5GCK51ETHY08UZCBE51QOZ","AQJCB00VQVQK0","3XT3KXP24ZKFDDMCDS43FE3AU9W6IW","","null","<img src=""img/flower6.png"" style=""width:200px;border:14px solid red;"">","null","","","","","","","","",""
"","image-keyboard-response","189","144378","0.0-189.0","3LS2AMNW5GCK51ETHY08UZCBE51QOZ","AQJCB00VQVQK0","3XT3KXP24ZKFDDMCDS43FE3AU9W6IW","","785.1000001430511","img/flower6.png","76","786","3","0","1","2","1,0,0,1,1,0,1,0,1","0,1,0,0,1,1,1,1,0","3",""
"","html-keyboard-response","190","144679","0.0-190.0","3LS2AMNW5GCK51ETHY08UZCBE51QOZ","AQJCB00VQVQK0","3XT3KXP24ZKFDDMCDS43FE3AU9W6IW","","null","<img src=""img/flower6.png"" style=""width:200px;border:14px solid red;"">","null","","","","","","","","",""
"","image-keyboard-response","191","145306","0.0-191.0","3LS2AMNW5GCK51ETHY08UZCBE51QOZ","AQJCB00VQVQK0","3XT3KXP24ZKFDDMCDS43FE3AU9W6IW","","626.2000000476837","img/flower6.png","76","627","3","0","1","2","1,0,0,1,1,0,1,0,1","0,1,0,0,1,1,1,1,0","3",""
"","html-keyboard-response","192","145608","0.0-192.0","3LS2AMNW5GCK51ETHY08UZCBE51QOZ","AQJCB00VQVQK0","3XT3KXP24ZKFDDMCDS43FE3AU9W6IW","","null","<img src=""img/flower6.png"" style=""width:200px;border:14px solid red;"">","null","","","","","","","","",""
"","image-keyboard-response","193","146162","0.0-193.0","3LS2AMNW5GCK51ETHY08UZCBE51QOZ","AQJCB00VQVQK0","3XT3KXP24ZKFDDMCDS43FE3AU9W6IW","","552.9000000953674","img/flower6.png","76","553.7000000476837","3","0","1","2","1,0,0,1,1,0,1,0,1","0,1,0,0,1,1,1,1,0","3",""
"","html-keyboard-response","194","146463","0.0-194.0","3LS2AMNW5GCK51ETHY08UZCBE51QOZ","AQJCB00VQVQK0","3XT3KXP24ZKFDDMCDS43FE3AU9W6IW","","null","<img src=""img/flower6.png"" style=""width:200px;border:14px solid red;"">","null","","","","","","","","",""
"","image-keyboard-response","195","146898","0.0-195.0","3LS2AMNW5GCK51ETHY08UZCBE51QOZ","AQJCB00VQVQK0","3XT3KXP24ZKFDDMCDS43FE3AU9W6IW","","433.40000009536743","img/flower6.png","74","434.2000000476837","1","0","1","2","1,0,0,1,1,0,1,0,1","0,1,0,0,1,1,1,1,0","3",""
"","html-keyboard-response","196","147199","0.0-196.0","3LS2AMNW5GCK51ETHY08UZCBE51QOZ","AQJCB00VQVQK0","3XT3KXP24ZKFDDMCDS43FE3AU9W6IW","","null","<img src=""img/flower6.png"" style=""width:200px;border:14px solid red;"">","null","","","","","","","","",""
"","image-keyboard-response","197","148218","0.0-197.0","3LS2AMNW5GCK51ETHY08UZCBE51QOZ","AQJCB00VQVQK0","3XT3KXP24ZKFDDMCDS43FE3AU9W6IW","","1017.8999998569489","img/flower5.png","74","1018.6999998092651","1","1","3","2","1,0,0,1,1,0,1,0,1","0,1,0,0,1,1,1,1,0","3",""
"","html-keyboard-response","198","148520","0.0-198.0","3LS2AMNW5GCK51ETHY08UZCBE51QOZ","AQJCB00VQVQK0","3XT3KXP24ZKFDDMCDS43FE3AU9W6IW","","null","<img src=""img/flower5.png"" style=""width:200px; border:14px solid green;"">","null","","","","","","","","",""
"","image-keyboard-response","199","149250","0.0-199.0","3LS2AMNW5GCK51ETHY08UZCBE51QOZ","AQJCB00VQVQK0","3XT3KXP24ZKFDDMCDS43FE3AU9W6IW","","729.3999998569489","img/flower6.png","76","730.2000000476837","3","0","1","2","1,0,0,1,1,0,1,0,1","0,1,0,0,1,1,1,1,0","3",""
"","html-keyboard-response","200","149552","0.0-200.0","3LS2AMNW5GCK51ETHY08UZCBE51QOZ","AQJCB00VQVQK0","3XT3KXP24ZKFDDMCDS43FE3AU9W6IW","","null","<img src=""img/flower6.png"" style=""width:200px;border:14px solid red;"">","null","","","","","","","","",""
"","image-keyboard-response","201","149890","0.0-201.0","3LS2AMNW5GCK51ETHY08UZCBE51QOZ","AQJCB00VQVQK0","3XT3KXP24ZKFDDMCDS43FE3AU9W6IW","","337","img/flower5.png","75","337.7999999523163","2","1","3","2","1,0,0,1,1,0,1,0,1","0,1,0,0,1,1,1,1,0","3",""
"","html-keyboard-response","202","150192","0.0-202.0","3LS2AMNW5GCK51ETHY08UZCBE51QOZ","AQJCB00VQVQK0","3XT3KXP24ZKFDDMCDS43FE3AU9W6IW","","null","<img src=""img/flower5.png"" style=""width:200px; border:14px solid green;"">","null","","","","","","","","",""
"","image-keyboard-response","203","150802","0.0-203.0","3LS2AMNW5GCK51ETHY08UZCBE51QOZ","AQJCB00VQVQK0","3XT3KXP24ZKFDDMCDS43FE3AU9W6IW","","609","img/flower5.png","75","609.7000000476837","2","1","3","2","1,0,0,1,1,0,1,0,1","0,1,0,0,1,1,1,1,0","3",""
"","html-keyboard-response","204","151103","0.0-204.0","3LS2AMNW5GCK51ETHY08UZCBE51QOZ","AQJCB00VQVQK0","3XT3KXP24ZKFDDMCDS43FE3AU9W6IW","","null","<img src=""img/flower5.png"" style=""width:200px; border:14px solid green;"">","null","","","","","","","","",""
"","image-keyboard-response","205","151938","0.0-205.0","3LS2AMNW5GCK51ETHY08UZCBE51QOZ","AQJCB00VQVQK0","3XT3KXP24ZKFDDMCDS43FE3AU9W6IW","","833.7999999523163","img/flower1.png","74","834.5","1","0","2","2","1,0,0,1,1,0,1,0,1","0,1,0,0,1,1,1,1,0","3",""
"","html-keyboard-response","206","152252","0.0-206.0","3LS2AMNW5GCK51ETHY08UZCBE51QOZ","AQJCB00VQVQK0","3XT3KXP24ZKFDDMCDS43FE3AU9W6IW","","null","<img src=""img/flower1.png"" style=""width:200px;border:14px solid red;"">","null","","","","","","","","",""
"","image-keyboard-response","207","153058","0.0-207.0","3LS2AMNW5GCK51ETHY08UZCBE51QOZ","AQJCB00VQVQK0","3XT3KXP24ZKFDDMCDS43FE3AU9W6IW","","805.0999999046326","img/flower5.png","75","806","2","1","3","2","1,0,0,1,1,0,1,0,1","0,1,0,0,1,1,1,1,0","3",""
"","html-keyboard-response","208","153359","0.0-208.0","3LS2AMNW5GCK51ETHY08UZCBE51QOZ","AQJCB00VQVQK0","3XT3KXP24ZKFDDMCDS43FE3AU9W6IW","","null","<img src=""img/flower5.png"" style=""width:200px; border:14px solid green;"">","null","","","","","","","","",""
"","image-keyboard-response","209","153906","0.0-209.0","3LS2AMNW5GCK51ETHY08UZCBE51QOZ","AQJCB00VQVQK0","3XT3KXP24ZKFDDMCDS43FE3AU9W6IW","","545.6999998092651","img/flower5.png","75","546.4000000953674","2","1","3","2","1,0,0,1,1,0,1,0,1","0,1,0,0,1,1,1,1,0","3",""
"","html-keyboard-response","210","154207","0.0-210.0","3LS2AMNW5GCK51ETHY08UZCBE51QOZ","AQJCB00VQVQK0","3XT3KXP24ZKFDDMCDS43FE3AU9W6IW","","null","<img src=""img/flower5.png"" style=""width:200px; border:14px solid green;"">","null","","","","","","","","",""
"","image-keyboard-response","211","155313","0.0-211.0","3LS2AMNW5GCK51ETHY08UZCBE51QOZ","AQJCB00VQVQK0","3XT3KXP24ZKFDDMCDS43FE3AU9W6IW","","1105.5999999046326","img/flower1.png","76","1106.3999998569489","3","1","2","2","1,0,0,1,1,0,1,0,1","0,1,0,0,1,1,1,1,0","3",""
"","html-keyboard-response","212","155616","0.0-212.0","3LS2AMNW5GCK51ETHY08UZCBE51QOZ","AQJCB00VQVQK0","3XT3KXP24ZKFDDMCDS43FE3AU9W6IW","","null","<img src=""img/flower1.png"" style=""width:200px; border:14px solid green;"">","null","","","","","","","","",""
"","image-keyboard-response","213","156394","0.0-213.0","3LS2AMNW5GCK51ETHY08UZCBE51QOZ","AQJCB00VQVQK0","3XT3KXP24ZKFDDMCDS43FE3AU9W6IW","","776.4000000953674","img/flower6.png","74","777.2000000476837","1","0","1","2","1,0,0,1,1,0,1,0,1","0,1,0,0,1,1,1,1,0","3",""
"","html-keyboard-response","214","156696","0.0-214.0","3LS2AMNW5GCK51ETHY08UZCBE51QOZ","AQJCB00VQVQK0","3XT3KXP24ZKFDDMCDS43FE3AU9W6IW","","null","<img src=""img/flower6.png"" style=""width:200px;border:14px solid red;"">","null","","","","","","","","",""
"","image-keyboard-response","215","157722","0.0-215.0","3LS2AMNW5GCK51ETHY08UZCBE51QOZ","AQJCB00VQVQK0","3XT3KXP24ZKFDDMCDS43FE3AU9W6IW","","1025","img/flower1.png","76","1025.7999999523163","3","1","2","2","1,0,0,1,1,0,1,0,1","0,1,0,0,1,1,1,1,0","3",""
"","html-keyboard-response","216","158023","0.0-216.0","3LS2AMNW5GCK51ETHY08UZCBE51QOZ","AQJCB00VQVQK0","3XT3KXP24ZKFDDMCDS43FE3AU9W6IW","","null","<img src=""img/flower1.png"" style=""width:200px; border:14px solid green;"">","null","","","","","","","","",""
"","image-keyboard-response","217","159002","0.0-217.0","3LS2AMNW5GCK51ETHY08UZCBE51QOZ","AQJCB00VQVQK0","3XT3KXP24ZKFDDMCDS43FE3AU9W6IW","","977.1999998092651","img/flower6.png","74","978.0999999046326","1","0","1","2","1,0,0,1,1,0,1,0,1","0,1,0,0,1,1,1,1,0","3",""
"","html-keyboard-response","218","159304","0.0-218.0","3LS2AMNW5GCK51ETHY08UZCBE51QOZ","AQJCB00VQVQK0","3XT3KXP24ZKFDDMCDS43FE3AU9W6IW","","null","<img src=""img/flower6.png"" style=""width:200px;border:14px solid red;"">","null","","","","","","","","",""
"","image-keyboard-response","219","160306","0.0-219.0","3LS2AMNW5GCK51ETHY08UZCBE51QOZ","AQJCB00VQVQK0","3XT3KXP24ZKFDDMCDS43FE3AU9W6IW","","1001.2000000476837","img/flower5.png","75","1002.0999999046326","2","1","3","2","1,0,0,1,1,0,1,0,1","0,1,0,0,1,1,1,1,0","3",""
"","html-keyboard-response","220","160608","0.0-220.0","3LS2AMNW5GCK51ETHY08UZCBE51QOZ","AQJCB00VQVQK0","3XT3KXP24ZKFDDMCDS43FE3AU9W6IW","","null","<img src=""img/flower5.png"" style=""width:200px; border:14px solid green;"">","null","","","","","","","","",""
"","image-keyboard-response","221","161401","0.0-221.0","3LS2AMNW5GCK51ETHY08UZCBE51QOZ","AQJCB00VQVQK0","3XT3KXP24ZKFDDMCDS43FE3AU9W6IW","","792.5","img/flower6.png","74","793.2999999523163","1","0","1","2","1,0,0,1,1,0,1,0,1","0,1,0,0,1,1,1,1,0","3",""
"","html-keyboard-response","222","161703","0.0-222.0","3LS2AMNW5GCK51ETHY08UZCBE51QOZ","AQJCB00VQVQK0","3XT3KXP24ZKFDDMCDS43FE3AU9W6IW","","null","<img src=""img/flower6.png"" style=""width:200px;border:14px solid red;"">","null","","","","","","","","",""
"","image-keyboard-response","223","162665","0.0-223.0","3LS2AMNW5GCK51ETHY08UZCBE51QOZ","AQJCB00VQVQK0","3XT3KXP24ZKFDDMCDS43FE3AU9W6IW","","961.4000000953674","img/flower6.png","76","962.2000000476837","3","0","1","2","1,0,0,1,1,0,1,0,1","0,1,0,0,1,1,1,1,0","3",""
"","html-keyboard-response","224","162967","0.0-224.0","3LS2AMNW5GCK51ETHY08UZCBE51QOZ","AQJCB00VQVQK0","3XT3KXP24ZKFDDMCDS43FE3AU9W6IW","","null","<img src=""img/flower6.png"" style=""width:200px;border:14px solid red;"">","null","","","","","","","","",""
"","image-keyboard-response","225","163906","0.0-225.0","3LS2AMNW5GCK51ETHY08UZCBE51QOZ","AQJCB00VQVQK0","3XT3KXP24ZKFDDMCDS43FE3AU9W6IW","","937.2999999523163","img/flower5.png","75","938.1000001430511","2","1","3","2","1,0,0,1,1,0,1,0,1","0,1,0,0,1,1,1,1,0","3",""
"","html-keyboard-response","226","164207","0.0-226.0","3LS2AMNW5GCK51ETHY08UZCBE51QOZ","AQJCB00VQVQK0","3XT3KXP24ZKFDDMCDS43FE3AU9W6IW","","null","<img src=""img/flower5.png"" style=""width:200px; border:14px solid green;"">","null","","","","","","","","",""
"","image-keyboard-response","227","164937","0.0-227.0","3LS2AMNW5GCK51ETHY08UZCBE51QOZ","AQJCB00VQVQK0","3XT3KXP24ZKFDDMCDS43FE3AU9W6IW","","729.6000001430511","img/flower6.png","74","730.5","1","0","1","2","1,0,0,1,1,0,1,0,1","0,1,0,0,1,1,1,1,0","3",""
"","html-keyboard-response","228","165238","0.0-228.0","3LS2AMNW5GCK51ETHY08UZCBE51QOZ","AQJCB00VQVQK0","3XT3KXP24ZKFDDMCDS43FE3AU9W6IW","","null","<img src=""img/flower6.png"" style=""width:200px;border:14px solid red;"">","null","","","","","","","","",""
"","image-keyboard-response","229","165778","0.0-229.0","3LS2AMNW5GCK51ETHY08UZCBE51QOZ","AQJCB00VQVQK0","3XT3KXP24ZKFDDMCDS43FE3AU9W6IW","","538.2999999523163","img/flower6.png","76","539.0999999046326","3","0","1","2","1,0,0,1,1,0,1,0,1","0,1,0,0,1,1,1,1,0","3",""
"","html-keyboard-response","230","166079","0.0-230.0","3LS2AMNW5GCK51ETHY08UZCBE51QOZ","AQJCB00VQVQK0","3XT3KXP24ZKFDDMCDS43FE3AU9W6IW","","null","<img src=""img/flower6.png"" style=""width:200px;border:14px solid red;"">","null","","","","","","","","",""
"","image-keyboard-response","231","166930","0.0-231.0","3LS2AMNW5GCK51ETHY08UZCBE51QOZ","AQJCB00VQVQK0","3XT3KXP24ZKFDDMCDS43FE3AU9W6IW","","849.3999998569489","img/flower1.png","75","850.2000000476837","2","1","2","2","1,0,0,1,1,0,1,0,1","0,1,0,0,1,1,1,1,0","3",""
"","html-keyboard-response","232","167232","0.0-232.0","3LS2AMNW5GCK51ETHY08UZCBE51QOZ","AQJCB00VQVQK0","3XT3KXP24ZKFDDMCDS43FE3AU9W6IW","","null","<img src=""img/flower1.png"" style=""width:200px; border:14px solid green;"">","null","","","","","","","","",""
"","image-keyboard-response","233","167785","0.0-233.0","3LS2AMNW5GCK51ETHY08UZCBE51QOZ","AQJCB00VQVQK0","3XT3KXP24ZKFDDMCDS43FE3AU9W6IW","","552.9000000953674","img/flower1.png","75","553.7000000476837","2","1","2","2","1,0,0,1,1,0,1,0,1","0,1,0,0,1,1,1,1,0","3",""
"","html-keyboard-response","234","168086","0.0-234.0","3LS2AMNW5GCK51ETHY08UZCBE51QOZ","AQJCB00VQVQK0","3XT3KXP24ZKFDDMCDS43FE3AU9W6IW","","null","<img src=""img/flower1.png"" style=""width:200px; border:14px solid green;"">","null","","","","","","","","",""
"","image-keyboard-response","235","168753","0.0-235.0","3LS2AMNW5GCK51ETHY08UZCBE51QOZ","AQJCB00VQVQK0","3XT3KXP24ZKFDDMCDS43FE3AU9W6IW","","665.8999998569489","img/flower5.png","75","666.6999998092651","2","1","3","2","1,0,0,1,1,0,1,0,1","0,1,0,0,1,1,1,1,0","3",""
"","html-keyboard-response","236","169055","0.0-236.0","3LS2AMNW5GCK51ETHY08UZCBE51QOZ","AQJCB00VQVQK0","3XT3KXP24ZKFDDMCDS43FE3AU9W6IW","","null","<img src=""img/flower5.png"" style=""width:200px; border:14px solid green;"">","null","","","","","","","","",""
"","image-keyboard-response","237","169601","0.0-237.0","3LS2AMNW5GCK51ETHY08UZCBE51QOZ","AQJCB00VQVQK0","3XT3KXP24ZKFDDMCDS43FE3AU9W6IW","","545.5","img/flower6.png","75","546.1999998092651","2","1","1","2","1,0,0,1,1,0,1,0,1","0,1,0,0,1,1,1,1,0","3",""
"","html-keyboard-response","238","169902","0.0-238.0","3LS2AMNW5GCK51ETHY08UZCBE51QOZ","AQJCB00VQVQK0","3XT3KXP24ZKFDDMCDS43FE3AU9W6IW","","null","<img src=""img/flower6.png"" style=""width:200px; border:14px solid green;"">","null","","","","","","","","",""
"","image-keyboard-response","239","170394","0.0-239.0","3LS2AMNW5GCK51ETHY08UZCBE51QOZ","AQJCB00VQVQK0","3XT3KXP24ZKFDDMCDS43FE3AU9W6IW","","490.09999990463257","img/flower5.png","75","490.90000009536743","2","1","3","2","1,0,0,1,1,0,1,0,1","0,1,0,0,1,1,1,1,0","3",""
"","html-keyboard-response","240","170695","0.0-240.0","3LS2AMNW5GCK51ETHY08UZCBE51QOZ","AQJCB00VQVQK0","3XT3KXP24ZKFDDMCDS43FE3AU9W6IW","","null","<img src=""img/flower5.png"" style=""width:200px; border:14px solid green;"">","null","","","","","","","","",""
"","image-keyboard-response","241","171258","0.0-241.0","3LS2AMNW5GCK51ETHY08UZCBE51QOZ","AQJCB00VQVQK0","3XT3KXP24ZKFDDMCDS43FE3AU9W6IW","","561.3999998569489","img/flower5.png","75","562.1000001430511","2","1","3","2","1,0,0,1,1,0,1,0,1","0,1,0,0,1,1,1,1,0","3",""
"","html-keyboard-response","242","171560","0.0-242.0","3LS2AMNW5GCK51ETHY08UZCBE51QOZ","AQJCB00VQVQK0","3XT3KXP24ZKFDDMCDS43FE3AU9W6IW","","null","<img src=""img/flower5.png"" style=""width:200px; border:14px solid green;"">","null","","","","","","","","",""
"","image-keyboard-response","243","172105","0.0-243.0","3LS2AMNW5GCK51ETHY08UZCBE51QOZ","AQJCB00VQVQK0","3XT3KXP24ZKFDDMCDS43FE3AU9W6IW","","544.4000000953674","img/flower5.png","75","545.2000000476837","2","1","3","2","1,0,0,1,1,0,1,0,1","0,1,0,0,1,1,1,1,0","3",""
"","html-keyboard-response","244","172408","0.0-244.0","3LS2AMNW5GCK51ETHY08UZCBE51QOZ","AQJCB00VQVQK0","3XT3KXP24ZKFDDMCDS43FE3AU9W6IW","","null","<img src=""img/flower5.png"" style=""width:200px; border:14px solid green;"">","null","","","","","","","","",""
"","image-keyboard-response","245","172865","0.0-245.0","3LS2AMNW5GCK51ETHY08UZCBE51QOZ","AQJCB00VQVQK0","3XT3KXP24ZKFDDMCDS43FE3AU9W6IW","","456","img/flower5.png","75","456.89999985694885","2","1","3","2","1,0,0,1,1,0,1,0,1","0,1,0,0,1,1,1,1,0","3",""
"","html-keyboard-response","246","173167","0.0-246.0","3LS2AMNW5GCK51ETHY08UZCBE51QOZ","AQJCB00VQVQK0","3XT3KXP24ZKFDDMCDS43FE3AU9W6IW","","null","<img src=""img/flower5.png"" style=""width:200px; border:14px solid green;"">","null","","","","","","","","",""
"","image-keyboard-response","247","173585","0.0-247.0","3LS2AMNW5GCK51ETHY08UZCBE51QOZ","AQJCB00VQVQK0","3XT3KXP24ZKFDDMCDS43FE3AU9W6IW","","417.2000000476837","img/flower1.png","75","418.09999990463257","2","1","2","2","1,0,0,1,1,0,1,0,1","0,1,0,0,1,1,1,1,0","3",""
"","html-keyboard-response","248","173888","0.0-248.0","3LS2AMNW5GCK51ETHY08UZCBE51QOZ","AQJCB00VQVQK0","3XT3KXP24ZKFDDMCDS43FE3AU9W6IW","","null","<img src=""img/flower1.png"" style=""width:200px; border:14px solid green;"">","null","","","","","","","","",""
"","image-keyboard-response","249","174289","0.0-249.0","3LS2AMNW5GCK51ETHY08UZCBE51QOZ","AQJCB00VQVQK0","3XT3KXP24ZKFDDMCDS43FE3AU9W6IW","","400.5","img/flower6.png","75","401.2999999523163","2","1","1","2","1,0,0,1,1,0,1,0,1","0,1,0,0,1,1,1,1,0","3",""
"","html-keyboard-response","250","174591","0.0-250.0","3LS2AMNW5GCK51ETHY08UZCBE51QOZ","AQJCB00VQVQK0","3XT3KXP24ZKFDDMCDS43FE3AU9W6IW","","null","<img src=""img/flower6.png"" style=""width:200px; border:14px solid green;"">","null","","","","","","","","",""
"","image-keyboard-response","251","175073","0.0-251.0","3LS2AMNW5GCK51ETHY08UZCBE51QOZ","AQJCB00VQVQK0","3XT3KXP24ZKFDDMCDS43FE3AU9W6IW","","481.80000019073486","img/flower1.png","75","482.7000000476837","2","1","2","2","1,0,0,1,1,0,1,0,1","0,1,0,0,1,1,1,1,0","3",""
"","html-keyboard-response","252","175376","0.0-252.0","3LS2AMNW5GCK51ETHY08UZCBE51QOZ","AQJCB00VQVQK0","3XT3KXP24ZKFDDMCDS43FE3AU9W6IW","","null","<img src=""img/flower1.png"" style=""width:200px; border:14px solid green;"">","null","","","","","","","","",""
"","image-keyboard-response","253","175825","0.0-253.0","3LS2AMNW5GCK51ETHY08UZCBE51QOZ","AQJCB00VQVQK0","3XT3KXP24ZKFDDMCDS43FE3AU9W6IW","","448.5","img/flower1.png","75","450.10000014305115","2","1","2","2","1,0,0,1,1,0,1,0,1","0,1,0,0,1,1,1,1,0","3",""
"","html-keyboard-response","254","176128","0.0-254.0","3LS2AMNW5GCK51ETHY08UZCBE51QOZ","AQJCB00VQVQK0","3XT3KXP24ZKFDDMCDS43FE3AU9W6IW","","null","<img src=""img/flower1.png"" style=""width:200px; border:14px solid green;"">","null","","","","","","","","",""
"","image-keyboard-response","255","176513","0.0-255.0","3LS2AMNW5GCK51ETHY08UZCBE51QOZ","AQJCB00VQVQK0","3XT3KXP24ZKFDDMCDS43FE3AU9W6IW","","384.7000000476837","img/flower1.png","75","385.5","2","1","2","2","1,0,0,1,1,0,1,0,1","0,1,0,0,1,1,1,1,0","3",""
"","html-keyboard-response","256","176815","0.0-256.0","3LS2AMNW5GCK51ETHY08UZCBE51QOZ","AQJCB00VQVQK0","3XT3KXP24ZKFDDMCDS43FE3AU9W6IW","","null","<img src=""img/flower1.png"" style=""width:200px; border:14px solid green;"">","null","","","","","","","","",""
"","image-keyboard-response","257","177185","0.0-257.0","3LS2AMNW5GCK51ETHY08UZCBE51QOZ","AQJCB00VQVQK0","3XT3KXP24ZKFDDMCDS43FE3AU9W6IW","","369.7999999523163","img/flower1.png","75","370.60000014305115","2","1","2","2","1,0,0,1,1,0,1,0,1","0,1,0,0,1,1,1,1,0","3",""
"","html-keyboard-response","258","177487","0.0-258.0","3LS2AMNW5GCK51ETHY08UZCBE51QOZ","AQJCB00VQVQK0","3XT3KXP24ZKFDDMCDS43FE3AU9W6IW","","null","<img src=""img/flower1.png"" style=""width:200px; border:14px solid green;"">","null","","","","","","","","",""
"","image-keyboard-response","259","177769","0.0-259.0","3LS2AMNW5GCK51ETHY08UZCBE51QOZ","AQJCB00VQVQK0","3XT3KXP24ZKFDDMCDS43FE3AU9W6IW","","281.2000000476837","img/flower1.png","75","282.2000000476837","2","1","2","2","1,0,0,1,1,0,1,0,1","0,1,0,0,1,1,1,1,0","3",""
"","html-keyboard-response","260","178071","0.0-260.0","3LS2AMNW5GCK51ETHY08UZCBE51QOZ","AQJCB00VQVQK0","3XT3KXP24ZKFDDMCDS43FE3AU9W6IW","","null","<img src=""img/flower1.png"" style=""width:200px; border:14px solid green;"">","null","","","","","","","","",""
"","image-keyboard-response","261","178193","0.0-261.0","3LS2AMNW5GCK51ETHY08UZCBE51QOZ","AQJCB00VQVQK0","3XT3KXP24ZKFDDMCDS43FE3AU9W6IW","","121","img/flower6.png","75","121.79999995231628","2","1","1","2","1,0,0,1,1,0,1,0,1","0,1,0,0,1,1,1,1,0","3",""
"","html-keyboard-response","262","178495","0.0-262.0","3LS2AMNW5GCK51ETHY08UZCBE51QOZ","AQJCB00VQVQK0","3XT3KXP24ZKFDDMCDS43FE3AU9W6IW","","null","<img src=""img/flower6.png"" style=""width:200px; border:14px solid green;"">","null","","","","","","","","",""
"","image-keyboard-response","263","178497","0.0-263.0","3LS2AMNW5GCK51ETHY08UZCBE51QOZ","AQJCB00VQVQK0","3XT3KXP24ZKFDDMCDS43FE3AU9W6IW","","1.8000001907348633","img/flower1.png","75","2.5999999046325684","2","1","2","2","1,0,0,1,1,0,1,0,1","0,1,0,0,1,1,1,1,0","3",""
"","html-keyboard-response","264","178800","0.0-264.0","3LS2AMNW5GCK51ETHY08UZCBE51QOZ","AQJCB00VQVQK0","3XT3KXP24ZKFDDMCDS43FE3AU9W6IW","","null","<img src=""img/flower1.png"" style=""width:200px; border:14px solid green;"">","null","","","","","","","","",""
"","image-keyboard-response","265","179049","0.0-265.0","3LS2AMNW5GCK51ETHY08UZCBE51QOZ","AQJCB00VQVQK0","3XT3KXP24ZKFDDMCDS43FE3AU9W6IW","","248.79999995231628","img/flower1.png","75","249.40000009536743","2","1","2","2","1,0,0,1,1,0,1,0,1","0,1,0,0,1,1,1,1,0","3",""
"","html-keyboard-response","266","179351","0.0-266.0","3LS2AMNW5GCK51ETHY08UZCBE51QOZ","AQJCB00VQVQK0","3XT3KXP24ZKFDDMCDS43FE3AU9W6IW","","null","<img src=""img/flower1.png"" style=""width:200px; border:14px solid green;"">","null","","","","","","","","",""
"","image-keyboard-response","267","179425","0.0-267.0","3LS2AMNW5GCK51ETHY08UZCBE51QOZ","AQJCB00VQVQK0","3XT3KXP24ZKFDDMCDS43FE3AU9W6IW","","73.70000004768372","img/flower6.png","75","74.70000004768372","2","1","1","2","1,0,0,1,1,0,1,0,1","0,1,0,0,1,1,1,1,0","3",""
"","html-keyboard-response","268","179727","0.0-268.0","3LS2AMNW5GCK51ETHY08UZCBE51QOZ","AQJCB00VQVQK0","3XT3KXP24ZKFDDMCDS43FE3AU9W6IW","","null","<img src=""img/flower6.png"" style=""width:200px; border:14px solid green;"">","null","","","","","","","","",""
"","image-keyboard-response","269","179857","0.0-269.0","3LS2AMNW5GCK51ETHY08UZCBE51QOZ","AQJCB00VQVQK0","3XT3KXP24ZKFDDMCDS43FE3AU9W6IW","","129.40000009536743","img/flower1.png","75","130.29999995231628","2","1","2","2","1,0,0,1,1,0,1,0,1","0,1,0,0,1,1,1,1,0","3",""
"","html-keyboard-response","270","180159","0.0-270.0","3LS2AMNW5GCK51ETHY08UZCBE51QOZ","AQJCB00VQVQK0","3XT3KXP24ZKFDDMCDS43FE3AU9W6IW","","null","<img src=""img/flower1.png"" style=""width:200px; border:14px solid green;"">","null","","","","","","","","",""
"","image-keyboard-response","271","180225","0.0-271.0","3LS2AMNW5GCK51ETHY08UZCBE51QOZ","AQJCB00VQVQK0","3XT3KXP24ZKFDDMCDS43FE3AU9W6IW","","65.70000004768372","img/flower5.png","75","66.39999985694885","2","1","3","2","1,0,0,1,1,0,1,0,1","0,1,0,0,1,1,1,1,0","3",""
"","html-keyboard-response","272","180527","0.0-272.0","3LS2AMNW5GCK51ETHY08UZCBE51QOZ","AQJCB00VQVQK0","3XT3KXP24ZKFDDMCDS43FE3AU9W6IW","","null","<img src=""img/flower5.png"" style=""width:200px; border:14px solid green;"">","null","","","","","","","","",""
"","image-keyboard-response","273","180585","0.0-273.0","3LS2AMNW5GCK51ETHY08UZCBE51QOZ","AQJCB00VQVQK0","3XT3KXP24ZKFDDMCDS43FE3AU9W6IW","","57.5","img/flower1.png","75","58.200000047683716","2","1","2","2","1,0,0,1,1,0,1,0,1","0,1,0,0,1,1,1,1,0","3",""
"","html-keyboard-response","274","180887","0.0-274.0","3LS2AMNW5GCK51ETHY08UZCBE51QOZ","AQJCB00VQVQK0","3XT3KXP24ZKFDDMCDS43FE3AU9W6IW","","null","<img src=""img/flower1.png"" style=""width:200px; border:14px solid green;"">","null","","","","","","","","",""
"","image-keyboard-response","275","180905","0.0-275.0","3LS2AMNW5GCK51ETHY08UZCBE51QOZ","AQJCB00VQVQK0","3XT3KXP24ZKFDDMCDS43FE3AU9W6IW","","17.799999952316284","img/flower6.png","75","18.59999990463257","2","1","1","2","1,0,0,1,1,0,1,0,1","0,1,0,0,1,1,1,1,0","3",""
"","html-keyboard-response","276","181206","0.0-276.0","3LS2AMNW5GCK51ETHY08UZCBE51QOZ","AQJCB00VQVQK0","3XT3KXP24ZKFDDMCDS43FE3AU9W6IW","","null","<img src=""img/flower6.png"" style=""width:200px; border:14px solid green;"">","null","","","","","","","","",""
"","image-keyboard-response","277","181505","0.0-277.0","3LS2AMNW5GCK51ETHY08UZCBE51QOZ","AQJCB00VQVQK0","3XT3KXP24ZKFDDMCDS43FE3AU9W6IW","","297.89999985694885","img/flower6.png","75","298.69999980926514","2","1","1","2","1,0,0,1,1,0,1,0,1","0,1,0,0,1,1,1,1,0","3",""
"","html-keyboard-response","278","181807","0.0-278.0","3LS2AMNW5GCK51ETHY08UZCBE51QOZ","AQJCB00VQVQK0","3XT3KXP24ZKFDDMCDS43FE3AU9W6IW","","null","<img src=""img/flower6.png"" style=""width:200px; border:14px solid green;"">","null","","","","","","","","",""
"","image-keyboard-response","279","181841","0.0-279.0","3LS2AMNW5GCK51ETHY08UZCBE51QOZ","AQJCB00VQVQK0","3XT3KXP24ZKFDDMCDS43FE3AU9W6IW","","33.299999952316284","img/flower6.png","75","34.09999990463257","2","1","1","2","1,0,0,1,1,0,1,0,1","0,1,0,0,1,1,1,1,0","3",""
"","html-keyboard-response","280","182143","0.0-280.0","3LS2AMNW5GCK51ETHY08UZCBE51QOZ","AQJCB00VQVQK0","3XT3KXP24ZKFDDMCDS43FE3AU9W6IW","","null","<img src=""img/flower6.png"" style=""width:200px; border:14px solid green;"">","null","","","","","","","","",""
"","image-keyboard-response","281","182146","0.0-281.0","3LS2AMNW5GCK51ETHY08UZCBE51QOZ","AQJCB00VQVQK0","3XT3KXP24ZKFDDMCDS43FE3AU9W6IW","","1.7000000476837158","img/flower5.png","75","2.5","2","1","3","2","1,0,0,1,1,0,1,0,1","0,1,0,0,1,1,1,1,0","3",""
"","html-keyboard-response","282","182447","0.0-282.0","3LS2AMNW5GCK51ETHY08UZCBE51QOZ","AQJCB00VQVQK0","3XT3KXP24ZKFDDMCDS43FE3AU9W6IW","","null","<img src=""img/flower5.png"" style=""width:200px; border:14px solid green;"">","null","","","","","","","","",""
"","image-keyboard-response","283","182473","0.0-283.0","3LS2AMNW5GCK51ETHY08UZCBE51QOZ","AQJCB00VQVQK0","3XT3KXP24ZKFDDMCDS43FE3AU9W6IW","","24.90000009536743","img/flower5.png","75","25.799999952316284","2","1","3","2","1,0,0,1,1,0,1,0,1","0,1,0,0,1,1,1,1,0","3",""
"","html-keyboard-response","284","182775","0.0-284.0","3LS2AMNW5GCK51ETHY08UZCBE51QOZ","AQJCB00VQVQK0","3XT3KXP24ZKFDDMCDS43FE3AU9W6IW","","null","<img src=""img/flower5.png"" style=""width:200px; border:14px solid green;"">","null","","","","","","","","",""
"","image-keyboard-response","285","182817","0.0-285.0","3LS2AMNW5GCK51ETHY08UZCBE51QOZ","AQJCB00VQVQK0","3XT3KXP24ZKFDDMCDS43FE3AU9W6IW","","41.60000014305115","img/flower6.png","75","42.39999985694885","2","1","1","2","1,0,0,1,1,0,1,0,1","0,1,0,0,1,1,1,1,0","3",""
"","html-keyboard-response","286","183119","0.0-286.0","3LS2AMNW5GCK51ETHY08UZCBE51QOZ","AQJCB00VQVQK0","3XT3KXP24ZKFDDMCDS43FE3AU9W6IW","","null","<img src=""img/flower6.png"" style=""width:200px; border:14px solid green;"">","null","","","","","","","","",""
"","image-keyboard-response","287","183161","0.0-287.0","3LS2AMNW5GCK51ETHY08UZCBE51QOZ","AQJCB00VQVQK0","3XT3KXP24ZKFDDMCDS43FE3AU9W6IW","","40.799999952316284","img/flower1.png","75","41.60000014305115","2","1","2","2","1,0,0,1,1,0,1,0,1","0,1,0,0,1,1,1,1,0","3",""
"","html-keyboard-response","288","183463","0.0-288.0","3LS2AMNW5GCK51ETHY08UZCBE51QOZ","AQJCB00VQVQK0","3XT3KXP24ZKFDDMCDS43FE3AU9W6IW","","null","<img src=""img/flower1.png"" style=""width:200px; border:14px solid green;"">","null","","","","","","","","",""
"","image-keyboard-response","289","183769","0.0-289.0","3LS2AMNW5GCK51ETHY08UZCBE51QOZ","AQJCB00VQVQK0","3XT3KXP24ZKFDDMCDS43FE3AU9W6IW","","305.2000000476837","img/flower6.png","75","306","2","1","1","2","1,0,0,1,1,0,1,0,1","0,1,0,0,1,1,1,1,0","3",""
"","html-keyboard-response","290","184071","0.0-290.0","3LS2AMNW5GCK51ETHY08UZCBE51QOZ","AQJCB00VQVQK0","3XT3KXP24ZKFDDMCDS43FE3AU9W6IW","","null","<img src=""img/flower6.png"" style=""width:200px; border:14px solid green;"">","null","","","","","","","","",""
"","image-keyboard-response","291","184097","0.0-291.0","3LS2AMNW5GCK51ETHY08UZCBE51QOZ","AQJCB00VQVQK0","3XT3KXP24ZKFDDMCDS43FE3AU9W6IW","","25.600000143051147","img/flower1.png","75","26.399999856948853","2","1","2","2","1,0,0,1,1,0,1,0,1","0,1,0,0,1,1,1,1,0","3",""
"","html-keyboard-response","292","184399","0.0-292.0","3LS2AMNW5GCK51ETHY08UZCBE51QOZ","AQJCB00VQVQK0","3XT3KXP24ZKFDDMCDS43FE3AU9W6IW","","null","<img src=""img/flower1.png"" style=""width:200px; border:14px solid green;"">","null","","","","","","","","",""
"","image-keyboard-response","293","184401","0.0-293.0","3LS2AMNW5GCK51ETHY08UZCBE51QOZ","AQJCB00VQVQK0","3XT3KXP24ZKFDDMCDS43FE3AU9W6IW","","1.7000000476837158","img/flower6.png","75","2.3999998569488525","2","1","1","2","1,0,0,1,1,0,1,0,1","0,1,0,0,1,1,1,1,0","3",""
"","html-keyboard-response","294","184704","0.0-294.0","3LS2AMNW5GCK51ETHY08UZCBE51QOZ","AQJCB00VQVQK0","3XT3KXP24ZKFDDMCDS43FE3AU9W6IW","","null","<img src=""img/flower6.png"" style=""width:200px; border:14px solid green;"">","null","","","","","","","","",""
"","image-keyboard-response","295","184745","0.0-295.0","3LS2AMNW5GCK51ETHY08UZCBE51QOZ","AQJCB00VQVQK0","3XT3KXP24ZKFDDMCDS43FE3AU9W6IW","","40.40000009536743","img/flower5.png","75","41.200000047683716","2","1","3","2","1,0,0,1,1,0,1,0,1","0,1,0,0,1,1,1,1,0","3",""
"","html-keyboard-response","296","185046","0.0-296.0","3LS2AMNW5GCK51ETHY08UZCBE51QOZ","AQJCB00VQVQK0","3XT3KXP24ZKFDDMCDS43FE3AU9W6IW","","null","<img src=""img/flower5.png"" style=""width:200px; border:14px solid green;"">","null","","","","","","","","",""
"","image-keyboard-response","297","185057","0.0-297.0","3LS2AMNW5GCK51ETHY08UZCBE51QOZ","AQJCB00VQVQK0","3XT3KXP24ZKFDDMCDS43FE3AU9W6IW","","9.799999952316284","img/flower1.png","75","10.5","2","1","2","2","1,0,0,1,1,0,1,0,1","0,1,0,0,1,1,1,1,0","3",""
"","html-keyboard-response","298","185358","0.0-298.0","3LS2AMNW5GCK51ETHY08UZCBE51QOZ","AQJCB00VQVQK0","3XT3KXP24ZKFDDMCDS43FE3AU9W6IW","","null","<img src=""img/flower1.png"" style=""width:200px; border:14px solid green;"">","null","","","","","","","","",""
"","image-keyboard-response","299","185361","0.0-299.0","3LS2AMNW5GCK51ETHY08UZCBE51QOZ","AQJCB00VQVQK0","3XT3KXP24ZKFDDMCDS43FE3AU9W6IW","","2.1000001430511475","img/flower5.png","75","3","2","1","3","2","1,0,0,1,1,0,1,0,1","0,1,0,0,1,1,1,1,0","3",""
"","html-keyboard-response","300","185663","0.0-300.0","3LS2AMNW5GCK51ETHY08UZCBE51QOZ","AQJCB00VQVQK0","3XT3KXP24ZKFDDMCDS43FE3AU9W6IW","","null","<img src=""img/flower5.png"" style=""width:200px; border:14px solid green;"">","null","","","","","","","","",""
"","image-keyboard-response","301","185929","0.0-301.0","3LS2AMNW5GCK51ETHY08UZCBE51QOZ","AQJCB00VQVQK0","3XT3KXP24ZKFDDMCDS43FE3AU9W6IW","","265.7000000476837","img/flower5.png","75","266.7000000476837","2","1","3","2","1,0,0,1,1,0,1,0,1","0,1,0,0,1,1,1,1,0","3",""
"","html-keyboard-response","302","186231","0.0-302.0","3LS2AMNW5GCK51ETHY08UZCBE51QOZ","AQJCB00VQVQK0","3XT3KXP24ZKFDDMCDS43FE3AU9W6IW","","null","<img src=""img/flower5.png"" style=""width:200px; border:14px solid green;"">","null","","","","","","","","",""
"","image-keyboard-response","303","186490","0.0-303.0","3LS2AMNW5GCK51ETHY08UZCBE51QOZ","AQJCB00VQVQK0","3XT3KXP24ZKFDDMCDS43FE3AU9W6IW","","257.2999999523163","img/flower1.png","75","258.2000000476837","2","1","2","2","1,0,0,1,1,0,1,0,1","0,1,0,0,1,1,1,1,0","3",""
"","html-keyboard-response","304","186792","0.0-304.0","3LS2AMNW5GCK51ETHY08UZCBE51QOZ","AQJCB00VQVQK0","3XT3KXP24ZKFDDMCDS43FE3AU9W6IW","","null","<img src=""img/flower1.png"" style=""width:200px; border:14px solid green;"">","null","","","","","","","","",""
"","image-keyboard-response","305","186825","0.0-305.0","3LS2AMNW5GCK51ETHY08UZCBE51QOZ","AQJCB00VQVQK0","3XT3KXP24ZKFDDMCDS43FE3AU9W6IW","","32.60000014305115","img/flower1.png","75","33.5","2","1","2","2","1,0,0,1,1,0,1,0,1","0,1,0,0,1,1,1,1,0","3",""
"","html-keyboard-response","306","187127","0.0-306.0","3LS2AMNW5GCK51ETHY08UZCBE51QOZ","AQJCB00VQVQK0","3XT3KXP24ZKFDDMCDS43FE3AU9W6IW","","null","<img src=""img/flower1.png"" style=""width:200px; border:14px solid green;"">","null","","","","","","","","",""
"","image-keyboard-response","307","187153","0.0-307.0","3LS2AMNW5GCK51ETHY08UZCBE51QOZ","AQJCB00VQVQK0","3XT3KXP24ZKFDDMCDS43FE3AU9W6IW","","25.700000047683716","img/flower5.png","75","26.40000009536743","2","1","3","2","1,0,0,1,1,0,1,0,1","0,1,0,0,1,1,1,1,0","3",""
"","html-keyboard-response","308","187455","0.0-308.0","3LS2AMNW5GCK51ETHY08UZCBE51QOZ","AQJCB00VQVQK0","3XT3KXP24ZKFDDMCDS43FE3AU9W6IW","","null","<img src=""img/flower5.png"" style=""width:200px; border:14px solid green;"">","null","","","","","","","","",""
"","image-keyboard-response","309","187481","0.0-309.0","3LS2AMNW5GCK51ETHY08UZCBE51QOZ","AQJCB00VQVQK0","3XT3KXP24ZKFDDMCDS43FE3AU9W6IW","","25.5","img/flower5.png","75","26.299999952316284","2","1","3","2","1,0,0,1,1,0,1,0,1","0,1,0,0,1,1,1,1,0","3",""
"","html-keyboard-response","310","187784","0.0-310.0","3LS2AMNW5GCK51ETHY08UZCBE51QOZ","AQJCB00VQVQK0","3XT3KXP24ZKFDDMCDS43FE3AU9W6IW","","null","<img src=""img/flower5.png"" style=""width:200px; border:14px solid green;"">","null","","","","","","","","",""
"","image-keyboard-response","311","188009","0.0-311.0","3LS2AMNW5GCK51ETHY08UZCBE51QOZ","AQJCB00VQVQK0","3XT3KXP24ZKFDDMCDS43FE3AU9W6IW","","224.39999985694885","img/flower6.png","75","225.29999995231628","2","1","1","2","1,0,0,1,1,0,1,0,1","0,1,0,0,1,1,1,1,0","3",""
"","html-keyboard-response","312","188311","0.0-312.0","3LS2AMNW5GCK51ETHY08UZCBE51QOZ","AQJCB00VQVQK0","3XT3KXP24ZKFDDMCDS43FE3AU9W6IW","","null","<img src=""img/flower6.png"" style=""width:200px; border:14px solid green;"">","null","","","","","","","","",""
"","image-keyboard-response","313","188465","0.0-313.0","3LS2AMNW5GCK51ETHY08UZCBE51QOZ","AQJCB00VQVQK0","3XT3KXP24ZKFDDMCDS43FE3AU9W6IW","","153.40000009536743","img/flower6.png","75","154.29999995231628","2","1","1","2","1,0,0,1,1,0,1,0,1","0,1,0,0,1,1,1,1,0","3",""
"","html-keyboard-response","314","188768","0.0-314.0","3LS2AMNW5GCK51ETHY08UZCBE51QOZ","AQJCB00VQVQK0","3XT3KXP24ZKFDDMCDS43FE3AU9W6IW","","null","<img src=""img/flower6.png"" style=""width:200px; border:14px solid green;"">","null","","","","","","","","",""
"","image-keyboard-response","315","188937","0.0-315.0","3LS2AMNW5GCK51ETHY08UZCBE51QOZ","AQJCB00VQVQK0","3XT3KXP24ZKFDDMCDS43FE3AU9W6IW","","168.5","img/flower6.png","75","169.39999985694885","2","1","1","2","1,0,0,1,1,0,1,0,1","0,1,0,0,1,1,1,1,0","3",""
"","html-keyboard-response","316","189238","0.0-316.0","3LS2AMNW5GCK51ETHY08UZCBE51QOZ","AQJCB00VQVQK0","3XT3KXP24ZKFDDMCDS43FE3AU9W6IW","","null","<img src=""img/flower6.png"" style=""width:200px; border:14px solid green;"">","null","","","","","","","","",""
"","image-keyboard-response","317","189425","0.0-317.0","3LS2AMNW5GCK51ETHY08UZCBE51QOZ","AQJCB00VQVQK0","3XT3KXP24ZKFDDMCDS43FE3AU9W6IW","","185.89999985694885","img/flower5.png","75","186.70000004768372","2","1","3","2","1,0,0,1,1,0,1,0,1","0,1,0,0,1,1,1,1,0","3",""
"","html-keyboard-response","318","189726","0.0-318.0","3LS2AMNW5GCK51ETHY08UZCBE51QOZ","AQJCB00VQVQK0","3XT3KXP24ZKFDDMCDS43FE3AU9W6IW","","null","<img src=""img/flower5.png"" style=""width:200px; border:14px solid green;"">","null","","","","","","","","",""
"","image-keyboard-response","319","189745","0.0-319.0","3LS2AMNW5GCK51ETHY08UZCBE51QOZ","AQJCB00VQVQK0","3XT3KXP24ZKFDDMCDS43FE3AU9W6IW","","18","img/flower1.png","75","18.90000009536743","2","1","2","2","1,0,0,1,1,0,1,0,1","0,1,0,0,1,1,1,1,0","3",""
"","html-keyboard-response","320","190047","0.0-320.0","3LS2AMNW5GCK51ETHY08UZCBE51QOZ","AQJCB00VQVQK0","3XT3KXP24ZKFDDMCDS43FE3AU9W6IW","","null","<img src=""img/flower1.png"" style=""width:200px; border:14px solid green;"">","null","","","","","","","","",""
"","image-keyboard-response","321","190145","0.0-321.0","3LS2AMNW5GCK51ETHY08UZCBE51QOZ","AQJCB00VQVQK0","3XT3KXP24ZKFDDMCDS43FE3AU9W6IW","","97","img/flower5.png","75","97.79999995231628","2","1","3","2","1,0,0,1,1,0,1,0,1","0,1,0,0,1,1,1,1,0","3",""
"","html-keyboard-response","322","190447","0.0-322.0","3LS2AMNW5GCK51ETHY08UZCBE51QOZ","AQJCB00VQVQK0","3XT3KXP24ZKFDDMCDS43FE3AU9W6IW","","null","<img src=""img/flower5.png"" style=""width:200px; border:14px solid green;"">","null","","","","","","","","",""
"","image-keyboard-response","323","190553","0.0-323.0","3LS2AMNW5GCK51ETHY08UZCBE51QOZ","AQJCB00VQVQK0","3XT3KXP24ZKFDDMCDS43FE3AU9W6IW","","105.70000004768372","img/flower5.png","75","106.60000014305115","2","1","3","2","1,0,0,1,1,0,1,0,1","0,1,0,0,1,1,1,1,0","3",""
"","html-keyboard-response","324","190854","0.0-324.0","3LS2AMNW5GCK51ETHY08UZCBE51QOZ","AQJCB00VQVQK0","3XT3KXP24ZKFDDMCDS43FE3AU9W6IW","","null","<img src=""img/flower5.png"" style=""width:200px; border:14px solid green;"">","null","","","","","","","","",""
"","image-keyboard-response","325","190897","0.0-325.0","3LS2AMNW5GCK51ETHY08UZCBE51QOZ","AQJCB00VQVQK0","3XT3KXP24ZKFDDMCDS43FE3AU9W6IW","","41.700000047683716","img/flower6.png","75","42.59999990463257","2","1","1","2","1,0,0,1,1,0,1,0,1","0,1,0,0,1,1,1,1,0","3",""
"","html-keyboard-response","326","191198","0.0-326.0","3LS2AMNW5GCK51ETHY08UZCBE51QOZ","AQJCB00VQVQK0","3XT3KXP24ZKFDDMCDS43FE3AU9W6IW","","null","<img src=""img/flower6.png"" style=""width:200px; border:14px solid green;"">","null","","","","","","","","",""
"","image-keyboard-response","327","191305","0.0-327.0","3LS2AMNW5GCK51ETHY08UZCBE51QOZ","AQJCB00VQVQK0","3XT3KXP24ZKFDDMCDS43FE3AU9W6IW","","106.10000014305115","img/flower6.png","75","107","2","1","1","2","1,0,0,1,1,0,1,0,1","0,1,0,0,1,1,1,1,0","3",""
"","html-keyboard-response","328","191607","0.0-328.0","3LS2AMNW5GCK51ETHY08UZCBE51QOZ","AQJCB00VQVQK0","3XT3KXP24ZKFDDMCDS43FE3AU9W6IW","","null","<img src=""img/flower6.png"" style=""width:200px; border:14px solid green;"">","null","","","","","","","","",""
"","image-keyboard-response","329","191641","0.0-329.0","3LS2AMNW5GCK51ETHY08UZCBE51QOZ","AQJCB00VQVQK0","3XT3KXP24ZKFDDMCDS43FE3AU9W6IW","","33","img/flower5.png","75","33.799999952316284","2","1","3","2","1,0,0,1,1,0,1,0,1","0,1,0,0,1,1,1,1,0","3",""
"","html-keyboard-response","330","191947","0.0-330.0","3LS2AMNW5GCK51ETHY08UZCBE51QOZ","AQJCB00VQVQK0","3XT3KXP24ZKFDDMCDS43FE3AU9W6IW","","null","<img src=""img/flower5.png"" style=""width:200px; border:14px solid green;"">","null","","","","","","","","",""
"","image-keyboard-response","331","191993","0.0-331.0","3LS2AMNW5GCK51ETHY08UZCBE51QOZ","AQJCB00VQVQK0","3XT3KXP24ZKFDDMCDS43FE3AU9W6IW","","45.200000047683716","img/flower6.png","75","46","2","1","1","2","1,0,0,1,1,0,1,0,1","0,1,0,0,1,1,1,1,0","3",""
"","html-keyboard-response","332","192295","0.0-332.0","3LS2AMNW5GCK51ETHY08UZCBE51QOZ","AQJCB00VQVQK0","3XT3KXP24ZKFDDMCDS43FE3AU9W6IW","","null","<img src=""img/flower6.png"" style=""width:200px; border:14px solid green;"">","null","","","","","","","","",""
"","image-keyboard-response","333","192321","0.0-333.0","3LS2AMNW5GCK51ETHY08UZCBE51QOZ","AQJCB00VQVQK0","3XT3KXP24ZKFDDMCDS43FE3AU9W6IW","","25.09999990463257","img/flower1.png","75","25.90000009536743","2","1","2","2","1,0,0,1,1,0,1,0,1","0,1,0,0,1,1,1,1,0","3",""
"","html-keyboard-response","334","192622","0.0-334.0","3LS2AMNW5GCK51ETHY08UZCBE51QOZ","AQJCB00VQVQK0","3XT3KXP24ZKFDDMCDS43FE3AU9W6IW","","null","<img src=""img/flower1.png"" style=""width:200px; border:14px solid green;"">","null","","","","","","","","",""
"","image-keyboard-response","335","192657","0.0-335.0","3LS2AMNW5GCK51ETHY08UZCBE51QOZ","AQJCB00VQVQK0","3XT3KXP24ZKFDDMCDS43FE3AU9W6IW","","33.89999985694885","img/flower6.png","75","34.799999952316284","2","1","1","2","1,0,0,1,1,0,1,0,1","0,1,0,0,1,1,1,1,0","3",""
"","html-keyboard-response","336","192959","0.0-336.0","3LS2AMNW5GCK51ETHY08UZCBE51QOZ","AQJCB00VQVQK0","3XT3KXP24ZKFDDMCDS43FE3AU9W6IW","","null","<img src=""img/flower6.png"" style=""width:200px; border:14px solid green;"">","null","","","","","","","","",""
"","image-keyboard-response","337","192977","0.0-337.0","3LS2AMNW5GCK51ETHY08UZCBE51QOZ","AQJCB00VQVQK0","3XT3KXP24ZKFDDMCDS43FE3AU9W6IW","","17.09999990463257","img/flower5.png","75","17.90000009536743","2","1","3","2","1,0,0,1,1,0,1,0,1","0,1,0,0,1,1,1,1,0","3",""
"","html-keyboard-response","338","193279","0.0-338.0","3LS2AMNW5GCK51ETHY08UZCBE51QOZ","AQJCB00VQVQK0","3XT3KXP24ZKFDDMCDS43FE3AU9W6IW","","null","<img src=""img/flower5.png"" style=""width:200px; border:14px solid green;"">","null","","","","","","","","",""
"","image-keyboard-response","339","193289","0.0-339.0","3LS2AMNW5GCK51ETHY08UZCBE51QOZ","AQJCB00VQVQK0","3XT3KXP24ZKFDDMCDS43FE3AU9W6IW","","9.199999809265137","img/flower1.png","75","10.100000143051147","2","1","2","2","1,0,0,1,1,0,1,0,1","0,1,0,0,1,1,1,1,0","3",""
"","html-keyboard-response","340","193592","0.0-340.0","3LS2AMNW5GCK51ETHY08UZCBE51QOZ","AQJCB00VQVQK0","3XT3KXP24ZKFDDMCDS43FE3AU9W6IW","","null","<img src=""img/flower1.png"" style=""width:200px; border:14px solid green;"">","null","","","","","","","","",""
"","image-keyboard-response","341","193633","0.0-341.0","3LS2AMNW5GCK51ETHY08UZCBE51QOZ","AQJCB00VQVQK0","3XT3KXP24ZKFDDMCDS43FE3AU9W6IW","","40.59999990463257","img/flower5.png","75","41.39999985694885","2","1","3","2","1,0,0,1,1,0,1,0,1","0,1,0,0,1,1,1,1,0","3",""
"","html-keyboard-response","342","193934","0.0-342.0","3LS2AMNW5GCK51ETHY08UZCBE51QOZ","AQJCB00VQVQK0","3XT3KXP24ZKFDDMCDS43FE3AU9W6IW","","null","<img src=""img/flower5.png"" style=""width:200px; border:14px solid green;"">","null","","","","","","","","",""
"","image-keyboard-response","343","194033","0.0-343.0","3LS2AMNW5GCK51ETHY08UZCBE51QOZ","AQJCB00VQVQK0","3XT3KXP24ZKFDDMCDS43FE3AU9W6IW","","97.79999995231628","img/flower5.png","75","98.70000004768372","2","1","3","2","1,0,0,1,1,0,1,0,1","0,1,0,0,1,1,1,1,0","3",""
"","html-keyboard-response","344","194335","0.0-344.0","3LS2AMNW5GCK51ETHY08UZCBE51QOZ","AQJCB00VQVQK0","3XT3KXP24ZKFDDMCDS43FE3AU9W6IW","","null","<img src=""img/flower5.png"" style=""width:200px; border:14px solid green;"">","null","","","","","","","","",""
"","image-keyboard-response","345","194433","0.0-345.0","3LS2AMNW5GCK51ETHY08UZCBE51QOZ","AQJCB00VQVQK0","3XT3KXP24ZKFDDMCDS43FE3AU9W6IW","","97.79999995231628","img/flower1.png","75","98.5","2","1","2","2","1,0,0,1,1,0,1,0,1","0,1,0,0,1,1,1,1,0","3",""
"","html-keyboard-response","346","194748","0.0-346.0","3LS2AMNW5GCK51ETHY08UZCBE51QOZ","AQJCB00VQVQK0","3XT3KXP24ZKFDDMCDS43FE3AU9W6IW","","null","<img src=""img/flower1.png"" style=""width:200px; border:14px solid green;"">","null","","","","","","","","",""
"","image-keyboard-response","347","194777","0.0-347.0","3LS2AMNW5GCK51ETHY08UZCBE51QOZ","AQJCB00VQVQK0","3XT3KXP24ZKFDDMCDS43FE3AU9W6IW","","28.100000143051147","img/flower1.png","75","29","2","1","2","2","1,0,0,1,1,0,1,0,1","0,1,0,0,1,1,1,1,0","3",""
"","html-keyboard-response","348","195078","0.0-348.0","3LS2AMNW5GCK51ETHY08UZCBE51QOZ","AQJCB00VQVQK0","3XT3KXP24ZKFDDMCDS43FE3AU9W6IW","","null","<img src=""img/flower1.png"" style=""width:200px; border:14px solid green;"">","null","","","","","","","","",""
"","image-keyboard-response","349","195105","0.0-349.0","3LS2AMNW5GCK51ETHY08UZCBE51QOZ","AQJCB00VQVQK0","3XT3KXP24ZKFDDMCDS43FE3AU9W6IW","","25.799999952316284","img/flower6.png","75","26.59999990463257","2","1","1","2","1,0,0,1,1,0,1,0,1","0,1,0,0,1,1,1,1,0","3",""
"","html-keyboard-response","350","195406","0.0-350.0","3LS2AMNW5GCK51ETHY08UZCBE51QOZ","AQJCB00VQVQK0","3XT3KXP24ZKFDDMCDS43FE3AU9W6IW","","null","<img src=""img/flower6.png"" style=""width:200px; border:14px solid green;"">","null","","","","","","","","",""
"","image-keyboard-response","351","195505","0.0-351.0","3LS2AMNW5GCK51ETHY08UZCBE51QOZ","AQJCB00VQVQK0","3XT3KXP24ZKFDDMCDS43FE3AU9W6IW","","98.09999990463257","img/flower1.png","75","98.89999985694885","2","1","2","2","1,0,0,1,1,0,1,0,1","0,1,0,0,1,1,1,1,0","3",""
"","html-keyboard-response","352","195807","0.0-352.0","3LS2AMNW5GCK51ETHY08UZCBE51QOZ","AQJCB00VQVQK0","3XT3KXP24ZKFDDMCDS43FE3AU9W6IW","","null","<img src=""img/flower1.png"" style=""width:200px; border:14px solid green;"">","null","","","","","","","","",""
"","image-keyboard-response","353","195857","0.0-353.0","3LS2AMNW5GCK51ETHY08UZCBE51QOZ","AQJCB00VQVQK0","3XT3KXP24ZKFDDMCDS43FE3AU9W6IW","","49.200000047683716","img/flower1.png","75","50","2","1","2","2","1,0,0,1,1,0,1,0,1","0,1,0,0,1,1,1,1,0","3",""
"","html-keyboard-response","354","196160","0.0-354.0","3LS2AMNW5GCK51ETHY08UZCBE51QOZ","AQJCB00VQVQK0","3XT3KXP24ZKFDDMCDS43FE3AU9W6IW","","null","<img src=""img/flower1.png"" style=""width:200px; border:14px solid green;"">","null","","","","","","","","",""
"","image-keyboard-response","355","196209","0.0-355.0","3LS2AMNW5GCK51ETHY08UZCBE51QOZ","AQJCB00VQVQK0","3XT3KXP24ZKFDDMCDS43FE3AU9W6IW","","48.39999985694885","img/flower1.png","75","49.200000047683716","2","1","2","2","1,0,0,1,1,0,1,0,1","0,1,0,0,1,1,1,1,0","3",""
"","html-keyboard-response","356","196510","0.0-356.0","3LS2AMNW5GCK51ETHY08UZCBE51QOZ","AQJCB00VQVQK0","3XT3KXP24ZKFDDMCDS43FE3AU9W6IW","","null","<img src=""img/flower1.png"" style=""width:200px; border:14px solid green;"">","null","","","","","","","","",""
"","image-keyboard-response","357","196609","0.0-357.0","3LS2AMNW5GCK51ETHY08UZCBE51QOZ","AQJCB00VQVQK0","3XT3KXP24ZKFDDMCDS43FE3AU9W6IW","","97.70000004768372","img/flower5.png","75","98.5","2","1","3","2","1,0,0,1,1,0,1,0,1","0,1,0,0,1,1,1,1,0","3",""
"","html-keyboard-response","358","196911","0.0-358.0","3LS2AMNW5GCK51ETHY08UZCBE51QOZ","AQJCB00VQVQK0","3XT3KXP24ZKFDDMCDS43FE3AU9W6IW","","null","<img src=""img/flower5.png"" style=""width:200px; border:14px solid green;"">","null","","","","","","","","",""
"","image-keyboard-response","359","197161","0.0-359.0","3LS2AMNW5GCK51ETHY08UZCBE51QOZ","AQJCB00VQVQK0","3XT3KXP24ZKFDDMCDS43FE3AU9W6IW","","248.70000004768372","img/flower1.png","75","249.70000004768372","2","1","2","2","1,0,0,1,1,0,1,0,1","0,1,0,0,1,1,1,1,0","3",""
"","html-keyboard-response","360","197462","0.0-360.0","3LS2AMNW5GCK51ETHY08UZCBE51QOZ","AQJCB00VQVQK0","3XT3KXP24ZKFDDMCDS43FE3AU9W6IW","","null","<img src=""img/flower1.png"" style=""width:200px; border:14px solid green;"">","null","","","","","","","","",""
"","image-keyboard-response","361","197537","0.0-361.0","3LS2AMNW5GCK51ETHY08UZCBE51QOZ","AQJCB00VQVQK0","3XT3KXP24ZKFDDMCDS43FE3AU9W6IW","","73.79999995231628","img/flower1.png","75","74.5","2","1","2","2","1,0,0,1,1,0,1,0,1","0,1,0,0,1,1,1,1,0","3",""
"","html-keyboard-response","362","197839","0.0-362.0","3LS2AMNW5GCK51ETHY08UZCBE51QOZ","AQJCB00VQVQK0","3XT3KXP24ZKFDDMCDS43FE3AU9W6IW","","null","<img src=""img/flower1.png"" style=""width:200px; border:14px solid green;"">","null","","","","","","","","",""
"","instructions","363","201144","0.0-363.0","3LS2AMNW5GCK51ETHY08UZCBE51QOZ","AQJCB00VQVQK0","3XT3KXP24ZKFDDMCDS43FE3AU9W6IW","[{""page_index"":0,""viewing_time"":3303.7999999523163}]","3304.2000000476837","","","","","","","","","","",""
"","survey-text","364","215440","0.0-364.0","3LS2AMNW5GCK51ETHY08UZCBE51QOZ","AQJCB00VQVQK0","3XT3KXP24ZKFDDMCDS43FE3AU9W6IW","","14290.900000095367","","","","","","","","","","","{""Q0"":""AQJCB00VQVQK0""}"
