"rt","url","trial_type","trial_index","time_elapsed","internal_node_id","assignmentID","mturkID","hitID","success","view_history","stimulus","key_press","reactionTime","a","r","s","reward_cond","responses"
"7966.5999999996275","consent.html","external-html","0","8063","0.0-0.0","3IXQG4FA2UKUU88YWRK02KMNWXLB9I","AR5M3HHTQV9QY","3OYHVNTV5TKW8EI4DRB99U4E79NKOA","","","","","","","","","",""
"","","fullscreen","1","11208","0.0-1.0","3IXQG4FA2UKUU88YWRK02KMNWXLB9I","AR5M3HHTQV9QY","3OYHVNTV5TKW8EI4DRB99U4E79NKOA","true","","","","","","","","",""
"67312","","instructions","2","78522","0.0-2.0","3IXQG4FA2UKUU88YWRK02KMNWXLB9I","AR5M3HHTQV9QY","3OYHVNTV5TKW8EI4DRB99U4E79NKOA","","[{""page_index"":0,""viewing_time"":14660.900000000373},{""page_index"":1,""viewing_time"":7565.299999998882},{""page_index"":2,""viewing_time"":8217.900000000373},{""page_index"":3,""viewing_time"":11924.200000001118},{""page_index"":4,""viewing_time"":6164.299999998882},{""page_index"":5,""viewing_time"":13683.5},{""page_index"":6,""viewing_time"":5094.5}]","","","","","","","",""
"16409.199999999255","","instructions","3","94933","0.0-3.0","3IXQG4FA2UKUU88YWRK02KMNWXLB9I","AR5M3HHTQV9QY","3OYHVNTV5TKW8EI4DRB99U4E79NKOA","","[{""page_index"":0,""viewing_time"":16408.599999999627}]","","","","","","","",""
"1240.300000000745","","image-keyboard-response","4","96176","0.0-4.0","3IXQG4FA2UKUU88YWRK02KMNWXLB9I","AR5M3HHTQV9QY","3OYHVNTV5TKW8EI4DRB99U4E79NKOA","","","img/flower5.png","74","1242.800000000745","1","1","2","",""
"null","","html-keyboard-response","5","96480","0.0-5.0","3IXQG4FA2UKUU88YWRK02KMNWXLB9I","AR5M3HHTQV9QY","3OYHVNTV5TKW8EI4DRB99U4E79NKOA","","","<img src=""img/flower5.png"" style=""width:200px; border:14px solid green;"">","null","","","","","",""
"802.6999999992549","","image-keyboard-response","6","97285","0.0-6.0","3IXQG4FA2UKUU88YWRK02KMNWXLB9I","AR5M3HHTQV9QY","3OYHVNTV5TKW8EI4DRB99U4E79NKOA","","","img/flower4.png","75","804.1999999992549","2","0","1","",""
"null","","html-keyboard-response","7","97592","0.0-7.0","3IXQG4FA2UKUU88YWRK02KMNWXLB9I","AR5M3HHTQV9QY","3OYHVNTV5TKW8EI4DRB99U4E79NKOA","","","<img src=""img/flower4.png"" style=""width:200px;border:14px solid red;"">","null","","","","","",""
"643.4000000003725","","image-keyboard-response","8","98237","0.0-8.0","3IXQG4FA2UKUU88YWRK02KMNWXLB9I","AR5M3HHTQV9QY","3OYHVNTV5TKW8EI4DRB99U4E79NKOA","","","img/flower6.png","76","645.1999999992549","3","1","3","",""
"null","","html-keyboard-response","9","98544","0.0-9.0","3IXQG4FA2UKUU88YWRK02KMNWXLB9I","AR5M3HHTQV9QY","3OYHVNTV5TKW8EI4DRB99U4E79NKOA","","","<img src=""img/flower6.png"" style=""width:200px; border:14px solid green;"">","null","","","","","",""
"2119","","image-keyboard-response","10","100664","0.0-10.0","3IXQG4FA2UKUU88YWRK02KMNWXLB9I","AR5M3HHTQV9QY","3OYHVNTV5TKW8EI4DRB99U4E79NKOA","","","img/flower6.png","76","2120.5999999996275","3","1","3","",""
"null","","html-keyboard-response","11","100968","0.0-11.0","3IXQG4FA2UKUU88YWRK02KMNWXLB9I","AR5M3HHTQV9QY","3OYHVNTV5TKW8EI4DRB99U4E79NKOA","","","<img src=""img/flower6.png"" style=""width:200px; border:14px solid green;"">","null","","","","","",""
"968.3000000007451","","image-keyboard-response","12","101938","0.0-12.0","3IXQG4FA2UKUU88YWRK02KMNWXLB9I","AR5M3HHTQV9QY","3OYHVNTV5TKW8EI4DRB99U4E79NKOA","","","img/flower5.png","75","970.3999999985099","2","1","2","",""
"null","","html-keyboard-response","13","102248","0.0-13.0","3IXQG4FA2UKUU88YWRK02KMNWXLB9I","AR5M3HHTQV9QY","3OYHVNTV5TKW8EI4DRB99U4E79NKOA","","","<img src=""img/flower5.png"" style=""width:200px; border:14px solid green;"">","null","","","","","",""
"929.5999999996275","","image-keyboard-response","14","103179","0.0-14.0","3IXQG4FA2UKUU88YWRK02KMNWXLB9I","AR5M3HHTQV9QY","3OYHVNTV5TKW8EI4DRB99U4E79NKOA","","","img/flower4.png","74","931","1","1","1","",""
"null","","html-keyboard-response","15","103487","0.0-15.0","3IXQG4FA2UKUU88YWRK02KMNWXLB9I","AR5M3HHTQV9QY","3OYHVNTV5TKW8EI4DRB99U4E79NKOA","","","<img src=""img/flower4.png"" style=""width:200px; border:14px solid green;"">","null","","","","","",""
"1591.2000000011176","","image-keyboard-response","16","105080","0.0-16.0","3IXQG4FA2UKUU88YWRK02KMNWXLB9I","AR5M3HHTQV9QY","3OYHVNTV5TKW8EI4DRB99U4E79NKOA","","","img/flower4.png","74","1592.5","1","1","1","",""
"null","","html-keyboard-response","17","105384","0.0-17.0","3IXQG4FA2UKUU88YWRK02KMNWXLB9I","AR5M3HHTQV9QY","3OYHVNTV5TKW8EI4DRB99U4E79NKOA","","","<img src=""img/flower4.png"" style=""width:200px; border:14px solid green;"">","null","","","","","",""
"517.3000000007451","","image-keyboard-response","18","105902","0.0-18.0","3IXQG4FA2UKUU88YWRK02KMNWXLB9I","AR5M3HHTQV9QY","3OYHVNTV5TKW8EI4DRB99U4E79NKOA","","","img/flower4.png","74","518.7000000011176","1","0","1","",""
"null","","html-keyboard-response","19","106207","0.0-19.0","3IXQG4FA2UKUU88YWRK02KMNWXLB9I","AR5M3HHTQV9QY","3OYHVNTV5TKW8EI4DRB99U4E79NKOA","","","<img src=""img/flower4.png"" style=""width:200px;border:14px solid red;"">","null","","","","","",""
"1334.9000000003725","","image-keyboard-response","20","107544","0.0-20.0","3IXQG4FA2UKUU88YWRK02KMNWXLB9I","AR5M3HHTQV9QY","3OYHVNTV5TKW8EI4DRB99U4E79NKOA","","","img/flower5.png","75","1336.0999999996275","2","1","2","",""
"null","","html-keyboard-response","21","107848","0.0-21.0","3IXQG4FA2UKUU88YWRK02KMNWXLB9I","AR5M3HHTQV9QY","3OYHVNTV5TKW8EI4DRB99U4E79NKOA","","","<img src=""img/flower5.png"" style=""width:200px; border:14px solid green;"">","null","","","","","",""
"871.5999999996275","","image-keyboard-response","22","108721","0.0-22.0","3IXQG4FA2UKUU88YWRK02KMNWXLB9I","AR5M3HHTQV9QY","3OYHVNTV5TKW8EI4DRB99U4E79NKOA","","","img/flower4.png","74","873","1","1","1","",""
"null","","html-keyboard-response","23","109024","0.0-23.0","3IXQG4FA2UKUU88YWRK02KMNWXLB9I","AR5M3HHTQV9QY","3OYHVNTV5TKW8EI4DRB99U4E79NKOA","","","<img src=""img/flower4.png"" style=""width:200px; border:14px solid green;"">","null","","","","","",""
"679.2999999988824","","image-keyboard-response","24","109704","0.0-24.0","3IXQG4FA2UKUU88YWRK02KMNWXLB9I","AR5M3HHTQV9QY","3OYHVNTV5TKW8EI4DRB99U4E79NKOA","","","img/flower5.png","75","680.5999999996275","2","1","2","",""
"null","","html-keyboard-response","25","110008","0.0-25.0","3IXQG4FA2UKUU88YWRK02KMNWXLB9I","AR5M3HHTQV9QY","3OYHVNTV5TKW8EI4DRB99U4E79NKOA","","","<img src=""img/flower5.png"" style=""width:200px; border:14px solid green;"">","null","","","","","",""
"769.2000000011176","","image-keyboard-response","26","110778","0.0-26.0","3IXQG4FA2UKUU88YWRK02KMNWXLB9I","AR5M3HHTQV9QY","3OYHVNTV5TKW8EI4DRB99U4E79NKOA","","","img/flower5.png","75","770.6000000014901","2","1","2","",""
"null","","html-keyboard-response","27","111087","0.0-27.0","3IXQG4FA2UKUU88YWRK02KMNWXLB9I","AR5M3HHTQV9QY","3OYHVNTV5TKW8EI4DRB99U4E79NKOA","","","<img src=""img/flower5.png"" style=""width:200px; border:14px solid green;"">","null","","","","","",""
"674.0999999996275","","image-keyboard-response","28","111763","0.0-28.0","3IXQG4FA2UKUU88YWRK02KMNWXLB9I","AR5M3HHTQV9QY","3OYHVNTV5TKW8EI4DRB99U4E79NKOA","","","img/flower6.png","76","675.1999999992549","3","1","3","",""
"null","","html-keyboard-response","29","112071","0.0-29.0","3IXQG4FA2UKUU88YWRK02KMNWXLB9I","AR5M3HHTQV9QY","3OYHVNTV5TKW8EI4DRB99U4E79NKOA","","","<img src=""img/flower6.png"" style=""width:200px; border:14px solid green;"">","null","","","","","",""
"835.5","","image-keyboard-response","30","112908","0.0-30.0","3IXQG4FA2UKUU88YWRK02KMNWXLB9I","AR5M3HHTQV9QY","3OYHVNTV5TKW8EI4DRB99U4E79NKOA","","","img/flower4.png","74","836.7999999988824","1","1","1","",""
"null","","html-keyboard-response","31","113216","0.0-31.0","3IXQG4FA2UKUU88YWRK02KMNWXLB9I","AR5M3HHTQV9QY","3OYHVNTV5TKW8EI4DRB99U4E79NKOA","","","<img src=""img/flower4.png"" style=""width:200px; border:14px solid green;"">","null","","","","","",""
"816.2999999988824","","image-keyboard-response","32","114034","0.0-32.0","3IXQG4FA2UKUU88YWRK02KMNWXLB9I","AR5M3HHTQV9QY","3OYHVNTV5TKW8EI4DRB99U4E79NKOA","","","img/flower6.png","76","817.6999999992549","3","0","3","",""
"null","","html-keyboard-response","33","114343","0.0-33.0","3IXQG4FA2UKUU88YWRK02KMNWXLB9I","AR5M3HHTQV9QY","3OYHVNTV5TKW8EI4DRB99U4E79NKOA","","","<img src=""img/flower6.png"" style=""width:200px;border:14px solid red;"">","null","","","","","",""
"758.9000000003725","","image-keyboard-response","34","115104","0.0-34.0","3IXQG4FA2UKUU88YWRK02KMNWXLB9I","AR5M3HHTQV9QY","3OYHVNTV5TKW8EI4DRB99U4E79NKOA","","","img/flower4.png","74","760.5","1","0","1","",""
"null","","html-keyboard-response","35","115407","0.0-35.0","3IXQG4FA2UKUU88YWRK02KMNWXLB9I","AR5M3HHTQV9QY","3OYHVNTV5TKW8EI4DRB99U4E79NKOA","","","<img src=""img/flower4.png"" style=""width:200px;border:14px solid red;"">","null","","","","","",""
"911.0999999996275","","image-keyboard-response","36","116320","0.0-36.0","3IXQG4FA2UKUU88YWRK02KMNWXLB9I","AR5M3HHTQV9QY","3OYHVNTV5TKW8EI4DRB99U4E79NKOA","","","img/flower5.png","75","912.5","2","0","2","",""
"null","","html-keyboard-response","37","116624","0.0-37.0","3IXQG4FA2UKUU88YWRK02KMNWXLB9I","AR5M3HHTQV9QY","3OYHVNTV5TKW8EI4DRB99U4E79NKOA","","","<img src=""img/flower5.png"" style=""width:200px;border:14px solid red;"">","null","","","","","",""
"659.2999999988824","","image-keyboard-response","38","117284","0.0-38.0","3IXQG4FA2UKUU88YWRK02KMNWXLB9I","AR5M3HHTQV9QY","3OYHVNTV5TKW8EI4DRB99U4E79NKOA","","","img/flower5.png","75","660.5","2","1","2","",""
"null","","html-keyboard-response","39","117591","0.0-39.0","3IXQG4FA2UKUU88YWRK02KMNWXLB9I","AR5M3HHTQV9QY","3OYHVNTV5TKW8EI4DRB99U4E79NKOA","","","<img src=""img/flower5.png"" style=""width:200px; border:14px solid green;"">","null","","","","","",""
"518.6999999992549","","image-keyboard-response","40","118112","0.0-40.0","3IXQG4FA2UKUU88YWRK02KMNWXLB9I","AR5M3HHTQV9QY","3OYHVNTV5TKW8EI4DRB99U4E79NKOA","","","img/flower5.png","75","520.5999999996275","2","1","2","",""
"null","","html-keyboard-response","41","118415","0.0-41.0","3IXQG4FA2UKUU88YWRK02KMNWXLB9I","AR5M3HHTQV9QY","3OYHVNTV5TKW8EI4DRB99U4E79NKOA","","","<img src=""img/flower5.png"" style=""width:200px; border:14px solid green;"">","null","","","","","",""
"1033.199999999255","","image-keyboard-response","42","119450","0.0-42.0","3IXQG4FA2UKUU88YWRK02KMNWXLB9I","AR5M3HHTQV9QY","3OYHVNTV5TKW8EI4DRB99U4E79NKOA","","","img/flower4.png","74","1034.5999999996275","1","1","1","",""
"null","","html-keyboard-response","43","119759","0.0-43.0","3IXQG4FA2UKUU88YWRK02KMNWXLB9I","AR5M3HHTQV9QY","3OYHVNTV5TKW8EI4DRB99U4E79NKOA","","","<img src=""img/flower4.png"" style=""width:200px; border:14px solid green;"">","null","","","","","",""
"832.0999999996275","","image-keyboard-response","44","120593","0.0-44.0","3IXQG4FA2UKUU88YWRK02KMNWXLB9I","AR5M3HHTQV9QY","3OYHVNTV5TKW8EI4DRB99U4E79NKOA","","","img/flower5.png","75","833.7999999988824","2","1","2","",""
"null","","html-keyboard-response","45","120895","0.0-45.0","3IXQG4FA2UKUU88YWRK02KMNWXLB9I","AR5M3HHTQV9QY","3OYHVNTV5TKW8EI4DRB99U4E79NKOA","","","<img src=""img/flower5.png"" style=""width:200px; border:14px solid green;"">","null","","","","","",""
"563.3000000007451","","image-keyboard-response","46","121460","0.0-46.0","3IXQG4FA2UKUU88YWRK02KMNWXLB9I","AR5M3HHTQV9QY","3OYHVNTV5TKW8EI4DRB99U4E79NKOA","","","img/flower4.png","74","564.5999999996275","1","1","1","",""
"null","","html-keyboard-response","47","121767","0.0-47.0","3IXQG4FA2UKUU88YWRK02KMNWXLB9I","AR5M3HHTQV9QY","3OYHVNTV5TKW8EI4DRB99U4E79NKOA","","","<img src=""img/flower4.png"" style=""width:200px; border:14px solid green;"">","null","","","","","",""
"650.5999999996275","","image-keyboard-response","48","122419","0.0-48.0","3IXQG4FA2UKUU88YWRK02KMNWXLB9I","AR5M3HHTQV9QY","3OYHVNTV5TKW8EI4DRB99U4E79NKOA","","","img/flower6.png","76","652","3","1","3","",""
"null","","html-keyboard-response","49","122727","0.0-49.0","3IXQG4FA2UKUU88YWRK02KMNWXLB9I","AR5M3HHTQV9QY","3OYHVNTV5TKW8EI4DRB99U4E79NKOA","","","<img src=""img/flower6.png"" style=""width:200px; border:14px solid green;"">","null","","","","","",""
"481.40000000037253","","image-keyboard-response","50","123210","0.0-50.0","3IXQG4FA2UKUU88YWRK02KMNWXLB9I","AR5M3HHTQV9QY","3OYHVNTV5TKW8EI4DRB99U4E79NKOA","","","img/flower6.png","76","482.7999999988824","3","1","3","",""
"null","","html-keyboard-response","51","123519","0.0-51.0","3IXQG4FA2UKUU88YWRK02KMNWXLB9I","AR5M3HHTQV9QY","3OYHVNTV5TKW8EI4DRB99U4E79NKOA","","","<img src=""img/flower6.png"" style=""width:200px; border:14px solid green;"">","null","","","","","",""
"404.90000000037253","","image-keyboard-response","52","123926","0.0-52.0","3IXQG4FA2UKUU88YWRK02KMNWXLB9I","AR5M3HHTQV9QY","3OYHVNTV5TKW8EI4DRB99U4E79NKOA","","","img/flower6.png","76","406.59999999962747","3","1","3","",""
"null","","html-keyboard-response","53","124231","0.0-53.0","3IXQG4FA2UKUU88YWRK02KMNWXLB9I","AR5M3HHTQV9QY","3OYHVNTV5TKW8EI4DRB99U4E79NKOA","","","<img src=""img/flower6.png"" style=""width:200px; border:14px solid green;"">","null","","","","","",""
"333.19999999925494","","image-keyboard-response","54","124566","0.0-54.0","3IXQG4FA2UKUU88YWRK02KMNWXLB9I","AR5M3HHTQV9QY","3OYHVNTV5TKW8EI4DRB99U4E79NKOA","","","img/flower6.png","76","334.5","3","1","3","",""
"null","","html-keyboard-response","55","124871","0.0-55.0","3IXQG4FA2UKUU88YWRK02KMNWXLB9I","AR5M3HHTQV9QY","3OYHVNTV5TKW8EI4DRB99U4E79NKOA","","","<img src=""img/flower6.png"" style=""width:200px; border:14px solid green;"">","null","","","","","",""
"522","","image-keyboard-response","56","125395","0.0-56.0","3IXQG4FA2UKUU88YWRK02KMNWXLB9I","AR5M3HHTQV9QY","3OYHVNTV5TKW8EI4DRB99U4E79NKOA","","","img/flower4.png","74","523.3999999985099","1","1","1","",""
"null","","html-keyboard-response","57","125703","0.0-57.0","3IXQG4FA2UKUU88YWRK02KMNWXLB9I","AR5M3HHTQV9QY","3OYHVNTV5TKW8EI4DRB99U4E79NKOA","","","<img src=""img/flower4.png"" style=""width:200px; border:14px solid green;"">","null","","","","","",""
"679.8999999985099","","image-keyboard-response","58","126385","0.0-58.0","3IXQG4FA2UKUU88YWRK02KMNWXLB9I","AR5M3HHTQV9QY","3OYHVNTV5TKW8EI4DRB99U4E79NKOA","","","img/flower5.png","75","681","2","1","2","",""
"null","","html-keyboard-response","59","126687","0.0-59.0","3IXQG4FA2UKUU88YWRK02KMNWXLB9I","AR5M3HHTQV9QY","3OYHVNTV5TKW8EI4DRB99U4E79NKOA","","","<img src=""img/flower5.png"" style=""width:200px; border:14px solid green;"">","null","","","","","",""
"632.8999999985099","","image-keyboard-response","60","127322","0.0-60.0","3IXQG4FA2UKUU88YWRK02KMNWXLB9I","AR5M3HHTQV9QY","3OYHVNTV5TKW8EI4DRB99U4E79NKOA","","","img/flower6.png","76","634.0999999996275","3","1","3","",""
"null","","html-keyboard-response","61","127631","0.0-61.0","3IXQG4FA2UKUU88YWRK02KMNWXLB9I","AR5M3HHTQV9QY","3OYHVNTV5TKW8EI4DRB99U4E79NKOA","","","<img src=""img/flower6.png"" style=""width:200px; border:14px solid green;"">","null","","","","","",""
"464.80000000074506","","image-keyboard-response","62","128098","0.0-62.0","3IXQG4FA2UKUU88YWRK02KMNWXLB9I","AR5M3HHTQV9QY","3OYHVNTV5TKW8EI4DRB99U4E79NKOA","","","img/flower6.png","76","466.19999999925494","3","1","3","",""
"null","","html-keyboard-response","63","128407","0.0-63.0","3IXQG4FA2UKUU88YWRK02KMNWXLB9I","AR5M3HHTQV9QY","3OYHVNTV5TKW8EI4DRB99U4E79NKOA","","","<img src=""img/flower6.png"" style=""width:200px; border:14px solid green;"">","null","","","","","",""
"14421.89999999851","","instructions","64","142830","0.0-64.0","3IXQG4FA2UKUU88YWRK02KMNWXLB9I","AR5M3HHTQV9QY","3OYHVNTV5TKW8EI4DRB99U4E79NKOA","","[{""page_index"":0,""viewing_time"":3879.0999999996275},{""page_index"":1,""viewing_time"":10542.299999998882}]","","","","","","","",""
"1025.9000000003725","","image-keyboard-response","65","143859","0.0-65.0","3IXQG4FA2UKUU88YWRK02KMNWXLB9I","AR5M3HHTQV9QY","3OYHVNTV5TKW8EI4DRB99U4E79NKOA","","","img/flower4.png","74","1028.2000000011176","1","1","1","",""
"null","","html-keyboard-response","66","144168","0.0-66.0","3IXQG4FA2UKUU88YWRK02KMNWXLB9I","AR5M3HHTQV9QY","3OYHVNTV5TKW8EI4DRB99U4E79NKOA","","","<img src=""img/flower4.png"" style=""width:200px; border:14px solid green;"">","null","","","","","",""
"463.2000000011176","","image-keyboard-response","67","144633","0.0-67.0","3IXQG4FA2UKUU88YWRK02KMNWXLB9I","AR5M3HHTQV9QY","3OYHVNTV5TKW8EI4DRB99U4E79NKOA","","","img/flower5.png","75","464.8999999985099","2","1","2","",""
"null","","html-keyboard-response","68","144936","0.0-68.0","3IXQG4FA2UKUU88YWRK02KMNWXLB9I","AR5M3HHTQV9QY","3OYHVNTV5TKW8EI4DRB99U4E79NKOA","","","<img src=""img/flower5.png"" style=""width:200px; border:14px solid green;"">","null","","","","","",""
"470.5","","image-keyboard-response","69","145408","0.0-69.0","3IXQG4FA2UKUU88YWRK02KMNWXLB9I","AR5M3HHTQV9QY","3OYHVNTV5TKW8EI4DRB99U4E79NKOA","","","img/flower6.png","76","472","3","1","3","",""
"null","","html-keyboard-response","70","145711","0.0-70.0","3IXQG4FA2UKUU88YWRK02KMNWXLB9I","AR5M3HHTQV9QY","3OYHVNTV5TKW8EI4DRB99U4E79NKOA","","","<img src=""img/flower6.png"" style=""width:200px; border:14px solid green;"">","null","","","","","",""
"566.5999999996275","","image-keyboard-response","71","146279","0.0-71.0","3IXQG4FA2UKUU88YWRK02KMNWXLB9I","AR5M3HHTQV9QY","3OYHVNTV5TKW8EI4DRB99U4E79NKOA","","","img/flower6.png","76","567.9000000003725","3","1","3","",""
"null","","html-keyboard-response","72","146583","0.0-72.0","3IXQG4FA2UKUU88YWRK02KMNWXLB9I","AR5M3HHTQV9QY","3OYHVNTV5TKW8EI4DRB99U4E79NKOA","","","<img src=""img/flower6.png"" style=""width:200px; border:14px solid green;"">","null","","","","","",""
"779.8000000007451","","image-keyboard-response","73","147365","0.0-73.0","3IXQG4FA2UKUU88YWRK02KMNWXLB9I","AR5M3HHTQV9QY","3OYHVNTV5TKW8EI4DRB99U4E79NKOA","","","img/flower4.png","74","781.3999999985099","1","1","1","",""
"null","","html-keyboard-response","74","147671","0.0-74.0","3IXQG4FA2UKUU88YWRK02KMNWXLB9I","AR5M3HHTQV9QY","3OYHVNTV5TKW8EI4DRB99U4E79NKOA","","","<img src=""img/flower4.png"" style=""width:200px; border:14px solid green;"">","null","","","","","",""
"438.80000000074506","","image-keyboard-response","75","148112","0.0-75.0","3IXQG4FA2UKUU88YWRK02KMNWXLB9I","AR5M3HHTQV9QY","3OYHVNTV5TKW8EI4DRB99U4E79NKOA","","","img/flower6.png","75","440.2000000011176","2","0","3","",""
"null","","html-keyboard-response","76","148415","0.0-76.0","3IXQG4FA2UKUU88YWRK02KMNWXLB9I","AR5M3HHTQV9QY","3OYHVNTV5TKW8EI4DRB99U4E79NKOA","","","<img src=""img/flower6.png"" style=""width:200px;border:14px solid red;"">","null","","","","","",""
"930.8000000007451","","image-keyboard-response","77","149348","0.0-77.0","3IXQG4FA2UKUU88YWRK02KMNWXLB9I","AR5M3HHTQV9QY","3OYHVNTV5TKW8EI4DRB99U4E79NKOA","","","img/flower5.png","74","931.9000000022352","1","0","2","",""
"null","","html-keyboard-response","78","149655","0.0-78.0","3IXQG4FA2UKUU88YWRK02KMNWXLB9I","AR5M3HHTQV9QY","3OYHVNTV5TKW8EI4DRB99U4E79NKOA","","","<img src=""img/flower5.png"" style=""width:200px;border:14px solid red;"">","null","","","","","",""
"1019.5","","image-keyboard-response","79","150676","0.0-79.0","3IXQG4FA2UKUU88YWRK02KMNWXLB9I","AR5M3HHTQV9QY","3OYHVNTV5TKW8EI4DRB99U4E79NKOA","","","img/flower5.png","75","1020.8000000007451","2","0","2","",""
"null","","html-keyboard-response","80","150984","0.0-80.0","3IXQG4FA2UKUU88YWRK02KMNWXLB9I","AR5M3HHTQV9QY","3OYHVNTV5TKW8EI4DRB99U4E79NKOA","","","<img src=""img/flower5.png"" style=""width:200px;border:14px solid red;"">","null","","","","","",""
"437.19999999925494","","image-keyboard-response","81","151422","0.0-81.0","3IXQG4FA2UKUU88YWRK02KMNWXLB9I","AR5M3HHTQV9QY","3OYHVNTV5TKW8EI4DRB99U4E79NKOA","","","img/flower5.png","75","438.6000000014901","2","0","2","",""
"null","","html-keyboard-response","82","151727","0.0-82.0","3IXQG4FA2UKUU88YWRK02KMNWXLB9I","AR5M3HHTQV9QY","3OYHVNTV5TKW8EI4DRB99U4E79NKOA","","","<img src=""img/flower5.png"" style=""width:200px;border:14px solid red;"">","null","","","","","",""
"692.1999999992549","","image-keyboard-response","83","152422","0.0-83.0","3IXQG4FA2UKUU88YWRK02KMNWXLB9I","AR5M3HHTQV9QY","3OYHVNTV5TKW8EI4DRB99U4E79NKOA","","","img/flower6.png","76","694","3","0","3","",""
"null","","html-keyboard-response","84","152727","0.0-84.0","3IXQG4FA2UKUU88YWRK02KMNWXLB9I","AR5M3HHTQV9QY","3OYHVNTV5TKW8EI4DRB99U4E79NKOA","","","<img src=""img/flower6.png"" style=""width:200px;border:14px solid red;"">","null","","","","","",""
"477","","image-keyboard-response","85","153205","0.0-85.0","3IXQG4FA2UKUU88YWRK02KMNWXLB9I","AR5M3HHTQV9QY","3OYHVNTV5TKW8EI4DRB99U4E79NKOA","","","img/flower6.png","76","478","3","1","3","",""
"null","","html-keyboard-response","86","153511","0.0-86.0","3IXQG4FA2UKUU88YWRK02KMNWXLB9I","AR5M3HHTQV9QY","3OYHVNTV5TKW8EI4DRB99U4E79NKOA","","","<img src=""img/flower6.png"" style=""width:200px; border:14px solid green;"">","null","","","","","",""
"629.6999999992549","","image-keyboard-response","87","154142","0.0-87.0","3IXQG4FA2UKUU88YWRK02KMNWXLB9I","AR5M3HHTQV9QY","3OYHVNTV5TKW8EI4DRB99U4E79NKOA","","","img/flower5.png","75","631.1000000014901","2","1","2","",""
"null","","html-keyboard-response","88","154448","0.0-88.0","3IXQG4FA2UKUU88YWRK02KMNWXLB9I","AR5M3HHTQV9QY","3OYHVNTV5TKW8EI4DRB99U4E79NKOA","","","<img src=""img/flower5.png"" style=""width:200px; border:14px solid green;"">","null","","","","","",""
"577.6000000014901","","image-keyboard-response","89","155027","0.0-89.0","3IXQG4FA2UKUU88YWRK02KMNWXLB9I","AR5M3HHTQV9QY","3OYHVNTV5TKW8EI4DRB99U4E79NKOA","","","img/flower6.png","75","578.8000000007451","2","0","3","",""
"null","","html-keyboard-response","90","155336","0.0-90.0","3IXQG4FA2UKUU88YWRK02KMNWXLB9I","AR5M3HHTQV9QY","3OYHVNTV5TKW8EI4DRB99U4E79NKOA","","","<img src=""img/flower6.png"" style=""width:200px;border:14px solid red;"">","null","","","","","",""
"479.4000000022352","","image-keyboard-response","91","155817","0.0-91.0","3IXQG4FA2UKUU88YWRK02KMNWXLB9I","AR5M3HHTQV9QY","3OYHVNTV5TKW8EI4DRB99U4E79NKOA","","","img/flower6.png","76","480.6000000014901","3","1","3","",""
"null","","html-keyboard-response","92","156120","0.0-92.0","3IXQG4FA2UKUU88YWRK02KMNWXLB9I","AR5M3HHTQV9QY","3OYHVNTV5TKW8EI4DRB99U4E79NKOA","","","<img src=""img/flower6.png"" style=""width:200px; border:14px solid green;"">","null","","","","","",""
"741.1999999992549","","image-keyboard-response","93","156863","0.0-93.0","3IXQG4FA2UKUU88YWRK02KMNWXLB9I","AR5M3HHTQV9QY","3OYHVNTV5TKW8EI4DRB99U4E79NKOA","","","img/flower5.png","74","743.0999999977648","1","0","2","",""
"null","","html-keyboard-response","94","157168","0.0-94.0","3IXQG4FA2UKUU88YWRK02KMNWXLB9I","AR5M3HHTQV9QY","3OYHVNTV5TKW8EI4DRB99U4E79NKOA","","","<img src=""img/flower5.png"" style=""width:200px;border:14px solid red;"">","null","","","","","",""
"249.19999999925494","","image-keyboard-response","95","157418","0.0-95.0","3IXQG4FA2UKUU88YWRK02KMNWXLB9I","AR5M3HHTQV9QY","3OYHVNTV5TKW8EI4DRB99U4E79NKOA","","","img/flower4.png","74","250.60000000149012","1","1","1","",""
"null","","html-keyboard-response","96","157728","0.0-96.0","3IXQG4FA2UKUU88YWRK02KMNWXLB9I","AR5M3HHTQV9QY","3OYHVNTV5TKW8EI4DRB99U4E79NKOA","","","<img src=""img/flower4.png"" style=""width:200px; border:14px solid green;"">","null","","","","","",""
"414.69999999925494","","image-keyboard-response","97","158144","0.0-97.0","3IXQG4FA2UKUU88YWRK02KMNWXLB9I","AR5M3HHTQV9QY","3OYHVNTV5TKW8EI4DRB99U4E79NKOA","","","img/flower4.png","74","416.30000000074506","1","1","1","",""
"null","","html-keyboard-response","98","158448","0.0-98.0","3IXQG4FA2UKUU88YWRK02KMNWXLB9I","AR5M3HHTQV9QY","3OYHVNTV5TKW8EI4DRB99U4E79NKOA","","","<img src=""img/flower4.png"" style=""width:200px; border:14px solid green;"">","null","","","","","",""
"442.5","","image-keyboard-response","99","158892","0.0-99.0","3IXQG4FA2UKUU88YWRK02KMNWXLB9I","AR5M3HHTQV9QY","3OYHVNTV5TKW8EI4DRB99U4E79NKOA","","","img/flower4.png","74","443.8999999985099","1","0","1","",""
"null","","html-keyboard-response","100","159199","0.0-100.0","3IXQG4FA2UKUU88YWRK02KMNWXLB9I","AR5M3HHTQV9QY","3OYHVNTV5TKW8EI4DRB99U4E79NKOA","","","<img src=""img/flower4.png"" style=""width:200px;border:14px solid red;"">","null","","","","","",""
"317","","image-keyboard-response","101","159518","0.0-101.0","3IXQG4FA2UKUU88YWRK02KMNWXLB9I","AR5M3HHTQV9QY","3OYHVNTV5TKW8EI4DRB99U4E79NKOA","","","img/flower4.png","74","318.5","1","1","1","",""
"null","","html-keyboard-response","102","159823","0.0-102.0","3IXQG4FA2UKUU88YWRK02KMNWXLB9I","AR5M3HHTQV9QY","3OYHVNTV5TKW8EI4DRB99U4E79NKOA","","","<img src=""img/flower4.png"" style=""width:200px; border:14px solid green;"">","null","","","","","",""
"523.5","","image-keyboard-response","103","160348","0.0-103.0","3IXQG4FA2UKUU88YWRK02KMNWXLB9I","AR5M3HHTQV9QY","3OYHVNTV5TKW8EI4DRB99U4E79NKOA","","","img/flower6.png","75","525","2","0","3","",""
"null","","html-keyboard-response","104","160655","0.0-104.0","3IXQG4FA2UKUU88YWRK02KMNWXLB9I","AR5M3HHTQV9QY","3OYHVNTV5TKW8EI4DRB99U4E79NKOA","","","<img src=""img/flower6.png"" style=""width:200px;border:14px solid red;"">","null","","","","","",""
"275.0999999977648","","image-keyboard-response","105","160932","0.0-105.0","3IXQG4FA2UKUU88YWRK02KMNWXLB9I","AR5M3HHTQV9QY","3OYHVNTV5TKW8EI4DRB99U4E79NKOA","","","img/flower5.png","76","276.5","3","1","2","",""
"null","","html-keyboard-response","106","161239","0.0-106.0","3IXQG4FA2UKUU88YWRK02KMNWXLB9I","AR5M3HHTQV9QY","3OYHVNTV5TKW8EI4DRB99U4E79NKOA","","","<img src=""img/flower5.png"" style=""width:200px; border:14px solid green;"">","null","","","","","",""
"546.6999999992549","","image-keyboard-response","107","161788","0.0-107.0","3IXQG4FA2UKUU88YWRK02KMNWXLB9I","AR5M3HHTQV9QY","3OYHVNTV5TKW8EI4DRB99U4E79NKOA","","","img/flower4.png","75","548.0999999977648","2","1","1","",""
"null","","html-keyboard-response","108","162096","0.0-108.0","3IXQG4FA2UKUU88YWRK02KMNWXLB9I","AR5M3HHTQV9QY","3OYHVNTV5TKW8EI4DRB99U4E79NKOA","","","<img src=""img/flower4.png"" style=""width:200px; border:14px solid green;"">","null","","","","","",""
"696.2999999970198","","image-keyboard-response","109","162794","0.0-109.0","3IXQG4FA2UKUU88YWRK02KMNWXLB9I","AR5M3HHTQV9QY","3OYHVNTV5TKW8EI4DRB99U4E79NKOA","","","img/flower6.png","74","697.6999999992549","1","1","3","",""
"null","","html-keyboard-response","110","163104","0.0-110.0","3IXQG4FA2UKUU88YWRK02KMNWXLB9I","AR5M3HHTQV9QY","3OYHVNTV5TKW8EI4DRB99U4E79NKOA","","","<img src=""img/flower6.png"" style=""width:200px; border:14px solid green;"">","null","","","","","",""
"629.8000000007451","","image-keyboard-response","111","163735","0.0-111.0","3IXQG4FA2UKUU88YWRK02KMNWXLB9I","AR5M3HHTQV9QY","3OYHVNTV5TKW8EI4DRB99U4E79NKOA","","","img/flower5.png","76","631.1999999992549","3","0","2","",""
"null","","html-keyboard-response","112","164039","0.0-112.0","3IXQG4FA2UKUU88YWRK02KMNWXLB9I","AR5M3HHTQV9QY","3OYHVNTV5TKW8EI4DRB99U4E79NKOA","","","<img src=""img/flower5.png"" style=""width:200px;border:14px solid red;"">","null","","","","","",""
"540","","image-keyboard-response","113","164581","0.0-113.0","3IXQG4FA2UKUU88YWRK02KMNWXLB9I","AR5M3HHTQV9QY","3OYHVNTV5TKW8EI4DRB99U4E79NKOA","","","img/flower5.png","75","541.6000000014901","2","0","2","",""
"null","","html-keyboard-response","114","164888","0.0-114.0","3IXQG4FA2UKUU88YWRK02KMNWXLB9I","AR5M3HHTQV9QY","3OYHVNTV5TKW8EI4DRB99U4E79NKOA","","","<img src=""img/flower5.png"" style=""width:200px;border:14px solid red;"">","null","","","","","",""
"1074.2000000029802","","image-keyboard-response","115","165963","0.0-115.0","3IXQG4FA2UKUU88YWRK02KMNWXLB9I","AR5M3HHTQV9QY","3OYHVNTV5TKW8EI4DRB99U4E79NKOA","","","img/flower4.png","74","1075.3999999985099","1","1","1","",""
"null","","html-keyboard-response","116","166271","0.0-116.0","3IXQG4FA2UKUU88YWRK02KMNWXLB9I","AR5M3HHTQV9QY","3OYHVNTV5TKW8EI4DRB99U4E79NKOA","","","<img src=""img/flower4.png"" style=""width:200px; border:14px solid green;"">","null","","","","","",""
"455.19999999925494","","image-keyboard-response","117","166728","0.0-117.0","3IXQG4FA2UKUU88YWRK02KMNWXLB9I","AR5M3HHTQV9QY","3OYHVNTV5TKW8EI4DRB99U4E79NKOA","","","img/flower6.png","75","456.30000000074506","2","0","3","",""
"null","","html-keyboard-response","118","167031","0.0-118.0","3IXQG4FA2UKUU88YWRK02KMNWXLB9I","AR5M3HHTQV9QY","3OYHVNTV5TKW8EI4DRB99U4E79NKOA","","","<img src=""img/flower6.png"" style=""width:200px;border:14px solid red;"">","null","","","","","",""
"300.5999999977648","","image-keyboard-response","119","167334","0.0-119.0","3IXQG4FA2UKUU88YWRK02KMNWXLB9I","AR5M3HHTQV9QY","3OYHVNTV5TKW8EI4DRB99U4E79NKOA","","","img/flower4.png","76","302.1000000014901","3","1","1","",""
"null","","html-keyboard-response","120","167639","0.0-120.0","3IXQG4FA2UKUU88YWRK02KMNWXLB9I","AR5M3HHTQV9QY","3OYHVNTV5TKW8EI4DRB99U4E79NKOA","","","<img src=""img/flower4.png"" style=""width:200px; border:14px solid green;"">","null","","","","","",""
"250.80000000074506","","image-keyboard-response","121","167892","0.0-121.0","3IXQG4FA2UKUU88YWRK02KMNWXLB9I","AR5M3HHTQV9QY","3OYHVNTV5TKW8EI4DRB99U4E79NKOA","","","img/flower4.png","76","252.30000000074506","3","0","1","",""
"null","","html-keyboard-response","122","168200","0.0-122.0","3IXQG4FA2UKUU88YWRK02KMNWXLB9I","AR5M3HHTQV9QY","3OYHVNTV5TKW8EI4DRB99U4E79NKOA","","","<img src=""img/flower4.png"" style=""width:200px;border:14px solid red;"">","null","","","","","",""
"1093.300000000745","","image-keyboard-response","123","169294","0.0-123.0","3IXQG4FA2UKUU88YWRK02KMNWXLB9I","AR5M3HHTQV9QY","3OYHVNTV5TKW8EI4DRB99U4E79NKOA","","","img/flower5.png","75","1094.6000000014901","2","1","2","",""
"null","","html-keyboard-response","124","169599","0.0-124.0","3IXQG4FA2UKUU88YWRK02KMNWXLB9I","AR5M3HHTQV9QY","3OYHVNTV5TKW8EI4DRB99U4E79NKOA","","","<img src=""img/flower5.png"" style=""width:200px; border:14px solid green;"">","null","","","","","",""
"2274.699999999255","","instructions","125","171875","0.0-125.0","3IXQG4FA2UKUU88YWRK02KMNWXLB9I","AR5M3HHTQV9QY","3OYHVNTV5TKW8EI4DRB99U4E79NKOA","","[{""page_index"":0,""viewing_time"":2274}]","","","","","","","",""
"1926.800000000745","","image-keyboard-response","126","173804","0.0-126.0","3IXQG4FA2UKUU88YWRK02KMNWXLB9I","AR5M3HHTQV9QY","3OYHVNTV5TKW8EI4DRB99U4E79NKOA","","","img/flower6.png","76","1929.5","3","1","2","1,1,0,0,1,1,1,0,1",""
"null","","html-keyboard-response","127","174111","0.0-127.0","3IXQG4FA2UKUU88YWRK02KMNWXLB9I","AR5M3HHTQV9QY","3OYHVNTV5TKW8EI4DRB99U4E79NKOA","","","<img src=""img/flower6.png"" style=""width:200px; border:14px solid green;"">","null","","","","","",""
"1316.199999999255","","image-keyboard-response","128","175429","0.0-128.0","3IXQG4FA2UKUU88YWRK02KMNWXLB9I","AR5M3HHTQV9QY","3OYHVNTV5TKW8EI4DRB99U4E79NKOA","","","img/flower2.png","75","1317.5","2","0","3","1,1,0,0,1,1,1,0,1",""
"null","","html-keyboard-response","129","175736","0.0-129.0","3IXQG4FA2UKUU88YWRK02KMNWXLB9I","AR5M3HHTQV9QY","3OYHVNTV5TKW8EI4DRB99U4E79NKOA","","","<img src=""img/flower2.png"" style=""width:200px;border:14px solid red;"">","null","","","","","",""
"744.7000000029802","","image-keyboard-response","130","176482","0.0-130.0","3IXQG4FA2UKUU88YWRK02KMNWXLB9I","AR5M3HHTQV9QY","3OYHVNTV5TKW8EI4DRB99U4E79NKOA","","","img/flower6.png","76","746.0999999977648","3","1","2","1,1,0,0,1,1,1,0,1",""
"null","","html-keyboard-response","131","176784","0.0-131.0","3IXQG4FA2UKUU88YWRK02KMNWXLB9I","AR5M3HHTQV9QY","3OYHVNTV5TKW8EI4DRB99U4E79NKOA","","","<img src=""img/flower6.png"" style=""width:200px; border:14px solid green;"">","null","","","","","",""
"668.8000000007451","","image-keyboard-response","132","177454","0.0-132.0","3IXQG4FA2UKUU88YWRK02KMNWXLB9I","AR5M3HHTQV9QY","3OYHVNTV5TKW8EI4DRB99U4E79NKOA","","","img/flower2.png","75","670","2","0","3","1,1,0,0,1,1,1,0,1",""
"null","","html-keyboard-response","133","177760","0.0-133.0","3IXQG4FA2UKUU88YWRK02KMNWXLB9I","AR5M3HHTQV9QY","3OYHVNTV5TKW8EI4DRB99U4E79NKOA","","","<img src=""img/flower2.png"" style=""width:200px;border:14px solid red;"">","null","","","","","",""
"739.3999999985099","","image-keyboard-response","134","178501","0.0-134.0","3IXQG4FA2UKUU88YWRK02KMNWXLB9I","AR5M3HHTQV9QY","3OYHVNTV5TKW8EI4DRB99U4E79NKOA","","","img/flower3.png","76","741","3","0","1","1,1,0,0,1,1,1,0,1",""
"null","","html-keyboard-response","135","178807","0.0-135.0","3IXQG4FA2UKUU88YWRK02KMNWXLB9I","AR5M3HHTQV9QY","3OYHVNTV5TKW8EI4DRB99U4E79NKOA","","","<img src=""img/flower3.png"" style=""width:200px;border:14px solid red;"">","null","","","","","",""
"825.1999999992549","","image-keyboard-response","136","179634","0.0-136.0","3IXQG4FA2UKUU88YWRK02KMNWXLB9I","AR5M3HHTQV9QY","3OYHVNTV5TKW8EI4DRB99U4E79NKOA","","","img/flower2.png","74","826.5","1","1","3","1,1,0,0,1,1,1,0,1",""
"null","","html-keyboard-response","137","179944","0.0-137.0","3IXQG4FA2UKUU88YWRK02KMNWXLB9I","AR5M3HHTQV9QY","3OYHVNTV5TKW8EI4DRB99U4E79NKOA","","","<img src=""img/flower2.png"" style=""width:200px; border:14px solid green;"">","null","","","","","",""
"741","","image-keyboard-response","138","180686","0.0-138.0","3IXQG4FA2UKUU88YWRK02KMNWXLB9I","AR5M3HHTQV9QY","3OYHVNTV5TKW8EI4DRB99U4E79NKOA","","","img/flower6.png","76","742.3999999985099","3","1","2","1,1,0,0,1,1,1,0,1",""
"null","","html-keyboard-response","139","180991","0.0-139.0","3IXQG4FA2UKUU88YWRK02KMNWXLB9I","AR5M3HHTQV9QY","3OYHVNTV5TKW8EI4DRB99U4E79NKOA","","","<img src=""img/flower6.png"" style=""width:200px; border:14px solid green;"">","null","","","","","",""
"645.1999999992549","","image-keyboard-response","140","181638","0.0-140.0","3IXQG4FA2UKUU88YWRK02KMNWXLB9I","AR5M3HHTQV9QY","3OYHVNTV5TKW8EI4DRB99U4E79NKOA","","","img/flower2.png","74","646.6000000014901","1","1","3","1,1,0,0,1,1,1,0,1",""
"null","","html-keyboard-response","141","181944","0.0-141.0","3IXQG4FA2UKUU88YWRK02KMNWXLB9I","AR5M3HHTQV9QY","3OYHVNTV5TKW8EI4DRB99U4E79NKOA","","","<img src=""img/flower2.png"" style=""width:200px; border:14px solid green;"">","null","","","","","",""
"926.3999999985099","","image-keyboard-response","142","182872","0.0-142.0","3IXQG4FA2UKUU88YWRK02KMNWXLB9I","AR5M3HHTQV9QY","3OYHVNTV5TKW8EI4DRB99U4E79NKOA","","","img/flower3.png","75","928.2000000029802","2","1","1","1,1,0,0,1,1,1,0,1",""
"null","","html-keyboard-response","143","183175","0.0-143.0","3IXQG4FA2UKUU88YWRK02KMNWXLB9I","AR5M3HHTQV9QY","3OYHVNTV5TKW8EI4DRB99U4E79NKOA","","","<img src=""img/flower3.png"" style=""width:200px; border:14px solid green;"">","null","","","","","",""
"470.4000000022352","","image-keyboard-response","144","183647","0.0-144.0","3IXQG4FA2UKUU88YWRK02KMNWXLB9I","AR5M3HHTQV9QY","3OYHVNTV5TKW8EI4DRB99U4E79NKOA","","","img/flower3.png","75","471.69999999925494","2","1","1","1,1,0,0,1,1,1,0,1",""
"null","","html-keyboard-response","145","183951","0.0-145.0","3IXQG4FA2UKUU88YWRK02KMNWXLB9I","AR5M3HHTQV9QY","3OYHVNTV5TKW8EI4DRB99U4E79NKOA","","","<img src=""img/flower3.png"" style=""width:200px; border:14px solid green;"">","null","","","","","",""
"366.80000000074506","","image-keyboard-response","146","184320","0.0-146.0","3IXQG4FA2UKUU88YWRK02KMNWXLB9I","AR5M3HHTQV9QY","3OYHVNTV5TKW8EI4DRB99U4E79NKOA","","","img/flower3.png","75","368","2","1","1","1,1,0,0,1,1,1,0,1",""
"null","","html-keyboard-response","147","184623","0.0-147.0","3IXQG4FA2UKUU88YWRK02KMNWXLB9I","AR5M3HHTQV9QY","3OYHVNTV5TKW8EI4DRB99U4E79NKOA","","","<img src=""img/flower3.png"" style=""width:200px; border:14px solid green;"">","null","","","","","",""
"292.29999999701977","","image-keyboard-response","148","184917","0.0-148.0","3IXQG4FA2UKUU88YWRK02KMNWXLB9I","AR5M3HHTQV9QY","3OYHVNTV5TKW8EI4DRB99U4E79NKOA","","","img/flower3.png","75","293.69999999925494","2","1","1","1,1,0,0,1,1,1,0,1",""
"null","","html-keyboard-response","149","185224","0.0-149.0","3IXQG4FA2UKUU88YWRK02KMNWXLB9I","AR5M3HHTQV9QY","3OYHVNTV5TKW8EI4DRB99U4E79NKOA","","","<img src=""img/flower3.png"" style=""width:200px; border:14px solid green;"">","null","","","","","",""
"764.3000000007451","","image-keyboard-response","150","185990","0.0-150.0","3IXQG4FA2UKUU88YWRK02KMNWXLB9I","AR5M3HHTQV9QY","3OYHVNTV5TKW8EI4DRB99U4E79NKOA","","","img/flower2.png","74","765.7000000029802","1","1","3","1,1,0,0,1,1,1,0,1",""
"null","","html-keyboard-response","151","186295","0.0-151.0","3IXQG4FA2UKUU88YWRK02KMNWXLB9I","AR5M3HHTQV9QY","3OYHVNTV5TKW8EI4DRB99U4E79NKOA","","","<img src=""img/flower2.png"" style=""width:200px; border:14px solid green;"">","null","","","","","",""
"656.8999999985099","","image-keyboard-response","152","186954","0.0-152.0","3IXQG4FA2UKUU88YWRK02KMNWXLB9I","AR5M3HHTQV9QY","3OYHVNTV5TKW8EI4DRB99U4E79NKOA","","","img/flower3.png","75","658.1000000014901","2","1","1","1,1,0,0,1,1,1,0,1",""
"null","","html-keyboard-response","153","187264","0.0-153.0","3IXQG4FA2UKUU88YWRK02KMNWXLB9I","AR5M3HHTQV9QY","3OYHVNTV5TKW8EI4DRB99U4E79NKOA","","","<img src=""img/flower3.png"" style=""width:200px; border:14px solid green;"">","null","","","","","",""
"486.5","","image-keyboard-response","154","187752","0.0-154.0","3IXQG4FA2UKUU88YWRK02KMNWXLB9I","AR5M3HHTQV9QY","3OYHVNTV5TKW8EI4DRB99U4E79NKOA","","","img/flower6.png","76","487.69999999925494","3","1","2","1,1,0,0,1,1,1,0,1",""
"null","","html-keyboard-response","155","188055","0.0-155.0","3IXQG4FA2UKUU88YWRK02KMNWXLB9I","AR5M3HHTQV9QY","3OYHVNTV5TKW8EI4DRB99U4E79NKOA","","","<img src=""img/flower6.png"" style=""width:200px; border:14px solid green;"">","null","","","","","",""
"889.6000000014901","","image-keyboard-response","156","188947","0.0-156.0","3IXQG4FA2UKUU88YWRK02KMNWXLB9I","AR5M3HHTQV9QY","3OYHVNTV5TKW8EI4DRB99U4E79NKOA","","","img/flower3.png","75","890.8999999985099","2","1","1","1,1,0,0,1,1,1,0,1",""
"null","","html-keyboard-response","157","189250","0.0-157.0","3IXQG4FA2UKUU88YWRK02KMNWXLB9I","AR5M3HHTQV9QY","3OYHVNTV5TKW8EI4DRB99U4E79NKOA","","","<img src=""img/flower3.png"" style=""width:200px; border:14px solid green;"">","null","","","","","",""
"367.3999999985099","","image-keyboard-response","158","189619","0.0-158.0","3IXQG4FA2UKUU88YWRK02KMNWXLB9I","AR5M3HHTQV9QY","3OYHVNTV5TKW8EI4DRB99U4E79NKOA","","","img/flower3.png","75","368.80000000074506","2","1","1","1,1,0,0,1,1,1,0,1",""
"null","","html-keyboard-response","159","189928","0.0-159.0","3IXQG4FA2UKUU88YWRK02KMNWXLB9I","AR5M3HHTQV9QY","3OYHVNTV5TKW8EI4DRB99U4E79NKOA","","","<img src=""img/flower3.png"" style=""width:200px; border:14px solid green;"">","null","","","","","",""
"490.19999999925494","","image-keyboard-response","160","190420","0.0-160.0","3IXQG4FA2UKUU88YWRK02KMNWXLB9I","AR5M3HHTQV9QY","3OYHVNTV5TKW8EI4DRB99U4E79NKOA","","","img/flower6.png","74","491.5999999977648","1","0","2","1,1,0,0,1,1,1,0,1",""
"null","","html-keyboard-response","161","190727","0.0-161.0","3IXQG4FA2UKUU88YWRK02KMNWXLB9I","AR5M3HHTQV9QY","3OYHVNTV5TKW8EI4DRB99U4E79NKOA","","","<img src=""img/flower6.png"" style=""width:200px;border:14px solid red;"">","null","","","","","",""
"918.8000000007451","","image-keyboard-response","162","191648","0.0-162.0","3IXQG4FA2UKUU88YWRK02KMNWXLB9I","AR5M3HHTQV9QY","3OYHVNTV5TKW8EI4DRB99U4E79NKOA","","","img/flower2.png","74","920.5","1","1","3","1,1,0,0,1,1,1,0,1",""
"null","","html-keyboard-response","163","191952","0.0-163.0","3IXQG4FA2UKUU88YWRK02KMNWXLB9I","AR5M3HHTQV9QY","3OYHVNTV5TKW8EI4DRB99U4E79NKOA","","","<img src=""img/flower2.png"" style=""width:200px; border:14px solid green;"">","null","","","","","",""
"658.1999999992549","","image-keyboard-response","164","192612","0.0-164.0","3IXQG4FA2UKUU88YWRK02KMNWXLB9I","AR5M3HHTQV9QY","3OYHVNTV5TKW8EI4DRB99U4E79NKOA","","","img/flower6.png","76","659.8000000007451","3","1","2","1,1,0,0,1,1,1,0,1",""
"null","","html-keyboard-response","165","192914","0.0-165.0","3IXQG4FA2UKUU88YWRK02KMNWXLB9I","AR5M3HHTQV9QY","3OYHVNTV5TKW8EI4DRB99U4E79NKOA","","","<img src=""img/flower6.png"" style=""width:200px; border:14px solid green;"">","null","","","","","",""
"375.6000000014901","","image-keyboard-response","166","193291","0.0-166.0","3IXQG4FA2UKUU88YWRK02KMNWXLB9I","AR5M3HHTQV9QY","3OYHVNTV5TKW8EI4DRB99U4E79NKOA","","","img/flower6.png","76","376.69999999925494","3","1","2","1,1,0,0,1,1,1,0,1",""
"null","","html-keyboard-response","167","193600","0.0-167.0","3IXQG4FA2UKUU88YWRK02KMNWXLB9I","AR5M3HHTQV9QY","3OYHVNTV5TKW8EI4DRB99U4E79NKOA","","","<img src=""img/flower6.png"" style=""width:200px; border:14px solid green;"">","null","","","","","",""
"318.6000000014901","","image-keyboard-response","168","193920","0.0-168.0","3IXQG4FA2UKUU88YWRK02KMNWXLB9I","AR5M3HHTQV9QY","3OYHVNTV5TKW8EI4DRB99U4E79NKOA","","","img/flower6.png","76","320.1000000014901","3","1","2","1,1,0,0,1,1,1,0,1",""
"null","","html-keyboard-response","169","194223","0.0-169.0","3IXQG4FA2UKUU88YWRK02KMNWXLB9I","AR5M3HHTQV9QY","3OYHVNTV5TKW8EI4DRB99U4E79NKOA","","","<img src=""img/flower6.png"" style=""width:200px; border:14px solid green;"">","null","","","","","",""
"286.6000000014901","","image-keyboard-response","170","194511","0.0-170.0","3IXQG4FA2UKUU88YWRK02KMNWXLB9I","AR5M3HHTQV9QY","3OYHVNTV5TKW8EI4DRB99U4E79NKOA","","","img/flower6.png","76","288","3","1","2","1,1,0,0,1,1,1,0,1",""
"null","","html-keyboard-response","171","194816","0.0-171.0","3IXQG4FA2UKUU88YWRK02KMNWXLB9I","AR5M3HHTQV9QY","3OYHVNTV5TKW8EI4DRB99U4E79NKOA","","","<img src=""img/flower6.png"" style=""width:200px; border:14px solid green;"">","null","","","","","",""
"320.20000000298023","","image-keyboard-response","172","195137","0.0-172.0","3IXQG4FA2UKUU88YWRK02KMNWXLB9I","AR5M3HHTQV9QY","3OYHVNTV5TKW8EI4DRB99U4E79NKOA","","","img/flower3.png","76","321.5","3","0","1","1,1,0,0,1,1,1,0,1",""
"null","","html-keyboard-response","173","195439","0.0-173.0","3IXQG4FA2UKUU88YWRK02KMNWXLB9I","AR5M3HHTQV9QY","3OYHVNTV5TKW8EI4DRB99U4E79NKOA","","","<img src=""img/flower3.png"" style=""width:200px;border:14px solid red;"">","null","","","","","",""
"731.0999999977648","","image-keyboard-response","174","196172","0.0-174.0","3IXQG4FA2UKUU88YWRK02KMNWXLB9I","AR5M3HHTQV9QY","3OYHVNTV5TKW8EI4DRB99U4E79NKOA","","","img/flower6.png","76","732.3999999985099","3","1","2","1,1,0,0,1,1,1,0,1",""
"null","","html-keyboard-response","175","196479","0.0-175.0","3IXQG4FA2UKUU88YWRK02KMNWXLB9I","AR5M3HHTQV9QY","3OYHVNTV5TKW8EI4DRB99U4E79NKOA","","","<img src=""img/flower6.png"" style=""width:200px; border:14px solid green;"">","null","","","","","",""
"635.6999999992549","","image-keyboard-response","176","197116","0.0-176.0","3IXQG4FA2UKUU88YWRK02KMNWXLB9I","AR5M3HHTQV9QY","3OYHVNTV5TKW8EI4DRB99U4E79NKOA","","","img/flower2.png","74","636.8999999985099","1","1","3","1,1,0,0,1,1,1,0,1",""
"null","","html-keyboard-response","177","197423","0.0-177.0","3IXQG4FA2UKUU88YWRK02KMNWXLB9I","AR5M3HHTQV9QY","3OYHVNTV5TKW8EI4DRB99U4E79NKOA","","","<img src=""img/flower2.png"" style=""width:200px; border:14px solid green;"">","null","","","","","",""
"386.8999999985099","","image-keyboard-response","178","197812","0.0-178.0","3IXQG4FA2UKUU88YWRK02KMNWXLB9I","AR5M3HHTQV9QY","3OYHVNTV5TKW8EI4DRB99U4E79NKOA","","","img/flower2.png","74","388.1000000014901","1","1","3","1,1,0,0,1,1,1,0,1",""
"null","","html-keyboard-response","179","198119","0.0-179.0","3IXQG4FA2UKUU88YWRK02KMNWXLB9I","AR5M3HHTQV9QY","3OYHVNTV5TKW8EI4DRB99U4E79NKOA","","","<img src=""img/flower2.png"" style=""width:200px; border:14px solid green;"">","null","","","","","",""
"706.6999999992549","","image-keyboard-response","180","198828","0.0-180.0","3IXQG4FA2UKUU88YWRK02KMNWXLB9I","AR5M3HHTQV9QY","3OYHVNTV5TKW8EI4DRB99U4E79NKOA","","","img/flower3.png","75","708","2","1","1","1,1,0,0,1,1,1,0,1",""
"null","","html-keyboard-response","181","199136","0.0-181.0","3IXQG4FA2UKUU88YWRK02KMNWXLB9I","AR5M3HHTQV9QY","3OYHVNTV5TKW8EI4DRB99U4E79NKOA","","","<img src=""img/flower3.png"" style=""width:200px; border:14px solid green;"">","null","","","","","",""
"629.6000000014901","","image-keyboard-response","182","199767","0.0-182.0","3IXQG4FA2UKUU88YWRK02KMNWXLB9I","AR5M3HHTQV9QY","3OYHVNTV5TKW8EI4DRB99U4E79NKOA","","","img/flower2.png","74","631.1000000014901","1","1","3","1,1,0,0,1,1,1,0,1",""
"null","","html-keyboard-response","183","200072","0.0-183.0","3IXQG4FA2UKUU88YWRK02KMNWXLB9I","AR5M3HHTQV9QY","3OYHVNTV5TKW8EI4DRB99U4E79NKOA","","","<img src=""img/flower2.png"" style=""width:200px; border:14px solid green;"">","null","","","","","",""
"443.69999999925494","","image-keyboard-response","184","200517","0.0-184.0","3IXQG4FA2UKUU88YWRK02KMNWXLB9I","AR5M3HHTQV9QY","3OYHVNTV5TKW8EI4DRB99U4E79NKOA","","","img/flower3.png","75","445","2","1","1","1,1,0,0,1,1,1,0,1",""
"null","","html-keyboard-response","185","200824","0.0-185.0","3IXQG4FA2UKUU88YWRK02KMNWXLB9I","AR5M3HHTQV9QY","3OYHVNTV5TKW8EI4DRB99U4E79NKOA","","","<img src=""img/flower3.png"" style=""width:200px; border:14px solid green;"">","null","","","","","",""
"579.5999999977648","","image-keyboard-response","186","201404","0.0-186.0","3IXQG4FA2UKUU88YWRK02KMNWXLB9I","AR5M3HHTQV9QY","3OYHVNTV5TKW8EI4DRB99U4E79NKOA","","","img/flower2.png","74","580.8000000007451","1","1","3","1,1,0,0,1,1,1,0,1",""
"null","","html-keyboard-response","187","201711","0.0-187.0","3IXQG4FA2UKUU88YWRK02KMNWXLB9I","AR5M3HHTQV9QY","3OYHVNTV5TKW8EI4DRB99U4E79NKOA","","","<img src=""img/flower2.png"" style=""width:200px; border:14px solid green;"">","null","","","","","",""
"413","","image-keyboard-response","188","202126","0.0-188.0","3IXQG4FA2UKUU88YWRK02KMNWXLB9I","AR5M3HHTQV9QY","3OYHVNTV5TKW8EI4DRB99U4E79NKOA","","","img/flower2.png","74","415.20000000298023","1","1","3","1,1,0,0,1,1,1,0,1",""
"null","","html-keyboard-response","189","202429","0.0-189.0","3IXQG4FA2UKUU88YWRK02KMNWXLB9I","AR5M3HHTQV9QY","3OYHVNTV5TKW8EI4DRB99U4E79NKOA","","","<img src=""img/flower2.png"" style=""width:200px; border:14px solid green;"">","null","","","","","",""
"344.80000000074506","","image-keyboard-response","190","202775","0.0-190.0","3IXQG4FA2UKUU88YWRK02KMNWXLB9I","AR5M3HHTQV9QY","3OYHVNTV5TKW8EI4DRB99U4E79NKOA","","","img/flower2.png","74","346.6000000014901","1","1","3","1,1,0,0,1,1,1,0,1",""
"null","","html-keyboard-response","191","203080","0.0-191.0","3IXQG4FA2UKUU88YWRK02KMNWXLB9I","AR5M3HHTQV9QY","3OYHVNTV5TKW8EI4DRB99U4E79NKOA","","","<img src=""img/flower2.png"" style=""width:200px; border:14px solid green;"">","null","","","","","",""
"321.70000000298023","","image-keyboard-response","192","203403","0.0-192.0","3IXQG4FA2UKUU88YWRK02KMNWXLB9I","AR5M3HHTQV9QY","3OYHVNTV5TKW8EI4DRB99U4E79NKOA","","","img/flower2.png","74","323.1000000014901","1","1","3","1,1,0,0,1,1,1,0,1",""
"null","","html-keyboard-response","193","203712","0.0-193.0","3IXQG4FA2UKUU88YWRK02KMNWXLB9I","AR5M3HHTQV9QY","3OYHVNTV5TKW8EI4DRB99U4E79NKOA","","","<img src=""img/flower2.png"" style=""width:200px; border:14px solid green;"">","null","","","","","",""
"290.3999999985099","","image-keyboard-response","194","204004","0.0-194.0","3IXQG4FA2UKUU88YWRK02KMNWXLB9I","AR5M3HHTQV9QY","3OYHVNTV5TKW8EI4DRB99U4E79NKOA","","","img/flower2.png","74","291.9000000022352","1","1","3","1,1,0,0,1,1,1,0,1",""
"null","","html-keyboard-response","195","204311","0.0-195.0","3IXQG4FA2UKUU88YWRK02KMNWXLB9I","AR5M3HHTQV9QY","3OYHVNTV5TKW8EI4DRB99U4E79NKOA","","","<img src=""img/flower2.png"" style=""width:200px; border:14px solid green;"">","null","","","","","",""
"460.5","","image-keyboard-response","196","204773","0.0-196.0","3IXQG4FA2UKUU88YWRK02KMNWXLB9I","AR5M3HHTQV9QY","3OYHVNTV5TKW8EI4DRB99U4E79NKOA","","","img/flower3.png","75","461.69999999925494","2","1","1","1,1,0,0,1,1,1,0,1",""
"null","","html-keyboard-response","197","205080","0.0-197.0","3IXQG4FA2UKUU88YWRK02KMNWXLB9I","AR5M3HHTQV9QY","3OYHVNTV5TKW8EI4DRB99U4E79NKOA","","","<img src=""img/flower3.png"" style=""width:200px; border:14px solid green;"">","null","","","","","",""
"614.5999999977648","","image-keyboard-response","198","205696","0.0-198.0","3IXQG4FA2UKUU88YWRK02KMNWXLB9I","AR5M3HHTQV9QY","3OYHVNTV5TKW8EI4DRB99U4E79NKOA","","","img/flower6.png","76","616.0999999977648","3","1","2","1,1,0,0,1,1,1,0,1",""
"null","","html-keyboard-response","199","205999","0.0-199.0","3IXQG4FA2UKUU88YWRK02KMNWXLB9I","AR5M3HHTQV9QY","3OYHVNTV5TKW8EI4DRB99U4E79NKOA","","","<img src=""img/flower6.png"" style=""width:200px; border:14px solid green;"">","null","","","","","",""
"355.69999999925494","","image-keyboard-response","200","206356","0.0-200.0","3IXQG4FA2UKUU88YWRK02KMNWXLB9I","AR5M3HHTQV9QY","3OYHVNTV5TKW8EI4DRB99U4E79NKOA","","","img/flower6.png","76","356.80000000074506","3","1","2","1,1,0,0,1,1,1,0,1",""
"null","","html-keyboard-response","201","206658","0.0-201.0","3IXQG4FA2UKUU88YWRK02KMNWXLB9I","AR5M3HHTQV9QY","3OYHVNTV5TKW8EI4DRB99U4E79NKOA","","","<img src=""img/flower6.png"" style=""width:200px; border:14px solid green;"">","null","","","","","",""
"489.5","","image-keyboard-response","202","207150","0.0-202.0","3IXQG4FA2UKUU88YWRK02KMNWXLB9I","AR5M3HHTQV9QY","3OYHVNTV5TKW8EI4DRB99U4E79NKOA","","","img/flower3.png","75","492.30000000074506","2","1","1","1,1,0,0,1,1,1,0,1",""
"null","","html-keyboard-response","203","207455","0.0-203.0","3IXQG4FA2UKUU88YWRK02KMNWXLB9I","AR5M3HHTQV9QY","3OYHVNTV5TKW8EI4DRB99U4E79NKOA","","","<img src=""img/flower3.png"" style=""width:200px; border:14px solid green;"">","null","","","","","",""
"309.5","","image-keyboard-response","204","207766","0.0-204.0","3IXQG4FA2UKUU88YWRK02KMNWXLB9I","AR5M3HHTQV9QY","3OYHVNTV5TKW8EI4DRB99U4E79NKOA","","","img/flower3.png","76","310.69999999925494","3","0","1","1,1,0,0,1,1,1,0,1",""
"null","","html-keyboard-response","205","208072","0.0-205.0","3IXQG4FA2UKUU88YWRK02KMNWXLB9I","AR5M3HHTQV9QY","3OYHVNTV5TKW8EI4DRB99U4E79NKOA","","","<img src=""img/flower3.png"" style=""width:200px;border:14px solid red;"">","null","","","","","",""
"272.4000000022352","","image-keyboard-response","206","208346","0.0-206.0","3IXQG4FA2UKUU88YWRK02KMNWXLB9I","AR5M3HHTQV9QY","3OYHVNTV5TKW8EI4DRB99U4E79NKOA","","","img/flower2.png","75","273.8999999985099","2","0","3","1,1,0,0,1,1,1,0,1",""
"null","","html-keyboard-response","207","208655","0.0-207.0","3IXQG4FA2UKUU88YWRK02KMNWXLB9I","AR5M3HHTQV9QY","3OYHVNTV5TKW8EI4DRB99U4E79NKOA","","","<img src=""img/flower2.png"" style=""width:200px;border:14px solid red;"">","null","","","","","",""
"379.6000000014901","","image-keyboard-response","208","209037","0.0-208.0","3IXQG4FA2UKUU88YWRK02KMNWXLB9I","AR5M3HHTQV9QY","3OYHVNTV5TKW8EI4DRB99U4E79NKOA","","","img/flower3.png","76","381.20000000298023","3","0","1","1,1,0,0,1,1,1,0,1",""
"null","","html-keyboard-response","209","209344","0.0-209.0","3IXQG4FA2UKUU88YWRK02KMNWXLB9I","AR5M3HHTQV9QY","3OYHVNTV5TKW8EI4DRB99U4E79NKOA","","","<img src=""img/flower3.png"" style=""width:200px;border:14px solid red;"">","null","","","","","",""
"438.5","","image-keyboard-response","210","209784","0.0-210.0","3IXQG4FA2UKUU88YWRK02KMNWXLB9I","AR5M3HHTQV9QY","3OYHVNTV5TKW8EI4DRB99U4E79NKOA","","","img/flower3.png","75","440.0999999977648","2","1","1","1,1,0,0,1,1,1,0,1",""
"null","","html-keyboard-response","211","210087","0.0-211.0","3IXQG4FA2UKUU88YWRK02KMNWXLB9I","AR5M3HHTQV9QY","3OYHVNTV5TKW8EI4DRB99U4E79NKOA","","","<img src=""img/flower3.png"" style=""width:200px; border:14px solid green;"">","null","","","","","",""
"647.9000000022352","","image-keyboard-response","212","210737","0.0-212.0","3IXQG4FA2UKUU88YWRK02KMNWXLB9I","AR5M3HHTQV9QY","3OYHVNTV5TKW8EI4DRB99U4E79NKOA","","","img/flower2.png","74","649.0999999977648","1","1","3","1,1,0,0,1,1,1,0,1",""
"null","","html-keyboard-response","213","211039","0.0-213.0","3IXQG4FA2UKUU88YWRK02KMNWXLB9I","AR5M3HHTQV9QY","3OYHVNTV5TKW8EI4DRB99U4E79NKOA","","","<img src=""img/flower2.png"" style=""width:200px; border:14px solid green;"">","null","","","","","",""
"568.1000000014901","","image-keyboard-response","214","211609","0.0-214.0","3IXQG4FA2UKUU88YWRK02KMNWXLB9I","AR5M3HHTQV9QY","3OYHVNTV5TKW8EI4DRB99U4E79NKOA","","","img/flower6.png","76","569.3000000007451","3","1","2","1,1,0,0,1,1,1,0,1",""
"null","","html-keyboard-response","215","211911","0.0-215.0","3IXQG4FA2UKUU88YWRK02KMNWXLB9I","AR5M3HHTQV9QY","3OYHVNTV5TKW8EI4DRB99U4E79NKOA","","","<img src=""img/flower6.png"" style=""width:200px; border:14px solid green;"">","null","","","","","",""
"797.6999999992549","","image-keyboard-response","216","212711","0.0-216.0","3IXQG4FA2UKUU88YWRK02KMNWXLB9I","AR5M3HHTQV9QY","3OYHVNTV5TKW8EI4DRB99U4E79NKOA","","","img/flower3.png","75","798.9000000022352","2","1","1","1,1,0,0,1,1,1,0,1",""
"null","","html-keyboard-response","217","213015","0.0-217.0","3IXQG4FA2UKUU88YWRK02KMNWXLB9I","AR5M3HHTQV9QY","3OYHVNTV5TKW8EI4DRB99U4E79NKOA","","","<img src=""img/flower3.png"" style=""width:200px; border:14px solid green;"">","null","","","","","",""
"334.80000000074506","","image-keyboard-response","218","213352","0.0-218.0","3IXQG4FA2UKUU88YWRK02KMNWXLB9I","AR5M3HHTQV9QY","3OYHVNTV5TKW8EI4DRB99U4E79NKOA","","","img/flower3.png","75","336","2","1","1","1,1,0,0,1,1,1,0,1",""
"null","","html-keyboard-response","219","213655","0.0-219.0","3IXQG4FA2UKUU88YWRK02KMNWXLB9I","AR5M3HHTQV9QY","3OYHVNTV5TKW8EI4DRB99U4E79NKOA","","","<img src=""img/flower3.png"" style=""width:200px; border:14px solid green;"">","null","","","","","",""
"527.6999999992549","","image-keyboard-response","220","214184","0.0-220.0","3IXQG4FA2UKUU88YWRK02KMNWXLB9I","AR5M3HHTQV9QY","3OYHVNTV5TKW8EI4DRB99U4E79NKOA","","","img/flower2.png","74","528.8999999985099","1","1","3","1,1,0,0,1,1,1,0,1",""
"null","","html-keyboard-response","221","214487","0.0-221.0","3IXQG4FA2UKUU88YWRK02KMNWXLB9I","AR5M3HHTQV9QY","3OYHVNTV5TKW8EI4DRB99U4E79NKOA","","","<img src=""img/flower2.png"" style=""width:200px; border:14px solid green;"">","null","","","","","",""
"606.6999999992549","","image-keyboard-response","222","215096","0.0-222.0","3IXQG4FA2UKUU88YWRK02KMNWXLB9I","AR5M3HHTQV9QY","3OYHVNTV5TKW8EI4DRB99U4E79NKOA","","","img/flower6.png","76","608","3","1","2","1,1,0,0,1,1,1,0,1",""
"null","","html-keyboard-response","223","215400","0.0-223.0","3IXQG4FA2UKUU88YWRK02KMNWXLB9I","AR5M3HHTQV9QY","3OYHVNTV5TKW8EI4DRB99U4E79NKOA","","","<img src=""img/flower6.png"" style=""width:200px; border:14px solid green;"">","null","","","","","",""
"540","","image-keyboard-response","224","215941","0.0-224.0","3IXQG4FA2UKUU88YWRK02KMNWXLB9I","AR5M3HHTQV9QY","3OYHVNTV5TKW8EI4DRB99U4E79NKOA","","","img/flower3.png","74","541.1999999992549","1","1","1","1,1,0,0,1,1,1,0,1",""
"null","","html-keyboard-response","225","216248","0.0-225.0","3IXQG4FA2UKUU88YWRK02KMNWXLB9I","AR5M3HHTQV9QY","3OYHVNTV5TKW8EI4DRB99U4E79NKOA","","","<img src=""img/flower3.png"" style=""width:200px; border:14px solid green;"">","null","","","","","",""
"962.8999999985099","","image-keyboard-response","226","217212","0.0-226.0","3IXQG4FA2UKUU88YWRK02KMNWXLB9I","AR5M3HHTQV9QY","3OYHVNTV5TKW8EI4DRB99U4E79NKOA","","","img/flower2.png","74","964.2999999970198","1","1","3","1,1,0,0,1,1,1,0,1",""
"null","","html-keyboard-response","227","217519","0.0-227.0","3IXQG4FA2UKUU88YWRK02KMNWXLB9I","AR5M3HHTQV9QY","3OYHVNTV5TKW8EI4DRB99U4E79NKOA","","","<img src=""img/flower2.png"" style=""width:200px; border:14px solid green;"">","null","","","","","",""
"445.29999999701977","","image-keyboard-response","228","217966","0.0-228.0","3IXQG4FA2UKUU88YWRK02KMNWXLB9I","AR5M3HHTQV9QY","3OYHVNTV5TKW8EI4DRB99U4E79NKOA","","","img/flower3.png","75","446.4000000022352","2","1","1","1,1,0,0,1,1,1,0,1",""
"null","","html-keyboard-response","229","218268","0.0-229.0","3IXQG4FA2UKUU88YWRK02KMNWXLB9I","AR5M3HHTQV9QY","3OYHVNTV5TKW8EI4DRB99U4E79NKOA","","","<img src=""img/flower3.png"" style=""width:200px; border:14px solid green;"">","null","","","","","",""
"294.69999999925494","","image-keyboard-response","230","218564","0.0-230.0","3IXQG4FA2UKUU88YWRK02KMNWXLB9I","AR5M3HHTQV9QY","3OYHVNTV5TKW8EI4DRB99U4E79NKOA","","","img/flower3.png","75","295.80000000074506","2","1","1","1,1,0,0,1,1,1,0,1",""
"null","","html-keyboard-response","231","218866","0.0-231.0","3IXQG4FA2UKUU88YWRK02KMNWXLB9I","AR5M3HHTQV9QY","3OYHVNTV5TKW8EI4DRB99U4E79NKOA","","","<img src=""img/flower3.png"" style=""width:200px; border:14px solid green;"">","null","","","","","",""
"328","","image-keyboard-response","232","219195","0.0-232.0","3IXQG4FA2UKUU88YWRK02KMNWXLB9I","AR5M3HHTQV9QY","3OYHVNTV5TKW8EI4DRB99U4E79NKOA","","","img/flower3.png","75","329.19999999925494","2","1","1","1,1,0,0,1,1,1,0,1",""
"null","","html-keyboard-response","233","219503","0.0-233.0","3IXQG4FA2UKUU88YWRK02KMNWXLB9I","AR5M3HHTQV9QY","3OYHVNTV5TKW8EI4DRB99U4E79NKOA","","","<img src=""img/flower3.png"" style=""width:200px; border:14px solid green;"">","null","","","","","",""
"606.9000000022352","","image-keyboard-response","234","220112","0.0-234.0","3IXQG4FA2UKUU88YWRK02KMNWXLB9I","AR5M3HHTQV9QY","3OYHVNTV5TKW8EI4DRB99U4E79NKOA","","","img/flower6.png","76","608.1000000014901","3","1","2","1,1,0,0,1,1,1,0,1",""
"null","","html-keyboard-response","235","220416","0.0-235.0","3IXQG4FA2UKUU88YWRK02KMNWXLB9I","AR5M3HHTQV9QY","3OYHVNTV5TKW8EI4DRB99U4E79NKOA","","","<img src=""img/flower6.png"" style=""width:200px; border:14px solid green;"">","null","","","","","",""
"308.79999999701977","","image-keyboard-response","236","220726","0.0-236.0","3IXQG4FA2UKUU88YWRK02KMNWXLB9I","AR5M3HHTQV9QY","3OYHVNTV5TKW8EI4DRB99U4E79NKOA","","","img/flower3.png","76","310.3999999985099","3","0","1","1,1,0,0,1,1,1,0,1",""
"null","","html-keyboard-response","237","221039","0.0-237.0","3IXQG4FA2UKUU88YWRK02KMNWXLB9I","AR5M3HHTQV9QY","3OYHVNTV5TKW8EI4DRB99U4E79NKOA","","","<img src=""img/flower3.png"" style=""width:200px;border:14px solid red;"">","null","","","","","",""
"639.0999999977648","","image-keyboard-response","238","221680","0.0-238.0","3IXQG4FA2UKUU88YWRK02KMNWXLB9I","AR5M3HHTQV9QY","3OYHVNTV5TKW8EI4DRB99U4E79NKOA","","","img/flower2.png","74","640.3000000007451","1","1","3","1,1,0,0,1,1,1,0,1",""
"null","","html-keyboard-response","239","221984","0.0-239.0","3IXQG4FA2UKUU88YWRK02KMNWXLB9I","AR5M3HHTQV9QY","3OYHVNTV5TKW8EI4DRB99U4E79NKOA","","","<img src=""img/flower2.png"" style=""width:200px; border:14px solid green;"">","null","","","","","",""
"548.6999999992549","","image-keyboard-response","240","222534","0.0-240.0","3IXQG4FA2UKUU88YWRK02KMNWXLB9I","AR5M3HHTQV9QY","3OYHVNTV5TKW8EI4DRB99U4E79NKOA","","","img/flower3.png","75","550","2","1","1","1,1,0,0,1,1,1,0,1",""
"null","","html-keyboard-response","241","222840","0.0-241.0","3IXQG4FA2UKUU88YWRK02KMNWXLB9I","AR5M3HHTQV9QY","3OYHVNTV5TKW8EI4DRB99U4E79NKOA","","","<img src=""img/flower3.png"" style=""width:200px; border:14px solid green;"">","null","","","","","",""
"528.1000000014901","","image-keyboard-response","242","223370","0.0-242.0","3IXQG4FA2UKUU88YWRK02KMNWXLB9I","AR5M3HHTQV9QY","3OYHVNTV5TKW8EI4DRB99U4E79NKOA","","","img/flower6.png","76","529.5999999977648","3","1","2","1,1,0,0,1,1,1,0,1",""
"null","","html-keyboard-response","243","223671","0.0-243.0","3IXQG4FA2UKUU88YWRK02KMNWXLB9I","AR5M3HHTQV9QY","3OYHVNTV5TKW8EI4DRB99U4E79NKOA","","","<img src=""img/flower6.png"" style=""width:200px; border:14px solid green;"">","null","","","","","",""
"631.3999999985099","","image-keyboard-response","244","224304","0.0-244.0","3IXQG4FA2UKUU88YWRK02KMNWXLB9I","AR5M3HHTQV9QY","3OYHVNTV5TKW8EI4DRB99U4E79NKOA","","","img/flower2.png","74","632.8000000007451","1","1","3","1,1,0,0,1,1,1,0,1",""
"null","","html-keyboard-response","245","224608","0.0-245.0","3IXQG4FA2UKUU88YWRK02KMNWXLB9I","AR5M3HHTQV9QY","3OYHVNTV5TKW8EI4DRB99U4E79NKOA","","","<img src=""img/flower2.png"" style=""width:200px; border:14px solid green;"">","null","","","","","",""
"507.8999999985099","","image-keyboard-response","246","225117","0.0-246.0","3IXQG4FA2UKUU88YWRK02KMNWXLB9I","AR5M3HHTQV9QY","3OYHVNTV5TKW8EI4DRB99U4E79NKOA","","","img/flower6.png","75","509.19999999925494","2","1","2","1,1,0,0,1,1,1,0,1",""
"null","","html-keyboard-response","247","225423","0.0-247.0","3IXQG4FA2UKUU88YWRK02KMNWXLB9I","AR5M3HHTQV9QY","3OYHVNTV5TKW8EI4DRB99U4E79NKOA","","","<img src=""img/flower6.png"" style=""width:200px; border:14px solid green;"">","null","","","","","",""
"889.5","","image-keyboard-response","248","226315","0.0-248.0","3IXQG4FA2UKUU88YWRK02KMNWXLB9I","AR5M3HHTQV9QY","3OYHVNTV5TKW8EI4DRB99U4E79NKOA","","","img/flower6.png","76","891.0999999977648","3","1","2","1,1,0,0,1,1,1,0,1",""
"null","","html-keyboard-response","249","226623","0.0-249.0","3IXQG4FA2UKUU88YWRK02KMNWXLB9I","AR5M3HHTQV9QY","3OYHVNTV5TKW8EI4DRB99U4E79NKOA","","","<img src=""img/flower6.png"" style=""width:200px; border:14px solid green;"">","null","","","","","",""
"663.1000000014901","","image-keyboard-response","250","227288","0.0-250.0","3IXQG4FA2UKUU88YWRK02KMNWXLB9I","AR5M3HHTQV9QY","3OYHVNTV5TKW8EI4DRB99U4E79NKOA","","","img/flower2.png","74","664.3999999985099","1","1","3","1,1,0,0,1,1,1,0,1",""
"null","","html-keyboard-response","251","227592","0.0-251.0","3IXQG4FA2UKUU88YWRK02KMNWXLB9I","AR5M3HHTQV9QY","3OYHVNTV5TKW8EI4DRB99U4E79NKOA","","","<img src=""img/flower2.png"" style=""width:200px; border:14px solid green;"">","null","","","","","",""
"318.30000000074506","","image-keyboard-response","252","227912","0.0-252.0","3IXQG4FA2UKUU88YWRK02KMNWXLB9I","AR5M3HHTQV9QY","3OYHVNTV5TKW8EI4DRB99U4E79NKOA","","","img/flower2.png","74","319.79999999701977","1","1","3","1,1,0,0,1,1,1,0,1",""
"null","","html-keyboard-response","253","228215","0.0-253.0","3IXQG4FA2UKUU88YWRK02KMNWXLB9I","AR5M3HHTQV9QY","3OYHVNTV5TKW8EI4DRB99U4E79NKOA","","","<img src=""img/flower2.png"" style=""width:200px; border:14px solid green;"">","null","","","","","",""
"585.1999999992549","","image-keyboard-response","254","228802","0.0-254.0","3IXQG4FA2UKUU88YWRK02KMNWXLB9I","AR5M3HHTQV9QY","3OYHVNTV5TKW8EI4DRB99U4E79NKOA","","","img/flower6.png","76","586.5","3","1","2","1,1,0,0,1,1,1,0,1",""
"null","","html-keyboard-response","255","229112","0.0-255.0","3IXQG4FA2UKUU88YWRK02KMNWXLB9I","AR5M3HHTQV9QY","3OYHVNTV5TKW8EI4DRB99U4E79NKOA","","","<img src=""img/flower6.png"" style=""width:200px; border:14px solid green;"">","null","","","","","",""
"911.3000000007451","","image-keyboard-response","256","230025","0.0-256.0","3IXQG4FA2UKUU88YWRK02KMNWXLB9I","AR5M3HHTQV9QY","3OYHVNTV5TKW8EI4DRB99U4E79NKOA","","","img/flower3.png","75","912.6000000014901","2","1","1","1,1,0,0,1,1,1,0,1",""
"null","","html-keyboard-response","257","230328","0.0-257.0","3IXQG4FA2UKUU88YWRK02KMNWXLB9I","AR5M3HHTQV9QY","3OYHVNTV5TKW8EI4DRB99U4E79NKOA","","","<img src=""img/flower3.png"" style=""width:200px; border:14px solid green;"">","null","","","","","",""
"627.2999999970198","","image-keyboard-response","258","230956","0.0-258.0","3IXQG4FA2UKUU88YWRK02KMNWXLB9I","AR5M3HHTQV9QY","3OYHVNTV5TKW8EI4DRB99U4E79NKOA","","","img/flower6.png","76","628.5","3","1","2","1,1,0,0,1,1,1,0,1",""
"null","","html-keyboard-response","259","231263","0.0-259.0","3IXQG4FA2UKUU88YWRK02KMNWXLB9I","AR5M3HHTQV9QY","3OYHVNTV5TKW8EI4DRB99U4E79NKOA","","","<img src=""img/flower6.png"" style=""width:200px; border:14px solid green;"">","null","","","","","",""
"578.8000000007451","","image-keyboard-response","260","231844","0.0-260.0","3IXQG4FA2UKUU88YWRK02KMNWXLB9I","AR5M3HHTQV9QY","3OYHVNTV5TKW8EI4DRB99U4E79NKOA","","","img/flower2.png","74","580.1000000014901","1","1","3","1,1,0,0,1,1,1,0,1",""
"null","","html-keyboard-response","261","232151","0.0-261.0","3IXQG4FA2UKUU88YWRK02KMNWXLB9I","AR5M3HHTQV9QY","3OYHVNTV5TKW8EI4DRB99U4E79NKOA","","","<img src=""img/flower2.png"" style=""width:200px; border:14px solid green;"">","null","","","","","",""
"577.1999999992549","","image-keyboard-response","262","232730","0.0-262.0","3IXQG4FA2UKUU88YWRK02KMNWXLB9I","AR5M3HHTQV9QY","3OYHVNTV5TKW8EI4DRB99U4E79NKOA","","","img/flower3.png","75","578.5","2","1","1","1,1,0,0,1,1,1,0,1",""
"null","","html-keyboard-response","263","233039","0.0-263.0","3IXQG4FA2UKUU88YWRK02KMNWXLB9I","AR5M3HHTQV9QY","3OYHVNTV5TKW8EI4DRB99U4E79NKOA","","","<img src=""img/flower3.png"" style=""width:200px; border:14px solid green;"">","null","","","","","",""
"465.19999999925494","","image-keyboard-response","264","233506","0.0-264.0","3IXQG4FA2UKUU88YWRK02KMNWXLB9I","AR5M3HHTQV9QY","3OYHVNTV5TKW8EI4DRB99U4E79NKOA","","","img/flower6.png","76","466.3999999985099","3","1","2","1,1,0,0,1,1,1,0,1",""
"null","","html-keyboard-response","265","233815","0.0-265.0","3IXQG4FA2UKUU88YWRK02KMNWXLB9I","AR5M3HHTQV9QY","3OYHVNTV5TKW8EI4DRB99U4E79NKOA","","","<img src=""img/flower6.png"" style=""width:200px; border:14px solid green;"">","null","","","","","",""
"438.69999999925494","","image-keyboard-response","266","234255","0.0-266.0","3IXQG4FA2UKUU88YWRK02KMNWXLB9I","AR5M3HHTQV9QY","3OYHVNTV5TKW8EI4DRB99U4E79NKOA","","","img/flower6.png","76","439.9000000022352","3","1","2","1,1,0,0,1,1,1,0,1",""
"null","","html-keyboard-response","267","234559","0.0-267.0","3IXQG4FA2UKUU88YWRK02KMNWXLB9I","AR5M3HHTQV9QY","3OYHVNTV5TKW8EI4DRB99U4E79NKOA","","","<img src=""img/flower6.png"" style=""width:200px; border:14px solid green;"">","null","","","","","",""
"471.3999999985099","","image-keyboard-response","268","235033","0.0-268.0","3IXQG4FA2UKUU88YWRK02KMNWXLB9I","AR5M3HHTQV9QY","3OYHVNTV5TKW8EI4DRB99U4E79NKOA","","","img/flower3.png","75","473.1000000014901","2","1","1","1,1,0,0,1,1,1,0,1",""
"null","","html-keyboard-response","269","235335","0.0-269.0","3IXQG4FA2UKUU88YWRK02KMNWXLB9I","AR5M3HHTQV9QY","3OYHVNTV5TKW8EI4DRB99U4E79NKOA","","","<img src=""img/flower3.png"" style=""width:200px; border:14px solid green;"">","null","","","","","",""
"430.5999999977648","","image-keyboard-response","270","235767","0.0-270.0","3IXQG4FA2UKUU88YWRK02KMNWXLB9I","AR5M3HHTQV9QY","3OYHVNTV5TKW8EI4DRB99U4E79NKOA","","","img/flower3.png","75","431.80000000074506","2","1","1","1,1,0,0,1,1,1,0,1",""
"null","","html-keyboard-response","271","236071","0.0-271.0","3IXQG4FA2UKUU88YWRK02KMNWXLB9I","AR5M3HHTQV9QY","3OYHVNTV5TKW8EI4DRB99U4E79NKOA","","","<img src=""img/flower3.png"" style=""width:200px; border:14px solid green;"">","null","","","","","",""
"607.6999999992549","","image-keyboard-response","272","236681","0.0-272.0","3IXQG4FA2UKUU88YWRK02KMNWXLB9I","AR5M3HHTQV9QY","3OYHVNTV5TKW8EI4DRB99U4E79NKOA","","","img/flower6.png","76","609.6999999992549","3","1","2","1,1,0,0,1,1,1,0,1",""
"null","","html-keyboard-response","273","236984","0.0-273.0","3IXQG4FA2UKUU88YWRK02KMNWXLB9I","AR5M3HHTQV9QY","3OYHVNTV5TKW8EI4DRB99U4E79NKOA","","","<img src=""img/flower6.png"" style=""width:200px; border:14px solid green;"">","null","","","","","",""
"387.0999999977648","","image-keyboard-response","274","237373","0.0-274.0","3IXQG4FA2UKUU88YWRK02KMNWXLB9I","AR5M3HHTQV9QY","3OYHVNTV5TKW8EI4DRB99U4E79NKOA","","","img/flower6.png","76","388.69999999925494","3","1","2","1,1,0,0,1,1,1,0,1",""
"null","","html-keyboard-response","275","237679","0.0-275.0","3IXQG4FA2UKUU88YWRK02KMNWXLB9I","AR5M3HHTQV9QY","3OYHVNTV5TKW8EI4DRB99U4E79NKOA","","","<img src=""img/flower6.png"" style=""width:200px; border:14px solid green;"">","null","","","","","",""
"379.0999999977648","","image-keyboard-response","276","238060","0.0-276.0","3IXQG4FA2UKUU88YWRK02KMNWXLB9I","AR5M3HHTQV9QY","3OYHVNTV5TKW8EI4DRB99U4E79NKOA","","","img/flower6.png","76","380.5","3","1","2","1,1,0,0,1,1,1,0,1",""
"null","","html-keyboard-response","277","238367","0.0-277.0","3IXQG4FA2UKUU88YWRK02KMNWXLB9I","AR5M3HHTQV9QY","3OYHVNTV5TKW8EI4DRB99U4E79NKOA","","","<img src=""img/flower6.png"" style=""width:200px; border:14px solid green;"">","null","","","","","",""
"476","","image-keyboard-response","278","238845","0.0-278.0","3IXQG4FA2UKUU88YWRK02KMNWXLB9I","AR5M3HHTQV9QY","3OYHVNTV5TKW8EI4DRB99U4E79NKOA","","","img/flower2.png","75","477.19999999925494","2","0","3","1,1,0,0,1,1,1,0,1",""
"null","","html-keyboard-response","279","239151","0.0-279.0","3IXQG4FA2UKUU88YWRK02KMNWXLB9I","AR5M3HHTQV9QY","3OYHVNTV5TKW8EI4DRB99U4E79NKOA","","","<img src=""img/flower2.png"" style=""width:200px;border:14px solid red;"">","null","","","","","",""
"381.19999999925494","","image-keyboard-response","280","239535","0.0-280.0","3IXQG4FA2UKUU88YWRK02KMNWXLB9I","AR5M3HHTQV9QY","3OYHVNTV5TKW8EI4DRB99U4E79NKOA","","","img/flower2.png","74","383.20000000298023","1","1","3","1,1,0,0,1,1,1,0,1",""
"null","","html-keyboard-response","281","239839","0.0-281.0","3IXQG4FA2UKUU88YWRK02KMNWXLB9I","AR5M3HHTQV9QY","3OYHVNTV5TKW8EI4DRB99U4E79NKOA","","","<img src=""img/flower2.png"" style=""width:200px; border:14px solid green;"">","null","","","","","",""
"629.6999999992549","","image-keyboard-response","282","240470","0.0-282.0","3IXQG4FA2UKUU88YWRK02KMNWXLB9I","AR5M3HHTQV9QY","3OYHVNTV5TKW8EI4DRB99U4E79NKOA","","","img/flower6.png","76","630.8999999985099","3","1","2","1,1,0,0,1,1,1,0,1",""
"null","","html-keyboard-response","283","240775","0.0-283.0","3IXQG4FA2UKUU88YWRK02KMNWXLB9I","AR5M3HHTQV9QY","3OYHVNTV5TKW8EI4DRB99U4E79NKOA","","","<img src=""img/flower6.png"" style=""width:200px; border:14px solid green;"">","null","","","","","",""
"388.6000000014901","","image-keyboard-response","284","241166","0.0-284.0","3IXQG4FA2UKUU88YWRK02KMNWXLB9I","AR5M3HHTQV9QY","3OYHVNTV5TKW8EI4DRB99U4E79NKOA","","","img/flower6.png","75","390","2","1","2","1,1,0,0,1,1,1,0,1",""
"null","","html-keyboard-response","285","241471","0.0-285.0","3IXQG4FA2UKUU88YWRK02KMNWXLB9I","AR5M3HHTQV9QY","3OYHVNTV5TKW8EI4DRB99U4E79NKOA","","","<img src=""img/flower6.png"" style=""width:200px; border:14px solid green;"">","null","","","","","",""
"609","","image-keyboard-response","286","242082","0.0-286.0","3IXQG4FA2UKUU88YWRK02KMNWXLB9I","AR5M3HHTQV9QY","3OYHVNTV5TKW8EI4DRB99U4E79NKOA","","","img/flower2.png","74","610.1999999992549","1","1","3","1,1,0,0,1,1,1,0,1",""
"null","","html-keyboard-response","287","242391","0.0-287.0","3IXQG4FA2UKUU88YWRK02KMNWXLB9I","AR5M3HHTQV9QY","3OYHVNTV5TKW8EI4DRB99U4E79NKOA","","","<img src=""img/flower2.png"" style=""width:200px; border:14px solid green;"">","null","","","","","",""
"671.1999999992549","","image-keyboard-response","288","243064","0.0-288.0","3IXQG4FA2UKUU88YWRK02KMNWXLB9I","AR5M3HHTQV9QY","3OYHVNTV5TKW8EI4DRB99U4E79NKOA","","","img/flower6.png","76","672.5","3","1","2","1,1,0,0,1,1,1,0,1",""
"null","","html-keyboard-response","289","243367","0.0-289.0","3IXQG4FA2UKUU88YWRK02KMNWXLB9I","AR5M3HHTQV9QY","3OYHVNTV5TKW8EI4DRB99U4E79NKOA","","","<img src=""img/flower6.png"" style=""width:200px; border:14px solid green;"">","null","","","","","",""
"597.1000000014901","","image-keyboard-response","290","243966","0.0-290.0","3IXQG4FA2UKUU88YWRK02KMNWXLB9I","AR5M3HHTQV9QY","3OYHVNTV5TKW8EI4DRB99U4E79NKOA","","","img/flower2.png","74","598.6000000014901","1","1","3","1,1,0,0,1,1,1,0,1",""
"null","","html-keyboard-response","291","244272","0.0-291.0","3IXQG4FA2UKUU88YWRK02KMNWXLB9I","AR5M3HHTQV9QY","3OYHVNTV5TKW8EI4DRB99U4E79NKOA","","","<img src=""img/flower2.png"" style=""width:200px; border:14px solid green;"">","null","","","","","",""
"470.5","","image-keyboard-response","292","244744","0.0-292.0","3IXQG4FA2UKUU88YWRK02KMNWXLB9I","AR5M3HHTQV9QY","3OYHVNTV5TKW8EI4DRB99U4E79NKOA","","","img/flower2.png","74","472","1","1","3","1,1,0,0,1,1,1,0,1",""
"null","","html-keyboard-response","293","245047","0.0-293.0","3IXQG4FA2UKUU88YWRK02KMNWXLB9I","AR5M3HHTQV9QY","3OYHVNTV5TKW8EI4DRB99U4E79NKOA","","","<img src=""img/flower2.png"" style=""width:200px; border:14px solid green;"">","null","","","","","",""
"683.6999999992549","","image-keyboard-response","294","245733","0.0-294.0","3IXQG4FA2UKUU88YWRK02KMNWXLB9I","AR5M3HHTQV9QY","3OYHVNTV5TKW8EI4DRB99U4E79NKOA","","","img/flower3.png","75","685","2","1","1","1,1,0,0,1,1,1,0,1",""
"null","","html-keyboard-response","295","246039","0.0-295.0","3IXQG4FA2UKUU88YWRK02KMNWXLB9I","AR5M3HHTQV9QY","3OYHVNTV5TKW8EI4DRB99U4E79NKOA","","","<img src=""img/flower3.png"" style=""width:200px; border:14px solid green;"">","null","","","","","",""
"433.30000000074506","","image-keyboard-response","296","246474","0.0-296.0","3IXQG4FA2UKUU88YWRK02KMNWXLB9I","AR5M3HHTQV9QY","3OYHVNTV5TKW8EI4DRB99U4E79NKOA","","","img/flower3.png","75","434.5","2","1","1","1,1,0,0,1,1,1,0,1",""
"null","","html-keyboard-response","297","246784","0.0-297.0","3IXQG4FA2UKUU88YWRK02KMNWXLB9I","AR5M3HHTQV9QY","3OYHVNTV5TKW8EI4DRB99U4E79NKOA","","","<img src=""img/flower3.png"" style=""width:200px; border:14px solid green;"">","null","","","","","",""
"624.1999999992549","","image-keyboard-response","298","247410","0.0-298.0","3IXQG4FA2UKUU88YWRK02KMNWXLB9I","AR5M3HHTQV9QY","3OYHVNTV5TKW8EI4DRB99U4E79NKOA","","","img/flower6.png","76","625.6999999992549","3","1","2","1,1,0,0,1,1,1,0,1",""
"null","","html-keyboard-response","299","247719","0.0-299.0","3IXQG4FA2UKUU88YWRK02KMNWXLB9I","AR5M3HHTQV9QY","3OYHVNTV5TKW8EI4DRB99U4E79NKOA","","","<img src=""img/flower6.png"" style=""width:200px; border:14px solid green;"">","null","","","","","",""
"934.5999999977648","","image-keyboard-response","300","248656","0.0-300.0","3IXQG4FA2UKUU88YWRK02KMNWXLB9I","AR5M3HHTQV9QY","3OYHVNTV5TKW8EI4DRB99U4E79NKOA","","","img/flower2.png","74","936.2999999970198","1","1","3","1,1,0,0,1,1,1,0,1",""
"null","","html-keyboard-response","301","248959","0.0-301.0","3IXQG4FA2UKUU88YWRK02KMNWXLB9I","AR5M3HHTQV9QY","3OYHVNTV5TKW8EI4DRB99U4E79NKOA","","","<img src=""img/flower2.png"" style=""width:200px; border:14px solid green;"">","null","","","","","",""
"584.8000000007451","","image-keyboard-response","302","249546","0.0-302.0","3IXQG4FA2UKUU88YWRK02KMNWXLB9I","AR5M3HHTQV9QY","3OYHVNTV5TKW8EI4DRB99U4E79NKOA","","","img/flower6.png","76","586.5999999977648","3","1","2","1,1,0,0,1,1,1,0,1",""
"null","","html-keyboard-response","303","249855","0.0-303.0","3IXQG4FA2UKUU88YWRK02KMNWXLB9I","AR5M3HHTQV9QY","3OYHVNTV5TKW8EI4DRB99U4E79NKOA","","","<img src=""img/flower6.png"" style=""width:200px; border:14px solid green;"">","null","","","","","",""
"639.7000000029802","","image-keyboard-response","304","250497","0.0-304.0","3IXQG4FA2UKUU88YWRK02KMNWXLB9I","AR5M3HHTQV9QY","3OYHVNTV5TKW8EI4DRB99U4E79NKOA","","","img/flower2.png","74","641.1000000014901","1","1","3","1,1,0,0,1,1,1,0,1",""
"null","","html-keyboard-response","305","250800","0.0-305.0","3IXQG4FA2UKUU88YWRK02KMNWXLB9I","AR5M3HHTQV9QY","3OYHVNTV5TKW8EI4DRB99U4E79NKOA","","","<img src=""img/flower2.png"" style=""width:200px; border:14px solid green;"">","null","","","","","",""
"","","html-keyboard-response","306","254000","0.0-306.0","3IXQG4FA2UKUU88YWRK02KMNWXLB9I","AR5M3HHTQV9QY","3OYHVNTV5TKW8EI4DRB99U4E79NKOA","","","","","","","","","",""
"1408.2999999970198","","image-keyboard-response","307","255410","0.0-307.0","3IXQG4FA2UKUU88YWRK02KMNWXLB9I","AR5M3HHTQV9QY","3OYHVNTV5TKW8EI4DRB99U4E79NKOA","","","img/flower4.png","74","1409.8999999985099","1","1","1","1,0.5,0.5,0.5,1,0.5,0.5,0.5,1",""
"null","","html-keyboard-response","308","255720","0.0-308.0","3IXQG4FA2UKUU88YWRK02KMNWXLB9I","AR5M3HHTQV9QY","3OYHVNTV5TKW8EI4DRB99U4E79NKOA","","","<img src=""img/flower4.png"" style=""width:200px; border:14px solid green;"">","null","","","","","",""
"859.6999999992549","","image-keyboard-response","309","256581","0.0-309.0","3IXQG4FA2UKUU88YWRK02KMNWXLB9I","AR5M3HHTQV9QY","3OYHVNTV5TKW8EI4DRB99U4E79NKOA","","","img/flower1.png","75","861.0999999977648","2","1","2","1,0.5,0.5,0.5,1,0.5,0.5,0.5,1",""
"null","","html-keyboard-response","310","256887","0.0-310.0","3IXQG4FA2UKUU88YWRK02KMNWXLB9I","AR5M3HHTQV9QY","3OYHVNTV5TKW8EI4DRB99U4E79NKOA","","","<img src=""img/flower1.png"" style=""width:200px; border:14px solid green;"">","null","","","","","",""
"662.3999999985099","","image-keyboard-response","311","257552","0.0-311.0","3IXQG4FA2UKUU88YWRK02KMNWXLB9I","AR5M3HHTQV9QY","3OYHVNTV5TKW8EI4DRB99U4E79NKOA","","","img/flower5.png","76","664","3","1","3","1,0.5,0.5,0.5,1,0.5,0.5,0.5,1",""
"null","","html-keyboard-response","312","257856","0.0-312.0","3IXQG4FA2UKUU88YWRK02KMNWXLB9I","AR5M3HHTQV9QY","3OYHVNTV5TKW8EI4DRB99U4E79NKOA","","","<img src=""img/flower5.png"" style=""width:200px; border:14px solid green;"">","null","","","","","",""
"899.3000000007451","","image-keyboard-response","313","258756","0.0-313.0","3IXQG4FA2UKUU88YWRK02KMNWXLB9I","AR5M3HHTQV9QY","3OYHVNTV5TKW8EI4DRB99U4E79NKOA","","","img/flower1.png","75","900.3999999985099","2","1","2","1,0.5,0.5,0.5,1,0.5,0.5,0.5,1",""
"null","","html-keyboard-response","314","259063","0.0-314.0","3IXQG4FA2UKUU88YWRK02KMNWXLB9I","AR5M3HHTQV9QY","3OYHVNTV5TKW8EI4DRB99U4E79NKOA","","","<img src=""img/flower1.png"" style=""width:200px; border:14px solid green;"">","null","","","","","",""
"531.0999999977648","","image-keyboard-response","315","259596","0.0-315.0","3IXQG4FA2UKUU88YWRK02KMNWXLB9I","AR5M3HHTQV9QY","3OYHVNTV5TKW8EI4DRB99U4E79NKOA","","","img/flower5.png","74","532.6000000014901","1","0","3","1,0.5,0.5,0.5,1,0.5,0.5,0.5,1",""
"null","","html-keyboard-response","316","259904","0.0-316.0","3IXQG4FA2UKUU88YWRK02KMNWXLB9I","AR5M3HHTQV9QY","3OYHVNTV5TKW8EI4DRB99U4E79NKOA","","","<img src=""img/flower5.png"" style=""width:200px;border:14px solid red;"">","null","","","","","",""
"990.1999999992549","","image-keyboard-response","317","260895","0.0-317.0","3IXQG4FA2UKUU88YWRK02KMNWXLB9I","AR5M3HHTQV9QY","3OYHVNTV5TKW8EI4DRB99U4E79NKOA","","","img/flower5.png","74","991.6999999992549","1","0","3","1,0.5,0.5,0.5,1,0.5,0.5,0.5,1",""
"null","","html-keyboard-response","318","261199","0.0-318.0","3IXQG4FA2UKUU88YWRK02KMNWXLB9I","AR5M3HHTQV9QY","3OYHVNTV5TKW8EI4DRB99U4E79NKOA","","","<img src=""img/flower5.png"" style=""width:200px;border:14px solid red;"">","null","","","","","",""
"664.1999999992549","","image-keyboard-response","319","261865","0.0-319.0","3IXQG4FA2UKUU88YWRK02KMNWXLB9I","AR5M3HHTQV9QY","3OYHVNTV5TKW8EI4DRB99U4E79NKOA","","","img/flower4.png","75","665.6000000014901","2","0","1","1,0.5,0.5,0.5,1,0.5,0.5,0.5,1",""
"null","","html-keyboard-response","320","262167","0.0-320.0","3IXQG4FA2UKUU88YWRK02KMNWXLB9I","AR5M3HHTQV9QY","3OYHVNTV5TKW8EI4DRB99U4E79NKOA","","","<img src=""img/flower4.png"" style=""width:200px;border:14px solid red;"">","null","","","","","",""
"648.2000000029802","","image-keyboard-response","321","262817","0.0-321.0","3IXQG4FA2UKUU88YWRK02KMNWXLB9I","AR5M3HHTQV9QY","3OYHVNTV5TKW8EI4DRB99U4E79NKOA","","","img/flower4.png","76","649.5999999977648","3","0","1","1,0.5,0.5,0.5,1,0.5,0.5,0.5,1",""
"null","","html-keyboard-response","322","263120","0.0-322.0","3IXQG4FA2UKUU88YWRK02KMNWXLB9I","AR5M3HHTQV9QY","3OYHVNTV5TKW8EI4DRB99U4E79NKOA","","","<img src=""img/flower4.png"" style=""width:200px;border:14px solid red;"">","null","","","","","",""
"1165","","image-keyboard-response","323","264286","0.0-323.0","3IXQG4FA2UKUU88YWRK02KMNWXLB9I","AR5M3HHTQV9QY","3OYHVNTV5TKW8EI4DRB99U4E79NKOA","","","img/flower1.png","75","1166.5","2","1","2","1,0.5,0.5,0.5,1,0.5,0.5,0.5,1",""
"null","","html-keyboard-response","324","264591","0.0-324.0","3IXQG4FA2UKUU88YWRK02KMNWXLB9I","AR5M3HHTQV9QY","3OYHVNTV5TKW8EI4DRB99U4E79NKOA","","","<img src=""img/flower1.png"" style=""width:200px; border:14px solid green;"">","null","","","","","",""
"538.9000000022352","","image-keyboard-response","325","265132","0.0-325.0","3IXQG4FA2UKUU88YWRK02KMNWXLB9I","AR5M3HHTQV9QY","3OYHVNTV5TKW8EI4DRB99U4E79NKOA","","","img/flower1.png","75","540.3000000007451","2","1","2","1,0.5,0.5,0.5,1,0.5,0.5,0.5,1",""
"null","","html-keyboard-response","326","265440","0.0-326.0","3IXQG4FA2UKUU88YWRK02KMNWXLB9I","AR5M3HHTQV9QY","3OYHVNTV5TKW8EI4DRB99U4E79NKOA","","","<img src=""img/flower1.png"" style=""width:200px; border:14px solid green;"">","null","","","","","",""
"392.29999999701977","","image-keyboard-response","327","265833","0.0-327.0","3IXQG4FA2UKUU88YWRK02KMNWXLB9I","AR5M3HHTQV9QY","3OYHVNTV5TKW8EI4DRB99U4E79NKOA","","","img/flower1.png","75","393.5999999977648","2","1","2","1,0.5,0.5,0.5,1,0.5,0.5,0.5,1",""
"null","","html-keyboard-response","328","266135","0.0-328.0","3IXQG4FA2UKUU88YWRK02KMNWXLB9I","AR5M3HHTQV9QY","3OYHVNTV5TKW8EI4DRB99U4E79NKOA","","","<img src=""img/flower1.png"" style=""width:200px; border:14px solid green;"">","null","","","","","",""
"468.3999999985099","","image-keyboard-response","329","266605","0.0-329.0","3IXQG4FA2UKUU88YWRK02KMNWXLB9I","AR5M3HHTQV9QY","3OYHVNTV5TKW8EI4DRB99U4E79NKOA","","","img/flower1.png","75","469.69999999925494","2","1","2","1,0.5,0.5,0.5,1,0.5,0.5,0.5,1",""
"null","","html-keyboard-response","330","266911","0.0-330.0","3IXQG4FA2UKUU88YWRK02KMNWXLB9I","AR5M3HHTQV9QY","3OYHVNTV5TKW8EI4DRB99U4E79NKOA","","","<img src=""img/flower1.png"" style=""width:200px; border:14px solid green;"">","null","","","","","",""
"994.8999999985099","","image-keyboard-response","331","267908","0.0-331.0","3IXQG4FA2UKUU88YWRK02KMNWXLB9I","AR5M3HHTQV9QY","3OYHVNTV5TKW8EI4DRB99U4E79NKOA","","","img/flower5.png","74","996.5999999977648","1","0","3","1,0.5,0.5,0.5,1,0.5,0.5,0.5,1",""
"null","","html-keyboard-response","332","268215","0.0-332.0","3IXQG4FA2UKUU88YWRK02KMNWXLB9I","AR5M3HHTQV9QY","3OYHVNTV5TKW8EI4DRB99U4E79NKOA","","","<img src=""img/flower5.png"" style=""width:200px;border:14px solid red;"">","null","","","","","",""
"554.4000000022352","","image-keyboard-response","333","268771","0.0-333.0","3IXQG4FA2UKUU88YWRK02KMNWXLB9I","AR5M3HHTQV9QY","3OYHVNTV5TKW8EI4DRB99U4E79NKOA","","","img/flower5.png","76","555.6999999992549","3","1","3","1,0.5,0.5,0.5,1,0.5,0.5,0.5,1",""
"null","","html-keyboard-response","334","269080","0.0-334.0","3IXQG4FA2UKUU88YWRK02KMNWXLB9I","AR5M3HHTQV9QY","3OYHVNTV5TKW8EI4DRB99U4E79NKOA","","","<img src=""img/flower5.png"" style=""width:200px; border:14px solid green;"">","null","","","","","",""
"1195.1000000014901","","image-keyboard-response","335","270277","0.0-335.0","3IXQG4FA2UKUU88YWRK02KMNWXLB9I","AR5M3HHTQV9QY","3OYHVNTV5TKW8EI4DRB99U4E79NKOA","","","img/flower4.png","74","1196.6000000014901","1","1","1","1,0.5,0.5,0.5,1,0.5,0.5,0.5,1",""
"null","","html-keyboard-response","336","270584","0.0-336.0","3IXQG4FA2UKUU88YWRK02KMNWXLB9I","AR5M3HHTQV9QY","3OYHVNTV5TKW8EI4DRB99U4E79NKOA","","","<img src=""img/flower4.png"" style=""width:200px; border:14px solid green;"">","null","","","","","",""
"1049.2999999970198","","image-keyboard-response","337","271635","0.0-337.0","3IXQG4FA2UKUU88YWRK02KMNWXLB9I","AR5M3HHTQV9QY","3OYHVNTV5TKW8EI4DRB99U4E79NKOA","","","img/flower5.png","76","1050.699999999255","3","1","3","1,0.5,0.5,0.5,1,0.5,0.5,0.5,1",""
"null","","html-keyboard-response","338","271944","0.0-338.0","3IXQG4FA2UKUU88YWRK02KMNWXLB9I","AR5M3HHTQV9QY","3OYHVNTV5TKW8EI4DRB99U4E79NKOA","","","<img src=""img/flower5.png"" style=""width:200px; border:14px solid green;"">","null","","","","","",""
"492","","image-keyboard-response","339","272437","0.0-339.0","3IXQG4FA2UKUU88YWRK02KMNWXLB9I","AR5M3HHTQV9QY","3OYHVNTV5TKW8EI4DRB99U4E79NKOA","","","img/flower5.png","76","493.5","3","1","3","1,0.5,0.5,0.5,1,0.5,0.5,0.5,1",""
"null","","html-keyboard-response","340","272743","0.0-340.0","3IXQG4FA2UKUU88YWRK02KMNWXLB9I","AR5M3HHTQV9QY","3OYHVNTV5TKW8EI4DRB99U4E79NKOA","","","<img src=""img/flower5.png"" style=""width:200px; border:14px solid green;"">","null","","","","","",""
"841.6999999992549","","image-keyboard-response","341","273586","0.0-341.0","3IXQG4FA2UKUU88YWRK02KMNWXLB9I","AR5M3HHTQV9QY","3OYHVNTV5TKW8EI4DRB99U4E79NKOA","","","img/flower1.png","75","843","2","1","2","1,0.5,0.5,0.5,1,0.5,0.5,0.5,1",""
"null","","html-keyboard-response","342","273895","0.0-342.0","3IXQG4FA2UKUU88YWRK02KMNWXLB9I","AR5M3HHTQV9QY","3OYHVNTV5TKW8EI4DRB99U4E79NKOA","","","<img src=""img/flower1.png"" style=""width:200px; border:14px solid green;"">","null","","","","","",""
"380.0999999977648","","image-keyboard-response","343","274277","0.0-343.0","3IXQG4FA2UKUU88YWRK02KMNWXLB9I","AR5M3HHTQV9QY","3OYHVNTV5TKW8EI4DRB99U4E79NKOA","","","img/flower1.png","75","381.6000000014901","2","1","2","1,0.5,0.5,0.5,1,0.5,0.5,0.5,1",""
"null","","html-keyboard-response","344","274583","0.0-344.0","3IXQG4FA2UKUU88YWRK02KMNWXLB9I","AR5M3HHTQV9QY","3OYHVNTV5TKW8EI4DRB99U4E79NKOA","","","<img src=""img/flower1.png"" style=""width:200px; border:14px solid green;"">","null","","","","","",""
"618.6000000014901","","image-keyboard-response","345","275204","0.0-345.0","3IXQG4FA2UKUU88YWRK02KMNWXLB9I","AR5M3HHTQV9QY","3OYHVNTV5TKW8EI4DRB99U4E79NKOA","","","img/flower4.png","74","620","1","1","1","1,0.5,0.5,0.5,1,0.5,0.5,0.5,1",""
"null","","html-keyboard-response","346","275511","0.0-346.0","3IXQG4FA2UKUU88YWRK02KMNWXLB9I","AR5M3HHTQV9QY","3OYHVNTV5TKW8EI4DRB99U4E79NKOA","","","<img src=""img/flower4.png"" style=""width:200px; border:14px solid green;"">","null","","","","","",""
"358.5","","image-keyboard-response","347","275872","0.0-347.0","3IXQG4FA2UKUU88YWRK02KMNWXLB9I","AR5M3HHTQV9QY","3OYHVNTV5TKW8EI4DRB99U4E79NKOA","","","img/flower4.png","74","359.8999999985099","1","1","1","1,0.5,0.5,0.5,1,0.5,0.5,0.5,1",""
"null","","html-keyboard-response","348","276175","0.0-348.0","3IXQG4FA2UKUU88YWRK02KMNWXLB9I","AR5M3HHTQV9QY","3OYHVNTV5TKW8EI4DRB99U4E79NKOA","","","<img src=""img/flower4.png"" style=""width:200px; border:14px solid green;"">","null","","","","","",""
"640.0999999977648","","image-keyboard-response","349","276817","0.0-349.0","3IXQG4FA2UKUU88YWRK02KMNWXLB9I","AR5M3HHTQV9QY","3OYHVNTV5TKW8EI4DRB99U4E79NKOA","","","img/flower5.png","76","641.7000000029802","3","1","3","1,0.5,0.5,0.5,1,0.5,0.5,0.5,1",""
"null","","html-keyboard-response","350","277128","0.0-350.0","3IXQG4FA2UKUU88YWRK02KMNWXLB9I","AR5M3HHTQV9QY","3OYHVNTV5TKW8EI4DRB99U4E79NKOA","","","<img src=""img/flower5.png"" style=""width:200px; border:14px solid green;"">","null","","","","","",""
"737.8999999985099","","image-keyboard-response","351","277867","0.0-351.0","3IXQG4FA2UKUU88YWRK02KMNWXLB9I","AR5M3HHTQV9QY","3OYHVNTV5TKW8EI4DRB99U4E79NKOA","","","img/flower4.png","75","739.1999999992549","2","1","1","1,0.5,0.5,0.5,1,0.5,0.5,0.5,1",""
"null","","html-keyboard-response","352","278176","0.0-352.0","3IXQG4FA2UKUU88YWRK02KMNWXLB9I","AR5M3HHTQV9QY","3OYHVNTV5TKW8EI4DRB99U4E79NKOA","","","<img src=""img/flower4.png"" style=""width:200px; border:14px solid green;"">","null","","","","","",""
"876.5999999977648","","image-keyboard-response","353","279054","0.0-353.0","3IXQG4FA2UKUU88YWRK02KMNWXLB9I","AR5M3HHTQV9QY","3OYHVNTV5TKW8EI4DRB99U4E79NKOA","","","img/flower5.png","76","878.0999999977648","3","1","3","1,0.5,0.5,0.5,1,0.5,0.5,0.5,1",""
"null","","html-keyboard-response","354","279360","0.0-354.0","3IXQG4FA2UKUU88YWRK02KMNWXLB9I","AR5M3HHTQV9QY","3OYHVNTV5TKW8EI4DRB99U4E79NKOA","","","<img src=""img/flower5.png"" style=""width:200px; border:14px solid green;"">","null","","","","","",""
"659.6999999992549","","image-keyboard-response","355","280021","0.0-355.0","3IXQG4FA2UKUU88YWRK02KMNWXLB9I","AR5M3HHTQV9QY","3OYHVNTV5TKW8EI4DRB99U4E79NKOA","","","img/flower1.png","74","661.3000000007451","1","0","2","1,0.5,0.5,0.5,1,0.5,0.5,0.5,1",""
"null","","html-keyboard-response","356","280327","0.0-356.0","3IXQG4FA2UKUU88YWRK02KMNWXLB9I","AR5M3HHTQV9QY","3OYHVNTV5TKW8EI4DRB99U4E79NKOA","","","<img src=""img/flower1.png"" style=""width:200px;border:14px solid red;"">","null","","","","","",""
"1061.800000000745","","image-keyboard-response","357","281392","0.0-357.0","3IXQG4FA2UKUU88YWRK02KMNWXLB9I","AR5M3HHTQV9QY","3OYHVNTV5TKW8EI4DRB99U4E79NKOA","","","img/flower5.png","74","1064","1","1","3","1,0.5,0.5,0.5,1,0.5,0.5,0.5,1",""
"null","","html-keyboard-response","358","281695","0.0-358.0","3IXQG4FA2UKUU88YWRK02KMNWXLB9I","AR5M3HHTQV9QY","3OYHVNTV5TKW8EI4DRB99U4E79NKOA","","","<img src=""img/flower5.png"" style=""width:200px; border:14px solid green;"">","null","","","","","",""
"850.3000000007451","","image-keyboard-response","359","282547","0.0-359.0","3IXQG4FA2UKUU88YWRK02KMNWXLB9I","AR5M3HHTQV9QY","3OYHVNTV5TKW8EI4DRB99U4E79NKOA","","","img/flower4.png","74","851.5999999977648","1","1","1","1,0.5,0.5,0.5,1,0.5,0.5,0.5,1",""
"null","","html-keyboard-response","360","282855","0.0-360.0","3IXQG4FA2UKUU88YWRK02KMNWXLB9I","AR5M3HHTQV9QY","3OYHVNTV5TKW8EI4DRB99U4E79NKOA","","","<img src=""img/flower4.png"" style=""width:200px; border:14px solid green;"">","null","","","","","",""
"414.5999999977648","","image-keyboard-response","361","283272","0.0-361.0","3IXQG4FA2UKUU88YWRK02KMNWXLB9I","AR5M3HHTQV9QY","3OYHVNTV5TKW8EI4DRB99U4E79NKOA","","","img/flower4.png","74","416","1","1","1","1,0.5,0.5,0.5,1,0.5,0.5,0.5,1",""
"null","","html-keyboard-response","362","283575","0.0-362.0","3IXQG4FA2UKUU88YWRK02KMNWXLB9I","AR5M3HHTQV9QY","3OYHVNTV5TKW8EI4DRB99U4E79NKOA","","","<img src=""img/flower4.png"" style=""width:200px; border:14px solid green;"">","null","","","","","",""
"658.5","","image-keyboard-response","363","284236","0.0-363.0","3IXQG4FA2UKUU88YWRK02KMNWXLB9I","AR5M3HHTQV9QY","3OYHVNTV5TKW8EI4DRB99U4E79NKOA","","","img/flower5.png","75","660","2","1","3","1,0.5,0.5,0.5,1,0.5,0.5,0.5,1",""
"null","","html-keyboard-response","364","284543","0.0-364.0","3IXQG4FA2UKUU88YWRK02KMNWXLB9I","AR5M3HHTQV9QY","3OYHVNTV5TKW8EI4DRB99U4E79NKOA","","","<img src=""img/flower5.png"" style=""width:200px; border:14px solid green;"">","null","","","","","",""
"633.8000000007451","","image-keyboard-response","365","285179","0.0-365.0","3IXQG4FA2UKUU88YWRK02KMNWXLB9I","AR5M3HHTQV9QY","3OYHVNTV5TKW8EI4DRB99U4E79NKOA","","","img/flower4.png","75","635.1999999992549","2","0","1","1,0.5,0.5,0.5,1,0.5,0.5,0.5,1",""
"null","","html-keyboard-response","366","285487","0.0-366.0","3IXQG4FA2UKUU88YWRK02KMNWXLB9I","AR5M3HHTQV9QY","3OYHVNTV5TKW8EI4DRB99U4E79NKOA","","","<img src=""img/flower4.png"" style=""width:200px;border:14px solid red;"">","null","","","","","",""
"308.79999999701977","","image-keyboard-response","367","285798","0.0-367.0","3IXQG4FA2UKUU88YWRK02KMNWXLB9I","AR5M3HHTQV9QY","3OYHVNTV5TKW8EI4DRB99U4E79NKOA","","","img/flower5.png","74","310.4000000022352","1","1","3","1,0.5,0.5,0.5,1,0.5,0.5,0.5,1",""
"null","","html-keyboard-response","368","286104","0.0-368.0","3IXQG4FA2UKUU88YWRK02KMNWXLB9I","AR5M3HHTQV9QY","3OYHVNTV5TKW8EI4DRB99U4E79NKOA","","","<img src=""img/flower5.png"" style=""width:200px; border:14px solid green;"">","null","","","","","",""
"964.3999999985099","","image-keyboard-response","369","287070","0.0-369.0","3IXQG4FA2UKUU88YWRK02KMNWXLB9I","AR5M3HHTQV9QY","3OYHVNTV5TKW8EI4DRB99U4E79NKOA","","","img/flower1.png","74","965.8999999985099","1","0","2","1,0.5,0.5,0.5,1,0.5,0.5,0.5,1",""
"null","","html-keyboard-response","370","287375","0.0-370.0","3IXQG4FA2UKUU88YWRK02KMNWXLB9I","AR5M3HHTQV9QY","3OYHVNTV5TKW8EI4DRB99U4E79NKOA","","","<img src=""img/flower1.png"" style=""width:200px;border:14px solid red;"">","null","","","","","",""
"662.5","","image-keyboard-response","371","288040","0.0-371.0","3IXQG4FA2UKUU88YWRK02KMNWXLB9I","AR5M3HHTQV9QY","3OYHVNTV5TKW8EI4DRB99U4E79NKOA","","","img/flower4.png","75","664.3000000007451","2","0","1","1,0.5,0.5,0.5,1,0.5,0.5,0.5,1",""
"null","","html-keyboard-response","372","288344","0.0-372.0","3IXQG4FA2UKUU88YWRK02KMNWXLB9I","AR5M3HHTQV9QY","3OYHVNTV5TKW8EI4DRB99U4E79NKOA","","","<img src=""img/flower4.png"" style=""width:200px;border:14px solid red;"">","null","","","","","",""
"606.1999999992549","","image-keyboard-response","373","288952","0.0-373.0","3IXQG4FA2UKUU88YWRK02KMNWXLB9I","AR5M3HHTQV9QY","3OYHVNTV5TKW8EI4DRB99U4E79NKOA","","","img/flower4.png","74","607.5","1","1","1","1,0.5,0.5,0.5,1,0.5,0.5,0.5,1",""
"null","","html-keyboard-response","374","289255","0.0-374.0","3IXQG4FA2UKUU88YWRK02KMNWXLB9I","AR5M3HHTQV9QY","3OYHVNTV5TKW8EI4DRB99U4E79NKOA","","","<img src=""img/flower4.png"" style=""width:200px; border:14px solid green;"">","null","","","","","",""
"604.6000000014901","","image-keyboard-response","375","289862","0.0-375.0","3IXQG4FA2UKUU88YWRK02KMNWXLB9I","AR5M3HHTQV9QY","3OYHVNTV5TKW8EI4DRB99U4E79NKOA","","","img/flower4.png","74","606.0999999977648","1","1","1","1,0.5,0.5,0.5,1,0.5,0.5,0.5,1",""
"null","","html-keyboard-response","376","290168","0.0-376.0","3IXQG4FA2UKUU88YWRK02KMNWXLB9I","AR5M3HHTQV9QY","3OYHVNTV5TKW8EI4DRB99U4E79NKOA","","","<img src=""img/flower4.png"" style=""width:200px; border:14px solid green;"">","null","","","","","",""
"764.5999999977648","","image-keyboard-response","377","290934","0.0-377.0","3IXQG4FA2UKUU88YWRK02KMNWXLB9I","AR5M3HHTQV9QY","3OYHVNTV5TKW8EI4DRB99U4E79NKOA","","","img/flower5.png","76","766.4000000022352","3","1","3","1,0.5,0.5,0.5,1,0.5,0.5,0.5,1",""
"null","","html-keyboard-response","378","291239","0.0-378.0","3IXQG4FA2UKUU88YWRK02KMNWXLB9I","AR5M3HHTQV9QY","3OYHVNTV5TKW8EI4DRB99U4E79NKOA","","","<img src=""img/flower5.png"" style=""width:200px; border:14px solid green;"">","null","","","","","",""
"1064.199999999255","","image-keyboard-response","379","292305","0.0-379.0","3IXQG4FA2UKUU88YWRK02KMNWXLB9I","AR5M3HHTQV9QY","3OYHVNTV5TKW8EI4DRB99U4E79NKOA","","","img/flower4.png","75","1065.8999999985099","2","0","1","1,0.5,0.5,0.5,1,0.5,0.5,0.5,1",""
"null","","html-keyboard-response","380","292607","0.0-380.0","3IXQG4FA2UKUU88YWRK02KMNWXLB9I","AR5M3HHTQV9QY","3OYHVNTV5TKW8EI4DRB99U4E79NKOA","","","<img src=""img/flower4.png"" style=""width:200px;border:14px solid red;"">","null","","","","","",""
"1031","","image-keyboard-response","381","293640","0.0-381.0","3IXQG4FA2UKUU88YWRK02KMNWXLB9I","AR5M3HHTQV9QY","3OYHVNTV5TKW8EI4DRB99U4E79NKOA","","","img/flower1.png","74","1032.5","1","1","2","1,0.5,0.5,0.5,1,0.5,0.5,0.5,1",""
"null","","html-keyboard-response","382","293943","0.0-382.0","3IXQG4FA2UKUU88YWRK02KMNWXLB9I","AR5M3HHTQV9QY","3OYHVNTV5TKW8EI4DRB99U4E79NKOA","","","<img src=""img/flower1.png"" style=""width:200px; border:14px solid green;"">","null","","","","","",""
"709.8999999985099","","image-keyboard-response","383","294655","0.0-383.0","3IXQG4FA2UKUU88YWRK02KMNWXLB9I","AR5M3HHTQV9QY","3OYHVNTV5TKW8EI4DRB99U4E79NKOA","","","img/flower5.png","74","711.3000000007451","1","0","3","1,0.5,0.5,0.5,1,0.5,0.5,0.5,1",""
"null","","html-keyboard-response","384","294959","0.0-384.0","3IXQG4FA2UKUU88YWRK02KMNWXLB9I","AR5M3HHTQV9QY","3OYHVNTV5TKW8EI4DRB99U4E79NKOA","","","<img src=""img/flower5.png"" style=""width:200px;border:14px solid red;"">","null","","","","","",""
"899.1999999992549","","image-keyboard-response","385","295860","0.0-385.0","3IXQG4FA2UKUU88YWRK02KMNWXLB9I","AR5M3HHTQV9QY","3OYHVNTV5TKW8EI4DRB99U4E79NKOA","","","img/flower1.png","74","900.9000000022352","1","1","2","1,0.5,0.5,0.5,1,0.5,0.5,0.5,1",""
"null","","html-keyboard-response","386","296168","0.0-386.0","3IXQG4FA2UKUU88YWRK02KMNWXLB9I","AR5M3HHTQV9QY","3OYHVNTV5TKW8EI4DRB99U4E79NKOA","","","<img src=""img/flower1.png"" style=""width:200px; border:14px solid green;"">","null","","","","","",""
"836.2999999970198","","image-keyboard-response","387","297006","0.0-387.0","3IXQG4FA2UKUU88YWRK02KMNWXLB9I","AR5M3HHTQV9QY","3OYHVNTV5TKW8EI4DRB99U4E79NKOA","","","img/flower4.png","75","837.6000000014901","2","1","1","1,0.5,0.5,0.5,1,0.5,0.5,0.5,1",""
"null","","html-keyboard-response","388","297312","0.0-388.0","3IXQG4FA2UKUU88YWRK02KMNWXLB9I","AR5M3HHTQV9QY","3OYHVNTV5TKW8EI4DRB99U4E79NKOA","","","<img src=""img/flower4.png"" style=""width:200px; border:14px solid green;"">","null","","","","","",""
"628.1999999992549","","image-keyboard-response","389","297942","0.0-389.0","3IXQG4FA2UKUU88YWRK02KMNWXLB9I","AR5M3HHTQV9QY","3OYHVNTV5TKW8EI4DRB99U4E79NKOA","","","img/flower5.png","76","630.3999999985099","3","1","3","1,0.5,0.5,0.5,1,0.5,0.5,0.5,1",""
"null","","html-keyboard-response","390","298248","0.0-390.0","3IXQG4FA2UKUU88YWRK02KMNWXLB9I","AR5M3HHTQV9QY","3OYHVNTV5TKW8EI4DRB99U4E79NKOA","","","<img src=""img/flower5.png"" style=""width:200px; border:14px solid green;"">","null","","","","","",""
"956.8999999985099","","image-keyboard-response","391","299206","0.0-391.0","3IXQG4FA2UKUU88YWRK02KMNWXLB9I","AR5M3HHTQV9QY","3OYHVNTV5TKW8EI4DRB99U4E79NKOA","","","img/flower1.png","74","958.1999999992549","1","1","2","1,0.5,0.5,0.5,1,0.5,0.5,0.5,1",""
"null","","html-keyboard-response","392","299512","0.0-392.0","3IXQG4FA2UKUU88YWRK02KMNWXLB9I","AR5M3HHTQV9QY","3OYHVNTV5TKW8EI4DRB99U4E79NKOA","","","<img src=""img/flower1.png"" style=""width:200px; border:14px solid green;"">","null","","","","","",""
"902.5","","image-keyboard-response","393","300416","0.0-393.0","3IXQG4FA2UKUU88YWRK02KMNWXLB9I","AR5M3HHTQV9QY","3OYHVNTV5TKW8EI4DRB99U4E79NKOA","","","img/flower4.png","75","903.9000000022352","2","0","1","1,0.5,0.5,0.5,1,0.5,0.5,0.5,1",""
"null","","html-keyboard-response","394","300719","0.0-394.0","3IXQG4FA2UKUU88YWRK02KMNWXLB9I","AR5M3HHTQV9QY","3OYHVNTV5TKW8EI4DRB99U4E79NKOA","","","<img src=""img/flower4.png"" style=""width:200px;border:14px solid red;"">","null","","","","","",""
"797.1000000014901","","image-keyboard-response","395","301518","0.0-395.0","3IXQG4FA2UKUU88YWRK02KMNWXLB9I","AR5M3HHTQV9QY","3OYHVNTV5TKW8EI4DRB99U4E79NKOA","","","img/flower1.png","74","798.4000000022352","1","0","2","1,0.5,0.5,0.5,1,0.5,0.5,0.5,1",""
"null","","html-keyboard-response","396","301823","0.0-396.0","3IXQG4FA2UKUU88YWRK02KMNWXLB9I","AR5M3HHTQV9QY","3OYHVNTV5TKW8EI4DRB99U4E79NKOA","","","<img src=""img/flower1.png"" style=""width:200px;border:14px solid red;"">","null","","","","","",""
"617.5999999977648","","image-keyboard-response","397","302443","0.0-397.0","3IXQG4FA2UKUU88YWRK02KMNWXLB9I","AR5M3HHTQV9QY","3OYHVNTV5TKW8EI4DRB99U4E79NKOA","","","img/flower1.png","74","619","1","0","2","1,0.5,0.5,0.5,1,0.5,0.5,0.5,1",""
"null","","html-keyboard-response","398","302753","0.0-398.0","3IXQG4FA2UKUU88YWRK02KMNWXLB9I","AR5M3HHTQV9QY","3OYHVNTV5TKW8EI4DRB99U4E79NKOA","","","<img src=""img/flower1.png"" style=""width:200px;border:14px solid red;"">","null","","","","","",""
"1477.0999999977648","","image-keyboard-response","399","304232","0.0-399.0","3IXQG4FA2UKUU88YWRK02KMNWXLB9I","AR5M3HHTQV9QY","3OYHVNTV5TKW8EI4DRB99U4E79NKOA","","","img/flower4.png","75","1478.3999999985099","2","1","1","1,0.5,0.5,0.5,1,0.5,0.5,0.5,1",""
"null","","html-keyboard-response","400","304536","0.0-400.0","3IXQG4FA2UKUU88YWRK02KMNWXLB9I","AR5M3HHTQV9QY","3OYHVNTV5TKW8EI4DRB99U4E79NKOA","","","<img src=""img/flower4.png"" style=""width:200px; border:14px solid green;"">","null","","","","","",""
"892.6999999992549","","image-keyboard-response","401","305430","0.0-401.0","3IXQG4FA2UKUU88YWRK02KMNWXLB9I","AR5M3HHTQV9QY","3OYHVNTV5TKW8EI4DRB99U4E79NKOA","","","img/flower1.png","74","894.0999999977648","1","0","2","1,0.5,0.5,0.5,1,0.5,0.5,0.5,1",""
"null","","html-keyboard-response","402","305735","0.0-402.0","3IXQG4FA2UKUU88YWRK02KMNWXLB9I","AR5M3HHTQV9QY","3OYHVNTV5TKW8EI4DRB99U4E79NKOA","","","<img src=""img/flower1.png"" style=""width:200px;border:14px solid red;"">","null","","","","","",""
"700.5999999977648","","image-keyboard-response","403","306438","0.0-403.0","3IXQG4FA2UKUU88YWRK02KMNWXLB9I","AR5M3HHTQV9QY","3OYHVNTV5TKW8EI4DRB99U4E79NKOA","","","img/flower5.png","76","702","3","1","3","1,0.5,0.5,0.5,1,0.5,0.5,0.5,1",""
"null","","html-keyboard-response","404","306743","0.0-404.0","3IXQG4FA2UKUU88YWRK02KMNWXLB9I","AR5M3HHTQV9QY","3OYHVNTV5TKW8EI4DRB99U4E79NKOA","","","<img src=""img/flower5.png"" style=""width:200px; border:14px solid green;"">","null","","","","","",""
"635.5","","image-keyboard-response","405","307380","0.0-405.0","3IXQG4FA2UKUU88YWRK02KMNWXLB9I","AR5M3HHTQV9QY","3OYHVNTV5TKW8EI4DRB99U4E79NKOA","","","img/flower5.png","76","637","3","1","3","1,0.5,0.5,0.5,1,0.5,0.5,0.5,1",""
"null","","html-keyboard-response","406","307687","0.0-406.0","3IXQG4FA2UKUU88YWRK02KMNWXLB9I","AR5M3HHTQV9QY","3OYHVNTV5TKW8EI4DRB99U4E79NKOA","","","<img src=""img/flower5.png"" style=""width:200px; border:14px solid green;"">","null","","","","","",""
"484.8999999985099","","image-keyboard-response","407","308174","0.0-407.0","3IXQG4FA2UKUU88YWRK02KMNWXLB9I","AR5M3HHTQV9QY","3OYHVNTV5TKW8EI4DRB99U4E79NKOA","","","img/flower5.png","76","486.5","3","1","3","1,0.5,0.5,0.5,1,0.5,0.5,0.5,1",""
