"rt","url","trial_type","trial_index","time_elapsed","internal_node_id","assignmentID","mturkID","hitID","success","view_history","stimulus","key_press","reactionTime","a","r","s","reward_cond","responses"
"40785","consent.html","external-html","0","41000","0.0-0.0","34BBWHLWHBXFTCZCVCM92RYBPOQIWO","ARFJTVZE5IKLC","3VJ4PFXFJ3TL96TFXMATEMT7KJHUAI","","","","","","","","","",""
"","","fullscreen","1","106731","0.0-1.0","34BBWHLWHBXFTCZCVCM92RYBPOQIWO","ARFJTVZE5IKLC","3VJ4PFXFJ3TL96TFXMATEMT7KJHUAI","true","","","","","","","","",""
"195263","","instructions","2","301997","0.0-2.0","34BBWHLWHBXFTCZCVCM92RYBPOQIWO","ARFJTVZE5IKLC","3VJ4PFXFJ3TL96TFXMATEMT7KJHUAI","","[{""page_index"":0,""viewing_time"":100723},{""page_index"":1,""viewing_time"":18130},{""page_index"":2,""viewing_time"":14333},{""page_index"":3,""viewing_time"":16202},{""page_index"":4,""viewing_time"":16211},{""page_index"":5,""viewing_time"":18940},{""page_index"":6,""viewing_time"":10722}]","","","","","","","",""
"80546","","instructions","3","382546","0.0-3.0","34BBWHLWHBXFTCZCVCM92RYBPOQIWO","ARFJTVZE5IKLC","3VJ4PFXFJ3TL96TFXMATEMT7KJHUAI","","[{""page_index"":0,""viewing_time"":80545}]","","","","","","","",""
"5610","","image-keyboard-response","4","388162","0.0-4.0","34BBWHLWHBXFTCZCVCM92RYBPOQIWO","ARFJTVZE5IKLC","3VJ4PFXFJ3TL96TFXMATEMT7KJHUAI","","","img/flower6.png","75","5615","2","0","3","",""
"null","","html-keyboard-response","5","388470","0.0-5.0","34BBWHLWHBXFTCZCVCM92RYBPOQIWO","ARFJTVZE5IKLC","3VJ4PFXFJ3TL96TFXMATEMT7KJHUAI","","","<img src=""img/flower6.png"" style=""width:200px;border:14px solid red;"">","null","","","","","",""
"3509","","image-keyboard-response","6","391986","0.0-6.0","34BBWHLWHBXFTCZCVCM92RYBPOQIWO","ARFJTVZE5IKLC","3VJ4PFXFJ3TL96TFXMATEMT7KJHUAI","","","img/flower5.png","75","3516","2","0","2","",""
"null","","html-keyboard-response","7","392303","0.0-7.0","34BBWHLWHBXFTCZCVCM92RYBPOQIWO","ARFJTVZE5IKLC","3VJ4PFXFJ3TL96TFXMATEMT7KJHUAI","","","<img src=""img/flower5.png"" style=""width:200px;border:14px solid red;"">","null","","","","","",""
"1229","","image-keyboard-response","8","393541","0.0-8.0","34BBWHLWHBXFTCZCVCM92RYBPOQIWO","ARFJTVZE5IKLC","3VJ4PFXFJ3TL96TFXMATEMT7KJHUAI","","","img/flower4.png","74","1238","1","0","1","",""
"null","","html-keyboard-response","9","393847","0.0-9.0","34BBWHLWHBXFTCZCVCM92RYBPOQIWO","ARFJTVZE5IKLC","3VJ4PFXFJ3TL96TFXMATEMT7KJHUAI","","","<img src=""img/flower4.png"" style=""width:200px;border:14px solid red;"">","null","","","","","",""
"2233","","image-keyboard-response","10","396093","0.0-10.0","34BBWHLWHBXFTCZCVCM92RYBPOQIWO","ARFJTVZE5IKLC","3VJ4PFXFJ3TL96TFXMATEMT7KJHUAI","","","img/flower4.png","76","2246","3","0","1","",""
"null","","html-keyboard-response","11","396409","0.0-11.0","34BBWHLWHBXFTCZCVCM92RYBPOQIWO","ARFJTVZE5IKLC","3VJ4PFXFJ3TL96TFXMATEMT7KJHUAI","","","<img src=""img/flower4.png"" style=""width:200px;border:14px solid red;"">","null","","","","","",""
"1973","","image-keyboard-response","12","398390","0.0-12.0","34BBWHLWHBXFTCZCVCM92RYBPOQIWO","ARFJTVZE5IKLC","3VJ4PFXFJ3TL96TFXMATEMT7KJHUAI","","","img/flower6.png","74","1981","1","0","3","",""
"null","","html-keyboard-response","13","398704","0.0-13.0","34BBWHLWHBXFTCZCVCM92RYBPOQIWO","ARFJTVZE5IKLC","3VJ4PFXFJ3TL96TFXMATEMT7KJHUAI","","","<img src=""img/flower6.png"" style=""width:200px;border:14px solid red;"">","null","","","","","",""
"1828","","image-keyboard-response","14","400544","0.0-14.0","34BBWHLWHBXFTCZCVCM92RYBPOQIWO","ARFJTVZE5IKLC","3VJ4PFXFJ3TL96TFXMATEMT7KJHUAI","","","img/flower5.png","76","1840","3","0","2","",""
"null","","html-keyboard-response","15","400853","0.0-15.0","34BBWHLWHBXFTCZCVCM92RYBPOQIWO","ARFJTVZE5IKLC","3VJ4PFXFJ3TL96TFXMATEMT7KJHUAI","","","<img src=""img/flower5.png"" style=""width:200px;border:14px solid red;"">","null","","","","","",""
"1680","","image-keyboard-response","16","402541","0.0-16.0","34BBWHLWHBXFTCZCVCM92RYBPOQIWO","ARFJTVZE5IKLC","3VJ4PFXFJ3TL96TFXMATEMT7KJHUAI","","","img/flower6.png","74","1688","1","1","3","",""
"null","","html-keyboard-response","17","402914","0.0-17.0","34BBWHLWHBXFTCZCVCM92RYBPOQIWO","ARFJTVZE5IKLC","3VJ4PFXFJ3TL96TFXMATEMT7KJHUAI","","","<img src=""img/flower6.png"" style=""width:200px; border:14px solid green;"">","null","","","","","",""
"2741","","image-keyboard-response","18","405662","0.0-18.0","34BBWHLWHBXFTCZCVCM92RYBPOQIWO","ARFJTVZE5IKLC","3VJ4PFXFJ3TL96TFXMATEMT7KJHUAI","","","img/flower5.png","76","2747","3","0","2","",""
"null","","html-keyboard-response","19","405972","0.0-19.0","34BBWHLWHBXFTCZCVCM92RYBPOQIWO","ARFJTVZE5IKLC","3VJ4PFXFJ3TL96TFXMATEMT7KJHUAI","","","<img src=""img/flower5.png"" style=""width:200px;border:14px solid red;"">","null","","","","","",""
"1545","","image-keyboard-response","20","407534","0.0-20.0","34BBWHLWHBXFTCZCVCM92RYBPOQIWO","ARFJTVZE5IKLC","3VJ4PFXFJ3TL96TFXMATEMT7KJHUAI","","","img/flower6.png","75","1562","2","0","3","",""
"null","","html-keyboard-response","21","407840","0.0-21.0","34BBWHLWHBXFTCZCVCM92RYBPOQIWO","ARFJTVZE5IKLC","3VJ4PFXFJ3TL96TFXMATEMT7KJHUAI","","","<img src=""img/flower6.png"" style=""width:200px;border:14px solid red;"">","null","","","","","",""
"2707","","image-keyboard-response","22","410558","0.0-22.0","34BBWHLWHBXFTCZCVCM92RYBPOQIWO","ARFJTVZE5IKLC","3VJ4PFXFJ3TL96TFXMATEMT7KJHUAI","","","img/flower4.png","75","2718","2","0","1","",""
"null","","html-keyboard-response","23","410869","0.0-23.0","34BBWHLWHBXFTCZCVCM92RYBPOQIWO","ARFJTVZE5IKLC","3VJ4PFXFJ3TL96TFXMATEMT7KJHUAI","","","<img src=""img/flower4.png"" style=""width:200px;border:14px solid red;"">","null","","","","","",""
"1610","","image-keyboard-response","24","412485","0.0-24.0","34BBWHLWHBXFTCZCVCM92RYBPOQIWO","ARFJTVZE5IKLC","3VJ4PFXFJ3TL96TFXMATEMT7KJHUAI","","","img/flower6.png","74","1616","1","0","3","",""
"null","","html-keyboard-response","25","412813","0.0-25.0","34BBWHLWHBXFTCZCVCM92RYBPOQIWO","ARFJTVZE5IKLC","3VJ4PFXFJ3TL96TFXMATEMT7KJHUAI","","","<img src=""img/flower6.png"" style=""width:200px;border:14px solid red;"">","null","","","","","",""
"1395","","image-keyboard-response","26","414211","0.0-26.0","34BBWHLWHBXFTCZCVCM92RYBPOQIWO","ARFJTVZE5IKLC","3VJ4PFXFJ3TL96TFXMATEMT7KJHUAI","","","img/flower4.png","76","1398","3","1","1","",""
"null","","html-keyboard-response","27","414532","0.0-27.0","34BBWHLWHBXFTCZCVCM92RYBPOQIWO","ARFJTVZE5IKLC","3VJ4PFXFJ3TL96TFXMATEMT7KJHUAI","","","<img src=""img/flower4.png"" style=""width:200px; border:14px solid green;"">","null","","","","","",""
"4790","","image-keyboard-response","28","419330","0.0-28.0","34BBWHLWHBXFTCZCVCM92RYBPOQIWO","ARFJTVZE5IKLC","3VJ4PFXFJ3TL96TFXMATEMT7KJHUAI","","","img/flower4.png","76","4798","3","1","1","",""
"null","","html-keyboard-response","29","419640","0.0-29.0","34BBWHLWHBXFTCZCVCM92RYBPOQIWO","ARFJTVZE5IKLC","3VJ4PFXFJ3TL96TFXMATEMT7KJHUAI","","","<img src=""img/flower4.png"" style=""width:200px; border:14px solid green;"">","null","","","","","",""
"2620","","image-keyboard-response","30","422261","0.0-30.0","34BBWHLWHBXFTCZCVCM92RYBPOQIWO","ARFJTVZE5IKLC","3VJ4PFXFJ3TL96TFXMATEMT7KJHUAI","","","img/flower5.png","75","2627","2","1","2","",""
"null","","html-keyboard-response","31","422576","0.0-31.0","34BBWHLWHBXFTCZCVCM92RYBPOQIWO","ARFJTVZE5IKLC","3VJ4PFXFJ3TL96TFXMATEMT7KJHUAI","","","<img src=""img/flower5.png"" style=""width:200px; border:14px solid green;"">","null","","","","","",""
"1206","","image-keyboard-response","32","423788","0.0-32.0","34BBWHLWHBXFTCZCVCM92RYBPOQIWO","ARFJTVZE5IKLC","3VJ4PFXFJ3TL96TFXMATEMT7KJHUAI","","","img/flower4.png","74","1212","1","1","1","",""
"null","","html-keyboard-response","33","424174","0.0-33.0","34BBWHLWHBXFTCZCVCM92RYBPOQIWO","ARFJTVZE5IKLC","3VJ4PFXFJ3TL96TFXMATEMT7KJHUAI","","","<img src=""img/flower4.png"" style=""width:200px; border:14px solid green;"">","null","","","","","",""
"1635","","image-keyboard-response","34","425826","0.0-34.0","34BBWHLWHBXFTCZCVCM92RYBPOQIWO","ARFJTVZE5IKLC","3VJ4PFXFJ3TL96TFXMATEMT7KJHUAI","","","img/flower5.png","75","1652","2","1","2","",""
"null","","html-keyboard-response","35","426161","0.0-35.0","34BBWHLWHBXFTCZCVCM92RYBPOQIWO","ARFJTVZE5IKLC","3VJ4PFXFJ3TL96TFXMATEMT7KJHUAI","","","<img src=""img/flower5.png"" style=""width:200px; border:14px solid green;"">","null","","","","","",""
"2607","","image-keyboard-response","36","428788","0.0-36.0","34BBWHLWHBXFTCZCVCM92RYBPOQIWO","ARFJTVZE5IKLC","3VJ4PFXFJ3TL96TFXMATEMT7KJHUAI","","","img/flower5.png","75","2617","2","1","2","",""
"null","","html-keyboard-response","37","429099","0.0-37.0","34BBWHLWHBXFTCZCVCM92RYBPOQIWO","ARFJTVZE5IKLC","3VJ4PFXFJ3TL96TFXMATEMT7KJHUAI","","","<img src=""img/flower5.png"" style=""width:200px; border:14px solid green;"">","null","","","","","",""
"870","","image-keyboard-response","38","429985","0.0-38.0","34BBWHLWHBXFTCZCVCM92RYBPOQIWO","ARFJTVZE5IKLC","3VJ4PFXFJ3TL96TFXMATEMT7KJHUAI","","","img/flower6.png","76","886","3","1","3","",""
"null","","html-keyboard-response","39","430289","0.0-39.0","34BBWHLWHBXFTCZCVCM92RYBPOQIWO","ARFJTVZE5IKLC","3VJ4PFXFJ3TL96TFXMATEMT7KJHUAI","","","<img src=""img/flower6.png"" style=""width:200px; border:14px solid green;"">","null","","","","","",""
"2128","","image-keyboard-response","40","432427","0.0-40.0","34BBWHLWHBXFTCZCVCM92RYBPOQIWO","ARFJTVZE5IKLC","3VJ4PFXFJ3TL96TFXMATEMT7KJHUAI","","","img/flower6.png","76","2138","3","0","3","",""
"null","","html-keyboard-response","41","432749","0.0-41.0","34BBWHLWHBXFTCZCVCM92RYBPOQIWO","ARFJTVZE5IKLC","3VJ4PFXFJ3TL96TFXMATEMT7KJHUAI","","","<img src=""img/flower6.png"" style=""width:200px;border:14px solid red;"">","null","","","","","",""
"1759","","image-keyboard-response","42","434515","0.0-42.0","34BBWHLWHBXFTCZCVCM92RYBPOQIWO","ARFJTVZE5IKLC","3VJ4PFXFJ3TL96TFXMATEMT7KJHUAI","","","img/flower5.png","75","1765","2","1","2","",""
"null","","html-keyboard-response","43","434835","0.0-43.0","34BBWHLWHBXFTCZCVCM92RYBPOQIWO","ARFJTVZE5IKLC","3VJ4PFXFJ3TL96TFXMATEMT7KJHUAI","","","<img src=""img/flower5.png"" style=""width:200px; border:14px solid green;"">","null","","","","","",""
"1016","","image-keyboard-response","44","435860","0.0-44.0","34BBWHLWHBXFTCZCVCM92RYBPOQIWO","ARFJTVZE5IKLC","3VJ4PFXFJ3TL96TFXMATEMT7KJHUAI","","","img/flower4.png","74","1025","1","1","1","",""
"null","","html-keyboard-response","45","436172","0.0-45.0","34BBWHLWHBXFTCZCVCM92RYBPOQIWO","ARFJTVZE5IKLC","3VJ4PFXFJ3TL96TFXMATEMT7KJHUAI","","","<img src=""img/flower4.png"" style=""width:200px; border:14px solid green;"">","null","","","","","",""
"2428","","image-keyboard-response","46","438624","0.0-46.0","34BBWHLWHBXFTCZCVCM92RYBPOQIWO","ARFJTVZE5IKLC","3VJ4PFXFJ3TL96TFXMATEMT7KJHUAI","","","img/flower5.png","75","2442","2","1","2","",""
"null","","html-keyboard-response","47","438936","0.0-47.0","34BBWHLWHBXFTCZCVCM92RYBPOQIWO","ARFJTVZE5IKLC","3VJ4PFXFJ3TL96TFXMATEMT7KJHUAI","","","<img src=""img/flower5.png"" style=""width:200px; border:14px solid green;"">","null","","","","","",""
"943","","image-keyboard-response","48","439886","0.0-48.0","34BBWHLWHBXFTCZCVCM92RYBPOQIWO","ARFJTVZE5IKLC","3VJ4PFXFJ3TL96TFXMATEMT7KJHUAI","","","img/flower6.png","76","944","3","0","3","",""
"null","","html-keyboard-response","49","440335","0.0-49.0","34BBWHLWHBXFTCZCVCM92RYBPOQIWO","ARFJTVZE5IKLC","3VJ4PFXFJ3TL96TFXMATEMT7KJHUAI","","","<img src=""img/flower6.png"" style=""width:200px;border:14px solid red;"">","null","","","","","",""
"1927","","image-keyboard-response","50","442273","0.0-50.0","34BBWHLWHBXFTCZCVCM92RYBPOQIWO","ARFJTVZE5IKLC","3VJ4PFXFJ3TL96TFXMATEMT7KJHUAI","","","img/flower4.png","74","1937","1","1","1","",""
"null","","html-keyboard-response","51","442595","0.0-51.0","34BBWHLWHBXFTCZCVCM92RYBPOQIWO","ARFJTVZE5IKLC","3VJ4PFXFJ3TL96TFXMATEMT7KJHUAI","","","<img src=""img/flower4.png"" style=""width:200px; border:14px solid green;"">","null","","","","","",""
"1930","","image-keyboard-response","52","444532","0.0-52.0","34BBWHLWHBXFTCZCVCM92RYBPOQIWO","ARFJTVZE5IKLC","3VJ4PFXFJ3TL96TFXMATEMT7KJHUAI","","","img/flower4.png","74","1936","1","1","1","",""
"null","","html-keyboard-response","53","444853","0.0-53.0","34BBWHLWHBXFTCZCVCM92RYBPOQIWO","ARFJTVZE5IKLC","3VJ4PFXFJ3TL96TFXMATEMT7KJHUAI","","","<img src=""img/flower4.png"" style=""width:200px; border:14px solid green;"">","null","","","","","",""
"4266","","image-keyboard-response","54","449134","0.0-54.0","34BBWHLWHBXFTCZCVCM92RYBPOQIWO","ARFJTVZE5IKLC","3VJ4PFXFJ3TL96TFXMATEMT7KJHUAI","","","img/flower6.png","74","4280","1","0","3","",""
"null","","html-keyboard-response","55","449439","0.0-55.0","34BBWHLWHBXFTCZCVCM92RYBPOQIWO","ARFJTVZE5IKLC","3VJ4PFXFJ3TL96TFXMATEMT7KJHUAI","","","<img src=""img/flower6.png"" style=""width:200px;border:14px solid red;"">","null","","","","","",""
"1301","","image-keyboard-response","56","450750","0.0-56.0","34BBWHLWHBXFTCZCVCM92RYBPOQIWO","ARFJTVZE5IKLC","3VJ4PFXFJ3TL96TFXMATEMT7KJHUAI","","","img/flower5.png","75","1305","2","1","2","",""
"null","","html-keyboard-response","57","451213","0.0-57.0","34BBWHLWHBXFTCZCVCM92RYBPOQIWO","ARFJTVZE5IKLC","3VJ4PFXFJ3TL96TFXMATEMT7KJHUAI","","","<img src=""img/flower5.png"" style=""width:200px; border:14px solid green;"">","null","","","","","",""
"1969","","image-keyboard-response","58","453183","0.0-58.0","34BBWHLWHBXFTCZCVCM92RYBPOQIWO","ARFJTVZE5IKLC","3VJ4PFXFJ3TL96TFXMATEMT7KJHUAI","","","img/flower5.png","75","1981","2","1","2","",""
"null","","html-keyboard-response","59","453505","0.0-59.0","34BBWHLWHBXFTCZCVCM92RYBPOQIWO","ARFJTVZE5IKLC","3VJ4PFXFJ3TL96TFXMATEMT7KJHUAI","","","<img src=""img/flower5.png"" style=""width:200px; border:14px solid green;"">","null","","","","","",""
"1159","","image-keyboard-response","60","454679","0.0-60.0","34BBWHLWHBXFTCZCVCM92RYBPOQIWO","ARFJTVZE5IKLC","3VJ4PFXFJ3TL96TFXMATEMT7KJHUAI","","","img/flower4.png","74","1174","1","1","1","",""
"null","","html-keyboard-response","61","455011","0.0-61.0","34BBWHLWHBXFTCZCVCM92RYBPOQIWO","ARFJTVZE5IKLC","3VJ4PFXFJ3TL96TFXMATEMT7KJHUAI","","","<img src=""img/flower4.png"" style=""width:200px; border:14px solid green;"">","null","","","","","",""
"979","","image-keyboard-response","62","456004","0.0-62.0","34BBWHLWHBXFTCZCVCM92RYBPOQIWO","ARFJTVZE5IKLC","3VJ4PFXFJ3TL96TFXMATEMT7KJHUAI","","","img/flower6.png","76","988","3","1","3","",""
"null","","html-keyboard-response","63","456317","0.0-63.0","34BBWHLWHBXFTCZCVCM92RYBPOQIWO","ARFJTVZE5IKLC","3VJ4PFXFJ3TL96TFXMATEMT7KJHUAI","","","<img src=""img/flower6.png"" style=""width:200px; border:14px solid green;"">","null","","","","","",""
"151512","","instructions","64","607830","0.0-64.0","34BBWHLWHBXFTCZCVCM92RYBPOQIWO","ARFJTVZE5IKLC","3VJ4PFXFJ3TL96TFXMATEMT7KJHUAI","","[{""page_index"":0,""viewing_time"":3381},{""page_index"":1,""viewing_time"":148130}]","","","","","","","",""
"3922","","image-keyboard-response","65","611757","0.0-65.0","34BBWHLWHBXFTCZCVCM92RYBPOQIWO","ARFJTVZE5IKLC","3VJ4PFXFJ3TL96TFXMATEMT7KJHUAI","","","img/flower6.png","76","3925","3","1","3","",""
"null","","html-keyboard-response","66","612062","0.0-66.0","34BBWHLWHBXFTCZCVCM92RYBPOQIWO","ARFJTVZE5IKLC","3VJ4PFXFJ3TL96TFXMATEMT7KJHUAI","","","<img src=""img/flower6.png"" style=""width:200px; border:14px solid green;"">","null","","","","","",""
"1300","","image-keyboard-response","67","613371","0.0-67.0","34BBWHLWHBXFTCZCVCM92RYBPOQIWO","ARFJTVZE5IKLC","3VJ4PFXFJ3TL96TFXMATEMT7KJHUAI","","","img/flower4.png","74","1305","1","0","1","",""
"null","","html-keyboard-response","68","613815","0.0-68.0","34BBWHLWHBXFTCZCVCM92RYBPOQIWO","ARFJTVZE5IKLC","3VJ4PFXFJ3TL96TFXMATEMT7KJHUAI","","","<img src=""img/flower4.png"" style=""width:200px;border:14px solid red;"">","null","","","","","",""
"1735","","image-keyboard-response","69","615566","0.0-69.0","34BBWHLWHBXFTCZCVCM92RYBPOQIWO","ARFJTVZE5IKLC","3VJ4PFXFJ3TL96TFXMATEMT7KJHUAI","","","img/flower5.png","75","1750","2","1","2","",""
"null","","html-keyboard-response","70","615886","0.0-70.0","34BBWHLWHBXFTCZCVCM92RYBPOQIWO","ARFJTVZE5IKLC","3VJ4PFXFJ3TL96TFXMATEMT7KJHUAI","","","<img src=""img/flower5.png"" style=""width:200px; border:14px solid green;"">","null","","","","","",""
"2070","","image-keyboard-response","71","617964","0.0-71.0","34BBWHLWHBXFTCZCVCM92RYBPOQIWO","ARFJTVZE5IKLC","3VJ4PFXFJ3TL96TFXMATEMT7KJHUAI","","","img/flower4.png","75","2078","2","0","1","",""
"null","","html-keyboard-response","72","618309","0.0-72.0","34BBWHLWHBXFTCZCVCM92RYBPOQIWO","ARFJTVZE5IKLC","3VJ4PFXFJ3TL96TFXMATEMT7KJHUAI","","","<img src=""img/flower4.png"" style=""width:200px;border:14px solid red;"">","null","","","","","",""
"1457","","image-keyboard-response","73","619780","0.0-73.0","34BBWHLWHBXFTCZCVCM92RYBPOQIWO","ARFJTVZE5IKLC","3VJ4PFXFJ3TL96TFXMATEMT7KJHUAI","","","img/flower6.png","76","1470","3","1","3","",""
"null","","html-keyboard-response","74","620290","0.0-74.0","34BBWHLWHBXFTCZCVCM92RYBPOQIWO","ARFJTVZE5IKLC","3VJ4PFXFJ3TL96TFXMATEMT7KJHUAI","","","<img src=""img/flower6.png"" style=""width:200px; border:14px solid green;"">","null","","","","","",""
"1745","","image-keyboard-response","75","622042","0.0-75.0","34BBWHLWHBXFTCZCVCM92RYBPOQIWO","ARFJTVZE5IKLC","3VJ4PFXFJ3TL96TFXMATEMT7KJHUAI","","","img/flower6.png","76","1751","3","0","3","",""
"null","","html-keyboard-response","76","622369","0.0-76.0","34BBWHLWHBXFTCZCVCM92RYBPOQIWO","ARFJTVZE5IKLC","3VJ4PFXFJ3TL96TFXMATEMT7KJHUAI","","","<img src=""img/flower6.png"" style=""width:200px;border:14px solid red;"">","null","","","","","",""
"3182","","image-keyboard-response","77","625556","0.0-77.0","34BBWHLWHBXFTCZCVCM92RYBPOQIWO","ARFJTVZE5IKLC","3VJ4PFXFJ3TL96TFXMATEMT7KJHUAI","","","img/flower6.png","74","3187","1","1","3","",""
"null","","html-keyboard-response","78","625883","0.0-78.0","34BBWHLWHBXFTCZCVCM92RYBPOQIWO","ARFJTVZE5IKLC","3VJ4PFXFJ3TL96TFXMATEMT7KJHUAI","","","<img src=""img/flower6.png"" style=""width:200px; border:14px solid green;"">","null","","","","","",""
"1510","","image-keyboard-response","79","627396","0.0-79.0","34BBWHLWHBXFTCZCVCM92RYBPOQIWO","ARFJTVZE5IKLC","3VJ4PFXFJ3TL96TFXMATEMT7KJHUAI","","","img/flower6.png","76","1512","3","1","3","",""
"null","","html-keyboard-response","80","627702","0.0-80.0","34BBWHLWHBXFTCZCVCM92RYBPOQIWO","ARFJTVZE5IKLC","3VJ4PFXFJ3TL96TFXMATEMT7KJHUAI","","","<img src=""img/flower6.png"" style=""width:200px; border:14px solid green;"">","null","","","","","",""
"1355","","image-keyboard-response","81","629064","0.0-81.0","34BBWHLWHBXFTCZCVCM92RYBPOQIWO","ARFJTVZE5IKLC","3VJ4PFXFJ3TL96TFXMATEMT7KJHUAI","","","img/flower4.png","74","1362","1","1","1","",""
"null","","html-keyboard-response","82","629427","0.0-82.0","34BBWHLWHBXFTCZCVCM92RYBPOQIWO","ARFJTVZE5IKLC","3VJ4PFXFJ3TL96TFXMATEMT7KJHUAI","","","<img src=""img/flower4.png"" style=""width:200px; border:14px solid green;"">","null","","","","","",""
"1561","","image-keyboard-response","83","631004","0.0-83.0","34BBWHLWHBXFTCZCVCM92RYBPOQIWO","ARFJTVZE5IKLC","3VJ4PFXFJ3TL96TFXMATEMT7KJHUAI","","","img/flower5.png","75","1573","2","1","2","",""
"null","","html-keyboard-response","84","631325","0.0-84.0","34BBWHLWHBXFTCZCVCM92RYBPOQIWO","ARFJTVZE5IKLC","3VJ4PFXFJ3TL96TFXMATEMT7KJHUAI","","","<img src=""img/flower5.png"" style=""width:200px; border:14px solid green;"">","null","","","","","",""
"4245","","image-keyboard-response","85","635576","0.0-85.0","34BBWHLWHBXFTCZCVCM92RYBPOQIWO","ARFJTVZE5IKLC","3VJ4PFXFJ3TL96TFXMATEMT7KJHUAI","","","img/flower6.png","76","4251","3","1","3","",""
"null","","html-keyboard-response","86","635893","0.0-86.0","34BBWHLWHBXFTCZCVCM92RYBPOQIWO","ARFJTVZE5IKLC","3VJ4PFXFJ3TL96TFXMATEMT7KJHUAI","","","<img src=""img/flower6.png"" style=""width:200px; border:14px solid green;"">","null","","","","","",""
"1192","","image-keyboard-response","87","637089","0.0-87.0","34BBWHLWHBXFTCZCVCM92RYBPOQIWO","ARFJTVZE5IKLC","3VJ4PFXFJ3TL96TFXMATEMT7KJHUAI","","","img/flower5.png","75","1196","2","1","2","",""
"null","","html-keyboard-response","88","637417","0.0-88.0","34BBWHLWHBXFTCZCVCM92RYBPOQIWO","ARFJTVZE5IKLC","3VJ4PFXFJ3TL96TFXMATEMT7KJHUAI","","","<img src=""img/flower5.png"" style=""width:200px; border:14px solid green;"">","null","","","","","",""
"2229","","image-keyboard-response","89","639662","0.0-89.0","34BBWHLWHBXFTCZCVCM92RYBPOQIWO","ARFJTVZE5IKLC","3VJ4PFXFJ3TL96TFXMATEMT7KJHUAI","","","img/flower4.png","74","2240","1","1","1","",""
"null","","html-keyboard-response","90","640006","0.0-90.0","34BBWHLWHBXFTCZCVCM92RYBPOQIWO","ARFJTVZE5IKLC","3VJ4PFXFJ3TL96TFXMATEMT7KJHUAI","","","<img src=""img/flower4.png"" style=""width:200px; border:14px solid green;"">","null","","","","","",""
"2624","","image-keyboard-response","91","642641","0.0-91.0","34BBWHLWHBXFTCZCVCM92RYBPOQIWO","ARFJTVZE5IKLC","3VJ4PFXFJ3TL96TFXMATEMT7KJHUAI","","","img/flower6.png","74","2634","1","1","3","",""
"null","","html-keyboard-response","92","642958","0.0-92.0","34BBWHLWHBXFTCZCVCM92RYBPOQIWO","ARFJTVZE5IKLC","3VJ4PFXFJ3TL96TFXMATEMT7KJHUAI","","","<img src=""img/flower6.png"" style=""width:200px; border:14px solid green;"">","null","","","","","",""
"2404","","image-keyboard-response","93","645373","0.0-93.0","34BBWHLWHBXFTCZCVCM92RYBPOQIWO","ARFJTVZE5IKLC","3VJ4PFXFJ3TL96TFXMATEMT7KJHUAI","","","img/flower5.png","75","2414","2","0","2","",""
"null","","html-keyboard-response","94","645685","0.0-94.0","34BBWHLWHBXFTCZCVCM92RYBPOQIWO","ARFJTVZE5IKLC","3VJ4PFXFJ3TL96TFXMATEMT7KJHUAI","","","<img src=""img/flower5.png"" style=""width:200px;border:14px solid red;"">","null","","","","","",""
"1454","","image-keyboard-response","95","647142","0.0-95.0","34BBWHLWHBXFTCZCVCM92RYBPOQIWO","ARFJTVZE5IKLC","3VJ4PFXFJ3TL96TFXMATEMT7KJHUAI","","","img/flower4.png","74","1457","1","1","1","",""
"null","","html-keyboard-response","96","647461","0.0-96.0","34BBWHLWHBXFTCZCVCM92RYBPOQIWO","ARFJTVZE5IKLC","3VJ4PFXFJ3TL96TFXMATEMT7KJHUAI","","","<img src=""img/flower4.png"" style=""width:200px; border:14px solid green;"">","null","","","","","",""
"2690","","image-keyboard-response","97","650164","0.0-97.0","34BBWHLWHBXFTCZCVCM92RYBPOQIWO","ARFJTVZE5IKLC","3VJ4PFXFJ3TL96TFXMATEMT7KJHUAI","","","img/flower5.png","75","2702","2","1","2","",""
"null","","html-keyboard-response","98","650480","0.0-98.0","34BBWHLWHBXFTCZCVCM92RYBPOQIWO","ARFJTVZE5IKLC","3VJ4PFXFJ3TL96TFXMATEMT7KJHUAI","","","<img src=""img/flower5.png"" style=""width:200px; border:14px solid green;"">","null","","","","","",""
"2467","","image-keyboard-response","99","652950","0.0-99.0","34BBWHLWHBXFTCZCVCM92RYBPOQIWO","ARFJTVZE5IKLC","3VJ4PFXFJ3TL96TFXMATEMT7KJHUAI","","","img/flower4.png","75","2470","2","1","1","",""
"null","","html-keyboard-response","100","653329","0.0-100.0","34BBWHLWHBXFTCZCVCM92RYBPOQIWO","ARFJTVZE5IKLC","3VJ4PFXFJ3TL96TFXMATEMT7KJHUAI","","","<img src=""img/flower4.png"" style=""width:200px; border:14px solid green;"">","null","","","","","",""
"3124","","image-keyboard-response","101","656470","0.0-101.0","34BBWHLWHBXFTCZCVCM92RYBPOQIWO","ARFJTVZE5IKLC","3VJ4PFXFJ3TL96TFXMATEMT7KJHUAI","","","img/flower5.png","76","3140","3","1","2","",""
"null","","html-keyboard-response","102","656792","0.0-102.0","34BBWHLWHBXFTCZCVCM92RYBPOQIWO","ARFJTVZE5IKLC","3VJ4PFXFJ3TL96TFXMATEMT7KJHUAI","","","<img src=""img/flower5.png"" style=""width:200px; border:14px solid green;"">","null","","","","","",""
"1651","","image-keyboard-response","103","658466","0.0-103.0","34BBWHLWHBXFTCZCVCM92RYBPOQIWO","ARFJTVZE5IKLC","3VJ4PFXFJ3TL96TFXMATEMT7KJHUAI","","","img/flower4.png","74","1665","1","0","1","",""
"null","","html-keyboard-response","104","658780","0.0-104.0","34BBWHLWHBXFTCZCVCM92RYBPOQIWO","ARFJTVZE5IKLC","3VJ4PFXFJ3TL96TFXMATEMT7KJHUAI","","","<img src=""img/flower4.png"" style=""width:200px;border:14px solid red;"">","null","","","","","",""
"1416","","image-keyboard-response","105","660203","0.0-105.0","34BBWHLWHBXFTCZCVCM92RYBPOQIWO","ARFJTVZE5IKLC","3VJ4PFXFJ3TL96TFXMATEMT7KJHUAI","","","img/flower5.png","75","1423","2","1","2","",""
"null","","html-keyboard-response","106","660527","0.0-106.0","34BBWHLWHBXFTCZCVCM92RYBPOQIWO","ARFJTVZE5IKLC","3VJ4PFXFJ3TL96TFXMATEMT7KJHUAI","","","<img src=""img/flower5.png"" style=""width:200px; border:14px solid green;"">","null","","","","","",""
"1140","","image-keyboard-response","107","661678","0.0-107.0","34BBWHLWHBXFTCZCVCM92RYBPOQIWO","ARFJTVZE5IKLC","3VJ4PFXFJ3TL96TFXMATEMT7KJHUAI","","","img/flower6.png","76","1151","3","0","3","",""
"null","","html-keyboard-response","108","661986","0.0-108.0","34BBWHLWHBXFTCZCVCM92RYBPOQIWO","ARFJTVZE5IKLC","3VJ4PFXFJ3TL96TFXMATEMT7KJHUAI","","","<img src=""img/flower6.png"" style=""width:200px;border:14px solid red;"">","null","","","","","",""
"1171","","image-keyboard-response","109","663161","0.0-109.0","34BBWHLWHBXFTCZCVCM92RYBPOQIWO","ARFJTVZE5IKLC","3VJ4PFXFJ3TL96TFXMATEMT7KJHUAI","","","img/flower5.png","75","1173","2","1","2","",""
"null","","html-keyboard-response","110","663485","0.0-110.0","34BBWHLWHBXFTCZCVCM92RYBPOQIWO","ARFJTVZE5IKLC","3VJ4PFXFJ3TL96TFXMATEMT7KJHUAI","","","<img src=""img/flower5.png"" style=""width:200px; border:14px solid green;"">","null","","","","","",""
"939","","image-keyboard-response","111","664444","0.0-111.0","34BBWHLWHBXFTCZCVCM92RYBPOQIWO","ARFJTVZE5IKLC","3VJ4PFXFJ3TL96TFXMATEMT7KJHUAI","","","img/flower4.png","74","958","1","1","1","",""
"null","","html-keyboard-response","112","664755","0.0-112.0","34BBWHLWHBXFTCZCVCM92RYBPOQIWO","ARFJTVZE5IKLC","3VJ4PFXFJ3TL96TFXMATEMT7KJHUAI","","","<img src=""img/flower4.png"" style=""width:200px; border:14px solid green;"">","null","","","","","",""
"3195","","image-keyboard-response","113","667964","0.0-113.0","34BBWHLWHBXFTCZCVCM92RYBPOQIWO","ARFJTVZE5IKLC","3VJ4PFXFJ3TL96TFXMATEMT7KJHUAI","","","img/flower4.png","75","3209","2","0","1","",""
"null","","html-keyboard-response","114","668273","0.0-114.0","34BBWHLWHBXFTCZCVCM92RYBPOQIWO","ARFJTVZE5IKLC","3VJ4PFXFJ3TL96TFXMATEMT7KJHUAI","","","<img src=""img/flower4.png"" style=""width:200px;border:14px solid red;"">","null","","","","","",""
"932","","image-keyboard-response","115","669217","0.0-115.0","34BBWHLWHBXFTCZCVCM92RYBPOQIWO","ARFJTVZE5IKLC","3VJ4PFXFJ3TL96TFXMATEMT7KJHUAI","","","img/flower6.png","74","945","1","0","3","",""
"null","","html-keyboard-response","116","669529","0.0-116.0","34BBWHLWHBXFTCZCVCM92RYBPOQIWO","ARFJTVZE5IKLC","3VJ4PFXFJ3TL96TFXMATEMT7KJHUAI","","","<img src=""img/flower6.png"" style=""width:200px;border:14px solid red;"">","null","","","","","",""
"1388","","image-keyboard-response","117","670928","0.0-117.0","34BBWHLWHBXFTCZCVCM92RYBPOQIWO","ARFJTVZE5IKLC","3VJ4PFXFJ3TL96TFXMATEMT7KJHUAI","","","img/flower5.png","76","1399","3","0","2","",""
"null","","html-keyboard-response","118","671248","0.0-118.0","34BBWHLWHBXFTCZCVCM92RYBPOQIWO","ARFJTVZE5IKLC","3VJ4PFXFJ3TL96TFXMATEMT7KJHUAI","","","<img src=""img/flower5.png"" style=""width:200px;border:14px solid red;"">","null","","","","","",""
"1543","","image-keyboard-response","119","672794","0.0-119.0","34BBWHLWHBXFTCZCVCM92RYBPOQIWO","ARFJTVZE5IKLC","3VJ4PFXFJ3TL96TFXMATEMT7KJHUAI","","","img/flower4.png","74","1545","1","1","1","",""
"null","","html-keyboard-response","120","673175","0.0-120.0","34BBWHLWHBXFTCZCVCM92RYBPOQIWO","ARFJTVZE5IKLC","3VJ4PFXFJ3TL96TFXMATEMT7KJHUAI","","","<img src=""img/flower4.png"" style=""width:200px; border:14px solid green;"">","null","","","","","",""
"1257","","image-keyboard-response","121","674442","0.0-121.0","34BBWHLWHBXFTCZCVCM92RYBPOQIWO","ARFJTVZE5IKLC","3VJ4PFXFJ3TL96TFXMATEMT7KJHUAI","","","img/flower6.png","76","1268","3","1","3","",""
"null","","html-keyboard-response","122","674783","0.0-122.0","34BBWHLWHBXFTCZCVCM92RYBPOQIWO","ARFJTVZE5IKLC","3VJ4PFXFJ3TL96TFXMATEMT7KJHUAI","","","<img src=""img/flower6.png"" style=""width:200px; border:14px solid green;"">","null","","","","","",""
"3000","","image-keyboard-response","123","677784","0.0-123.0","34BBWHLWHBXFTCZCVCM92RYBPOQIWO","ARFJTVZE5IKLC","3VJ4PFXFJ3TL96TFXMATEMT7KJHUAI","","","img/flower5.png","76","3004","3","1","2","",""
"null","","html-keyboard-response","124","678164","0.0-124.0","34BBWHLWHBXFTCZCVCM92RYBPOQIWO","ARFJTVZE5IKLC","3VJ4PFXFJ3TL96TFXMATEMT7KJHUAI","","","<img src=""img/flower5.png"" style=""width:200px; border:14px solid green;"">","null","","","","","",""
"4724","","instructions","125","682889","0.0-125.0","34BBWHLWHBXFTCZCVCM92RYBPOQIWO","ARFJTVZE5IKLC","3VJ4PFXFJ3TL96TFXMATEMT7KJHUAI","","[{""page_index"":0,""viewing_time"":4723}]","","","","","","","",""
"4349","","image-keyboard-response","126","687240","0.0-126.0","34BBWHLWHBXFTCZCVCM92RYBPOQIWO","ARFJTVZE5IKLC","3VJ4PFXFJ3TL96TFXMATEMT7KJHUAI","","","img/flower6.png","76","4350","3","1","3","1,1,0,0,1,1,1,0,1",""
"null","","html-keyboard-response","127","687562","0.0-127.0","34BBWHLWHBXFTCZCVCM92RYBPOQIWO","ARFJTVZE5IKLC","3VJ4PFXFJ3TL96TFXMATEMT7KJHUAI","","","<img src=""img/flower6.png"" style=""width:200px; border:14px solid green;"">","null","","","","","",""
"2754","","image-keyboard-response","128","690335","0.0-128.0","34BBWHLWHBXFTCZCVCM92RYBPOQIWO","ARFJTVZE5IKLC","3VJ4PFXFJ3TL96TFXMATEMT7KJHUAI","","","img/flower6.png","74","2772","1","1","3","1,1,0,0,1,1,1,0,1",""
"null","","html-keyboard-response","129","690648","0.0-129.0","34BBWHLWHBXFTCZCVCM92RYBPOQIWO","ARFJTVZE5IKLC","3VJ4PFXFJ3TL96TFXMATEMT7KJHUAI","","","<img src=""img/flower6.png"" style=""width:200px; border:14px solid green;"">","null","","","","","",""
"2139","","image-keyboard-response","130","692794","0.0-130.0","34BBWHLWHBXFTCZCVCM92RYBPOQIWO","ARFJTVZE5IKLC","3VJ4PFXFJ3TL96TFXMATEMT7KJHUAI","","","img/flower1.png","75","2146","2","1","1","1,1,0,0,1,1,1,0,1",""
"null","","html-keyboard-response","131","693112","0.0-131.0","34BBWHLWHBXFTCZCVCM92RYBPOQIWO","ARFJTVZE5IKLC","3VJ4PFXFJ3TL96TFXMATEMT7KJHUAI","","","<img src=""img/flower1.png"" style=""width:200px; border:14px solid green;"">","null","","","","","",""
"2610","","image-keyboard-response","132","695735","0.0-132.0","34BBWHLWHBXFTCZCVCM92RYBPOQIWO","ARFJTVZE5IKLC","3VJ4PFXFJ3TL96TFXMATEMT7KJHUAI","","","img/flower1.png","76","2623","3","0","1","1,1,0,0,1,1,1,0,1",""
"null","","html-keyboard-response","133","696089","0.0-133.0","34BBWHLWHBXFTCZCVCM92RYBPOQIWO","ARFJTVZE5IKLC","3VJ4PFXFJ3TL96TFXMATEMT7KJHUAI","","","<img src=""img/flower1.png"" style=""width:200px;border:14px solid red;"">","null","","","","","",""
"2433","","image-keyboard-response","134","698537","0.0-134.0","34BBWHLWHBXFTCZCVCM92RYBPOQIWO","ARFJTVZE5IKLC","3VJ4PFXFJ3TL96TFXMATEMT7KJHUAI","","","img/flower1.png","75","2438","2","1","1","1,1,0,0,1,1,1,0,1",""
"null","","html-keyboard-response","135","698896","0.0-135.0","34BBWHLWHBXFTCZCVCM92RYBPOQIWO","ARFJTVZE5IKLC","3VJ4PFXFJ3TL96TFXMATEMT7KJHUAI","","","<img src=""img/flower1.png"" style=""width:200px; border:14px solid green;"">","null","","","","","",""
"1209","","image-keyboard-response","136","700119","0.0-136.0","34BBWHLWHBXFTCZCVCM92RYBPOQIWO","ARFJTVZE5IKLC","3VJ4PFXFJ3TL96TFXMATEMT7KJHUAI","","","img/flower1.png","75","1222","2","1","1","1,1,0,0,1,1,1,0,1",""
"null","","html-keyboard-response","137","700433","0.0-137.0","34BBWHLWHBXFTCZCVCM92RYBPOQIWO","ARFJTVZE5IKLC","3VJ4PFXFJ3TL96TFXMATEMT7KJHUAI","","","<img src=""img/flower1.png"" style=""width:200px; border:14px solid green;"">","null","","","","","",""
"1270","","image-keyboard-response","138","701718","0.0-138.0","34BBWHLWHBXFTCZCVCM92RYBPOQIWO","ARFJTVZE5IKLC","3VJ4PFXFJ3TL96TFXMATEMT7KJHUAI","","","img/flower6.png","76","1281","3","1","3","1,1,0,0,1,1,1,0,1",""
"null","","html-keyboard-response","139","702062","0.0-139.0","34BBWHLWHBXFTCZCVCM92RYBPOQIWO","ARFJTVZE5IKLC","3VJ4PFXFJ3TL96TFXMATEMT7KJHUAI","","","<img src=""img/flower6.png"" style=""width:200px; border:14px solid green;"">","null","","","","","",""
"751","","image-keyboard-response","140","702818","0.0-140.0","34BBWHLWHBXFTCZCVCM92RYBPOQIWO","ARFJTVZE5IKLC","3VJ4PFXFJ3TL96TFXMATEMT7KJHUAI","","","img/flower6.png","76","763","3","1","3","1,1,0,0,1,1,1,0,1",""
"null","","html-keyboard-response","141","703160","0.0-141.0","34BBWHLWHBXFTCZCVCM92RYBPOQIWO","ARFJTVZE5IKLC","3VJ4PFXFJ3TL96TFXMATEMT7KJHUAI","","","<img src=""img/flower6.png"" style=""width:200px; border:14px solid green;"">","null","","","","","",""
"1546","","image-keyboard-response","142","704714","0.0-142.0","34BBWHLWHBXFTCZCVCM92RYBPOQIWO","ARFJTVZE5IKLC","3VJ4PFXFJ3TL96TFXMATEMT7KJHUAI","","","img/flower2.png","75","1553","2","1","2","1,1,0,0,1,1,1,0,1",""
"null","","html-keyboard-response","143","705035","0.0-143.0","34BBWHLWHBXFTCZCVCM92RYBPOQIWO","ARFJTVZE5IKLC","3VJ4PFXFJ3TL96TFXMATEMT7KJHUAI","","","<img src=""img/flower2.png"" style=""width:200px; border:14px solid green;"">","null","","","","","",""
"1359","","image-keyboard-response","144","706405","0.0-144.0","34BBWHLWHBXFTCZCVCM92RYBPOQIWO","ARFJTVZE5IKLC","3VJ4PFXFJ3TL96TFXMATEMT7KJHUAI","","","img/flower2.png","75","1370","2","1","2","1,1,0,0,1,1,1,0,1",""
"null","","html-keyboard-response","145","706711","0.0-145.0","34BBWHLWHBXFTCZCVCM92RYBPOQIWO","ARFJTVZE5IKLC","3VJ4PFXFJ3TL96TFXMATEMT7KJHUAI","","","<img src=""img/flower2.png"" style=""width:200px; border:14px solid green;"">","null","","","","","",""
"1306","","image-keyboard-response","146","708023","0.0-146.0","34BBWHLWHBXFTCZCVCM92RYBPOQIWO","ARFJTVZE5IKLC","3VJ4PFXFJ3TL96TFXMATEMT7KJHUAI","","","img/flower2.png","75","1312","2","1","2","1,1,0,0,1,1,1,0,1",""
"null","","html-keyboard-response","147","708329","0.0-147.0","34BBWHLWHBXFTCZCVCM92RYBPOQIWO","ARFJTVZE5IKLC","3VJ4PFXFJ3TL96TFXMATEMT7KJHUAI","","","<img src=""img/flower2.png"" style=""width:200px; border:14px solid green;"">","null","","","","","",""
"1772","","image-keyboard-response","148","710112","0.0-148.0","34BBWHLWHBXFTCZCVCM92RYBPOQIWO","ARFJTVZE5IKLC","3VJ4PFXFJ3TL96TFXMATEMT7KJHUAI","","","img/flower6.png","76","1783","3","1","3","1,1,0,0,1,1,1,0,1",""
"null","","html-keyboard-response","149","710438","0.0-149.0","34BBWHLWHBXFTCZCVCM92RYBPOQIWO","ARFJTVZE5IKLC","3VJ4PFXFJ3TL96TFXMATEMT7KJHUAI","","","<img src=""img/flower6.png"" style=""width:200px; border:14px solid green;"">","null","","","","","",""
"936","","image-keyboard-response","150","711376","0.0-150.0","34BBWHLWHBXFTCZCVCM92RYBPOQIWO","ARFJTVZE5IKLC","3VJ4PFXFJ3TL96TFXMATEMT7KJHUAI","","","img/flower2.png","75","938","2","1","2","1,1,0,0,1,1,1,0,1",""
"null","","html-keyboard-response","151","711693","0.0-151.0","34BBWHLWHBXFTCZCVCM92RYBPOQIWO","ARFJTVZE5IKLC","3VJ4PFXFJ3TL96TFXMATEMT7KJHUAI","","","<img src=""img/flower2.png"" style=""width:200px; border:14px solid green;"">","null","","","","","",""
"1156","","image-keyboard-response","152","712859","0.0-152.0","34BBWHLWHBXFTCZCVCM92RYBPOQIWO","ARFJTVZE5IKLC","3VJ4PFXFJ3TL96TFXMATEMT7KJHUAI","","","img/flower1.png","75","1166","2","1","1","1,1,0,0,1,1,1,0,1",""
"null","","html-keyboard-response","153","713187","0.0-153.0","34BBWHLWHBXFTCZCVCM92RYBPOQIWO","ARFJTVZE5IKLC","3VJ4PFXFJ3TL96TFXMATEMT7KJHUAI","","","<img src=""img/flower1.png"" style=""width:200px; border:14px solid green;"">","null","","","","","",""
"1190","","image-keyboard-response","154","714387","0.0-154.0","34BBWHLWHBXFTCZCVCM92RYBPOQIWO","ARFJTVZE5IKLC","3VJ4PFXFJ3TL96TFXMATEMT7KJHUAI","","","img/flower2.png","75","1199","2","1","2","1,1,0,0,1,1,1,0,1",""
"null","","html-keyboard-response","155","714703","0.0-155.0","34BBWHLWHBXFTCZCVCM92RYBPOQIWO","ARFJTVZE5IKLC","3VJ4PFXFJ3TL96TFXMATEMT7KJHUAI","","","<img src=""img/flower2.png"" style=""width:200px; border:14px solid green;"">","null","","","","","",""
"860","","image-keyboard-response","156","715564","0.0-156.0","34BBWHLWHBXFTCZCVCM92RYBPOQIWO","ARFJTVZE5IKLC","3VJ4PFXFJ3TL96TFXMATEMT7KJHUAI","","","img/flower1.png","75","864","2","1","1","1,1,0,0,1,1,1,0,1",""
"null","","html-keyboard-response","157","715890","0.0-157.0","34BBWHLWHBXFTCZCVCM92RYBPOQIWO","ARFJTVZE5IKLC","3VJ4PFXFJ3TL96TFXMATEMT7KJHUAI","","","<img src=""img/flower1.png"" style=""width:200px; border:14px solid green;"">","null","","","","","",""
"1018","","image-keyboard-response","158","716913","0.0-158.0","34BBWHLWHBXFTCZCVCM92RYBPOQIWO","ARFJTVZE5IKLC","3VJ4PFXFJ3TL96TFXMATEMT7KJHUAI","","","img/flower6.png","76","1023","3","1","3","1,1,0,0,1,1,1,0,1",""
"null","","html-keyboard-response","159","717245","0.0-159.0","34BBWHLWHBXFTCZCVCM92RYBPOQIWO","ARFJTVZE5IKLC","3VJ4PFXFJ3TL96TFXMATEMT7KJHUAI","","","<img src=""img/flower6.png"" style=""width:200px; border:14px solid green;"">","null","","","","","",""
"1151","","image-keyboard-response","160","718401","0.0-160.0","34BBWHLWHBXFTCZCVCM92RYBPOQIWO","ARFJTVZE5IKLC","3VJ4PFXFJ3TL96TFXMATEMT7KJHUAI","","","img/flower6.png","76","1156","3","1","3","1,1,0,0,1,1,1,0,1",""
"null","","html-keyboard-response","161","718724","0.0-161.0","34BBWHLWHBXFTCZCVCM92RYBPOQIWO","ARFJTVZE5IKLC","3VJ4PFXFJ3TL96TFXMATEMT7KJHUAI","","","<img src=""img/flower6.png"" style=""width:200px; border:14px solid green;"">","null","","","","","",""
"982","","image-keyboard-response","162","719710","0.0-162.0","34BBWHLWHBXFTCZCVCM92RYBPOQIWO","ARFJTVZE5IKLC","3VJ4PFXFJ3TL96TFXMATEMT7KJHUAI","","","img/flower2.png","75","985","2","1","2","1,1,0,0,1,1,1,0,1",""
"null","","html-keyboard-response","163","720022","0.0-163.0","34BBWHLWHBXFTCZCVCM92RYBPOQIWO","ARFJTVZE5IKLC","3VJ4PFXFJ3TL96TFXMATEMT7KJHUAI","","","<img src=""img/flower2.png"" style=""width:200px; border:14px solid green;"">","null","","","","","",""
"1154","","image-keyboard-response","164","721196","0.0-164.0","34BBWHLWHBXFTCZCVCM92RYBPOQIWO","ARFJTVZE5IKLC","3VJ4PFXFJ3TL96TFXMATEMT7KJHUAI","","","img/flower6.png","76","1172","3","1","3","1,1,0,0,1,1,1,0,1",""
"null","","html-keyboard-response","165","721516","0.0-165.0","34BBWHLWHBXFTCZCVCM92RYBPOQIWO","ARFJTVZE5IKLC","3VJ4PFXFJ3TL96TFXMATEMT7KJHUAI","","","<img src=""img/flower6.png"" style=""width:200px; border:14px solid green;"">","null","","","","","",""
"1093","","image-keyboard-response","166","722616","0.0-166.0","34BBWHLWHBXFTCZCVCM92RYBPOQIWO","ARFJTVZE5IKLC","3VJ4PFXFJ3TL96TFXMATEMT7KJHUAI","","","img/flower2.png","75","1099","2","1","2","1,1,0,0,1,1,1,0,1",""
"null","","html-keyboard-response","167","722932","0.0-167.0","34BBWHLWHBXFTCZCVCM92RYBPOQIWO","ARFJTVZE5IKLC","3VJ4PFXFJ3TL96TFXMATEMT7KJHUAI","","","<img src=""img/flower2.png"" style=""width:200px; border:14px solid green;"">","null","","","","","",""
"1003","","image-keyboard-response","168","723944","0.0-168.0","34BBWHLWHBXFTCZCVCM92RYBPOQIWO","ARFJTVZE5IKLC","3VJ4PFXFJ3TL96TFXMATEMT7KJHUAI","","","img/flower2.png","75","1012","2","1","2","1,1,0,0,1,1,1,0,1",""
"null","","html-keyboard-response","169","724253","0.0-169.0","34BBWHLWHBXFTCZCVCM92RYBPOQIWO","ARFJTVZE5IKLC","3VJ4PFXFJ3TL96TFXMATEMT7KJHUAI","","","<img src=""img/flower2.png"" style=""width:200px; border:14px solid green;"">","null","","","","","",""
"1097","","image-keyboard-response","170","725355","0.0-170.0","34BBWHLWHBXFTCZCVCM92RYBPOQIWO","ARFJTVZE5IKLC","3VJ4PFXFJ3TL96TFXMATEMT7KJHUAI","","","img/flower1.png","75","1101","2","1","1","1,1,0,0,1,1,1,0,1",""
"null","","html-keyboard-response","171","725669","0.0-171.0","34BBWHLWHBXFTCZCVCM92RYBPOQIWO","ARFJTVZE5IKLC","3VJ4PFXFJ3TL96TFXMATEMT7KJHUAI","","","<img src=""img/flower1.png"" style=""width:200px; border:14px solid green;"">","null","","","","","",""
"793","","image-keyboard-response","172","726464","0.0-172.0","34BBWHLWHBXFTCZCVCM92RYBPOQIWO","ARFJTVZE5IKLC","3VJ4PFXFJ3TL96TFXMATEMT7KJHUAI","","","img/flower2.png","75","795","2","1","2","1,1,0,0,1,1,1,0,1",""
"null","","html-keyboard-response","173","726780","0.0-173.0","34BBWHLWHBXFTCZCVCM92RYBPOQIWO","ARFJTVZE5IKLC","3VJ4PFXFJ3TL96TFXMATEMT7KJHUAI","","","<img src=""img/flower2.png"" style=""width:200px; border:14px solid green;"">","null","","","","","",""
"1034","","image-keyboard-response","174","727816","0.0-174.0","34BBWHLWHBXFTCZCVCM92RYBPOQIWO","ARFJTVZE5IKLC","3VJ4PFXFJ3TL96TFXMATEMT7KJHUAI","","","img/flower6.png","76","1036","3","1","3","1,1,0,0,1,1,1,0,1",""
"null","","html-keyboard-response","175","728243","0.0-175.0","34BBWHLWHBXFTCZCVCM92RYBPOQIWO","ARFJTVZE5IKLC","3VJ4PFXFJ3TL96TFXMATEMT7KJHUAI","","","<img src=""img/flower6.png"" style=""width:200px; border:14px solid green;"">","null","","","","","",""
"788","","image-keyboard-response","176","729041","0.0-176.0","34BBWHLWHBXFTCZCVCM92RYBPOQIWO","ARFJTVZE5IKLC","3VJ4PFXFJ3TL96TFXMATEMT7KJHUAI","","","img/flower1.png","75","798","2","1","1","1,1,0,0,1,1,1,0,1",""
"null","","html-keyboard-response","177","729359","0.0-177.0","34BBWHLWHBXFTCZCVCM92RYBPOQIWO","ARFJTVZE5IKLC","3VJ4PFXFJ3TL96TFXMATEMT7KJHUAI","","","<img src=""img/flower1.png"" style=""width:200px; border:14px solid green;"">","null","","","","","",""
"816","","image-keyboard-response","178","730190","0.0-178.0","34BBWHLWHBXFTCZCVCM92RYBPOQIWO","ARFJTVZE5IKLC","3VJ4PFXFJ3TL96TFXMATEMT7KJHUAI","","","img/flower2.png","75","830","2","1","2","1,1,0,0,1,1,1,0,1",""
"null","","html-keyboard-response","179","730515","0.0-179.0","34BBWHLWHBXFTCZCVCM92RYBPOQIWO","ARFJTVZE5IKLC","3VJ4PFXFJ3TL96TFXMATEMT7KJHUAI","","","<img src=""img/flower2.png"" style=""width:200px; border:14px solid green;"">","null","","","","","",""
"1174","","image-keyboard-response","180","731703","0.0-180.0","34BBWHLWHBXFTCZCVCM92RYBPOQIWO","ARFJTVZE5IKLC","3VJ4PFXFJ3TL96TFXMATEMT7KJHUAI","","","img/flower6.png","76","1188","3","1","3","1,1,0,0,1,1,1,0,1",""
"null","","html-keyboard-response","181","732026","0.0-181.0","34BBWHLWHBXFTCZCVCM92RYBPOQIWO","ARFJTVZE5IKLC","3VJ4PFXFJ3TL96TFXMATEMT7KJHUAI","","","<img src=""img/flower6.png"" style=""width:200px; border:14px solid green;"">","null","","","","","",""
"816","","image-keyboard-response","182","732847","0.0-182.0","34BBWHLWHBXFTCZCVCM92RYBPOQIWO","ARFJTVZE5IKLC","3VJ4PFXFJ3TL96TFXMATEMT7KJHUAI","","","img/flower6.png","76","820","3","1","3","1,1,0,0,1,1,1,0,1",""
"null","","html-keyboard-response","183","733169","0.0-183.0","34BBWHLWHBXFTCZCVCM92RYBPOQIWO","ARFJTVZE5IKLC","3VJ4PFXFJ3TL96TFXMATEMT7KJHUAI","","","<img src=""img/flower6.png"" style=""width:200px; border:14px solid green;"">","null","","","","","",""
"699","","image-keyboard-response","184","733880","0.0-184.0","34BBWHLWHBXFTCZCVCM92RYBPOQIWO","ARFJTVZE5IKLC","3VJ4PFXFJ3TL96TFXMATEMT7KJHUAI","","","img/flower6.png","76","710","3","1","3","1,1,0,0,1,1,1,0,1",""
"null","","html-keyboard-response","185","734214","0.0-185.0","34BBWHLWHBXFTCZCVCM92RYBPOQIWO","ARFJTVZE5IKLC","3VJ4PFXFJ3TL96TFXMATEMT7KJHUAI","","","<img src=""img/flower6.png"" style=""width:200px; border:14px solid green;"">","null","","","","","",""
"663","","image-keyboard-response","186","734880","0.0-186.0","34BBWHLWHBXFTCZCVCM92RYBPOQIWO","ARFJTVZE5IKLC","3VJ4PFXFJ3TL96TFXMATEMT7KJHUAI","","","img/flower6.png","76","666","3","1","3","1,1,0,0,1,1,1,0,1",""
"null","","html-keyboard-response","187","735205","0.0-187.0","34BBWHLWHBXFTCZCVCM92RYBPOQIWO","ARFJTVZE5IKLC","3VJ4PFXFJ3TL96TFXMATEMT7KJHUAI","","","<img src=""img/flower6.png"" style=""width:200px; border:14px solid green;"">","null","","","","","",""
"641","","image-keyboard-response","188","735853","0.0-188.0","34BBWHLWHBXFTCZCVCM92RYBPOQIWO","ARFJTVZE5IKLC","3VJ4PFXFJ3TL96TFXMATEMT7KJHUAI","","","img/flower6.png","76","646","3","1","3","1,1,0,0,1,1,1,0,1",""
"null","","html-keyboard-response","189","736185","0.0-189.0","34BBWHLWHBXFTCZCVCM92RYBPOQIWO","ARFJTVZE5IKLC","3VJ4PFXFJ3TL96TFXMATEMT7KJHUAI","","","<img src=""img/flower6.png"" style=""width:200px; border:14px solid green;"">","null","","","","","",""
"860","","image-keyboard-response","190","737053","0.0-190.0","34BBWHLWHBXFTCZCVCM92RYBPOQIWO","ARFJTVZE5IKLC","3VJ4PFXFJ3TL96TFXMATEMT7KJHUAI","","","img/flower2.png","75","866","2","1","2","1,1,0,0,1,1,1,0,1",""
"null","","html-keyboard-response","191","737360","0.0-191.0","34BBWHLWHBXFTCZCVCM92RYBPOQIWO","ARFJTVZE5IKLC","3VJ4PFXFJ3TL96TFXMATEMT7KJHUAI","","","<img src=""img/flower2.png"" style=""width:200px; border:14px solid green;"">","null","","","","","",""
"697","","image-keyboard-response","192","738075","0.0-192.0","34BBWHLWHBXFTCZCVCM92RYBPOQIWO","ARFJTVZE5IKLC","3VJ4PFXFJ3TL96TFXMATEMT7KJHUAI","","","img/flower2.png","75","715","2","1","2","1,1,0,0,1,1,1,0,1",""
"null","","html-keyboard-response","193","738393","0.0-193.0","34BBWHLWHBXFTCZCVCM92RYBPOQIWO","ARFJTVZE5IKLC","3VJ4PFXFJ3TL96TFXMATEMT7KJHUAI","","","<img src=""img/flower2.png"" style=""width:200px; border:14px solid green;"">","null","","","","","",""
"617","","image-keyboard-response","194","739013","0.0-194.0","34BBWHLWHBXFTCZCVCM92RYBPOQIWO","ARFJTVZE5IKLC","3VJ4PFXFJ3TL96TFXMATEMT7KJHUAI","","","img/flower2.png","75","620","2","1","2","1,1,0,0,1,1,1,0,1",""
"null","","html-keyboard-response","195","739326","0.0-195.0","34BBWHLWHBXFTCZCVCM92RYBPOQIWO","ARFJTVZE5IKLC","3VJ4PFXFJ3TL96TFXMATEMT7KJHUAI","","","<img src=""img/flower2.png"" style=""width:200px; border:14px solid green;"">","null","","","","","",""
"808","","image-keyboard-response","196","740145","0.0-196.0","34BBWHLWHBXFTCZCVCM92RYBPOQIWO","ARFJTVZE5IKLC","3VJ4PFXFJ3TL96TFXMATEMT7KJHUAI","","","img/flower6.png","76","819","3","1","3","1,1,0,0,1,1,1,0,1",""
"null","","html-keyboard-response","197","740455","0.0-197.0","34BBWHLWHBXFTCZCVCM92RYBPOQIWO","ARFJTVZE5IKLC","3VJ4PFXFJ3TL96TFXMATEMT7KJHUAI","","","<img src=""img/flower6.png"" style=""width:200px; border:14px solid green;"">","null","","","","","",""
"803","","image-keyboard-response","198","741260","0.0-198.0","34BBWHLWHBXFTCZCVCM92RYBPOQIWO","ARFJTVZE5IKLC","3VJ4PFXFJ3TL96TFXMATEMT7KJHUAI","","","img/flower6.png","76","805","3","1","3","1,1,0,0,1,1,1,0,1",""
"null","","html-keyboard-response","199","741603","0.0-199.0","34BBWHLWHBXFTCZCVCM92RYBPOQIWO","ARFJTVZE5IKLC","3VJ4PFXFJ3TL96TFXMATEMT7KJHUAI","","","<img src=""img/flower6.png"" style=""width:200px; border:14px solid green;"">","null","","","","","",""
"730","","image-keyboard-response","200","742340","0.0-200.0","34BBWHLWHBXFTCZCVCM92RYBPOQIWO","ARFJTVZE5IKLC","3VJ4PFXFJ3TL96TFXMATEMT7KJHUAI","","","img/flower2.png","75","737","2","1","2","1,1,0,0,1,1,1,0,1",""
"null","","html-keyboard-response","201","742656","0.0-201.0","34BBWHLWHBXFTCZCVCM92RYBPOQIWO","ARFJTVZE5IKLC","3VJ4PFXFJ3TL96TFXMATEMT7KJHUAI","","","<img src=""img/flower2.png"" style=""width:200px; border:14px solid green;"">","null","","","","","",""
"880","","image-keyboard-response","202","743538","0.0-202.0","34BBWHLWHBXFTCZCVCM92RYBPOQIWO","ARFJTVZE5IKLC","3VJ4PFXFJ3TL96TFXMATEMT7KJHUAI","","","img/flower1.png","75","882","2","1","1","1,1,0,0,1,1,1,0,1",""
"null","","html-keyboard-response","203","743861","0.0-203.0","34BBWHLWHBXFTCZCVCM92RYBPOQIWO","ARFJTVZE5IKLC","3VJ4PFXFJ3TL96TFXMATEMT7KJHUAI","","","<img src=""img/flower1.png"" style=""width:200px; border:14px solid green;"">","null","","","","","",""
"832","","image-keyboard-response","204","744699","0.0-204.0","34BBWHLWHBXFTCZCVCM92RYBPOQIWO","ARFJTVZE5IKLC","3VJ4PFXFJ3TL96TFXMATEMT7KJHUAI","","","img/flower2.png","75","838","2","1","2","1,1,0,0,1,1,1,0,1",""
"null","","html-keyboard-response","205","745030","0.0-205.0","34BBWHLWHBXFTCZCVCM92RYBPOQIWO","ARFJTVZE5IKLC","3VJ4PFXFJ3TL96TFXMATEMT7KJHUAI","","","<img src=""img/flower2.png"" style=""width:200px; border:14px solid green;"">","null","","","","","",""
"645","","image-keyboard-response","206","745679","0.0-206.0","34BBWHLWHBXFTCZCVCM92RYBPOQIWO","ARFJTVZE5IKLC","3VJ4PFXFJ3TL96TFXMATEMT7KJHUAI","","","img/flower2.png","75","649","2","1","2","1,1,0,0,1,1,1,0,1",""
"null","","html-keyboard-response","207","746006","0.0-207.0","34BBWHLWHBXFTCZCVCM92RYBPOQIWO","ARFJTVZE5IKLC","3VJ4PFXFJ3TL96TFXMATEMT7KJHUAI","","","<img src=""img/flower2.png"" style=""width:200px; border:14px solid green;"">","null","","","","","",""
"767","","image-keyboard-response","208","746790","0.0-208.0","34BBWHLWHBXFTCZCVCM92RYBPOQIWO","ARFJTVZE5IKLC","3VJ4PFXFJ3TL96TFXMATEMT7KJHUAI","","","img/flower6.png","76","783","3","1","3","1,1,0,0,1,1,1,0,1",""
"null","","html-keyboard-response","209","747107","0.0-209.0","34BBWHLWHBXFTCZCVCM92RYBPOQIWO","ARFJTVZE5IKLC","3VJ4PFXFJ3TL96TFXMATEMT7KJHUAI","","","<img src=""img/flower6.png"" style=""width:200px; border:14px solid green;"">","null","","","","","",""
"941","","image-keyboard-response","210","748062","0.0-210.0","34BBWHLWHBXFTCZCVCM92RYBPOQIWO","ARFJTVZE5IKLC","3VJ4PFXFJ3TL96TFXMATEMT7KJHUAI","","","img/flower1.png","75","953","2","1","1","1,1,0,0,1,1,1,0,1",""
"null","","html-keyboard-response","211","748387","0.0-211.0","34BBWHLWHBXFTCZCVCM92RYBPOQIWO","ARFJTVZE5IKLC","3VJ4PFXFJ3TL96TFXMATEMT7KJHUAI","","","<img src=""img/flower1.png"" style=""width:200px; border:14px solid green;"">","null","","","","","",""
"674","","image-keyboard-response","212","749067","0.0-212.0","34BBWHLWHBXFTCZCVCM92RYBPOQIWO","ARFJTVZE5IKLC","3VJ4PFXFJ3TL96TFXMATEMT7KJHUAI","","","img/flower2.png","75","679","2","1","2","1,1,0,0,1,1,1,0,1",""
"null","","html-keyboard-response","213","749391","0.0-213.0","34BBWHLWHBXFTCZCVCM92RYBPOQIWO","ARFJTVZE5IKLC","3VJ4PFXFJ3TL96TFXMATEMT7KJHUAI","","","<img src=""img/flower2.png"" style=""width:200px; border:14px solid green;"">","null","","","","","",""
"619","","image-keyboard-response","214","750021","0.0-214.0","34BBWHLWHBXFTCZCVCM92RYBPOQIWO","ARFJTVZE5IKLC","3VJ4PFXFJ3TL96TFXMATEMT7KJHUAI","","","img/flower1.png","75","626","2","1","1","1,1,0,0,1,1,1,0,1",""
"null","","html-keyboard-response","215","750332","0.0-215.0","34BBWHLWHBXFTCZCVCM92RYBPOQIWO","ARFJTVZE5IKLC","3VJ4PFXFJ3TL96TFXMATEMT7KJHUAI","","","<img src=""img/flower1.png"" style=""width:200px; border:14px solid green;"">","null","","","","","",""
"576","","image-keyboard-response","216","750919","0.0-216.0","34BBWHLWHBXFTCZCVCM92RYBPOQIWO","ARFJTVZE5IKLC","3VJ4PFXFJ3TL96TFXMATEMT7KJHUAI","","","img/flower1.png","75","587","2","1","1","1,1,0,0,1,1,1,0,1",""
"null","","html-keyboard-response","217","751287","0.0-217.0","34BBWHLWHBXFTCZCVCM92RYBPOQIWO","ARFJTVZE5IKLC","3VJ4PFXFJ3TL96TFXMATEMT7KJHUAI","","","<img src=""img/flower1.png"" style=""width:200px; border:14px solid green;"">","null","","","","","",""
"684","","image-keyboard-response","218","751978","0.0-218.0","34BBWHLWHBXFTCZCVCM92RYBPOQIWO","ARFJTVZE5IKLC","3VJ4PFXFJ3TL96TFXMATEMT7KJHUAI","","","img/flower1.png","75","691","2","1","1","1,1,0,0,1,1,1,0,1",""
"null","","html-keyboard-response","219","752296","0.0-219.0","34BBWHLWHBXFTCZCVCM92RYBPOQIWO","ARFJTVZE5IKLC","3VJ4PFXFJ3TL96TFXMATEMT7KJHUAI","","","<img src=""img/flower1.png"" style=""width:200px; border:14px solid green;"">","null","","","","","",""
"1194","","image-keyboard-response","220","753497","0.0-220.0","34BBWHLWHBXFTCZCVCM92RYBPOQIWO","ARFJTVZE5IKLC","3VJ4PFXFJ3TL96TFXMATEMT7KJHUAI","","","img/flower1.png","75","1201","2","1","1","1,1,0,0,1,1,1,0,1",""
"null","","html-keyboard-response","221","753817","0.0-221.0","34BBWHLWHBXFTCZCVCM92RYBPOQIWO","ARFJTVZE5IKLC","3VJ4PFXFJ3TL96TFXMATEMT7KJHUAI","","","<img src=""img/flower1.png"" style=""width:200px; border:14px solid green;"">","null","","","","","",""
"880","","image-keyboard-response","222","754712","0.0-222.0","34BBWHLWHBXFTCZCVCM92RYBPOQIWO","ARFJTVZE5IKLC","3VJ4PFXFJ3TL96TFXMATEMT7KJHUAI","","","img/flower6.png","76","895","3","1","3","1,1,0,0,1,1,1,0,1",""
"null","","html-keyboard-response","223","755187","0.0-223.0","34BBWHLWHBXFTCZCVCM92RYBPOQIWO","ARFJTVZE5IKLC","3VJ4PFXFJ3TL96TFXMATEMT7KJHUAI","","","<img src=""img/flower6.png"" style=""width:200px; border:14px solid green;"">","null","","","","","",""
"863","","image-keyboard-response","224","756060","0.0-224.0","34BBWHLWHBXFTCZCVCM92RYBPOQIWO","ARFJTVZE5IKLC","3VJ4PFXFJ3TL96TFXMATEMT7KJHUAI","","","img/flower6.png","76","869","3","1","3","1,1,0,0,1,1,1,0,1",""
"null","","html-keyboard-response","225","756401","0.0-225.0","34BBWHLWHBXFTCZCVCM92RYBPOQIWO","ARFJTVZE5IKLC","3VJ4PFXFJ3TL96TFXMATEMT7KJHUAI","","","<img src=""img/flower6.png"" style=""width:200px; border:14px solid green;"">","null","","","","","",""
"821","","image-keyboard-response","226","757239","0.0-226.0","34BBWHLWHBXFTCZCVCM92RYBPOQIWO","ARFJTVZE5IKLC","3VJ4PFXFJ3TL96TFXMATEMT7KJHUAI","","","img/flower2.png","75","832","2","1","2","1,1,0,0,1,1,1,0,1",""
"null","","html-keyboard-response","227","757552","0.0-227.0","34BBWHLWHBXFTCZCVCM92RYBPOQIWO","ARFJTVZE5IKLC","3VJ4PFXFJ3TL96TFXMATEMT7KJHUAI","","","<img src=""img/flower2.png"" style=""width:200px; border:14px solid green;"">","null","","","","","",""
"862","","image-keyboard-response","228","758428","0.0-228.0","34BBWHLWHBXFTCZCVCM92RYBPOQIWO","ARFJTVZE5IKLC","3VJ4PFXFJ3TL96TFXMATEMT7KJHUAI","","","img/flower1.png","75","876","2","1","1","1,1,0,0,1,1,1,0,1",""
"null","","html-keyboard-response","229","758745","0.0-229.0","34BBWHLWHBXFTCZCVCM92RYBPOQIWO","ARFJTVZE5IKLC","3VJ4PFXFJ3TL96TFXMATEMT7KJHUAI","","","<img src=""img/flower1.png"" style=""width:200px; border:14px solid green;"">","null","","","","","",""
"895","","image-keyboard-response","230","759647","0.0-230.0","34BBWHLWHBXFTCZCVCM92RYBPOQIWO","ARFJTVZE5IKLC","3VJ4PFXFJ3TL96TFXMATEMT7KJHUAI","","","img/flower1.png","75","902","2","1","1","1,1,0,0,1,1,1,0,1",""
"null","","html-keyboard-response","231","760009","0.0-231.0","34BBWHLWHBXFTCZCVCM92RYBPOQIWO","ARFJTVZE5IKLC","3VJ4PFXFJ3TL96TFXMATEMT7KJHUAI","","","<img src=""img/flower1.png"" style=""width:200px; border:14px solid green;"">","null","","","","","",""
"819","","image-keyboard-response","232","760837","0.0-232.0","34BBWHLWHBXFTCZCVCM92RYBPOQIWO","ARFJTVZE5IKLC","3VJ4PFXFJ3TL96TFXMATEMT7KJHUAI","","","img/flower1.png","75","827","2","1","1","1,1,0,0,1,1,1,0,1",""
"null","","html-keyboard-response","233","761158","0.0-233.0","34BBWHLWHBXFTCZCVCM92RYBPOQIWO","ARFJTVZE5IKLC","3VJ4PFXFJ3TL96TFXMATEMT7KJHUAI","","","<img src=""img/flower1.png"" style=""width:200px; border:14px solid green;"">","null","","","","","",""
"974","","image-keyboard-response","234","762147","0.0-234.0","34BBWHLWHBXFTCZCVCM92RYBPOQIWO","ARFJTVZE5IKLC","3VJ4PFXFJ3TL96TFXMATEMT7KJHUAI","","","img/flower2.png","75","988","2","1","2","1,1,0,0,1,1,1,0,1",""
"null","","html-keyboard-response","235","762461","0.0-235.0","34BBWHLWHBXFTCZCVCM92RYBPOQIWO","ARFJTVZE5IKLC","3VJ4PFXFJ3TL96TFXMATEMT7KJHUAI","","","<img src=""img/flower2.png"" style=""width:200px; border:14px solid green;"">","null","","","","","",""
"828","","image-keyboard-response","236","763293","0.0-236.0","34BBWHLWHBXFTCZCVCM92RYBPOQIWO","ARFJTVZE5IKLC","3VJ4PFXFJ3TL96TFXMATEMT7KJHUAI","","","img/flower6.png","75","832","2","0","3","1,1,0,0,1,1,1,0,1",""
"null","","html-keyboard-response","237","763608","0.0-237.0","34BBWHLWHBXFTCZCVCM92RYBPOQIWO","ARFJTVZE5IKLC","3VJ4PFXFJ3TL96TFXMATEMT7KJHUAI","","","<img src=""img/flower6.png"" style=""width:200px;border:14px solid red;"">","null","","","","","",""
"894","","image-keyboard-response","238","764507","0.0-238.0","34BBWHLWHBXFTCZCVCM92RYBPOQIWO","ARFJTVZE5IKLC","3VJ4PFXFJ3TL96TFXMATEMT7KJHUAI","","","img/flower6.png","76","899","3","1","3","1,1,0,0,1,1,1,0,1",""
"null","","html-keyboard-response","239","764836","0.0-239.0","34BBWHLWHBXFTCZCVCM92RYBPOQIWO","ARFJTVZE5IKLC","3VJ4PFXFJ3TL96TFXMATEMT7KJHUAI","","","<img src=""img/flower6.png"" style=""width:200px; border:14px solid green;"">","null","","","","","",""
"832","","image-keyboard-response","240","765675","0.0-240.0","34BBWHLWHBXFTCZCVCM92RYBPOQIWO","ARFJTVZE5IKLC","3VJ4PFXFJ3TL96TFXMATEMT7KJHUAI","","","img/flower1.png","75","839","2","1","1","1,1,0,0,1,1,1,0,1",""
"null","","html-keyboard-response","241","766001","0.0-241.0","34BBWHLWHBXFTCZCVCM92RYBPOQIWO","ARFJTVZE5IKLC","3VJ4PFXFJ3TL96TFXMATEMT7KJHUAI","","","<img src=""img/flower1.png"" style=""width:200px; border:14px solid green;"">","null","","","","","",""
"817","","image-keyboard-response","242","766832","0.0-242.0","34BBWHLWHBXFTCZCVCM92RYBPOQIWO","ARFJTVZE5IKLC","3VJ4PFXFJ3TL96TFXMATEMT7KJHUAI","","","img/flower1.png","75","831","2","1","1","1,1,0,0,1,1,1,0,1",""
"null","","html-keyboard-response","243","767365","0.0-243.0","34BBWHLWHBXFTCZCVCM92RYBPOQIWO","ARFJTVZE5IKLC","3VJ4PFXFJ3TL96TFXMATEMT7KJHUAI","","","<img src=""img/flower1.png"" style=""width:200px; border:14px solid green;"">","null","","","","","",""
"884","","image-keyboard-response","244","768263","0.0-244.0","34BBWHLWHBXFTCZCVCM92RYBPOQIWO","ARFJTVZE5IKLC","3VJ4PFXFJ3TL96TFXMATEMT7KJHUAI","","","img/flower2.png","75","886","2","1","2","1,1,0,0,1,1,1,0,1",""
"null","","html-keyboard-response","245","768578","0.0-245.0","34BBWHLWHBXFTCZCVCM92RYBPOQIWO","ARFJTVZE5IKLC","3VJ4PFXFJ3TL96TFXMATEMT7KJHUAI","","","<img src=""img/flower2.png"" style=""width:200px; border:14px solid green;"">","null","","","","","",""
"677","","image-keyboard-response","246","769263","0.0-246.0","34BBWHLWHBXFTCZCVCM92RYBPOQIWO","ARFJTVZE5IKLC","3VJ4PFXFJ3TL96TFXMATEMT7KJHUAI","","","img/flower1.png","75","681","2","1","1","1,1,0,0,1,1,1,0,1",""
"null","","html-keyboard-response","247","769578","0.0-247.0","34BBWHLWHBXFTCZCVCM92RYBPOQIWO","ARFJTVZE5IKLC","3VJ4PFXFJ3TL96TFXMATEMT7KJHUAI","","","<img src=""img/flower1.png"" style=""width:200px; border:14px solid green;"">","null","","","","","",""
"694","","image-keyboard-response","248","770282","0.0-248.0","34BBWHLWHBXFTCZCVCM92RYBPOQIWO","ARFJTVZE5IKLC","3VJ4PFXFJ3TL96TFXMATEMT7KJHUAI","","","img/flower2.png","75","703","2","1","2","1,1,0,0,1,1,1,0,1",""
"null","","html-keyboard-response","249","770591","0.0-249.0","34BBWHLWHBXFTCZCVCM92RYBPOQIWO","ARFJTVZE5IKLC","3VJ4PFXFJ3TL96TFXMATEMT7KJHUAI","","","<img src=""img/flower2.png"" style=""width:200px; border:14px solid green;"">","null","","","","","",""
"759","","image-keyboard-response","250","771355","0.0-250.0","34BBWHLWHBXFTCZCVCM92RYBPOQIWO","ARFJTVZE5IKLC","3VJ4PFXFJ3TL96TFXMATEMT7KJHUAI","","","img/flower2.png","75","764","2","1","2","1,1,0,0,1,1,1,0,1",""
"null","","html-keyboard-response","251","771677","0.0-251.0","34BBWHLWHBXFTCZCVCM92RYBPOQIWO","ARFJTVZE5IKLC","3VJ4PFXFJ3TL96TFXMATEMT7KJHUAI","","","<img src=""img/flower2.png"" style=""width:200px; border:14px solid green;"">","null","","","","","",""
"594","","image-keyboard-response","252","772279","0.0-252.0","34BBWHLWHBXFTCZCVCM92RYBPOQIWO","ARFJTVZE5IKLC","3VJ4PFXFJ3TL96TFXMATEMT7KJHUAI","","","img/flower2.png","75","602","2","1","2","1,1,0,0,1,1,1,0,1",""
"null","","html-keyboard-response","253","772596","0.0-253.0","34BBWHLWHBXFTCZCVCM92RYBPOQIWO","ARFJTVZE5IKLC","3VJ4PFXFJ3TL96TFXMATEMT7KJHUAI","","","<img src=""img/flower2.png"" style=""width:200px; border:14px solid green;"">","null","","","","","",""
"715","","image-keyboard-response","254","773325","0.0-254.0","34BBWHLWHBXFTCZCVCM92RYBPOQIWO","ARFJTVZE5IKLC","3VJ4PFXFJ3TL96TFXMATEMT7KJHUAI","","","img/flower1.png","75","727","2","1","1","1,1,0,0,1,1,1,0,1",""
"null","","html-keyboard-response","255","773654","0.0-255.0","34BBWHLWHBXFTCZCVCM92RYBPOQIWO","ARFJTVZE5IKLC","3VJ4PFXFJ3TL96TFXMATEMT7KJHUAI","","","<img src=""img/flower1.png"" style=""width:200px; border:14px solid green;"">","null","","","","","",""
"649","","image-keyboard-response","256","774313","0.0-256.0","34BBWHLWHBXFTCZCVCM92RYBPOQIWO","ARFJTVZE5IKLC","3VJ4PFXFJ3TL96TFXMATEMT7KJHUAI","","","img/flower2.png","75","659","2","1","2","1,1,0,0,1,1,1,0,1",""
"null","","html-keyboard-response","257","774621","0.0-257.0","34BBWHLWHBXFTCZCVCM92RYBPOQIWO","ARFJTVZE5IKLC","3VJ4PFXFJ3TL96TFXMATEMT7KJHUAI","","","<img src=""img/flower2.png"" style=""width:200px; border:14px solid green;"">","null","","","","","",""
"600","","image-keyboard-response","258","775228","0.0-258.0","34BBWHLWHBXFTCZCVCM92RYBPOQIWO","ARFJTVZE5IKLC","3VJ4PFXFJ3TL96TFXMATEMT7KJHUAI","","","img/flower1.png","75","607","2","1","1","1,1,0,0,1,1,1,0,1",""
"null","","html-keyboard-response","259","775627","0.0-259.0","34BBWHLWHBXFTCZCVCM92RYBPOQIWO","ARFJTVZE5IKLC","3VJ4PFXFJ3TL96TFXMATEMT7KJHUAI","","","<img src=""img/flower1.png"" style=""width:200px; border:14px solid green;"">","null","","","","","",""
"673","","image-keyboard-response","260","776309","0.0-260.0","34BBWHLWHBXFTCZCVCM92RYBPOQIWO","ARFJTVZE5IKLC","3VJ4PFXFJ3TL96TFXMATEMT7KJHUAI","","","img/flower2.png","75","682","2","1","2","1,1,0,0,1,1,1,0,1",""
"null","","html-keyboard-response","261","776624","0.0-261.0","34BBWHLWHBXFTCZCVCM92RYBPOQIWO","ARFJTVZE5IKLC","3VJ4PFXFJ3TL96TFXMATEMT7KJHUAI","","","<img src=""img/flower2.png"" style=""width:200px; border:14px solid green;"">","null","","","","","",""
"630","","image-keyboard-response","262","777266","0.0-262.0","34BBWHLWHBXFTCZCVCM92RYBPOQIWO","ARFJTVZE5IKLC","3VJ4PFXFJ3TL96TFXMATEMT7KJHUAI","","","img/flower1.png","75","642","2","1","1","1,1,0,0,1,1,1,0,1",""
"null","","html-keyboard-response","263","777581","0.0-263.0","34BBWHLWHBXFTCZCVCM92RYBPOQIWO","ARFJTVZE5IKLC","3VJ4PFXFJ3TL96TFXMATEMT7KJHUAI","","","<img src=""img/flower1.png"" style=""width:200px; border:14px solid green;"">","null","","","","","",""
"667","","image-keyboard-response","264","778261","0.0-264.0","34BBWHLWHBXFTCZCVCM92RYBPOQIWO","ARFJTVZE5IKLC","3VJ4PFXFJ3TL96TFXMATEMT7KJHUAI","","","img/flower1.png","75","680","2","1","1","1,1,0,0,1,1,1,0,1",""
"null","","html-keyboard-response","265","778567","0.0-265.0","34BBWHLWHBXFTCZCVCM92RYBPOQIWO","ARFJTVZE5IKLC","3VJ4PFXFJ3TL96TFXMATEMT7KJHUAI","","","<img src=""img/flower1.png"" style=""width:200px; border:14px solid green;"">","null","","","","","",""
"646","","image-keyboard-response","266","779221","0.0-266.0","34BBWHLWHBXFTCZCVCM92RYBPOQIWO","ARFJTVZE5IKLC","3VJ4PFXFJ3TL96TFXMATEMT7KJHUAI","","","img/flower1.png","75","654","2","1","1","1,1,0,0,1,1,1,0,1",""
"null","","html-keyboard-response","267","779690","0.0-267.0","34BBWHLWHBXFTCZCVCM92RYBPOQIWO","ARFJTVZE5IKLC","3VJ4PFXFJ3TL96TFXMATEMT7KJHUAI","","","<img src=""img/flower1.png"" style=""width:200px; border:14px solid green;"">","null","","","","","",""
"635","","image-keyboard-response","268","780335","0.0-268.0","34BBWHLWHBXFTCZCVCM92RYBPOQIWO","ARFJTVZE5IKLC","3VJ4PFXFJ3TL96TFXMATEMT7KJHUAI","","","img/flower1.png","75","645","2","1","1","1,1,0,0,1,1,1,0,1",""
"null","","html-keyboard-response","269","780639","0.0-269.0","34BBWHLWHBXFTCZCVCM92RYBPOQIWO","ARFJTVZE5IKLC","3VJ4PFXFJ3TL96TFXMATEMT7KJHUAI","","","<img src=""img/flower1.png"" style=""width:200px; border:14px solid green;"">","null","","","","","",""
"637","","image-keyboard-response","270","781279","0.0-270.0","34BBWHLWHBXFTCZCVCM92RYBPOQIWO","ARFJTVZE5IKLC","3VJ4PFXFJ3TL96TFXMATEMT7KJHUAI","","","img/flower1.png","75","640","2","1","1","1,1,0,0,1,1,1,0,1",""
"null","","html-keyboard-response","271","781605","0.0-271.0","34BBWHLWHBXFTCZCVCM92RYBPOQIWO","ARFJTVZE5IKLC","3VJ4PFXFJ3TL96TFXMATEMT7KJHUAI","","","<img src=""img/flower1.png"" style=""width:200px; border:14px solid green;"">","null","","","","","",""
"726","","image-keyboard-response","272","782347","0.0-272.0","34BBWHLWHBXFTCZCVCM92RYBPOQIWO","ARFJTVZE5IKLC","3VJ4PFXFJ3TL96TFXMATEMT7KJHUAI","","","img/flower2.png","75","742","2","1","2","1,1,0,0,1,1,1,0,1",""
"null","","html-keyboard-response","273","782670","0.0-273.0","34BBWHLWHBXFTCZCVCM92RYBPOQIWO","ARFJTVZE5IKLC","3VJ4PFXFJ3TL96TFXMATEMT7KJHUAI","","","<img src=""img/flower2.png"" style=""width:200px; border:14px solid green;"">","null","","","","","",""
"936","","image-keyboard-response","274","783624","0.0-274.0","34BBWHLWHBXFTCZCVCM92RYBPOQIWO","ARFJTVZE5IKLC","3VJ4PFXFJ3TL96TFXMATEMT7KJHUAI","","","img/flower6.png","76","952","3","1","3","1,1,0,0,1,1,1,0,1",""
"null","","html-keyboard-response","275","783933","0.0-275.0","34BBWHLWHBXFTCZCVCM92RYBPOQIWO","ARFJTVZE5IKLC","3VJ4PFXFJ3TL96TFXMATEMT7KJHUAI","","","<img src=""img/flower6.png"" style=""width:200px; border:14px solid green;"">","null","","","","","",""
"658","","image-keyboard-response","276","784603","0.0-276.0","34BBWHLWHBXFTCZCVCM92RYBPOQIWO","ARFJTVZE5IKLC","3VJ4PFXFJ3TL96TFXMATEMT7KJHUAI","","","img/flower6.png","76","670","3","1","3","1,1,0,0,1,1,1,0,1",""
"null","","html-keyboard-response","277","784931","0.0-277.0","34BBWHLWHBXFTCZCVCM92RYBPOQIWO","ARFJTVZE5IKLC","3VJ4PFXFJ3TL96TFXMATEMT7KJHUAI","","","<img src=""img/flower6.png"" style=""width:200px; border:14px solid green;"">","null","","","","","",""
"586","","image-keyboard-response","278","785532","0.0-278.0","34BBWHLWHBXFTCZCVCM92RYBPOQIWO","ARFJTVZE5IKLC","3VJ4PFXFJ3TL96TFXMATEMT7KJHUAI","","","img/flower6.png","76","601","3","1","3","1,1,0,0,1,1,1,0,1",""
"null","","html-keyboard-response","279","785982","0.0-279.0","34BBWHLWHBXFTCZCVCM92RYBPOQIWO","ARFJTVZE5IKLC","3VJ4PFXFJ3TL96TFXMATEMT7KJHUAI","","","<img src=""img/flower6.png"" style=""width:200px; border:14px solid green;"">","null","","","","","",""
"789","","image-keyboard-response","280","786776","0.0-280.0","34BBWHLWHBXFTCZCVCM92RYBPOQIWO","ARFJTVZE5IKLC","3VJ4PFXFJ3TL96TFXMATEMT7KJHUAI","","","img/flower2.png","75","794","2","1","2","1,1,0,0,1,1,1,0,1",""
"null","","html-keyboard-response","281","787097","0.0-281.0","34BBWHLWHBXFTCZCVCM92RYBPOQIWO","ARFJTVZE5IKLC","3VJ4PFXFJ3TL96TFXMATEMT7KJHUAI","","","<img src=""img/flower2.png"" style=""width:200px; border:14px solid green;"">","null","","","","","",""
"842","","image-keyboard-response","282","787946","0.0-282.0","34BBWHLWHBXFTCZCVCM92RYBPOQIWO","ARFJTVZE5IKLC","3VJ4PFXFJ3TL96TFXMATEMT7KJHUAI","","","img/flower6.png","76","847","3","1","3","1,1,0,0,1,1,1,0,1",""
"null","","html-keyboard-response","283","788262","0.0-283.0","34BBWHLWHBXFTCZCVCM92RYBPOQIWO","ARFJTVZE5IKLC","3VJ4PFXFJ3TL96TFXMATEMT7KJHUAI","","","<img src=""img/flower6.png"" style=""width:200px; border:14px solid green;"">","null","","","","","",""
"740","","image-keyboard-response","284","789013","0.0-284.0","34BBWHLWHBXFTCZCVCM92RYBPOQIWO","ARFJTVZE5IKLC","3VJ4PFXFJ3TL96TFXMATEMT7KJHUAI","","","img/flower1.png","75","751","2","1","1","1,1,0,0,1,1,1,0,1",""
"null","","html-keyboard-response","285","789334","0.0-285.0","34BBWHLWHBXFTCZCVCM92RYBPOQIWO","ARFJTVZE5IKLC","3VJ4PFXFJ3TL96TFXMATEMT7KJHUAI","","","<img src=""img/flower1.png"" style=""width:200px; border:14px solid green;"">","null","","","","","",""
"1036","","image-keyboard-response","286","790373","0.0-286.0","34BBWHLWHBXFTCZCVCM92RYBPOQIWO","ARFJTVZE5IKLC","3VJ4PFXFJ3TL96TFXMATEMT7KJHUAI","","","img/flower2.png","75","1039","2","1","2","1,1,0,0,1,1,1,0,1",""
"null","","html-keyboard-response","287","790697","0.0-287.0","34BBWHLWHBXFTCZCVCM92RYBPOQIWO","ARFJTVZE5IKLC","3VJ4PFXFJ3TL96TFXMATEMT7KJHUAI","","","<img src=""img/flower2.png"" style=""width:200px; border:14px solid green;"">","null","","","","","",""
"1569","","image-keyboard-response","288","792274","0.0-288.0","34BBWHLWHBXFTCZCVCM92RYBPOQIWO","ARFJTVZE5IKLC","3VJ4PFXFJ3TL96TFXMATEMT7KJHUAI","","","img/flower6.png","76","1577","3","1","3","1,1,0,0,1,1,1,0,1",""
"null","","html-keyboard-response","289","792597","0.0-289.0","34BBWHLWHBXFTCZCVCM92RYBPOQIWO","ARFJTVZE5IKLC","3VJ4PFXFJ3TL96TFXMATEMT7KJHUAI","","","<img src=""img/flower6.png"" style=""width:200px; border:14px solid green;"">","null","","","","","",""
"810","","image-keyboard-response","290","793418","0.0-290.0","34BBWHLWHBXFTCZCVCM92RYBPOQIWO","ARFJTVZE5IKLC","3VJ4PFXFJ3TL96TFXMATEMT7KJHUAI","","","img/flower6.png","76","820","3","1","3","1,1,0,0,1,1,1,0,1",""
"null","","html-keyboard-response","291","793723","0.0-291.0","34BBWHLWHBXFTCZCVCM92RYBPOQIWO","ARFJTVZE5IKLC","3VJ4PFXFJ3TL96TFXMATEMT7KJHUAI","","","<img src=""img/flower6.png"" style=""width:200px; border:14px solid green;"">","null","","","","","",""
"737","","image-keyboard-response","292","794466","0.0-292.0","34BBWHLWHBXFTCZCVCM92RYBPOQIWO","ARFJTVZE5IKLC","3VJ4PFXFJ3TL96TFXMATEMT7KJHUAI","","","img/flower6.png","76","743","3","1","3","1,1,0,0,1,1,1,0,1",""
"null","","html-keyboard-response","293","794778","0.0-293.0","34BBWHLWHBXFTCZCVCM92RYBPOQIWO","ARFJTVZE5IKLC","3VJ4PFXFJ3TL96TFXMATEMT7KJHUAI","","","<img src=""img/flower6.png"" style=""width:200px; border:14px solid green;"">","null","","","","","",""
"772","","image-keyboard-response","294","795560","0.0-294.0","34BBWHLWHBXFTCZCVCM92RYBPOQIWO","ARFJTVZE5IKLC","3VJ4PFXFJ3TL96TFXMATEMT7KJHUAI","","","img/flower1.png","75","782","2","1","1","1,1,0,0,1,1,1,0,1",""
"null","","html-keyboard-response","295","795867","0.0-295.0","34BBWHLWHBXFTCZCVCM92RYBPOQIWO","ARFJTVZE5IKLC","3VJ4PFXFJ3TL96TFXMATEMT7KJHUAI","","","<img src=""img/flower1.png"" style=""width:200px; border:14px solid green;"">","null","","","","","",""
"667","","image-keyboard-response","296","796549","0.0-296.0","34BBWHLWHBXFTCZCVCM92RYBPOQIWO","ARFJTVZE5IKLC","3VJ4PFXFJ3TL96TFXMATEMT7KJHUAI","","","img/flower1.png","75","674","2","1","1","1,1,0,0,1,1,1,0,1",""
"null","","html-keyboard-response","297","796858","0.0-297.0","34BBWHLWHBXFTCZCVCM92RYBPOQIWO","ARFJTVZE5IKLC","3VJ4PFXFJ3TL96TFXMATEMT7KJHUAI","","","<img src=""img/flower1.png"" style=""width:200px; border:14px solid green;"">","null","","","","","",""
"814","","image-keyboard-response","298","797688","0.0-298.0","34BBWHLWHBXFTCZCVCM92RYBPOQIWO","ARFJTVZE5IKLC","3VJ4PFXFJ3TL96TFXMATEMT7KJHUAI","","","img/flower2.png","75","823","2","1","2","1,1,0,0,1,1,1,0,1",""
"null","","html-keyboard-response","299","798012","0.0-299.0","34BBWHLWHBXFTCZCVCM92RYBPOQIWO","ARFJTVZE5IKLC","3VJ4PFXFJ3TL96TFXMATEMT7KJHUAI","","","<img src=""img/flower2.png"" style=""width:200px; border:14px solid green;"">","null","","","","","",""
"507","","image-keyboard-response","300","798535","0.0-300.0","34BBWHLWHBXFTCZCVCM92RYBPOQIWO","ARFJTVZE5IKLC","3VJ4PFXFJ3TL96TFXMATEMT7KJHUAI","","","img/flower6.png","75","523","2","0","3","1,1,0,0,1,1,1,0,1",""
"null","","html-keyboard-response","301","798845","0.0-301.0","34BBWHLWHBXFTCZCVCM92RYBPOQIWO","ARFJTVZE5IKLC","3VJ4PFXFJ3TL96TFXMATEMT7KJHUAI","","","<img src=""img/flower6.png"" style=""width:200px;border:14px solid red;"">","null","","","","","",""
"998","","image-keyboard-response","302","799857","0.0-302.0","34BBWHLWHBXFTCZCVCM92RYBPOQIWO","ARFJTVZE5IKLC","3VJ4PFXFJ3TL96TFXMATEMT7KJHUAI","","","img/flower2.png","75","1011","2","1","2","1,1,0,0,1,1,1,0,1",""
"null","","html-keyboard-response","303","800172","0.0-303.0","34BBWHLWHBXFTCZCVCM92RYBPOQIWO","ARFJTVZE5IKLC","3VJ4PFXFJ3TL96TFXMATEMT7KJHUAI","","","<img src=""img/flower2.png"" style=""width:200px; border:14px solid green;"">","null","","","","","",""
"881","","image-keyboard-response","304","801070","0.0-304.0","34BBWHLWHBXFTCZCVCM92RYBPOQIWO","ARFJTVZE5IKLC","3VJ4PFXFJ3TL96TFXMATEMT7KJHUAI","","","img/flower6.png","76","893","3","1","3","1,1,0,0,1,1,1,0,1",""
"null","","html-keyboard-response","305","801382","0.0-305.0","34BBWHLWHBXFTCZCVCM92RYBPOQIWO","ARFJTVZE5IKLC","3VJ4PFXFJ3TL96TFXMATEMT7KJHUAI","","","<img src=""img/flower6.png"" style=""width:200px; border:14px solid green;"">","null","","","","","",""
"","","html-keyboard-response","306","807252","0.0-306.0","34BBWHLWHBXFTCZCVCM92RYBPOQIWO","ARFJTVZE5IKLC","3VJ4PFXFJ3TL96TFXMATEMT7KJHUAI","","","","","","","","","",""
"3609","","image-keyboard-response","307","810864","0.0-307.0","34BBWHLWHBXFTCZCVCM92RYBPOQIWO","ARFJTVZE5IKLC","3VJ4PFXFJ3TL96TFXMATEMT7KJHUAI","","","img/flower4.png","74","3611","1","1","3","1,0.5,0.5,0.5,1,0.5,0.5,0.5,1",""
"null","","html-keyboard-response","308","811175","0.0-308.0","34BBWHLWHBXFTCZCVCM92RYBPOQIWO","ARFJTVZE5IKLC","3VJ4PFXFJ3TL96TFXMATEMT7KJHUAI","","","<img src=""img/flower4.png"" style=""width:200px; border:14px solid green;"">","null","","","","","",""
"723","","image-keyboard-response","309","811900","0.0-309.0","34BBWHLWHBXFTCZCVCM92RYBPOQIWO","ARFJTVZE5IKLC","3VJ4PFXFJ3TL96TFXMATEMT7KJHUAI","","","img/flower4.png","74","727","1","1","3","1,0.5,0.5,0.5,1,0.5,0.5,0.5,1",""
"null","","html-keyboard-response","310","812335","0.0-310.0","34BBWHLWHBXFTCZCVCM92RYBPOQIWO","ARFJTVZE5IKLC","3VJ4PFXFJ3TL96TFXMATEMT7KJHUAI","","","<img src=""img/flower4.png"" style=""width:200px; border:14px solid green;"">","null","","","","","",""
"1786","","image-keyboard-response","311","814128","0.0-311.0","34BBWHLWHBXFTCZCVCM92RYBPOQIWO","ARFJTVZE5IKLC","3VJ4PFXFJ3TL96TFXMATEMT7KJHUAI","","","img/flower3.png","74","1794","1","1","2","1,0.5,0.5,0.5,1,0.5,0.5,0.5,1",""
"null","","html-keyboard-response","312","814440","0.0-312.0","34BBWHLWHBXFTCZCVCM92RYBPOQIWO","ARFJTVZE5IKLC","3VJ4PFXFJ3TL96TFXMATEMT7KJHUAI","","","<img src=""img/flower3.png"" style=""width:200px; border:14px solid green;"">","null","","","","","",""
"770","","image-keyboard-response","313","815211","0.0-313.0","34BBWHLWHBXFTCZCVCM92RYBPOQIWO","ARFJTVZE5IKLC","3VJ4PFXFJ3TL96TFXMATEMT7KJHUAI","","","img/flower4.png","74","774","1","0","3","1,0.5,0.5,0.5,1,0.5,0.5,0.5,1",""
"null","","html-keyboard-response","314","815533","0.0-314.0","34BBWHLWHBXFTCZCVCM92RYBPOQIWO","ARFJTVZE5IKLC","3VJ4PFXFJ3TL96TFXMATEMT7KJHUAI","","","<img src=""img/flower4.png"" style=""width:200px;border:14px solid red;"">","null","","","","","",""
"1811","","image-keyboard-response","315","817346","0.0-315.0","34BBWHLWHBXFTCZCVCM92RYBPOQIWO","ARFJTVZE5IKLC","3VJ4PFXFJ3TL96TFXMATEMT7KJHUAI","","","img/flower3.png","74","1813","1","0","2","1,0.5,0.5,0.5,1,0.5,0.5,0.5,1",""
"null","","html-keyboard-response","316","817662","0.0-316.0","34BBWHLWHBXFTCZCVCM92RYBPOQIWO","ARFJTVZE5IKLC","3VJ4PFXFJ3TL96TFXMATEMT7KJHUAI","","","<img src=""img/flower3.png"" style=""width:200px;border:14px solid red;"">","null","","","","","",""
"1235","","image-keyboard-response","317","818905","0.0-317.0","34BBWHLWHBXFTCZCVCM92RYBPOQIWO","ARFJTVZE5IKLC","3VJ4PFXFJ3TL96TFXMATEMT7KJHUAI","","","img/flower4.png","75","1243","2","0","3","1,0.5,0.5,0.5,1,0.5,0.5,0.5,1",""
"null","","html-keyboard-response","318","819380","0.0-318.0","34BBWHLWHBXFTCZCVCM92RYBPOQIWO","ARFJTVZE5IKLC","3VJ4PFXFJ3TL96TFXMATEMT7KJHUAI","","","<img src=""img/flower4.png"" style=""width:200px;border:14px solid red;"">","null","","","","","",""
"1239","","image-keyboard-response","319","820621","0.0-319.0","34BBWHLWHBXFTCZCVCM92RYBPOQIWO","ARFJTVZE5IKLC","3VJ4PFXFJ3TL96TFXMATEMT7KJHUAI","","","img/flower5.png","75","1240","2","1","1","1,0.5,0.5,0.5,1,0.5,0.5,0.5,1",""
"null","","html-keyboard-response","320","820938","0.0-320.0","34BBWHLWHBXFTCZCVCM92RYBPOQIWO","ARFJTVZE5IKLC","3VJ4PFXFJ3TL96TFXMATEMT7KJHUAI","","","<img src=""img/flower5.png"" style=""width:200px; border:14px solid green;"">","null","","","","","",""
"2148","","image-keyboard-response","321","823099","0.0-321.0","34BBWHLWHBXFTCZCVCM92RYBPOQIWO","ARFJTVZE5IKLC","3VJ4PFXFJ3TL96TFXMATEMT7KJHUAI","","","img/flower5.png","76","2161","3","0","1","1,0.5,0.5,0.5,1,0.5,0.5,0.5,1",""
"null","","html-keyboard-response","322","823459","0.0-322.0","34BBWHLWHBXFTCZCVCM92RYBPOQIWO","ARFJTVZE5IKLC","3VJ4PFXFJ3TL96TFXMATEMT7KJHUAI","","","<img src=""img/flower5.png"" style=""width:200px;border:14px solid red;"">","null","","","","","",""
"1074","","image-keyboard-response","323","824545","0.0-323.0","34BBWHLWHBXFTCZCVCM92RYBPOQIWO","ARFJTVZE5IKLC","3VJ4PFXFJ3TL96TFXMATEMT7KJHUAI","","","img/flower4.png","74","1086","1","1","3","1,0.5,0.5,0.5,1,0.5,0.5,0.5,1",""
"null","","html-keyboard-response","324","824860","0.0-324.0","34BBWHLWHBXFTCZCVCM92RYBPOQIWO","ARFJTVZE5IKLC","3VJ4PFXFJ3TL96TFXMATEMT7KJHUAI","","","<img src=""img/flower4.png"" style=""width:200px; border:14px solid green;"">","null","","","","","",""
"1139","","image-keyboard-response","325","826000","0.0-325.0","34BBWHLWHBXFTCZCVCM92RYBPOQIWO","ARFJTVZE5IKLC","3VJ4PFXFJ3TL96TFXMATEMT7KJHUAI","","","img/flower5.png","75","1140","2","1","1","1,0.5,0.5,0.5,1,0.5,0.5,0.5,1",""
"null","","html-keyboard-response","326","826326","0.0-326.0","34BBWHLWHBXFTCZCVCM92RYBPOQIWO","ARFJTVZE5IKLC","3VJ4PFXFJ3TL96TFXMATEMT7KJHUAI","","","<img src=""img/flower5.png"" style=""width:200px; border:14px solid green;"">","null","","","","","",""
"1228","","image-keyboard-response","327","827559","0.0-327.0","34BBWHLWHBXFTCZCVCM92RYBPOQIWO","ARFJTVZE5IKLC","3VJ4PFXFJ3TL96TFXMATEMT7KJHUAI","","","img/flower3.png","75","1233","2","1","2","1,0.5,0.5,0.5,1,0.5,0.5,0.5,1",""
"null","","html-keyboard-response","328","827871","0.0-328.0","34BBWHLWHBXFTCZCVCM92RYBPOQIWO","ARFJTVZE5IKLC","3VJ4PFXFJ3TL96TFXMATEMT7KJHUAI","","","<img src=""img/flower3.png"" style=""width:200px; border:14px solid green;"">","null","","","","","",""
"937","","image-keyboard-response","329","828827","0.0-329.0","34BBWHLWHBXFTCZCVCM92RYBPOQIWO","ARFJTVZE5IKLC","3VJ4PFXFJ3TL96TFXMATEMT7KJHUAI","","","img/flower4.png","74","950","1","0","3","1,0.5,0.5,0.5,1,0.5,0.5,0.5,1",""
"null","","html-keyboard-response","330","829175","0.0-330.0","34BBWHLWHBXFTCZCVCM92RYBPOQIWO","ARFJTVZE5IKLC","3VJ4PFXFJ3TL96TFXMATEMT7KJHUAI","","","<img src=""img/flower4.png"" style=""width:200px;border:14px solid red;"">","null","","","","","",""
"2146","","image-keyboard-response","331","831341","0.0-331.0","34BBWHLWHBXFTCZCVCM92RYBPOQIWO","ARFJTVZE5IKLC","3VJ4PFXFJ3TL96TFXMATEMT7KJHUAI","","","img/flower5.png","75","2159","2","0","1","1,0.5,0.5,0.5,1,0.5,0.5,0.5,1",""
"null","","html-keyboard-response","332","831651","0.0-332.0","34BBWHLWHBXFTCZCVCM92RYBPOQIWO","ARFJTVZE5IKLC","3VJ4PFXFJ3TL96TFXMATEMT7KJHUAI","","","<img src=""img/flower5.png"" style=""width:200px;border:14px solid red;"">","null","","","","","",""
"594","","image-keyboard-response","333","832254","0.0-333.0","34BBWHLWHBXFTCZCVCM92RYBPOQIWO","ARFJTVZE5IKLC","3VJ4PFXFJ3TL96TFXMATEMT7KJHUAI","","","img/flower5.png","75","603","2","0","1","1,0.5,0.5,0.5,1,0.5,0.5,0.5,1",""
"null","","html-keyboard-response","334","832566","0.0-334.0","34BBWHLWHBXFTCZCVCM92RYBPOQIWO","ARFJTVZE5IKLC","3VJ4PFXFJ3TL96TFXMATEMT7KJHUAI","","","<img src=""img/flower5.png"" style=""width:200px;border:14px solid red;"">","null","","","","","",""
"2069","","image-keyboard-response","335","834642","0.0-335.0","34BBWHLWHBXFTCZCVCM92RYBPOQIWO","ARFJTVZE5IKLC","3VJ4PFXFJ3TL96TFXMATEMT7KJHUAI","","","img/flower3.png","75","2076","2","1","2","1,0.5,0.5,0.5,1,0.5,0.5,0.5,1",""
"null","","html-keyboard-response","336","834948","0.0-336.0","34BBWHLWHBXFTCZCVCM92RYBPOQIWO","ARFJTVZE5IKLC","3VJ4PFXFJ3TL96TFXMATEMT7KJHUAI","","","<img src=""img/flower3.png"" style=""width:200px; border:14px solid green;"">","null","","","","","",""
"1997","","image-keyboard-response","337","836953","0.0-337.0","34BBWHLWHBXFTCZCVCM92RYBPOQIWO","ARFJTVZE5IKLC","3VJ4PFXFJ3TL96TFXMATEMT7KJHUAI","","","img/flower5.png","75","2001","2","1","1","1,0.5,0.5,0.5,1,0.5,0.5,0.5,1",""
"null","","html-keyboard-response","338","837283","0.0-338.0","34BBWHLWHBXFTCZCVCM92RYBPOQIWO","ARFJTVZE5IKLC","3VJ4PFXFJ3TL96TFXMATEMT7KJHUAI","","","<img src=""img/flower5.png"" style=""width:200px; border:14px solid green;"">","null","","","","","",""
"1225","","image-keyboard-response","339","838515","0.0-339.0","34BBWHLWHBXFTCZCVCM92RYBPOQIWO","ARFJTVZE5IKLC","3VJ4PFXFJ3TL96TFXMATEMT7KJHUAI","","","img/flower5.png","75","1230","2","1","1","1,0.5,0.5,0.5,1,0.5,0.5,0.5,1",""
"null","","html-keyboard-response","340","838845","0.0-340.0","34BBWHLWHBXFTCZCVCM92RYBPOQIWO","ARFJTVZE5IKLC","3VJ4PFXFJ3TL96TFXMATEMT7KJHUAI","","","<img src=""img/flower5.png"" style=""width:200px; border:14px solid green;"">","null","","","","","",""
"1757","","image-keyboard-response","341","840619","0.0-341.0","34BBWHLWHBXFTCZCVCM92RYBPOQIWO","ARFJTVZE5IKLC","3VJ4PFXFJ3TL96TFXMATEMT7KJHUAI","","","img/flower3.png","75","1774","2","1","2","1,0.5,0.5,0.5,1,0.5,0.5,0.5,1",""
"null","","html-keyboard-response","342","840947","0.0-342.0","34BBWHLWHBXFTCZCVCM92RYBPOQIWO","ARFJTVZE5IKLC","3VJ4PFXFJ3TL96TFXMATEMT7KJHUAI","","","<img src=""img/flower3.png"" style=""width:200px; border:14px solid green;"">","null","","","","","",""
"1339","","image-keyboard-response","343","842288","0.0-343.0","34BBWHLWHBXFTCZCVCM92RYBPOQIWO","ARFJTVZE5IKLC","3VJ4PFXFJ3TL96TFXMATEMT7KJHUAI","","","img/flower5.png","75","1341","2","1","1","1,0.5,0.5,0.5,1,0.5,0.5,0.5,1",""
"null","","html-keyboard-response","344","842602","0.0-344.0","34BBWHLWHBXFTCZCVCM92RYBPOQIWO","ARFJTVZE5IKLC","3VJ4PFXFJ3TL96TFXMATEMT7KJHUAI","","","<img src=""img/flower5.png"" style=""width:200px; border:14px solid green;"">","null","","","","","",""
"1115","","image-keyboard-response","345","843726","0.0-345.0","34BBWHLWHBXFTCZCVCM92RYBPOQIWO","ARFJTVZE5IKLC","3VJ4PFXFJ3TL96TFXMATEMT7KJHUAI","","","img/flower4.png","74","1124","1","0","3","1,0.5,0.5,0.5,1,0.5,0.5,0.5,1",""
"null","","html-keyboard-response","346","844038","0.0-346.0","34BBWHLWHBXFTCZCVCM92RYBPOQIWO","ARFJTVZE5IKLC","3VJ4PFXFJ3TL96TFXMATEMT7KJHUAI","","","<img src=""img/flower4.png"" style=""width:200px;border:14px solid red;"">","null","","","","","",""
"1771","","image-keyboard-response","347","845812","0.0-347.0","34BBWHLWHBXFTCZCVCM92RYBPOQIWO","ARFJTVZE5IKLC","3VJ4PFXFJ3TL96TFXMATEMT7KJHUAI","","","img/flower5.png","75","1774","2","0","1","1,0.5,0.5,0.5,1,0.5,0.5,0.5,1",""
"null","","html-keyboard-response","348","846227","0.0-348.0","34BBWHLWHBXFTCZCVCM92RYBPOQIWO","ARFJTVZE5IKLC","3VJ4PFXFJ3TL96TFXMATEMT7KJHUAI","","","<img src=""img/flower5.png"" style=""width:200px;border:14px solid red;"">","null","","","","","",""
"1592","","image-keyboard-response","349","847828","0.0-349.0","34BBWHLWHBXFTCZCVCM92RYBPOQIWO","ARFJTVZE5IKLC","3VJ4PFXFJ3TL96TFXMATEMT7KJHUAI","","","img/flower5.png","75","1601","2","1","1","1,0.5,0.5,0.5,1,0.5,0.5,0.5,1",""
"null","","html-keyboard-response","350","848150","0.0-350.0","34BBWHLWHBXFTCZCVCM92RYBPOQIWO","ARFJTVZE5IKLC","3VJ4PFXFJ3TL96TFXMATEMT7KJHUAI","","","<img src=""img/flower5.png"" style=""width:200px; border:14px solid green;"">","null","","","","","",""
"727","","image-keyboard-response","351","848888","0.0-351.0","34BBWHLWHBXFTCZCVCM92RYBPOQIWO","ARFJTVZE5IKLC","3VJ4PFXFJ3TL96TFXMATEMT7KJHUAI","","","img/flower5.png","75","737","2","0","1","1,0.5,0.5,0.5,1,0.5,0.5,0.5,1",""
"null","","html-keyboard-response","352","849229","0.0-352.0","34BBWHLWHBXFTCZCVCM92RYBPOQIWO","ARFJTVZE5IKLC","3VJ4PFXFJ3TL96TFXMATEMT7KJHUAI","","","<img src=""img/flower5.png"" style=""width:200px;border:14px solid red;"">","null","","","","","",""
"2171","","image-keyboard-response","353","851406","0.0-353.0","34BBWHLWHBXFTCZCVCM92RYBPOQIWO","ARFJTVZE5IKLC","3VJ4PFXFJ3TL96TFXMATEMT7KJHUAI","","","img/flower3.png","75","2176","2","1","2","1,0.5,0.5,0.5,1,0.5,0.5,0.5,1",""
"null","","html-keyboard-response","354","851722","0.0-354.0","34BBWHLWHBXFTCZCVCM92RYBPOQIWO","ARFJTVZE5IKLC","3VJ4PFXFJ3TL96TFXMATEMT7KJHUAI","","","<img src=""img/flower3.png"" style=""width:200px; border:14px solid green;"">","null","","","","","",""
"1716","","image-keyboard-response","355","853445","0.0-355.0","34BBWHLWHBXFTCZCVCM92RYBPOQIWO","ARFJTVZE5IKLC","3VJ4PFXFJ3TL96TFXMATEMT7KJHUAI","","","img/flower4.png","74","1723","1","0","3","1,0.5,0.5,0.5,1,0.5,0.5,0.5,1",""
"null","","html-keyboard-response","356","853766","0.0-356.0","34BBWHLWHBXFTCZCVCM92RYBPOQIWO","ARFJTVZE5IKLC","3VJ4PFXFJ3TL96TFXMATEMT7KJHUAI","","","<img src=""img/flower4.png"" style=""width:200px;border:14px solid red;"">","null","","","","","",""
"875","","image-keyboard-response","357","854653","0.0-357.0","34BBWHLWHBXFTCZCVCM92RYBPOQIWO","ARFJTVZE5IKLC","3VJ4PFXFJ3TL96TFXMATEMT7KJHUAI","","","img/flower4.png","75","886","2","0","3","1,0.5,0.5,0.5,1,0.5,0.5,0.5,1",""
"null","","html-keyboard-response","358","854999","0.0-358.0","34BBWHLWHBXFTCZCVCM92RYBPOQIWO","ARFJTVZE5IKLC","3VJ4PFXFJ3TL96TFXMATEMT7KJHUAI","","","<img src=""img/flower4.png"" style=""width:200px;border:14px solid red;"">","null","","","","","",""
"690","","image-keyboard-response","359","855707","0.0-359.0","34BBWHLWHBXFTCZCVCM92RYBPOQIWO","ARFJTVZE5IKLC","3VJ4PFXFJ3TL96TFXMATEMT7KJHUAI","","","img/flower4.png","76","707","3","1","3","1,0.5,0.5,0.5,1,0.5,0.5,0.5,1",""
"null","","html-keyboard-response","360","856019","0.0-360.0","34BBWHLWHBXFTCZCVCM92RYBPOQIWO","ARFJTVZE5IKLC","3VJ4PFXFJ3TL96TFXMATEMT7KJHUAI","","","<img src=""img/flower4.png"" style=""width:200px; border:14px solid green;"">","null","","","","","",""
"1321","","image-keyboard-response","361","857354","0.0-361.0","34BBWHLWHBXFTCZCVCM92RYBPOQIWO","ARFJTVZE5IKLC","3VJ4PFXFJ3TL96TFXMATEMT7KJHUAI","","","img/flower3.png","75","1333","2","1","2","1,0.5,0.5,0.5,1,0.5,0.5,0.5,1",""
"null","","html-keyboard-response","362","857665","0.0-362.0","34BBWHLWHBXFTCZCVCM92RYBPOQIWO","ARFJTVZE5IKLC","3VJ4PFXFJ3TL96TFXMATEMT7KJHUAI","","","<img src=""img/flower3.png"" style=""width:200px; border:14px solid green;"">","null","","","","","",""
"846","","image-keyboard-response","363","858521","0.0-363.0","34BBWHLWHBXFTCZCVCM92RYBPOQIWO","ARFJTVZE5IKLC","3VJ4PFXFJ3TL96TFXMATEMT7KJHUAI","","","img/flower4.png","76","856","3","1","3","1,0.5,0.5,0.5,1,0.5,0.5,0.5,1",""
"null","","html-keyboard-response","364","858832","0.0-364.0","34BBWHLWHBXFTCZCVCM92RYBPOQIWO","ARFJTVZE5IKLC","3VJ4PFXFJ3TL96TFXMATEMT7KJHUAI","","","<img src=""img/flower4.png"" style=""width:200px; border:14px solid green;"">","null","","","","","",""
"1269","","image-keyboard-response","365","860114","0.0-365.0","34BBWHLWHBXFTCZCVCM92RYBPOQIWO","ARFJTVZE5IKLC","3VJ4PFXFJ3TL96TFXMATEMT7KJHUAI","","","img/flower4.png","76","1282","3","1","3","1,0.5,0.5,0.5,1,0.5,0.5,0.5,1",""
"null","","html-keyboard-response","366","860420","0.0-366.0","34BBWHLWHBXFTCZCVCM92RYBPOQIWO","ARFJTVZE5IKLC","3VJ4PFXFJ3TL96TFXMATEMT7KJHUAI","","","<img src=""img/flower4.png"" style=""width:200px; border:14px solid green;"">","null","","","","","",""
"968","","image-keyboard-response","367","861395","0.0-367.0","34BBWHLWHBXFTCZCVCM92RYBPOQIWO","ARFJTVZE5IKLC","3VJ4PFXFJ3TL96TFXMATEMT7KJHUAI","","","img/flower5.png","75","975","2","0","1","1,0.5,0.5,0.5,1,0.5,0.5,0.5,1",""
"null","","html-keyboard-response","368","861703","0.0-368.0","34BBWHLWHBXFTCZCVCM92RYBPOQIWO","ARFJTVZE5IKLC","3VJ4PFXFJ3TL96TFXMATEMT7KJHUAI","","","<img src=""img/flower5.png"" style=""width:200px;border:14px solid red;"">","null","","","","","",""
"800","","image-keyboard-response","369","862511","0.0-369.0","34BBWHLWHBXFTCZCVCM92RYBPOQIWO","ARFJTVZE5IKLC","3VJ4PFXFJ3TL96TFXMATEMT7KJHUAI","","","img/flower5.png","76","807","3","1","1","1,0.5,0.5,0.5,1,0.5,0.5,0.5,1",""
"null","","html-keyboard-response","370","862821","0.0-370.0","34BBWHLWHBXFTCZCVCM92RYBPOQIWO","ARFJTVZE5IKLC","3VJ4PFXFJ3TL96TFXMATEMT7KJHUAI","","","<img src=""img/flower5.png"" style=""width:200px; border:14px solid green;"">","null","","","","","",""
"1893","","image-keyboard-response","371","864721","0.0-371.0","34BBWHLWHBXFTCZCVCM92RYBPOQIWO","ARFJTVZE5IKLC","3VJ4PFXFJ3TL96TFXMATEMT7KJHUAI","","","img/flower3.png","76","1900","3","1","2","1,0.5,0.5,0.5,1,0.5,0.5,0.5,1",""
"null","","html-keyboard-response","372","865034","0.0-372.0","34BBWHLWHBXFTCZCVCM92RYBPOQIWO","ARFJTVZE5IKLC","3VJ4PFXFJ3TL96TFXMATEMT7KJHUAI","","","<img src=""img/flower3.png"" style=""width:200px; border:14px solid green;"">","null","","","","","",""
"678","","image-keyboard-response","373","865723","0.0-373.0","34BBWHLWHBXFTCZCVCM92RYBPOQIWO","ARFJTVZE5IKLC","3VJ4PFXFJ3TL96TFXMATEMT7KJHUAI","","","img/flower3.png","76","688","3","1","2","1,0.5,0.5,0.5,1,0.5,0.5,0.5,1",""
"null","","html-keyboard-response","374","866040","0.0-374.0","34BBWHLWHBXFTCZCVCM92RYBPOQIWO","ARFJTVZE5IKLC","3VJ4PFXFJ3TL96TFXMATEMT7KJHUAI","","","<img src=""img/flower3.png"" style=""width:200px; border:14px solid green;"">","null","","","","","",""
"922","","image-keyboard-response","375","866965","0.0-375.0","34BBWHLWHBXFTCZCVCM92RYBPOQIWO","ARFJTVZE5IKLC","3VJ4PFXFJ3TL96TFXMATEMT7KJHUAI","","","img/flower5.png","75","924","2","0","1","1,0.5,0.5,0.5,1,0.5,0.5,0.5,1",""
"null","","html-keyboard-response","376","867330","0.0-376.0","34BBWHLWHBXFTCZCVCM92RYBPOQIWO","ARFJTVZE5IKLC","3VJ4PFXFJ3TL96TFXMATEMT7KJHUAI","","","<img src=""img/flower5.png"" style=""width:200px;border:14px solid red;"">","null","","","","","",""
"1149","","image-keyboard-response","377","868491","0.0-377.0","34BBWHLWHBXFTCZCVCM92RYBPOQIWO","ARFJTVZE5IKLC","3VJ4PFXFJ3TL96TFXMATEMT7KJHUAI","","","img/flower3.png","76","1161","3","0","2","1,0.5,0.5,0.5,1,0.5,0.5,0.5,1",""
"null","","html-keyboard-response","378","868813","0.0-378.0","34BBWHLWHBXFTCZCVCM92RYBPOQIWO","ARFJTVZE5IKLC","3VJ4PFXFJ3TL96TFXMATEMT7KJHUAI","","","<img src=""img/flower3.png"" style=""width:200px;border:14px solid red;"">","null","","","","","",""
"258","","image-keyboard-response","379","869083","0.0-379.0","34BBWHLWHBXFTCZCVCM92RYBPOQIWO","ARFJTVZE5IKLC","3VJ4PFXFJ3TL96TFXMATEMT7KJHUAI","","","img/flower3.png","76","266","3","1","2","1,0.5,0.5,0.5,1,0.5,0.5,0.5,1",""
"null","","html-keyboard-response","380","869401","0.0-380.0","34BBWHLWHBXFTCZCVCM92RYBPOQIWO","ARFJTVZE5IKLC","3VJ4PFXFJ3TL96TFXMATEMT7KJHUAI","","","<img src=""img/flower3.png"" style=""width:200px; border:14px solid green;"">","null","","","","","",""
"1984","","image-keyboard-response","381","871396","0.0-381.0","34BBWHLWHBXFTCZCVCM92RYBPOQIWO","ARFJTVZE5IKLC","3VJ4PFXFJ3TL96TFXMATEMT7KJHUAI","","","img/flower4.png","76","1995","3","1","3","1,0.5,0.5,0.5,1,0.5,0.5,0.5,1",""
"null","","html-keyboard-response","382","871704","0.0-382.0","34BBWHLWHBXFTCZCVCM92RYBPOQIWO","ARFJTVZE5IKLC","3VJ4PFXFJ3TL96TFXMATEMT7KJHUAI","","","<img src=""img/flower4.png"" style=""width:200px; border:14px solid green;"">","null","","","","","",""
"671","","image-keyboard-response","383","872387","0.0-383.0","34BBWHLWHBXFTCZCVCM92RYBPOQIWO","ARFJTVZE5IKLC","3VJ4PFXFJ3TL96TFXMATEMT7KJHUAI","","","img/flower4.png","76","674","3","1","3","1,0.5,0.5,0.5,1,0.5,0.5,0.5,1",""
"null","","html-keyboard-response","384","872701","0.0-384.0","34BBWHLWHBXFTCZCVCM92RYBPOQIWO","ARFJTVZE5IKLC","3VJ4PFXFJ3TL96TFXMATEMT7KJHUAI","","","<img src=""img/flower4.png"" style=""width:200px; border:14px solid green;"">","null","","","","","",""
"1038","","image-keyboard-response","385","873754","0.0-385.0","34BBWHLWHBXFTCZCVCM92RYBPOQIWO","ARFJTVZE5IKLC","3VJ4PFXFJ3TL96TFXMATEMT7KJHUAI","","","img/flower3.png","76","1053","3","0","2","1,0.5,0.5,0.5,1,0.5,0.5,0.5,1",""
"null","","html-keyboard-response","386","874058","0.0-386.0","34BBWHLWHBXFTCZCVCM92RYBPOQIWO","ARFJTVZE5IKLC","3VJ4PFXFJ3TL96TFXMATEMT7KJHUAI","","","<img src=""img/flower3.png"" style=""width:200px;border:14px solid red;"">","null","","","","","",""
"717","","image-keyboard-response","387","874799","0.0-387.0","34BBWHLWHBXFTCZCVCM92RYBPOQIWO","ARFJTVZE5IKLC","3VJ4PFXFJ3TL96TFXMATEMT7KJHUAI","","","img/flower3.png","75","727","2","1","2","1,0.5,0.5,0.5,1,0.5,0.5,0.5,1",""
"null","","html-keyboard-response","388","875362","0.0-388.0","34BBWHLWHBXFTCZCVCM92RYBPOQIWO","ARFJTVZE5IKLC","3VJ4PFXFJ3TL96TFXMATEMT7KJHUAI","","","<img src=""img/flower3.png"" style=""width:200px; border:14px solid green;"">","null","","","","","",""
"1426","","image-keyboard-response","389","876799","0.0-389.0","34BBWHLWHBXFTCZCVCM92RYBPOQIWO","ARFJTVZE5IKLC","3VJ4PFXFJ3TL96TFXMATEMT7KJHUAI","","","img/flower5.png","75","1436","2","0","1","1,0.5,0.5,0.5,1,0.5,0.5,0.5,1",""
"null","","html-keyboard-response","390","877128","0.0-390.0","34BBWHLWHBXFTCZCVCM92RYBPOQIWO","ARFJTVZE5IKLC","3VJ4PFXFJ3TL96TFXMATEMT7KJHUAI","","","<img src=""img/flower5.png"" style=""width:200px;border:14px solid red;"">","null","","","","","",""
"532","","image-keyboard-response","391","877692","0.0-391.0","34BBWHLWHBXFTCZCVCM92RYBPOQIWO","ARFJTVZE5IKLC","3VJ4PFXFJ3TL96TFXMATEMT7KJHUAI","","","img/flower5.png","76","545","3","0","1","1,0.5,0.5,0.5,1,0.5,0.5,0.5,1",""
"null","","html-keyboard-response","392","878007","0.0-392.0","34BBWHLWHBXFTCZCVCM92RYBPOQIWO","ARFJTVZE5IKLC","3VJ4PFXFJ3TL96TFXMATEMT7KJHUAI","","","<img src=""img/flower5.png"" style=""width:200px;border:14px solid red;"">","null","","","","","",""
"868","","image-keyboard-response","393","878891","0.0-393.0","34BBWHLWHBXFTCZCVCM92RYBPOQIWO","ARFJTVZE5IKLC","3VJ4PFXFJ3TL96TFXMATEMT7KJHUAI","","","img/flower3.png","75","881","2","1","2","1,0.5,0.5,0.5,1,0.5,0.5,0.5,1",""
"null","","html-keyboard-response","394","879302","0.0-394.0","34BBWHLWHBXFTCZCVCM92RYBPOQIWO","ARFJTVZE5IKLC","3VJ4PFXFJ3TL96TFXMATEMT7KJHUAI","","","<img src=""img/flower3.png"" style=""width:200px; border:14px solid green;"">","null","","","","","",""
"1183","","image-keyboard-response","395","880488","0.0-395.0","34BBWHLWHBXFTCZCVCM92RYBPOQIWO","ARFJTVZE5IKLC","3VJ4PFXFJ3TL96TFXMATEMT7KJHUAI","","","img/flower4.png","76","1186","3","1","3","1,0.5,0.5,0.5,1,0.5,0.5,0.5,1",""
"null","","html-keyboard-response","396","880794","0.0-396.0","34BBWHLWHBXFTCZCVCM92RYBPOQIWO","ARFJTVZE5IKLC","3VJ4PFXFJ3TL96TFXMATEMT7KJHUAI","","","<img src=""img/flower4.png"" style=""width:200px; border:14px solid green;"">","null","","","","","",""
"672","","image-keyboard-response","397","881471","0.0-397.0","34BBWHLWHBXFTCZCVCM92RYBPOQIWO","ARFJTVZE5IKLC","3VJ4PFXFJ3TL96TFXMATEMT7KJHUAI","","","img/flower4.png","76","677","3","1","3","1,0.5,0.5,0.5,1,0.5,0.5,0.5,1",""
"null","","html-keyboard-response","398","881793","0.0-398.0","34BBWHLWHBXFTCZCVCM92RYBPOQIWO","ARFJTVZE5IKLC","3VJ4PFXFJ3TL96TFXMATEMT7KJHUAI","","","<img src=""img/flower4.png"" style=""width:200px; border:14px solid green;"">","null","","","","","",""
"983","","image-keyboard-response","399","882781","0.0-399.0","34BBWHLWHBXFTCZCVCM92RYBPOQIWO","ARFJTVZE5IKLC","3VJ4PFXFJ3TL96TFXMATEMT7KJHUAI","","","img/flower5.png","75","987","2","1","1","1,0.5,0.5,0.5,1,0.5,0.5,0.5,1",""
"null","","html-keyboard-response","400","883097","0.0-400.0","34BBWHLWHBXFTCZCVCM92RYBPOQIWO","ARFJTVZE5IKLC","3VJ4PFXFJ3TL96TFXMATEMT7KJHUAI","","","<img src=""img/flower5.png"" style=""width:200px; border:14px solid green;"">","null","","","","","",""
"1429","","image-keyboard-response","401","884527","0.0-401.0","34BBWHLWHBXFTCZCVCM92RYBPOQIWO","ARFJTVZE5IKLC","3VJ4PFXFJ3TL96TFXMATEMT7KJHUAI","","","img/flower3.png","75","1430","2","1","2","1,0.5,0.5,0.5,1,0.5,0.5,0.5,1",""
"null","","html-keyboard-response","402","884849","0.0-402.0","34BBWHLWHBXFTCZCVCM92RYBPOQIWO","ARFJTVZE5IKLC","3VJ4PFXFJ3TL96TFXMATEMT7KJHUAI","","","<img src=""img/flower3.png"" style=""width:200px; border:14px solid green;"">","null","","","","","",""
"1002","","image-keyboard-response","403","885863","0.0-403.0","34BBWHLWHBXFTCZCVCM92RYBPOQIWO","ARFJTVZE5IKLC","3VJ4PFXFJ3TL96TFXMATEMT7KJHUAI","","","img/flower5.png","75","1014","2","0","1","1,0.5,0.5,0.5,1,0.5,0.5,0.5,1",""
"null","","html-keyboard-response","404","886256","0.0-404.0","34BBWHLWHBXFTCZCVCM92RYBPOQIWO","ARFJTVZE5IKLC","3VJ4PFXFJ3TL96TFXMATEMT7KJHUAI","","","<img src=""img/flower5.png"" style=""width:200px;border:14px solid red;"">","null","","","","","",""
"802","","image-keyboard-response","405","887080","0.0-405.0","34BBWHLWHBXFTCZCVCM92RYBPOQIWO","ARFJTVZE5IKLC","3VJ4PFXFJ3TL96TFXMATEMT7KJHUAI","","","img/flower3.png","76","814","3","0","2","1,0.5,0.5,0.5,1,0.5,0.5,0.5,1",""
"null","","html-keyboard-response","406","887412","0.0-406.0","34BBWHLWHBXFTCZCVCM92RYBPOQIWO","ARFJTVZE5IKLC","3VJ4PFXFJ3TL96TFXMATEMT7KJHUAI","","","<img src=""img/flower3.png"" style=""width:200px;border:14px solid red;"">","null","","","","","",""
"1268","","image-keyboard-response","407","888691","0.0-407.0","34BBWHLWHBXFTCZCVCM92RYBPOQIWO","ARFJTVZE5IKLC","3VJ4PFXFJ3TL96TFXMATEMT7KJHUAI","","","img/flower4.png","76","1279","3","1","3","1,0.5,0.5,0.5,1,0.5,0.5,0.5,1",""
"null","","html-keyboard-response","408","889002","0.0-408.0","34BBWHLWHBXFTCZCVCM92RYBPOQIWO","ARFJTVZE5IKLC","3VJ4PFXFJ3TL96TFXMATEMT7KJHUAI","","","<img src=""img/flower4.png"" style=""width:200px; border:14px solid green;"">","null","","","","","",""
"924","","image-keyboard-response","409","889935","0.0-409.0","34BBWHLWHBXFTCZCVCM92RYBPOQIWO","ARFJTVZE5IKLC","3VJ4PFXFJ3TL96TFXMATEMT7KJHUAI","","","img/flower5.png","75","932","2","0","1","1,0.5,0.5,0.5,1,0.5,0.5,0.5,1",""
"null","","html-keyboard-response","410","890266","0.0-410.0","34BBWHLWHBXFTCZCVCM92RYBPOQIWO","ARFJTVZE5IKLC","3VJ4PFXFJ3TL96TFXMATEMT7KJHUAI","","","<img src=""img/flower5.png"" style=""width:200px;border:14px solid red;"">","null","","","","","",""
"938","","image-keyboard-response","411","891211","0.0-411.0","34BBWHLWHBXFTCZCVCM92RYBPOQIWO","ARFJTVZE5IKLC","3VJ4PFXFJ3TL96TFXMATEMT7KJHUAI","","","img/flower5.png","76","945","3","1","1","1,0.5,0.5,0.5,1,0.5,0.5,0.5,1",""
"null","","html-keyboard-response","412","891546","0.0-412.0","34BBWHLWHBXFTCZCVCM92RYBPOQIWO","ARFJTVZE5IKLC","3VJ4PFXFJ3TL96TFXMATEMT7KJHUAI","","","<img src=""img/flower5.png"" style=""width:200px; border:14px solid green;"">","null","","","","","",""
"1911","","image-keyboard-response","413","893467","0.0-413.0","34BBWHLWHBXFTCZCVCM92RYBPOQIWO","ARFJTVZE5IKLC","3VJ4PFXFJ3TL96TFXMATEMT7KJHUAI","","","img/flower4.png","76","1919","3","1","3","1,0.5,0.5,0.5,1,0.5,0.5,0.5,1",""
"null","","html-keyboard-response","414","893781","0.0-414.0","34BBWHLWHBXFTCZCVCM92RYBPOQIWO","ARFJTVZE5IKLC","3VJ4PFXFJ3TL96TFXMATEMT7KJHUAI","","","<img src=""img/flower4.png"" style=""width:200px; border:14px solid green;"">","null","","","","","",""
"2520","","image-keyboard-response","415","896306","0.0-415.0","34BBWHLWHBXFTCZCVCM92RYBPOQIWO","ARFJTVZE5IKLC","3VJ4PFXFJ3TL96TFXMATEMT7KJHUAI","","","img/flower3.png","75","2525","2","1","2","1,0.5,0.5,0.5,1,0.5,0.5,0.5,1",""
"null","","html-keyboard-response","416","896626","0.0-416.0","34BBWHLWHBXFTCZCVCM92RYBPOQIWO","ARFJTVZE5IKLC","3VJ4PFXFJ3TL96TFXMATEMT7KJHUAI","","","<img src=""img/flower3.png"" style=""width:200px; border:14px solid green;"">","null","","","","","",""
"1087","","image-keyboard-response","417","897716","0.0-417.0","34BBWHLWHBXFTCZCVCM92RYBPOQIWO","ARFJTVZE5IKLC","3VJ4PFXFJ3TL96TFXMATEMT7KJHUAI","","","img/flower4.png","76","1090","3","1","3","1,0.5,0.5,0.5,1,0.5,0.5,0.5,1",""
"null","","html-keyboard-response","418","898150","0.0-418.0","34BBWHLWHBXFTCZCVCM92RYBPOQIWO","ARFJTVZE5IKLC","3VJ4PFXFJ3TL96TFXMATEMT7KJHUAI","","","<img src=""img/flower4.png"" style=""width:200px; border:14px solid green;"">","null","","","","","",""
"1094","","image-keyboard-response","419","899250","0.0-419.0","34BBWHLWHBXFTCZCVCM92RYBPOQIWO","ARFJTVZE5IKLC","3VJ4PFXFJ3TL96TFXMATEMT7KJHUAI","","","img/flower3.png","75","1100","2","1","2","1,0.5,0.5,0.5,1,0.5,0.5,0.5,1",""
"null","","html-keyboard-response","420","899563","0.0-420.0","34BBWHLWHBXFTCZCVCM92RYBPOQIWO","ARFJTVZE5IKLC","3VJ4PFXFJ3TL96TFXMATEMT7KJHUAI","","","<img src=""img/flower3.png"" style=""width:200px; border:14px solid green;"">","null","","","","","",""
"1112","","image-keyboard-response","421","900688","0.0-421.0","34BBWHLWHBXFTCZCVCM92RYBPOQIWO","ARFJTVZE5IKLC","3VJ4PFXFJ3TL96TFXMATEMT7KJHUAI","","","img/flower3.png","75","1120","2","1","2","1,0.5,0.5,0.5,1,0.5,0.5,0.5,1",""
"null","","html-keyboard-response","422","900996","0.0-422.0","34BBWHLWHBXFTCZCVCM92RYBPOQIWO","ARFJTVZE5IKLC","3VJ4PFXFJ3TL96TFXMATEMT7KJHUAI","","","<img src=""img/flower3.png"" style=""width:200px; border:14px solid green;"">","null","","","","","",""
"1462","","image-keyboard-response","423","902473","0.0-423.0","34BBWHLWHBXFTCZCVCM92RYBPOQIWO","ARFJTVZE5IKLC","3VJ4PFXFJ3TL96TFXMATEMT7KJHUAI","","","img/flower5.png","76","1466","3","0","1","1,0.5,0.5,0.5,1,0.5,0.5,0.5,1",""
"null","","html-keyboard-response","424","902783","0.0-424.0","34BBWHLWHBXFTCZCVCM92RYBPOQIWO","ARFJTVZE5IKLC","3VJ4PFXFJ3TL96TFXMATEMT7KJHUAI","","","<img src=""img/flower5.png"" style=""width:200px;border:14px solid red;"">","null","","","","","",""
"1318","","image-keyboard-response","425","904110","0.0-425.0","34BBWHLWHBXFTCZCVCM92RYBPOQIWO","ARFJTVZE5IKLC","3VJ4PFXFJ3TL96TFXMATEMT7KJHUAI","","","img/flower4.png","76","1327","3","1","3","1,0.5,0.5,0.5,1,0.5,0.5,0.5,1",""
"null","","html-keyboard-response","426","904433","0.0-426.0","34BBWHLWHBXFTCZCVCM92RYBPOQIWO","ARFJTVZE5IKLC","3VJ4PFXFJ3TL96TFXMATEMT7KJHUAI","","","<img src=""img/flower4.png"" style=""width:200px; border:14px solid green;"">","null","","","","","",""
