"success","trial_type","trial_index","time_elapsed","internal_node_id","assignmentID","mturkID","hitID","view_history","rt","stimulus","key_press","reactionTime","a","r","s","cond","reward_cond","reward_cond_actual","reward_matrix_idx","responses"
"true","fullscreen","0","13484","0.0-0.0","3NAPMVF0ZX1WSCK9Y1T5NVSD85627Q","ARN8MH7YKZKAZ","3I7KR83SNAZT1REYB2SRC49PCEEK9H","","","","","","","","","","","","",""
"","instructions","1","42204","0.0-1.0","3NAPMVF0ZX1WSCK9Y1T5NVSD85627Q","ARN8MH7YKZKAZ","3I7KR83SNAZT1REYB2SRC49PCEEK9H","[{""page_index"":0,""viewing_time"":2165.7000000476837},{""page_index"":1,""viewing_time"":767.8999998569489},{""page_index"":2,""viewing_time"":231.90000009536743},{""page_index"":3,""viewing_time"":224},{""page_index"":4,""viewing_time"":1728.0999999046326},{""page_index"":3,""viewing_time"":3759.9000000953674},{""page_index"":2,""viewing_time"":2944},{""page_index"":1,""viewing_time"":1447.8999998569489},{""page_index"":2,""viewing_time"":2112},{""page_index"":3,""viewing_time"":1816},{""page_index"":4,""viewing_time"":4783.900000095367},{""page_index"":5,""viewing_time"":2336},{""page_index"":6,""viewing_time"":2152},{""page_index"":7,""viewing_time"":2248}]","28717.700000047684","","","","","","","","","","",""
"","image-keyboard-response","2","43265","0.0-2.0","3NAPMVF0ZX1WSCK9Y1T5NVSD85627Q","ARN8MH7YKZKAZ","3I7KR83SNAZT1REYB2SRC49PCEEK9H","","1058.9000000953674","img/flower1.png","74","1060.5","1","0","2","1","1,0.333,0.333,0.333,1,0.333,0.333,0.333,1","1,0.333,0.333,0.333,1,0.333,0.333,0.333,1","1",""
"","html-keyboard-response","3","43569","0.0-3.0","3NAPMVF0ZX1WSCK9Y1T5NVSD85627Q","ARN8MH7YKZKAZ","3I7KR83SNAZT1REYB2SRC49PCEEK9H","","null","<img src=""img/flower1.png"" style=""width:200px;border:14px solid red;"">","null","","","","","","","","",""
"","image-keyboard-response","4","44496","0.0-4.0","3NAPMVF0ZX1WSCK9Y1T5NVSD85627Q","ARN8MH7YKZKAZ","3I7KR83SNAZT1REYB2SRC49PCEEK9H","","925.6999998092651","img/flower3.png","76","927","3","0","1","1","1,0.333,0.333,0.333,1,0.333,0.333,0.333,1","1,0.333,0.333,0.333,1,0.333,0.333,0.333,1","1",""
"","html-keyboard-response","5","44798","0.0-5.0","3NAPMVF0ZX1WSCK9Y1T5NVSD85627Q","ARN8MH7YKZKAZ","3I7KR83SNAZT1REYB2SRC49PCEEK9H","","null","<img src=""img/flower3.png"" style=""width:200px;border:14px solid red;"">","null","","","","","","","","",""
"","image-keyboard-response","6","45488","0.0-6.0","3NAPMVF0ZX1WSCK9Y1T5NVSD85627Q","ARN8MH7YKZKAZ","3I7KR83SNAZT1REYB2SRC49PCEEK9H","","688.2000000476837","img/flower2.png","75","689.7999999523163","2","1","3","1","1,0.333,0.333,0.333,1,0.333,0.333,0.333,1","1,0.333,0.333,0.333,1,0.333,0.333,0.333,1","1",""
"","html-keyboard-response","7","45790","0.0-7.0","3NAPMVF0ZX1WSCK9Y1T5NVSD85627Q","ARN8MH7YKZKAZ","3I7KR83SNAZT1REYB2SRC49PCEEK9H","","null","<img src=""img/flower2.png"" style=""width:200px; border:14px solid green;"">","null","","","","","","","","",""
"","image-keyboard-response","8","46424","0.0-8.0","3NAPMVF0ZX1WSCK9Y1T5NVSD85627Q","ARN8MH7YKZKAZ","3I7KR83SNAZT1REYB2SRC49PCEEK9H","","632.5","img/flower1.png","76","633.9000000953674","3","0","2","1","1,0.333,0.333,0.333,1,0.333,0.333,0.333,1","1,0.333,0.333,0.333,1,0.333,0.333,0.333,1","1",""
"","html-keyboard-response","9","46727","0.0-9.0","3NAPMVF0ZX1WSCK9Y1T5NVSD85627Q","ARN8MH7YKZKAZ","3I7KR83SNAZT1REYB2SRC49PCEEK9H","","null","<img src=""img/flower1.png"" style=""width:200px;border:14px solid red;"">","null","","","","","","","","",""
"","image-keyboard-response","10","47040","0.0-10.0","3NAPMVF0ZX1WSCK9Y1T5NVSD85627Q","ARN8MH7YKZKAZ","3I7KR83SNAZT1REYB2SRC49PCEEK9H","","311.7999999523163","img/flower1.png","74","313.2999999523163","1","0","2","1","1,0.333,0.333,0.333,1,0.333,0.333,0.333,1","1,0.333,0.333,0.333,1,0.333,0.333,0.333,1","1",""
"","html-keyboard-response","11","47342","0.0-11.0","3NAPMVF0ZX1WSCK9Y1T5NVSD85627Q","ARN8MH7YKZKAZ","3I7KR83SNAZT1REYB2SRC49PCEEK9H","","null","<img src=""img/flower1.png"" style=""width:200px;border:14px solid red;"">","null","","","","","","","","",""
"","image-keyboard-response","12","47648","0.0-12.0","3NAPMVF0ZX1WSCK9Y1T5NVSD85627Q","ARN8MH7YKZKAZ","3I7KR83SNAZT1REYB2SRC49PCEEK9H","","304.7999999523163","img/flower1.png","74","306.2000000476837","1","1","2","1","1,0.333,0.333,0.333,1,0.333,0.333,0.333,1","1,0.333,0.333,0.333,1,0.333,0.333,0.333,1","1",""
"","html-keyboard-response","13","47950","0.0-13.0","3NAPMVF0ZX1WSCK9Y1T5NVSD85627Q","ARN8MH7YKZKAZ","3I7KR83SNAZT1REYB2SRC49PCEEK9H","","null","<img src=""img/flower1.png"" style=""width:200px; border:14px solid green;"">","null","","","","","","","","",""
"","image-keyboard-response","14","48656","0.0-14.0","3NAPMVF0ZX1WSCK9Y1T5NVSD85627Q","ARN8MH7YKZKAZ","3I7KR83SNAZT1REYB2SRC49PCEEK9H","","704.5999999046326","img/flower2.png","75","705.8000001907349","2","1","3","1","1,0.333,0.333,0.333,1,0.333,0.333,0.333,1","1,0.333,0.333,0.333,1,0.333,0.333,0.333,1","1",""
"","html-keyboard-response","15","48958","0.0-15.0","3NAPMVF0ZX1WSCK9Y1T5NVSD85627Q","ARN8MH7YKZKAZ","3I7KR83SNAZT1REYB2SRC49PCEEK9H","","null","<img src=""img/flower2.png"" style=""width:200px; border:14px solid green;"">","null","","","","","","","","",""
"","image-keyboard-response","16","49584","0.0-16.0","3NAPMVF0ZX1WSCK9Y1T5NVSD85627Q","ARN8MH7YKZKAZ","3I7KR83SNAZT1REYB2SRC49PCEEK9H","","624.9000000953674","img/flower1.png","76","626.2000000476837","3","0","2","1","1,0.333,0.333,0.333,1,0.333,0.333,0.333,1","1,0.333,0.333,0.333,1,0.333,0.333,0.333,1","1",""
"","html-keyboard-response","17","49886","0.0-17.0","3NAPMVF0ZX1WSCK9Y1T5NVSD85627Q","ARN8MH7YKZKAZ","3I7KR83SNAZT1REYB2SRC49PCEEK9H","","null","<img src=""img/flower1.png"" style=""width:200px;border:14px solid red;"">","null","","","","","","","","",""
"","image-keyboard-response","18","50503","0.0-18.0","3NAPMVF0ZX1WSCK9Y1T5NVSD85627Q","ARN8MH7YKZKAZ","3I7KR83SNAZT1REYB2SRC49PCEEK9H","","615.8999998569489","img/flower2.png","75","617","2","1","3","1","1,0.333,0.333,0.333,1,0.333,0.333,0.333,1","1,0.333,0.333,0.333,1,0.333,0.333,0.333,1","1",""
"","html-keyboard-response","19","50805","0.0-19.0","3NAPMVF0ZX1WSCK9Y1T5NVSD85627Q","ARN8MH7YKZKAZ","3I7KR83SNAZT1REYB2SRC49PCEEK9H","","null","<img src=""img/flower2.png"" style=""width:200px; border:14px solid green;"">","null","","","","","","","","",""
"","image-keyboard-response","20","51624","0.0-20.0","3NAPMVF0ZX1WSCK9Y1T5NVSD85627Q","ARN8MH7YKZKAZ","3I7KR83SNAZT1REYB2SRC49PCEEK9H","","817.4000000953674","img/flower1.png","74","818.8000001907349","1","1","2","1","1,0.333,0.333,0.333,1,0.333,0.333,0.333,1","1,0.333,0.333,0.333,1,0.333,0.333,0.333,1","1",""
"","html-keyboard-response","21","51926","0.0-21.0","3NAPMVF0ZX1WSCK9Y1T5NVSD85627Q","ARN8MH7YKZKAZ","3I7KR83SNAZT1REYB2SRC49PCEEK9H","","null","<img src=""img/flower1.png"" style=""width:200px; border:14px solid green;"">","null","","","","","","","","",""
"","image-keyboard-response","22","52552","0.0-22.0","3NAPMVF0ZX1WSCK9Y1T5NVSD85627Q","ARN8MH7YKZKAZ","3I7KR83SNAZT1REYB2SRC49PCEEK9H","","624.2999999523163","img/flower2.png","74","625.4000000953674","1","0","3","1","1,0.333,0.333,0.333,1,0.333,0.333,0.333,1","1,0.333,0.333,0.333,1,0.333,0.333,0.333,1","1",""
"","html-keyboard-response","23","52854","0.0-23.0","3NAPMVF0ZX1WSCK9Y1T5NVSD85627Q","ARN8MH7YKZKAZ","3I7KR83SNAZT1REYB2SRC49PCEEK9H","","null","<img src=""img/flower2.png"" style=""width:200px;border:14px solid red;"">","null","","","","","","","","",""
"","image-keyboard-response","24","53472","0.0-24.0","3NAPMVF0ZX1WSCK9Y1T5NVSD85627Q","ARN8MH7YKZKAZ","3I7KR83SNAZT1REYB2SRC49PCEEK9H","","616.5999999046326","img/flower1.png","74","617.9000000953674","1","0","2","1","1,0.333,0.333,0.333,1,0.333,0.333,0.333,1","1,0.333,0.333,0.333,1,0.333,0.333,0.333,1","1",""
"","html-keyboard-response","25","53774","0.0-25.0","3NAPMVF0ZX1WSCK9Y1T5NVSD85627Q","ARN8MH7YKZKAZ","3I7KR83SNAZT1REYB2SRC49PCEEK9H","","null","<img src=""img/flower1.png"" style=""width:200px;border:14px solid red;"">","null","","","","","","","","",""
"","image-keyboard-response","26","54544","0.0-26.0","3NAPMVF0ZX1WSCK9Y1T5NVSD85627Q","ARN8MH7YKZKAZ","3I7KR83SNAZT1REYB2SRC49PCEEK9H","","768.6999998092651","img/flower3.png","76","770","3","0","1","1","1,0.333,0.333,0.333,1,0.333,0.333,0.333,1","1,0.333,0.333,0.333,1,0.333,0.333,0.333,1","1",""
"","html-keyboard-response","27","54846","0.0-27.0","3NAPMVF0ZX1WSCK9Y1T5NVSD85627Q","ARN8MH7YKZKAZ","3I7KR83SNAZT1REYB2SRC49PCEEK9H","","null","<img src=""img/flower3.png"" style=""width:200px;border:14px solid red;"">","null","","","","","","","","",""
"","image-keyboard-response","28","55496","0.0-28.0","3NAPMVF0ZX1WSCK9Y1T5NVSD85627Q","ARN8MH7YKZKAZ","3I7KR83SNAZT1REYB2SRC49PCEEK9H","","648.2999999523163","img/flower1.png","74","649.7000000476837","1","0","2","1","1,0.333,0.333,0.333,1,0.333,0.333,0.333,1","1,0.333,0.333,0.333,1,0.333,0.333,0.333,1","1",""
"","html-keyboard-response","29","55798","0.0-29.0","3NAPMVF0ZX1WSCK9Y1T5NVSD85627Q","ARN8MH7YKZKAZ","3I7KR83SNAZT1REYB2SRC49PCEEK9H","","null","<img src=""img/flower1.png"" style=""width:200px;border:14px solid red;"">","null","","","","","","","","",""
"","image-keyboard-response","30","56560","0.0-30.0","3NAPMVF0ZX1WSCK9Y1T5NVSD85627Q","ARN8MH7YKZKAZ","3I7KR83SNAZT1REYB2SRC49PCEEK9H","","760.5","img/flower3.png","76","761.7000000476837","3","0","1","1","1,0.333,0.333,0.333,1,0.333,0.333,0.333,1","1,0.333,0.333,0.333,1,0.333,0.333,0.333,1","1",""
"","html-keyboard-response","31","56862","0.0-31.0","3NAPMVF0ZX1WSCK9Y1T5NVSD85627Q","ARN8MH7YKZKAZ","3I7KR83SNAZT1REYB2SRC49PCEEK9H","","null","<img src=""img/flower3.png"" style=""width:200px;border:14px solid red;"">","null","","","","","","","","",""
"","image-keyboard-response","32","57552","0.0-32.0","3NAPMVF0ZX1WSCK9Y1T5NVSD85627Q","ARN8MH7YKZKAZ","3I7KR83SNAZT1REYB2SRC49PCEEK9H","","688.7999999523163","img/flower2.png","75","690.0999999046326","2","0","3","1","1,0.333,0.333,0.333,1,0.333,0.333,0.333,1","1,0.333,0.333,0.333,1,0.333,0.333,0.333,1","1",""
"","html-keyboard-response","33","57854","0.0-33.0","3NAPMVF0ZX1WSCK9Y1T5NVSD85627Q","ARN8MH7YKZKAZ","3I7KR83SNAZT1REYB2SRC49PCEEK9H","","null","<img src=""img/flower2.png"" style=""width:200px;border:14px solid red;"">","null","","","","","","","","",""
"","image-keyboard-response","34","58216","0.0-34.0","3NAPMVF0ZX1WSCK9Y1T5NVSD85627Q","ARN8MH7YKZKAZ","3I7KR83SNAZT1REYB2SRC49PCEEK9H","","360.69999980926514","img/flower2.png","75","362","2","0","3","1","1,0.333,0.333,0.333,1,0.333,0.333,0.333,1","1,0.333,0.333,0.333,1,0.333,0.333,0.333,1","1",""
"","html-keyboard-response","35","58518","0.0-35.0","3NAPMVF0ZX1WSCK9Y1T5NVSD85627Q","ARN8MH7YKZKAZ","3I7KR83SNAZT1REYB2SRC49PCEEK9H","","null","<img src=""img/flower2.png"" style=""width:200px;border:14px solid red;"">","null","","","","","","","","",""
"","image-keyboard-response","36","59304","0.0-36.0","3NAPMVF0ZX1WSCK9Y1T5NVSD85627Q","ARN8MH7YKZKAZ","3I7KR83SNAZT1REYB2SRC49PCEEK9H","","784.7000000476837","img/flower3.png","76","786","3","0","1","1","1,0.333,0.333,0.333,1,0.333,0.333,0.333,1","1,0.333,0.333,0.333,1,0.333,0.333,0.333,1","1",""
"","html-keyboard-response","37","59607","0.0-37.0","3NAPMVF0ZX1WSCK9Y1T5NVSD85627Q","ARN8MH7YKZKAZ","3I7KR83SNAZT1REYB2SRC49PCEEK9H","","null","<img src=""img/flower3.png"" style=""width:200px;border:14px solid red;"">","null","","","","","","","","",""
"","image-keyboard-response","38","60104","0.0-38.0","3NAPMVF0ZX1WSCK9Y1T5NVSD85627Q","ARN8MH7YKZKAZ","3I7KR83SNAZT1REYB2SRC49PCEEK9H","","495.90000009536743","img/flower3.png","76","497.2000000476837","3","0","1","1","1,0.333,0.333,0.333,1,0.333,0.333,0.333,1","1,0.333,0.333,0.333,1,0.333,0.333,0.333,1","1",""
"","html-keyboard-response","39","60406","0.0-39.0","3NAPMVF0ZX1WSCK9Y1T5NVSD85627Q","ARN8MH7YKZKAZ","3I7KR83SNAZT1REYB2SRC49PCEEK9H","","null","<img src=""img/flower3.png"" style=""width:200px;border:14px solid red;"">","null","","","","","","","","",""
"","image-keyboard-response","40","60816","0.0-40.0","3NAPMVF0ZX1WSCK9Y1T5NVSD85627Q","ARN8MH7YKZKAZ","3I7KR83SNAZT1REYB2SRC49PCEEK9H","","408.30000019073486","img/flower3.png","76","409.60000014305115","3","1","1","1","1,0.333,0.333,0.333,1,0.333,0.333,0.333,1","1,0.333,0.333,0.333,1,0.333,0.333,0.333,1","1",""
"","html-keyboard-response","41","61118","0.0-41.0","3NAPMVF0ZX1WSCK9Y1T5NVSD85627Q","ARN8MH7YKZKAZ","3I7KR83SNAZT1REYB2SRC49PCEEK9H","","null","<img src=""img/flower3.png"" style=""width:200px; border:14px solid green;"">","null","","","","","","","","",""
"","image-keyboard-response","42","61800","0.0-42.0","3NAPMVF0ZX1WSCK9Y1T5NVSD85627Q","ARN8MH7YKZKAZ","3I7KR83SNAZT1REYB2SRC49PCEEK9H","","680.7999999523163","img/flower2.png","75","682","2","0","3","1","1,0.333,0.333,0.333,1,0.333,0.333,0.333,1","1,0.333,0.333,0.333,1,0.333,0.333,0.333,1","1",""
"","html-keyboard-response","43","62102","0.0-43.0","3NAPMVF0ZX1WSCK9Y1T5NVSD85627Q","ARN8MH7YKZKAZ","3I7KR83SNAZT1REYB2SRC49PCEEK9H","","null","<img src=""img/flower2.png"" style=""width:200px;border:14px solid red;"">","null","","","","","","","","",""
"","image-keyboard-response","44","62696","0.0-44.0","3NAPMVF0ZX1WSCK9Y1T5NVSD85627Q","ARN8MH7YKZKAZ","3I7KR83SNAZT1REYB2SRC49PCEEK9H","","592.7999999523163","img/flower1.png","74","594.1000001430511","1","1","2","1","1,0.333,0.333,0.333,1,0.333,0.333,0.333,1","1,0.333,0.333,0.333,1,0.333,0.333,0.333,1","1",""
"","html-keyboard-response","45","62998","0.0-45.0","3NAPMVF0ZX1WSCK9Y1T5NVSD85627Q","ARN8MH7YKZKAZ","3I7KR83SNAZT1REYB2SRC49PCEEK9H","","null","<img src=""img/flower1.png"" style=""width:200px; border:14px solid green;"">","null","","","","","","","","",""
"","image-keyboard-response","46","63640","0.0-46.0","3NAPMVF0ZX1WSCK9Y1T5NVSD85627Q","ARN8MH7YKZKAZ","3I7KR83SNAZT1REYB2SRC49PCEEK9H","","640.8000001907349","img/flower3.png","76","642.1000001430511","3","1","1","1","1,0.333,0.333,0.333,1,0.333,0.333,0.333,1","1,0.333,0.333,0.333,1,0.333,0.333,0.333,1","1",""
"","html-keyboard-response","47","63942","0.0-47.0","3NAPMVF0ZX1WSCK9Y1T5NVSD85627Q","ARN8MH7YKZKAZ","3I7KR83SNAZT1REYB2SRC49PCEEK9H","","null","<img src=""img/flower3.png"" style=""width:200px; border:14px solid green;"">","null","","","","","","","","",""
"","image-keyboard-response","48","64480","0.0-48.0","3NAPMVF0ZX1WSCK9Y1T5NVSD85627Q","ARN8MH7YKZKAZ","3I7KR83SNAZT1REYB2SRC49PCEEK9H","","536.3999998569489","img/flower3.png","76","537.7999999523163","3","1","1","1","1,0.333,0.333,0.333,1,0.333,0.333,0.333,1","1,0.333,0.333,0.333,1,0.333,0.333,0.333,1","1",""
"","html-keyboard-response","49","64782","0.0-49.0","3NAPMVF0ZX1WSCK9Y1T5NVSD85627Q","ARN8MH7YKZKAZ","3I7KR83SNAZT1REYB2SRC49PCEEK9H","","null","<img src=""img/flower3.png"" style=""width:200px; border:14px solid green;"">","null","","","","","","","","",""
"","image-keyboard-response","50","65624","0.0-50.0","3NAPMVF0ZX1WSCK9Y1T5NVSD85627Q","ARN8MH7YKZKAZ","3I7KR83SNAZT1REYB2SRC49PCEEK9H","","841","img/flower1.png","74","842.2999999523163","1","0","2","1","1,0.333,0.333,0.333,1,0.333,0.333,0.333,1","1,0.333,0.333,0.333,1,0.333,0.333,0.333,1","1",""
"","html-keyboard-response","51","65926","0.0-51.0","3NAPMVF0ZX1WSCK9Y1T5NVSD85627Q","ARN8MH7YKZKAZ","3I7KR83SNAZT1REYB2SRC49PCEEK9H","","null","<img src=""img/flower1.png"" style=""width:200px;border:14px solid red;"">","null","","","","","","","","",""
"","image-keyboard-response","52","66552","0.0-52.0","3NAPMVF0ZX1WSCK9Y1T5NVSD85627Q","ARN8MH7YKZKAZ","3I7KR83SNAZT1REYB2SRC49PCEEK9H","","624.3000001907349","img/flower2.png","75","625.5999999046326","2","0","3","1","1,0.333,0.333,0.333,1,0.333,0.333,0.333,1","1,0.333,0.333,0.333,1,0.333,0.333,0.333,1","1",""
"","html-keyboard-response","53","66854","0.0-53.0","3NAPMVF0ZX1WSCK9Y1T5NVSD85627Q","ARN8MH7YKZKAZ","3I7KR83SNAZT1REYB2SRC49PCEEK9H","","null","<img src=""img/flower2.png"" style=""width:200px;border:14px solid red;"">","null","","","","","","","","",""
"","image-keyboard-response","54","68096","0.0-54.0","3NAPMVF0ZX1WSCK9Y1T5NVSD85627Q","ARN8MH7YKZKAZ","3I7KR83SNAZT1REYB2SRC49PCEEK9H","","1240.0999999046326","img/flower3.png","74","1241.3999998569489","1","1","1","1","1,0.333,0.333,0.333,1,0.333,0.333,0.333,1","1,0.333,0.333,0.333,1,0.333,0.333,0.333,1","1",""
"","html-keyboard-response","55","68398","0.0-55.0","3NAPMVF0ZX1WSCK9Y1T5NVSD85627Q","ARN8MH7YKZKAZ","3I7KR83SNAZT1REYB2SRC49PCEEK9H","","null","<img src=""img/flower3.png"" style=""width:200px; border:14px solid green;"">","null","","","","","","","","",""
"","image-keyboard-response","56","69144","0.0-56.0","3NAPMVF0ZX1WSCK9Y1T5NVSD85627Q","ARN8MH7YKZKAZ","3I7KR83SNAZT1REYB2SRC49PCEEK9H","","745.2999999523163","img/flower2.png","75","746.6999998092651","2","0","3","1","1,0.333,0.333,0.333,1,0.333,0.333,0.333,1","1,0.333,0.333,0.333,1,0.333,0.333,0.333,1","1",""
"","html-keyboard-response","57","69446","0.0-57.0","3NAPMVF0ZX1WSCK9Y1T5NVSD85627Q","ARN8MH7YKZKAZ","3I7KR83SNAZT1REYB2SRC49PCEEK9H","","null","<img src=""img/flower2.png"" style=""width:200px;border:14px solid red;"">","null","","","","","","","","",""
"","image-keyboard-response","58","70424","0.0-58.0","3NAPMVF0ZX1WSCK9Y1T5NVSD85627Q","ARN8MH7YKZKAZ","3I7KR83SNAZT1REYB2SRC49PCEEK9H","","976.1000001430511","img/flower3.png","76","977.3999998569489","3","0","1","1","1,0.333,0.333,0.333,1,0.333,0.333,0.333,1","1,0.333,0.333,0.333,1,0.333,0.333,0.333,1","1",""
"","html-keyboard-response","59","70726","0.0-59.0","3NAPMVF0ZX1WSCK9Y1T5NVSD85627Q","ARN8MH7YKZKAZ","3I7KR83SNAZT1REYB2SRC49PCEEK9H","","null","<img src=""img/flower3.png"" style=""width:200px;border:14px solid red;"">","null","","","","","","","","",""
"","image-keyboard-response","60","71376","0.0-60.0","3NAPMVF0ZX1WSCK9Y1T5NVSD85627Q","ARN8MH7YKZKAZ","3I7KR83SNAZT1REYB2SRC49PCEEK9H","","648.7000000476837","img/flower1.png","74","649.5","1","0","2","1","1,0.333,0.333,0.333,1,0.333,0.333,0.333,1","1,0.333,0.333,0.333,1,0.333,0.333,0.333,1","1",""
"","html-keyboard-response","61","71688","0.0-61.0","3NAPMVF0ZX1WSCK9Y1T5NVSD85627Q","ARN8MH7YKZKAZ","3I7KR83SNAZT1REYB2SRC49PCEEK9H","","null","<img src=""img/flower1.png"" style=""width:200px;border:14px solid red;"">","null","","","","","","","","",""
"","image-keyboard-response","62","72272","0.0-62.0","3NAPMVF0ZX1WSCK9Y1T5NVSD85627Q","ARN8MH7YKZKAZ","3I7KR83SNAZT1REYB2SRC49PCEEK9H","","581.4000000953674","img/flower3.png","76","582.7000000476837","3","0","1","1","1,0.333,0.333,0.333,1,0.333,0.333,0.333,1","1,0.333,0.333,0.333,1,0.333,0.333,0.333,1","1",""
"","html-keyboard-response","63","72575","0.0-63.0","3NAPMVF0ZX1WSCK9Y1T5NVSD85627Q","ARN8MH7YKZKAZ","3I7KR83SNAZT1REYB2SRC49PCEEK9H","","null","<img src=""img/flower3.png"" style=""width:200px;border:14px solid red;"">","null","","","","","","","","",""
"","image-keyboard-response","64","73528","0.0-64.0","3NAPMVF0ZX1WSCK9Y1T5NVSD85627Q","ARN8MH7YKZKAZ","3I7KR83SNAZT1REYB2SRC49PCEEK9H","","951.7999999523163","img/flower1.png","74","953.1000001430511","1","0","2","1","1,0.333,0.333,0.333,1,0.333,0.333,0.333,1","1,0.333,0.333,0.333,1,0.333,0.333,0.333,1","1",""
"","html-keyboard-response","65","73830","0.0-65.0","3NAPMVF0ZX1WSCK9Y1T5NVSD85627Q","ARN8MH7YKZKAZ","3I7KR83SNAZT1REYB2SRC49PCEEK9H","","null","<img src=""img/flower1.png"" style=""width:200px;border:14px solid red;"">","null","","","","","","","","",""
"","image-keyboard-response","66","74368","0.0-66.0","3NAPMVF0ZX1WSCK9Y1T5NVSD85627Q","ARN8MH7YKZKAZ","3I7KR83SNAZT1REYB2SRC49PCEEK9H","","536.5999999046326","img/flower1.png","74","537.9000000953674","1","0","2","1","1,0.333,0.333,0.333,1,0.333,0.333,0.333,1","1,0.333,0.333,0.333,1,0.333,0.333,0.333,1","1",""
"","html-keyboard-response","67","74669","0.0-67.0","3NAPMVF0ZX1WSCK9Y1T5NVSD85627Q","ARN8MH7YKZKAZ","3I7KR83SNAZT1REYB2SRC49PCEEK9H","","null","<img src=""img/flower1.png"" style=""width:200px;border:14px solid red;"">","null","","","","","","","","",""
"","image-keyboard-response","68","75120","0.0-68.0","3NAPMVF0ZX1WSCK9Y1T5NVSD85627Q","ARN8MH7YKZKAZ","3I7KR83SNAZT1REYB2SRC49PCEEK9H","","449.09999990463257","img/flower1.png","74","450.40000009536743","1","1","2","1","1,0.333,0.333,0.333,1,0.333,0.333,0.333,1","1,0.333,0.333,0.333,1,0.333,0.333,0.333,1","1",""
"","html-keyboard-response","69","75432","0.0-69.0","3NAPMVF0ZX1WSCK9Y1T5NVSD85627Q","ARN8MH7YKZKAZ","3I7KR83SNAZT1REYB2SRC49PCEEK9H","","null","<img src=""img/flower1.png"" style=""width:200px; border:14px solid green;"">","null","","","","","","","","",""
"","image-keyboard-response","70","76096","0.0-70.0","3NAPMVF0ZX1WSCK9Y1T5NVSD85627Q","ARN8MH7YKZKAZ","3I7KR83SNAZT1REYB2SRC49PCEEK9H","","662.6999998092651","img/flower2.png","75","664.1000001430511","2","0","3","1","1,0.333,0.333,0.333,1,0.333,0.333,0.333,1","1,0.333,0.333,0.333,1,0.333,0.333,0.333,1","1",""
"","html-keyboard-response","71","76397","0.0-71.0","3NAPMVF0ZX1WSCK9Y1T5NVSD85627Q","ARN8MH7YKZKAZ","3I7KR83SNAZT1REYB2SRC49PCEEK9H","","null","<img src=""img/flower2.png"" style=""width:200px;border:14px solid red;"">","null","","","","","","","","",""
"","image-keyboard-response","72","76760","0.0-72.0","3NAPMVF0ZX1WSCK9Y1T5NVSD85627Q","ARN8MH7YKZKAZ","3I7KR83SNAZT1REYB2SRC49PCEEK9H","","360.7999999523163","img/flower2.png","75","362.19999980926514","2","0","3","1","1,0.333,0.333,0.333,1,0.333,0.333,0.333,1","1,0.333,0.333,0.333,1,0.333,0.333,0.333,1","1",""
"","html-keyboard-response","73","77062","0.0-73.0","3NAPMVF0ZX1WSCK9Y1T5NVSD85627Q","ARN8MH7YKZKAZ","3I7KR83SNAZT1REYB2SRC49PCEEK9H","","null","<img src=""img/flower2.png"" style=""width:200px;border:14px solid red;"">","null","","","","","","","","",""
"","image-keyboard-response","74","77848","0.0-74.0","3NAPMVF0ZX1WSCK9Y1T5NVSD85627Q","ARN8MH7YKZKAZ","3I7KR83SNAZT1REYB2SRC49PCEEK9H","","784.7000000476837","img/flower3.png","76","786.1000001430511","3","0","1","1","1,0.333,0.333,0.333,1,0.333,0.333,0.333,1","1,0.333,0.333,0.333,1,0.333,0.333,0.333,1","1",""
"","html-keyboard-response","75","78150","0.0-75.0","3NAPMVF0ZX1WSCK9Y1T5NVSD85627Q","ARN8MH7YKZKAZ","3I7KR83SNAZT1REYB2SRC49PCEEK9H","","null","<img src=""img/flower3.png"" style=""width:200px;border:14px solid red;"">","null","","","","","","","","",""
"","image-keyboard-response","76","78536","0.0-76.0","3NAPMVF0ZX1WSCK9Y1T5NVSD85627Q","ARN8MH7YKZKAZ","3I7KR83SNAZT1REYB2SRC49PCEEK9H","","384.7999999523163","img/flower3.png","76","386.10000014305115","3","1","1","1","1,0.333,0.333,0.333,1,0.333,0.333,0.333,1","1,0.333,0.333,0.333,1,0.333,0.333,0.333,1","1",""
"","html-keyboard-response","77","78838","0.0-77.0","3NAPMVF0ZX1WSCK9Y1T5NVSD85627Q","ARN8MH7YKZKAZ","3I7KR83SNAZT1REYB2SRC49PCEEK9H","","null","<img src=""img/flower3.png"" style=""width:200px; border:14px solid green;"">","null","","","","","","","","",""
"","image-keyboard-response","78","79824","0.0-78.0","3NAPMVF0ZX1WSCK9Y1T5NVSD85627Q","ARN8MH7YKZKAZ","3I7KR83SNAZT1REYB2SRC49PCEEK9H","","985.2999999523163","img/flower2.png","74","986.5999999046326","1","0","3","1","1,0.333,0.333,0.333,1,0.333,0.333,0.333,1","1,0.333,0.333,0.333,1,0.333,0.333,0.333,1","1",""
"","html-keyboard-response","79","80126","0.0-79.0","3NAPMVF0ZX1WSCK9Y1T5NVSD85627Q","ARN8MH7YKZKAZ","3I7KR83SNAZT1REYB2SRC49PCEEK9H","","null","<img src=""img/flower2.png"" style=""width:200px;border:14px solid red;"">","null","","","","","","","","",""
"","image-keyboard-response","80","81576","0.0-80.0","3NAPMVF0ZX1WSCK9Y1T5NVSD85627Q","ARN8MH7YKZKAZ","3I7KR83SNAZT1REYB2SRC49PCEEK9H","","1448.2999999523163","img/flower1.png","74","1449.6999998092651","1","0","2","1","1,0.333,0.333,0.333,1,0.333,0.333,0.333,1","1,0.333,0.333,0.333,1,0.333,0.333,0.333,1","1",""
"","html-keyboard-response","81","81878","0.0-81.0","3NAPMVF0ZX1WSCK9Y1T5NVSD85627Q","ARN8MH7YKZKAZ","3I7KR83SNAZT1REYB2SRC49PCEEK9H","","null","<img src=""img/flower1.png"" style=""width:200px;border:14px solid red;"">","null","","","","","","","","",""
"","image-keyboard-response","82","82160","0.0-82.0","3NAPMVF0ZX1WSCK9Y1T5NVSD85627Q","ARN8MH7YKZKAZ","3I7KR83SNAZT1REYB2SRC49PCEEK9H","","280.5","img/flower1.png","74","281.89999985694885","1","0","2","1","1,0.333,0.333,0.333,1,0.333,0.333,0.333,1","1,0.333,0.333,0.333,1,0.333,0.333,0.333,1","1",""
"","html-keyboard-response","83","82461","0.0-83.0","3NAPMVF0ZX1WSCK9Y1T5NVSD85627Q","ARN8MH7YKZKAZ","3I7KR83SNAZT1REYB2SRC49PCEEK9H","","null","<img src=""img/flower1.png"" style=""width:200px;border:14px solid red;"">","null","","","","","","","","",""
"","image-keyboard-response","84","83240","0.0-84.0","3NAPMVF0ZX1WSCK9Y1T5NVSD85627Q","ARN8MH7YKZKAZ","3I7KR83SNAZT1REYB2SRC49PCEEK9H","","777","img/flower3.png","76","778.2000000476837","3","0","1","1","1,0.333,0.333,0.333,1,0.333,0.333,0.333,1","1,0.333,0.333,0.333,1,0.333,0.333,0.333,1","1",""
"","html-keyboard-response","85","83541","0.0-85.0","3NAPMVF0ZX1WSCK9Y1T5NVSD85627Q","ARN8MH7YKZKAZ","3I7KR83SNAZT1REYB2SRC49PCEEK9H","","null","<img src=""img/flower3.png"" style=""width:200px;border:14px solid red;"">","null","","","","","","","","",""
"","image-keyboard-response","86","83904","0.0-86.0","3NAPMVF0ZX1WSCK9Y1T5NVSD85627Q","ARN8MH7YKZKAZ","3I7KR83SNAZT1REYB2SRC49PCEEK9H","","360.7999999523163","img/flower3.png","76","362.2000000476837","3","1","1","1","1,0.333,0.333,0.333,1,0.333,0.333,0.333,1","1,0.333,0.333,0.333,1,0.333,0.333,0.333,1","1",""
"","html-keyboard-response","87","84206","0.0-87.0","3NAPMVF0ZX1WSCK9Y1T5NVSD85627Q","ARN8MH7YKZKAZ","3I7KR83SNAZT1REYB2SRC49PCEEK9H","","null","<img src=""img/flower3.png"" style=""width:200px; border:14px solid green;"">","null","","","","","","","","",""
"","image-keyboard-response","88","84640","0.0-88.0","3NAPMVF0ZX1WSCK9Y1T5NVSD85627Q","ARN8MH7YKZKAZ","3I7KR83SNAZT1REYB2SRC49PCEEK9H","","432.5","img/flower3.png","76","433.7999999523163","3","0","1","1","1,0.333,0.333,0.333,1,0.333,0.333,0.333,1","1,0.333,0.333,0.333,1,0.333,0.333,0.333,1","1",""
"","html-keyboard-response","89","84942","0.0-89.0","3NAPMVF0ZX1WSCK9Y1T5NVSD85627Q","ARN8MH7YKZKAZ","3I7KR83SNAZT1REYB2SRC49PCEEK9H","","null","<img src=""img/flower3.png"" style=""width:200px;border:14px solid red;"">","null","","","","","","","","",""
"","image-keyboard-response","90","85824","0.0-90.0","3NAPMVF0ZX1WSCK9Y1T5NVSD85627Q","ARN8MH7YKZKAZ","3I7KR83SNAZT1REYB2SRC49PCEEK9H","","880.6999998092651","img/flower2.png","75","882","2","1","3","1","1,0.333,0.333,0.333,1,0.333,0.333,0.333,1","1,0.333,0.333,0.333,1,0.333,0.333,0.333,1","1",""
"","html-keyboard-response","91","86127","0.0-91.0","3NAPMVF0ZX1WSCK9Y1T5NVSD85627Q","ARN8MH7YKZKAZ","3I7KR83SNAZT1REYB2SRC49PCEEK9H","","null","<img src=""img/flower2.png"" style=""width:200px; border:14px solid green;"">","null","","","","","","","","",""
"","image-keyboard-response","92","87544","0.0-92.0","3NAPMVF0ZX1WSCK9Y1T5NVSD85627Q","ARN8MH7YKZKAZ","3I7KR83SNAZT1REYB2SRC49PCEEK9H","","1415.3999998569489","img/flower3.png","76","1416.7999999523163","3","0","1","1","1,0.333,0.333,0.333,1,0.333,0.333,0.333,1","1,0.333,0.333,0.333,1,0.333,0.333,0.333,1","1",""
"","html-keyboard-response","93","87851","0.0-93.0","3NAPMVF0ZX1WSCK9Y1T5NVSD85627Q","ARN8MH7YKZKAZ","3I7KR83SNAZT1REYB2SRC49PCEEK9H","","null","<img src=""img/flower3.png"" style=""width:200px;border:14px solid red;"">","null","","","","","","","","",""
"","image-keyboard-response","94","88632","0.0-94.0","3NAPMVF0ZX1WSCK9Y1T5NVSD85627Q","ARN8MH7YKZKAZ","3I7KR83SNAZT1REYB2SRC49PCEEK9H","","779.4000000953674","img/flower2.png","75","780.5999999046326","2","0","3","1","1,0.333,0.333,0.333,1,0.333,0.333,0.333,1","1,0.333,0.333,0.333,1,0.333,0.333,0.333,1","1",""
"","html-keyboard-response","95","88934","0.0-95.0","3NAPMVF0ZX1WSCK9Y1T5NVSD85627Q","ARN8MH7YKZKAZ","3I7KR83SNAZT1REYB2SRC49PCEEK9H","","null","<img src=""img/flower2.png"" style=""width:200px;border:14px solid red;"">","null","","","","","","","","",""
"","image-keyboard-response","96","89200","0.0-96.0","3NAPMVF0ZX1WSCK9Y1T5NVSD85627Q","ARN8MH7YKZKAZ","3I7KR83SNAZT1REYB2SRC49PCEEK9H","","263.89999985694885","img/flower1.png","75","265.39999985694885","2","1","2","1","1,0.333,0.333,0.333,1,0.333,0.333,0.333,1","1,0.333,0.333,0.333,1,0.333,0.333,0.333,1","1",""
"","html-keyboard-response","97","89501","0.0-97.0","3NAPMVF0ZX1WSCK9Y1T5NVSD85627Q","ARN8MH7YKZKAZ","3I7KR83SNAZT1REYB2SRC49PCEEK9H","","null","<img src=""img/flower1.png"" style=""width:200px; border:14px solid green;"">","null","","","","","","","","",""
"","image-keyboard-response","98","90464","0.0-98.0","3NAPMVF0ZX1WSCK9Y1T5NVSD85627Q","ARN8MH7YKZKAZ","3I7KR83SNAZT1REYB2SRC49PCEEK9H","","961.0999999046326","img/flower3.png","74","962.4000000953674","1","1","1","1","1,0.333,0.333,0.333,1,0.333,0.333,0.333,1","1,0.333,0.333,0.333,1,0.333,0.333,0.333,1","1",""
"","html-keyboard-response","99","90766","0.0-99.0","3NAPMVF0ZX1WSCK9Y1T5NVSD85627Q","ARN8MH7YKZKAZ","3I7KR83SNAZT1REYB2SRC49PCEEK9H","","null","<img src=""img/flower3.png"" style=""width:200px; border:14px solid green;"">","null","","","","","","","","",""
"","image-keyboard-response","100","91416","0.0-100.0","3NAPMVF0ZX1WSCK9Y1T5NVSD85627Q","ARN8MH7YKZKAZ","3I7KR83SNAZT1REYB2SRC49PCEEK9H","","648.3999998569489","img/flower3.png","74","649.6999998092651","1","1","1","1","1,0.333,0.333,0.333,1,0.333,0.333,0.333,1","1,0.333,0.333,0.333,1,0.333,0.333,0.333,1","1",""
"","html-keyboard-response","101","91718","0.0-101.0","3NAPMVF0ZX1WSCK9Y1T5NVSD85627Q","ARN8MH7YKZKAZ","3I7KR83SNAZT1REYB2SRC49PCEEK9H","","null","<img src=""img/flower3.png"" style=""width:200px; border:14px solid green;"">","null","","","","","","","","",""
"","image-keyboard-response","102","92832","0.0-102.0","3NAPMVF0ZX1WSCK9Y1T5NVSD85627Q","ARN8MH7YKZKAZ","3I7KR83SNAZT1REYB2SRC49PCEEK9H","","1112.7999999523163","img/flower2.png","75","1114.0999999046326","2","1","3","1","1,0.333,0.333,0.333,1,0.333,0.333,0.333,1","1,0.333,0.333,0.333,1,0.333,0.333,0.333,1","1",""
"","html-keyboard-response","103","93134","0.0-103.0","3NAPMVF0ZX1WSCK9Y1T5NVSD85627Q","ARN8MH7YKZKAZ","3I7KR83SNAZT1REYB2SRC49PCEEK9H","","null","<img src=""img/flower2.png"" style=""width:200px; border:14px solid green;"">","null","","","","","","","","",""
"","image-keyboard-response","104","93448","0.0-104.0","3NAPMVF0ZX1WSCK9Y1T5NVSD85627Q","ARN8MH7YKZKAZ","3I7KR83SNAZT1REYB2SRC49PCEEK9H","","312.59999990463257","img/flower2.png","75","314","2","0","3","1","1,0.333,0.333,0.333,1,0.333,0.333,0.333,1","1,0.333,0.333,0.333,1,0.333,0.333,0.333,1","1",""
"","html-keyboard-response","105","93750","0.0-105.0","3NAPMVF0ZX1WSCK9Y1T5NVSD85627Q","ARN8MH7YKZKAZ","3I7KR83SNAZT1REYB2SRC49PCEEK9H","","null","<img src=""img/flower2.png"" style=""width:200px;border:14px solid red;"">","null","","","","","","","","",""
"","image-keyboard-response","106","94337","0.0-106.0","3NAPMVF0ZX1WSCK9Y1T5NVSD85627Q","ARN8MH7YKZKAZ","3I7KR83SNAZT1REYB2SRC49PCEEK9H","","584.5999999046326","img/flower2.png","76","587.4000000953674","3","1","3","1","1,0.333,0.333,0.333,1,0.333,0.333,0.333,1","1,0.333,0.333,0.333,1,0.333,0.333,0.333,1","1",""
"","html-keyboard-response","107","94639","0.0-107.0","3NAPMVF0ZX1WSCK9Y1T5NVSD85627Q","ARN8MH7YKZKAZ","3I7KR83SNAZT1REYB2SRC49PCEEK9H","","null","<img src=""img/flower2.png"" style=""width:200px; border:14px solid green;"">","null","","","","","","","","",""
"","image-keyboard-response","108","94952","0.0-108.0","3NAPMVF0ZX1WSCK9Y1T5NVSD85627Q","ARN8MH7YKZKAZ","3I7KR83SNAZT1REYB2SRC49PCEEK9H","","311.7000000476837","img/flower1.png","76","313","3","0","2","1","1,0.333,0.333,0.333,1,0.333,0.333,0.333,1","1,0.333,0.333,0.333,1,0.333,0.333,0.333,1","1",""
"","html-keyboard-response","109","95253","0.0-109.0","3NAPMVF0ZX1WSCK9Y1T5NVSD85627Q","ARN8MH7YKZKAZ","3I7KR83SNAZT1REYB2SRC49PCEEK9H","","null","<img src=""img/flower1.png"" style=""width:200px;border:14px solid red;"">","null","","","","","","","","",""
"","image-keyboard-response","110","95688","0.0-110.0","3NAPMVF0ZX1WSCK9Y1T5NVSD85627Q","ARN8MH7YKZKAZ","3I7KR83SNAZT1REYB2SRC49PCEEK9H","","432.7000000476837","img/flower1.png","74","434","1","0","2","1","1,0.333,0.333,0.333,1,0.333,0.333,0.333,1","1,0.333,0.333,0.333,1,0.333,0.333,0.333,1","1",""
"","html-keyboard-response","111","95990","0.0-111.0","3NAPMVF0ZX1WSCK9Y1T5NVSD85627Q","ARN8MH7YKZKAZ","3I7KR83SNAZT1REYB2SRC49PCEEK9H","","null","<img src=""img/flower1.png"" style=""width:200px;border:14px solid red;"">","null","","","","","","","","",""
"","image-keyboard-response","112","96984","0.0-112.0","3NAPMVF0ZX1WSCK9Y1T5NVSD85627Q","ARN8MH7YKZKAZ","3I7KR83SNAZT1REYB2SRC49PCEEK9H","","992.5999999046326","img/flower2.png","76","993.8000001907349","3","1","3","1","1,0.333,0.333,0.333,1,0.333,0.333,0.333,1","1,0.333,0.333,0.333,1,0.333,0.333,0.333,1","1",""
"","html-keyboard-response","113","97287","0.0-113.0","3NAPMVF0ZX1WSCK9Y1T5NVSD85627Q","ARN8MH7YKZKAZ","3I7KR83SNAZT1REYB2SRC49PCEEK9H","","null","<img src=""img/flower2.png"" style=""width:200px; border:14px solid green;"">","null","","","","","","","","",""
"","image-keyboard-response","114","98160","0.0-114.0","3NAPMVF0ZX1WSCK9Y1T5NVSD85627Q","ARN8MH7YKZKAZ","3I7KR83SNAZT1REYB2SRC49PCEEK9H","","871.4000000953674","img/flower3.png","75","872.3999998569489","2","0","1","1","1,0.333,0.333,0.333,1,0.333,0.333,0.333,1","1,0.333,0.333,0.333,1,0.333,0.333,0.333,1","1",""
"","html-keyboard-response","115","98461","0.0-115.0","3NAPMVF0ZX1WSCK9Y1T5NVSD85627Q","ARN8MH7YKZKAZ","3I7KR83SNAZT1REYB2SRC49PCEEK9H","","null","<img src=""img/flower3.png"" style=""width:200px;border:14px solid red;"">","null","","","","","","","","",""
"","image-keyboard-response","116","98824","0.0-116.0","3NAPMVF0ZX1WSCK9Y1T5NVSD85627Q","ARN8MH7YKZKAZ","3I7KR83SNAZT1REYB2SRC49PCEEK9H","","361.09999990463257","img/flower1.png","75","362.2000000476837","2","1","2","1","1,0.333,0.333,0.333,1,0.333,0.333,0.333,1","1,0.333,0.333,0.333,1,0.333,0.333,0.333,1","1",""
"","html-keyboard-response","117","99126","0.0-117.0","3NAPMVF0ZX1WSCK9Y1T5NVSD85627Q","ARN8MH7YKZKAZ","3I7KR83SNAZT1REYB2SRC49PCEEK9H","","null","<img src=""img/flower1.png"" style=""width:200px; border:14px solid green;"">","null","","","","","","","","",""
"","image-keyboard-response","118","99888","0.0-118.0","3NAPMVF0ZX1WSCK9Y1T5NVSD85627Q","ARN8MH7YKZKAZ","3I7KR83SNAZT1REYB2SRC49PCEEK9H","","760.2999999523163","img/flower3.png","75","761.6000001430511","2","0","1","1","1,0.333,0.333,0.333,1,0.333,0.333,0.333,1","1,0.333,0.333,0.333,1,0.333,0.333,0.333,1","1",""
"","html-keyboard-response","119","100189","0.0-119.0","3NAPMVF0ZX1WSCK9Y1T5NVSD85627Q","ARN8MH7YKZKAZ","3I7KR83SNAZT1REYB2SRC49PCEEK9H","","null","<img src=""img/flower3.png"" style=""width:200px;border:14px solid red;"">","null","","","","","","","","",""
"","image-keyboard-response","120","100784","0.0-120.0","3NAPMVF0ZX1WSCK9Y1T5NVSD85627Q","ARN8MH7YKZKAZ","3I7KR83SNAZT1REYB2SRC49PCEEK9H","","593.2999999523163","img/flower3.png","74","594.5","1","1","1","1","1,0.333,0.333,0.333,1,0.333,0.333,0.333,1","1,0.333,0.333,0.333,1,0.333,0.333,0.333,1","1",""
"","html-keyboard-response","121","101086","0.0-121.0","3NAPMVF0ZX1WSCK9Y1T5NVSD85627Q","ARN8MH7YKZKAZ","3I7KR83SNAZT1REYB2SRC49PCEEK9H","","null","<img src=""img/flower3.png"" style=""width:200px; border:14px solid green;"">","null","","","","","","","","",""
"","image-keyboard-response","122","101944","0.0-122.0","3NAPMVF0ZX1WSCK9Y1T5NVSD85627Q","ARN8MH7YKZKAZ","3I7KR83SNAZT1REYB2SRC49PCEEK9H","","856.5","img/flower3.png","74","857.7999999523163","1","1","1","1","1,0.333,0.333,0.333,1,0.333,0.333,0.333,1","1,0.333,0.333,0.333,1,0.333,0.333,0.333,1","1",""
"","html-keyboard-response","123","102248","0.0-123.0","3NAPMVF0ZX1WSCK9Y1T5NVSD85627Q","ARN8MH7YKZKAZ","3I7KR83SNAZT1REYB2SRC49PCEEK9H","","null","<img src=""img/flower3.png"" style=""width:200px; border:14px solid green;"">","null","","","","","","","","",""
"","image-keyboard-response","124","103592","0.0-124.0","3NAPMVF0ZX1WSCK9Y1T5NVSD85627Q","ARN8MH7YKZKAZ","3I7KR83SNAZT1REYB2SRC49PCEEK9H","","1342.3000001907349","img/flower2.png","75","1343.2000000476837","2","1","3","1","1,0.333,0.333,0.333,1,0.333,0.333,0.333,1","1,0.333,0.333,0.333,1,0.333,0.333,0.333,1","1",""
"","html-keyboard-response","125","103893","0.0-125.0","3NAPMVF0ZX1WSCK9Y1T5NVSD85627Q","ARN8MH7YKZKAZ","3I7KR83SNAZT1REYB2SRC49PCEEK9H","","null","<img src=""img/flower2.png"" style=""width:200px; border:14px solid green;"">","null","","","","","","","","",""
"","image-keyboard-response","126","104528","0.0-126.0","3NAPMVF0ZX1WSCK9Y1T5NVSD85627Q","ARN8MH7YKZKAZ","3I7KR83SNAZT1REYB2SRC49PCEEK9H","","632.7999999523163","img/flower1.png","74","633.8999998569489","1","0","2","1","1,0.333,0.333,0.333,1,0.333,0.333,0.333,1","1,0.333,0.333,0.333,1,0.333,0.333,0.333,1","1",""
"","html-keyboard-response","127","104830","0.0-127.0","3NAPMVF0ZX1WSCK9Y1T5NVSD85627Q","ARN8MH7YKZKAZ","3I7KR83SNAZT1REYB2SRC49PCEEK9H","","null","<img src=""img/flower1.png"" style=""width:200px;border:14px solid red;"">","null","","","","","","","","",""
"","image-keyboard-response","128","105112","0.0-128.0","3NAPMVF0ZX1WSCK9Y1T5NVSD85627Q","ARN8MH7YKZKAZ","3I7KR83SNAZT1REYB2SRC49PCEEK9H","","280.30000019073486","img/flower1.png","76","281.59999990463257","3","1","2","1","1,0.333,0.333,0.333,1,0.333,0.333,0.333,1","1,0.333,0.333,0.333,1,0.333,0.333,0.333,1","1",""
"","html-keyboard-response","129","105414","0.0-129.0","3NAPMVF0ZX1WSCK9Y1T5NVSD85627Q","ARN8MH7YKZKAZ","3I7KR83SNAZT1REYB2SRC49PCEEK9H","","null","<img src=""img/flower1.png"" style=""width:200px; border:14px solid green;"">","null","","","","","","","","",""
"","image-keyboard-response","130","105632","0.0-130.0","3NAPMVF0ZX1WSCK9Y1T5NVSD85627Q","ARN8MH7YKZKAZ","3I7KR83SNAZT1REYB2SRC49PCEEK9H","","216.40000009536743","img/flower2.png","76","217.59999990463257","3","1","3","1","1,0.333,0.333,0.333,1,0.333,0.333,0.333,1","1,0.333,0.333,0.333,1,0.333,0.333,0.333,1","1",""
"","html-keyboard-response","131","105934","0.0-131.0","3NAPMVF0ZX1WSCK9Y1T5NVSD85627Q","ARN8MH7YKZKAZ","3I7KR83SNAZT1REYB2SRC49PCEEK9H","","null","<img src=""img/flower2.png"" style=""width:200px; border:14px solid green;"">","null","","","","","","","","",""
"","image-keyboard-response","132","106392","0.0-132.0","3NAPMVF0ZX1WSCK9Y1T5NVSD85627Q","ARN8MH7YKZKAZ","3I7KR83SNAZT1REYB2SRC49PCEEK9H","","455.80000019073486","img/flower2.png","75","457.09999990463257","2","1","3","1","1,0.333,0.333,0.333,1,0.333,0.333,0.333,1","1,0.333,0.333,0.333,1,0.333,0.333,0.333,1","1",""
"","html-keyboard-response","133","106708","0.0-133.0","3NAPMVF0ZX1WSCK9Y1T5NVSD85627Q","ARN8MH7YKZKAZ","3I7KR83SNAZT1REYB2SRC49PCEEK9H","","null","<img src=""img/flower2.png"" style=""width:200px; border:14px solid green;"">","null","","","","","","","","",""
"","image-keyboard-response","134","107615","0.0-134.0","3NAPMVF0ZX1WSCK9Y1T5NVSD85627Q","ARN8MH7YKZKAZ","3I7KR83SNAZT1REYB2SRC49PCEEK9H","","905.7999999523163","img/flower3.png","74","906.7000000476837","1","1","1","1","1,0.333,0.333,0.333,1,0.333,0.333,0.333,1","1,0.333,0.333,0.333,1,0.333,0.333,0.333,1","1",""
"","html-keyboard-response","135","107917","0.0-135.0","3NAPMVF0ZX1WSCK9Y1T5NVSD85627Q","ARN8MH7YKZKAZ","3I7KR83SNAZT1REYB2SRC49PCEEK9H","","null","<img src=""img/flower3.png"" style=""width:200px; border:14px solid green;"">","null","","","","","","","","",""
"","image-keyboard-response","136","108328","0.0-136.0","3NAPMVF0ZX1WSCK9Y1T5NVSD85627Q","ARN8MH7YKZKAZ","3I7KR83SNAZT1REYB2SRC49PCEEK9H","","409.2000000476837","img/flower3.png","74","410.5","1","1","1","1","1,0.333,0.333,0.333,1,0.333,0.333,0.333,1","1,0.333,0.333,0.333,1,0.333,0.333,0.333,1","1",""
"","html-keyboard-response","137","108630","0.0-137.0","3NAPMVF0ZX1WSCK9Y1T5NVSD85627Q","ARN8MH7YKZKAZ","3I7KR83SNAZT1REYB2SRC49PCEEK9H","","null","<img src=""img/flower3.png"" style=""width:200px; border:14px solid green;"">","null","","","","","","","","",""
"","image-keyboard-response","138","109512","0.0-138.0","3NAPMVF0ZX1WSCK9Y1T5NVSD85627Q","ARN8MH7YKZKAZ","3I7KR83SNAZT1REYB2SRC49PCEEK9H","","880.0999999046326","img/flower1.png","76","881.5","3","0","2","1","1,0.333,0.333,0.333,1,0.333,0.333,0.333,1","1,0.333,0.333,0.333,1,0.333,0.333,0.333,1","1",""
"","html-keyboard-response","139","109813","0.0-139.0","3NAPMVF0ZX1WSCK9Y1T5NVSD85627Q","ARN8MH7YKZKAZ","3I7KR83SNAZT1REYB2SRC49PCEEK9H","","null","<img src=""img/flower1.png"" style=""width:200px;border:14px solid red;"">","null","","","","","","","","",""
"","image-keyboard-response","140","110440","0.0-140.0","3NAPMVF0ZX1WSCK9Y1T5NVSD85627Q","ARN8MH7YKZKAZ","3I7KR83SNAZT1REYB2SRC49PCEEK9H","","624.8999998569489","img/flower2.png","75","626.2999999523163","2","0","3","1","1,0.333,0.333,0.333,1,0.333,0.333,0.333,1","1,0.333,0.333,0.333,1,0.333,0.333,0.333,1","1",""
"","html-keyboard-response","141","110741","0.0-141.0","3NAPMVF0ZX1WSCK9Y1T5NVSD85627Q","ARN8MH7YKZKAZ","3I7KR83SNAZT1REYB2SRC49PCEEK9H","","null","<img src=""img/flower2.png"" style=""width:200px;border:14px solid red;"">","null","","","","","","","","",""
"","image-keyboard-response","142","112080","0.0-142.0","3NAPMVF0ZX1WSCK9Y1T5NVSD85627Q","ARN8MH7YKZKAZ","3I7KR83SNAZT1REYB2SRC49PCEEK9H","","1337.0999999046326","img/flower3.png","74","1338.2999999523163","1","1","1","1","1,0.333,0.333,0.333,1,0.333,0.333,0.333,1","1,0.333,0.333,0.333,1,0.333,0.333,0.333,1","1",""
"","html-keyboard-response","143","112382","0.0-143.0","3NAPMVF0ZX1WSCK9Y1T5NVSD85627Q","ARN8MH7YKZKAZ","3I7KR83SNAZT1REYB2SRC49PCEEK9H","","null","<img src=""img/flower3.png"" style=""width:200px; border:14px solid green;"">","null","","","","","","","","",""
"","image-keyboard-response","144","113040","0.0-144.0","3NAPMVF0ZX1WSCK9Y1T5NVSD85627Q","ARN8MH7YKZKAZ","3I7KR83SNAZT1REYB2SRC49PCEEK9H","","656","img/flower1.png","76","657.3000001907349","3","0","2","1","1,0.333,0.333,0.333,1,0.333,0.333,0.333,1","1,0.333,0.333,0.333,1,0.333,0.333,0.333,1","1",""
"","html-keyboard-response","145","113342","0.0-145.0","3NAPMVF0ZX1WSCK9Y1T5NVSD85627Q","ARN8MH7YKZKAZ","3I7KR83SNAZT1REYB2SRC49PCEEK9H","","null","<img src=""img/flower1.png"" style=""width:200px;border:14px solid red;"">","null","","","","","","","","",""
"","image-keyboard-response","146","113672","0.0-146.0","3NAPMVF0ZX1WSCK9Y1T5NVSD85627Q","ARN8MH7YKZKAZ","3I7KR83SNAZT1REYB2SRC49PCEEK9H","","328.5","img/flower1.png","76","329.7000000476837","3","0","2","1","1,0.333,0.333,0.333,1,0.333,0.333,0.333,1","1,0.333,0.333,0.333,1,0.333,0.333,0.333,1","1",""
"","html-keyboard-response","147","113973","0.0-147.0","3NAPMVF0ZX1WSCK9Y1T5NVSD85627Q","ARN8MH7YKZKAZ","3I7KR83SNAZT1REYB2SRC49PCEEK9H","","null","<img src=""img/flower1.png"" style=""width:200px;border:14px solid red;"">","null","","","","","","","","",""
"","image-keyboard-response","148","114664","0.0-148.0","3NAPMVF0ZX1WSCK9Y1T5NVSD85627Q","ARN8MH7YKZKAZ","3I7KR83SNAZT1REYB2SRC49PCEEK9H","","688.7000000476837","img/flower2.png","75","690.1000001430511","2","0","3","1","1,0.333,0.333,0.333,1,0.333,0.333,0.333,1","1,0.333,0.333,0.333,1,0.333,0.333,0.333,1","1",""
"","html-keyboard-response","149","114965","0.0-149.0","3NAPMVF0ZX1WSCK9Y1T5NVSD85627Q","ARN8MH7YKZKAZ","3I7KR83SNAZT1REYB2SRC49PCEEK9H","","null","<img src=""img/flower2.png"" style=""width:200px;border:14px solid red;"">","null","","","","","","","","",""
"","image-keyboard-response","150","115808","0.0-150.0","3NAPMVF0ZX1WSCK9Y1T5NVSD85627Q","ARN8MH7YKZKAZ","3I7KR83SNAZT1REYB2SRC49PCEEK9H","","840.7000000476837","img/flower1.png","76","842","3","1","2","1","1,0.333,0.333,0.333,1,0.333,0.333,0.333,1","1,0.333,0.333,0.333,1,0.333,0.333,0.333,1","1",""
"","html-keyboard-response","151","116109","0.0-151.0","3NAPMVF0ZX1WSCK9Y1T5NVSD85627Q","ARN8MH7YKZKAZ","3I7KR83SNAZT1REYB2SRC49PCEEK9H","","null","<img src=""img/flower1.png"" style=""width:200px; border:14px solid green;"">","null","","","","","","","","",""
"","image-keyboard-response","152","116960","0.0-152.0","3NAPMVF0ZX1WSCK9Y1T5NVSD85627Q","ARN8MH7YKZKAZ","3I7KR83SNAZT1REYB2SRC49PCEEK9H","","849.2999999523163","img/flower3.png","74","850.3999998569489","1","1","1","1","1,0.333,0.333,0.333,1,0.333,0.333,0.333,1","1,0.333,0.333,0.333,1,0.333,0.333,0.333,1","1",""
"","html-keyboard-response","153","117261","0.0-153.0","3NAPMVF0ZX1WSCK9Y1T5NVSD85627Q","ARN8MH7YKZKAZ","3I7KR83SNAZT1REYB2SRC49PCEEK9H","","null","<img src=""img/flower3.png"" style=""width:200px; border:14px solid green;"">","null","","","","","","","","",""
"","image-keyboard-response","154","117880","0.0-154.0","3NAPMVF0ZX1WSCK9Y1T5NVSD85627Q","ARN8MH7YKZKAZ","3I7KR83SNAZT1REYB2SRC49PCEEK9H","","617.0999999046326","img/flower2.png","75","618","2","1","3","1","1,0.333,0.333,0.333,1,0.333,0.333,0.333,1","1,0.333,0.333,0.333,1,0.333,0.333,0.333,1","1",""
"","html-keyboard-response","155","118182","0.0-155.0","3NAPMVF0ZX1WSCK9Y1T5NVSD85627Q","ARN8MH7YKZKAZ","3I7KR83SNAZT1REYB2SRC49PCEEK9H","","null","<img src=""img/flower2.png"" style=""width:200px; border:14px solid green;"">","null","","","","","","","","",""
"","image-keyboard-response","156","118847","0.0-156.0","3NAPMVF0ZX1WSCK9Y1T5NVSD85627Q","ARN8MH7YKZKAZ","3I7KR83SNAZT1REYB2SRC49PCEEK9H","","664.2999999523163","img/flower1.png","76","665.5999999046326","3","0","2","1","1,0.333,0.333,0.333,1,0.333,0.333,0.333,1","1,0.333,0.333,0.333,1,0.333,0.333,0.333,1","1",""
"","html-keyboard-response","157","119150","0.0-157.0","3NAPMVF0ZX1WSCK9Y1T5NVSD85627Q","ARN8MH7YKZKAZ","3I7KR83SNAZT1REYB2SRC49PCEEK9H","","null","<img src=""img/flower1.png"" style=""width:200px;border:14px solid red;"">","null","","","","","","","","",""
"","image-keyboard-response","158","119591","0.0-158.0","3NAPMVF0ZX1WSCK9Y1T5NVSD85627Q","ARN8MH7YKZKAZ","3I7KR83SNAZT1REYB2SRC49PCEEK9H","","439.7999999523163","img/flower1.png","76","441","3","0","2","1","1,0.333,0.333,0.333,1,0.333,0.333,0.333,1","1,0.333,0.333,0.333,1,0.333,0.333,0.333,1","1",""
"","html-keyboard-response","159","119893","0.0-159.0","3NAPMVF0ZX1WSCK9Y1T5NVSD85627Q","ARN8MH7YKZKAZ","3I7KR83SNAZT1REYB2SRC49PCEEK9H","","null","<img src=""img/flower1.png"" style=""width:200px;border:14px solid red;"">","null","","","","","","","","",""
"","image-keyboard-response","160","120999","0.0-160.0","3NAPMVF0ZX1WSCK9Y1T5NVSD85627Q","ARN8MH7YKZKAZ","3I7KR83SNAZT1REYB2SRC49PCEEK9H","","1104.7999999523163","img/flower2.png","75","1106","2","1","3","1","1,0.333,0.333,0.333,1,0.333,0.333,0.333,1","1,0.333,0.333,0.333,1,0.333,0.333,0.333,1","1",""
"","html-keyboard-response","161","121301","0.0-161.0","3NAPMVF0ZX1WSCK9Y1T5NVSD85627Q","ARN8MH7YKZKAZ","3I7KR83SNAZT1REYB2SRC49PCEEK9H","","null","<img src=""img/flower2.png"" style=""width:200px; border:14px solid green;"">","null","","","","","","","","",""
"","image-keyboard-response","162","121663","0.0-162.0","3NAPMVF0ZX1WSCK9Y1T5NVSD85627Q","ARN8MH7YKZKAZ","3I7KR83SNAZT1REYB2SRC49PCEEK9H","","360.7000000476837","img/flower2.png","75","362","2","1","3","1","1,0.333,0.333,0.333,1,0.333,0.333,0.333,1","1,0.333,0.333,0.333,1,0.333,0.333,0.333,1","1",""
"","html-keyboard-response","163","121966","0.0-163.0","3NAPMVF0ZX1WSCK9Y1T5NVSD85627Q","ARN8MH7YKZKAZ","3I7KR83SNAZT1REYB2SRC49PCEEK9H","","null","<img src=""img/flower2.png"" style=""width:200px; border:14px solid green;"">","null","","","","","","","","",""
"","image-keyboard-response","164","123079","0.0-164.0","3NAPMVF0ZX1WSCK9Y1T5NVSD85627Q","ARN8MH7YKZKAZ","3I7KR83SNAZT1REYB2SRC49PCEEK9H","","1111.5999999046326","img/flower3.png","76","1112.9000000953674","3","0","1","1","1,0.333,0.333,0.333,1,0.333,0.333,0.333,1","1,0.333,0.333,0.333,1,0.333,0.333,0.333,1","1",""
"","html-keyboard-response","165","123382","0.0-165.0","3NAPMVF0ZX1WSCK9Y1T5NVSD85627Q","ARN8MH7YKZKAZ","3I7KR83SNAZT1REYB2SRC49PCEEK9H","","null","<img src=""img/flower3.png"" style=""width:200px;border:14px solid red;"">","null","","","","","","","","",""
"","image-keyboard-response","166","123487","0.0-166.0","3NAPMVF0ZX1WSCK9Y1T5NVSD85627Q","ARN8MH7YKZKAZ","3I7KR83SNAZT1REYB2SRC49PCEEK9H","","104","img/flower2.png","76","105.40000009536743","3","1","3","1","1,0.333,0.333,0.333,1,0.333,0.333,0.333,1","1,0.333,0.333,0.333,1,0.333,0.333,0.333,1","1",""
"","html-keyboard-response","167","123789","0.0-167.0","3NAPMVF0ZX1WSCK9Y1T5NVSD85627Q","ARN8MH7YKZKAZ","3I7KR83SNAZT1REYB2SRC49PCEEK9H","","null","<img src=""img/flower2.png"" style=""width:200px; border:14px solid green;"">","null","","","","","","","","",""
"","image-keyboard-response","168","124327","0.0-168.0","3NAPMVF0ZX1WSCK9Y1T5NVSD85627Q","ARN8MH7YKZKAZ","3I7KR83SNAZT1REYB2SRC49PCEEK9H","","536.3999998569489","img/flower2.png","75","537.6999998092651","2","0","3","1","1,0.333,0.333,0.333,1,0.333,0.333,0.333,1","1,0.333,0.333,0.333,1,0.333,0.333,0.333,1","1",""
"","html-keyboard-response","169","124629","0.0-169.0","3NAPMVF0ZX1WSCK9Y1T5NVSD85627Q","ARN8MH7YKZKAZ","3I7KR83SNAZT1REYB2SRC49PCEEK9H","","null","<img src=""img/flower2.png"" style=""width:200px;border:14px solid red;"">","null","","","","","","","","",""
"","image-keyboard-response","170","125383","0.0-170.0","3NAPMVF0ZX1WSCK9Y1T5NVSD85627Q","ARN8MH7YKZKAZ","3I7KR83SNAZT1REYB2SRC49PCEEK9H","","752.6000001430511","img/flower3.png","76","754","3","1","1","1","1,0.333,0.333,0.333,1,0.333,0.333,0.333,1","1,0.333,0.333,0.333,1,0.333,0.333,0.333,1","1",""
"","html-keyboard-response","171","125685","0.0-171.0","3NAPMVF0ZX1WSCK9Y1T5NVSD85627Q","ARN8MH7YKZKAZ","3I7KR83SNAZT1REYB2SRC49PCEEK9H","","null","<img src=""img/flower3.png"" style=""width:200px; border:14px solid green;"">","null","","","","","","","","",""
"","image-keyboard-response","172","126623","0.0-172.0","3NAPMVF0ZX1WSCK9Y1T5NVSD85627Q","ARN8MH7YKZKAZ","3I7KR83SNAZT1REYB2SRC49PCEEK9H","","936.5","img/flower2.png","75","938","2","1","3","1","1,0.333,0.333,0.333,1,0.333,0.333,0.333,1","1,0.333,0.333,0.333,1,0.333,0.333,0.333,1","1",""
"","html-keyboard-response","173","126926","0.0-173.0","3NAPMVF0ZX1WSCK9Y1T5NVSD85627Q","ARN8MH7YKZKAZ","3I7KR83SNAZT1REYB2SRC49PCEEK9H","","null","<img src=""img/flower2.png"" style=""width:200px; border:14px solid green;"">","null","","","","","","","","",""
"","image-keyboard-response","174","127567","0.0-174.0","3NAPMVF0ZX1WSCK9Y1T5NVSD85627Q","ARN8MH7YKZKAZ","3I7KR83SNAZT1REYB2SRC49PCEEK9H","","640","img/flower3.png","76","641.2000000476837","3","1","1","1","1,0.333,0.333,0.333,1,0.333,0.333,0.333,1","1,0.333,0.333,0.333,1,0.333,0.333,0.333,1","1",""
"","html-keyboard-response","175","127869","0.0-175.0","3NAPMVF0ZX1WSCK9Y1T5NVSD85627Q","ARN8MH7YKZKAZ","3I7KR83SNAZT1REYB2SRC49PCEEK9H","","null","<img src=""img/flower3.png"" style=""width:200px; border:14px solid green;"">","null","","","","","","","","",""
"","image-keyboard-response","176","128527","0.0-176.0","3NAPMVF0ZX1WSCK9Y1T5NVSD85627Q","ARN8MH7YKZKAZ","3I7KR83SNAZT1REYB2SRC49PCEEK9H","","656.7000000476837","img/flower1.png","74","658","1","0","2","1","1,0.333,0.333,0.333,1,0.333,0.333,0.333,1","1,0.333,0.333,0.333,1,0.333,0.333,0.333,1","1",""
"","html-keyboard-response","177","128829","0.0-177.0","3NAPMVF0ZX1WSCK9Y1T5NVSD85627Q","ARN8MH7YKZKAZ","3I7KR83SNAZT1REYB2SRC49PCEEK9H","","null","<img src=""img/flower1.png"" style=""width:200px;border:14px solid red;"">","null","","","","","","","","",""
"","image-keyboard-response","178","129119","0.0-178.0","3NAPMVF0ZX1WSCK9Y1T5NVSD85627Q","ARN8MH7YKZKAZ","3I7KR83SNAZT1REYB2SRC49PCEEK9H","","288.69999980926514","img/flower2.png","74","291.59999990463257","1","0","3","1","1,0.333,0.333,0.333,1,0.333,0.333,0.333,1","1,0.333,0.333,0.333,1,0.333,0.333,0.333,1","1",""
"","html-keyboard-response","179","129423","0.0-179.0","3NAPMVF0ZX1WSCK9Y1T5NVSD85627Q","ARN8MH7YKZKAZ","3I7KR83SNAZT1REYB2SRC49PCEEK9H","","null","<img src=""img/flower2.png"" style=""width:200px;border:14px solid red;"">","null","","","","","","","","",""
"","image-keyboard-response","180","129655","0.0-180.0","3NAPMVF0ZX1WSCK9Y1T5NVSD85627Q","ARN8MH7YKZKAZ","3I7KR83SNAZT1REYB2SRC49PCEEK9H","","230.69999980926514","img/flower1.png","75","231.90000009536743","2","1","2","1","1,0.333,0.333,0.333,1,0.333,0.333,0.333,1","1,0.333,0.333,0.333,1,0.333,0.333,0.333,1","1",""
"","html-keyboard-response","181","129957","0.0-181.0","3NAPMVF0ZX1WSCK9Y1T5NVSD85627Q","ARN8MH7YKZKAZ","3I7KR83SNAZT1REYB2SRC49PCEEK9H","","null","<img src=""img/flower1.png"" style=""width:200px; border:14px solid green;"">","null","","","","","","","","",""
"","html-keyboard-response","182","132291","0.0-182.0","3NAPMVF0ZX1WSCK9Y1T5NVSD85627Q","ARN8MH7YKZKAZ","3I7KR83SNAZT1REYB2SRC49PCEEK9H","","","","","","","","","","","","",""
"","image-keyboard-response","183","134293","0.0-183.0","3NAPMVF0ZX1WSCK9Y1T5NVSD85627Q","ARN8MH7YKZKAZ","3I7KR83SNAZT1REYB2SRC49PCEEK9H","","","img/flower4.png","","2001.8999998569489","-1","0","2","2","1,0,0,1,1,0,1,0,1","0,1,0,0,1,1,1,1,0","3",""
"","html-keyboard-response","184","134596","0.0-184.0","3NAPMVF0ZX1WSCK9Y1T5NVSD85627Q","ARN8MH7YKZKAZ","3I7KR83SNAZT1REYB2SRC49PCEEK9H","","null","<img src=""img/flower4.png"" style=""width:200px;border:14px solid red;"">","null","","","","","","","","",""
"","image-keyboard-response","185","135480","0.0-185.0","3NAPMVF0ZX1WSCK9Y1T5NVSD85627Q","ARN8MH7YKZKAZ","3I7KR83SNAZT1REYB2SRC49PCEEK9H","","882.2000000476837","img/flower5.png","74","883.5","1","0","1","2","1,0,0,1,1,0,1,0,1","0,1,0,0,1,1,1,1,0","3",""
"","html-keyboard-response","186","135782","0.0-186.0","3NAPMVF0ZX1WSCK9Y1T5NVSD85627Q","ARN8MH7YKZKAZ","3I7KR83SNAZT1REYB2SRC49PCEEK9H","","null","<img src=""img/flower5.png"" style=""width:200px;border:14px solid red;"">","null","","","","","","","","",""
"","image-keyboard-response","187","136367","0.0-187.0","3NAPMVF0ZX1WSCK9Y1T5NVSD85627Q","ARN8MH7YKZKAZ","3I7KR83SNAZT1REYB2SRC49PCEEK9H","","583.1000001430511","img/flower6.png","75","584.0999999046326","2","1","3","2","1,0,0,1,1,0,1,0,1","0,1,0,0,1,1,1,1,0","3",""
"","html-keyboard-response","188","136668","0.0-188.0","3NAPMVF0ZX1WSCK9Y1T5NVSD85627Q","ARN8MH7YKZKAZ","3I7KR83SNAZT1REYB2SRC49PCEEK9H","","null","<img src=""img/flower6.png"" style=""width:200px; border:14px solid green;"">","null","","","","","","","","",""
"","image-keyboard-response","189","137543","0.0-189.0","3NAPMVF0ZX1WSCK9Y1T5NVSD85627Q","ARN8MH7YKZKAZ","3I7KR83SNAZT1REYB2SRC49PCEEK9H","","874","img/flower5.png","76","875.1999998092651","3","0","1","2","1,0,0,1,1,0,1,0,1","0,1,0,0,1,1,1,1,0","3",""
"","html-keyboard-response","190","137845","0.0-190.0","3NAPMVF0ZX1WSCK9Y1T5NVSD85627Q","ARN8MH7YKZKAZ","3I7KR83SNAZT1REYB2SRC49PCEEK9H","","null","<img src=""img/flower5.png"" style=""width:200px;border:14px solid red;"">","null","","","","","","","","",""
"","image-keyboard-response","191","138791","0.0-191.0","3NAPMVF0ZX1WSCK9Y1T5NVSD85627Q","ARN8MH7YKZKAZ","3I7KR83SNAZT1REYB2SRC49PCEEK9H","","944.5","img/flower6.png","74","946","1","1","3","2","1,0,0,1,1,0,1,0,1","0,1,0,0,1,1,1,1,0","3",""
"","html-keyboard-response","192","139093","0.0-192.0","3NAPMVF0ZX1WSCK9Y1T5NVSD85627Q","ARN8MH7YKZKAZ","3I7KR83SNAZT1REYB2SRC49PCEEK9H","","null","<img src=""img/flower6.png"" style=""width:200px; border:14px solid green;"">","null","","","","","","","","",""
"","image-keyboard-response","193","139503","0.0-193.0","3NAPMVF0ZX1WSCK9Y1T5NVSD85627Q","ARN8MH7YKZKAZ","3I7KR83SNAZT1REYB2SRC49PCEEK9H","","408.30000019073486","img/flower6.png","74","409.7000000476837","1","1","3","2","1,0,0,1,1,0,1,0,1","0,1,0,0,1,1,1,1,0","3",""
"","html-keyboard-response","194","139805","0.0-194.0","3NAPMVF0ZX1WSCK9Y1T5NVSD85627Q","ARN8MH7YKZKAZ","3I7KR83SNAZT1REYB2SRC49PCEEK9H","","null","<img src=""img/flower6.png"" style=""width:200px; border:14px solid green;"">","null","","","","","","","","",""
"","image-keyboard-response","195","140487","0.0-195.0","3NAPMVF0ZX1WSCK9Y1T5NVSD85627Q","ARN8MH7YKZKAZ","3I7KR83SNAZT1REYB2SRC49PCEEK9H","","680.4000000953674","img/flower4.png","75","681.7999999523163","2","1","2","2","1,0,0,1,1,0,1,0,1","0,1,0,0,1,1,1,1,0","3",""
"","html-keyboard-response","196","140789","0.0-196.0","3NAPMVF0ZX1WSCK9Y1T5NVSD85627Q","ARN8MH7YKZKAZ","3I7KR83SNAZT1REYB2SRC49PCEEK9H","","null","<img src=""img/flower4.png"" style=""width:200px; border:14px solid green;"">","null","","","","","","","","",""
"","image-keyboard-response","197","141159","0.0-197.0","3NAPMVF0ZX1WSCK9Y1T5NVSD85627Q","ARN8MH7YKZKAZ","3I7KR83SNAZT1REYB2SRC49PCEEK9H","","368.59999990463257","img/flower4.png","75","369.80000019073486","2","1","2","2","1,0,0,1,1,0,1,0,1","0,1,0,0,1,1,1,1,0","3",""
"","html-keyboard-response","198","141461","0.0-198.0","3NAPMVF0ZX1WSCK9Y1T5NVSD85627Q","ARN8MH7YKZKAZ","3I7KR83SNAZT1REYB2SRC49PCEEK9H","","null","<img src=""img/flower4.png"" style=""width:200px; border:14px solid green;"">","null","","","","","","","","",""
"","image-keyboard-response","199","142119","0.0-199.0","3NAPMVF0ZX1WSCK9Y1T5NVSD85627Q","ARN8MH7YKZKAZ","3I7KR83SNAZT1REYB2SRC49PCEEK9H","","656.9000000953674","img/flower6.png","76","658.2999999523163","3","0","3","2","1,0,0,1,1,0,1,0,1","0,1,0,0,1,1,1,1,0","3",""
"","html-keyboard-response","200","142421","0.0-200.0","3NAPMVF0ZX1WSCK9Y1T5NVSD85627Q","ARN8MH7YKZKAZ","3I7KR83SNAZT1REYB2SRC49PCEEK9H","","null","<img src=""img/flower6.png"" style=""width:200px;border:14px solid red;"">","null","","","","","","","","",""
"","image-keyboard-response","201","142951","0.0-201.0","3NAPMVF0ZX1WSCK9Y1T5NVSD85627Q","ARN8MH7YKZKAZ","3I7KR83SNAZT1REYB2SRC49PCEEK9H","","528.9000000953674","img/flower6.png","76","530.2999999523163","3","0","3","2","1,0,0,1,1,0,1,0,1","0,1,0,0,1,1,1,1,0","3",""
"","html-keyboard-response","202","143258","0.0-202.0","3NAPMVF0ZX1WSCK9Y1T5NVSD85627Q","ARN8MH7YKZKAZ","3I7KR83SNAZT1REYB2SRC49PCEEK9H","","null","<img src=""img/flower6.png"" style=""width:200px;border:14px solid red;"">","null","","","","","","","","",""
"","image-keyboard-response","203","144207","0.0-203.0","3NAPMVF0ZX1WSCK9Y1T5NVSD85627Q","ARN8MH7YKZKAZ","3I7KR83SNAZT1REYB2SRC49PCEEK9H","","947.2000000476837","img/flower4.png","75","948.7000000476837","2","1","2","2","1,0,0,1,1,0,1,0,1","0,1,0,0,1,1,1,1,0","3",""
"","html-keyboard-response","204","144509","0.0-204.0","3NAPMVF0ZX1WSCK9Y1T5NVSD85627Q","ARN8MH7YKZKAZ","3I7KR83SNAZT1REYB2SRC49PCEEK9H","","null","<img src=""img/flower4.png"" style=""width:200px; border:14px solid green;"">","null","","","","","","","","",""
"","image-keyboard-response","205","145967","0.0-205.0","3NAPMVF0ZX1WSCK9Y1T5NVSD85627Q","ARN8MH7YKZKAZ","3I7KR83SNAZT1REYB2SRC49PCEEK9H","","1456.5999999046326","img/flower5.png","74","1458","1","0","1","2","1,0,0,1,1,0,1,0,1","0,1,0,0,1,1,1,1,0","3",""
"","html-keyboard-response","206","146269","0.0-206.0","3NAPMVF0ZX1WSCK9Y1T5NVSD85627Q","ARN8MH7YKZKAZ","3I7KR83SNAZT1REYB2SRC49PCEEK9H","","null","<img src=""img/flower5.png"" style=""width:200px;border:14px solid red;"">","null","","","","","","","","",""
"","image-keyboard-response","207","146503","0.0-207.0","3NAPMVF0ZX1WSCK9Y1T5NVSD85627Q","ARN8MH7YKZKAZ","3I7KR83SNAZT1REYB2SRC49PCEEK9H","","232.70000004768372","img/flower6.png","74","233.90000009536743","1","1","3","2","1,0,0,1,1,0,1,0,1","0,1,0,0,1,1,1,1,0","3",""
"","html-keyboard-response","208","146806","0.0-208.0","3NAPMVF0ZX1WSCK9Y1T5NVSD85627Q","ARN8MH7YKZKAZ","3I7KR83SNAZT1REYB2SRC49PCEEK9H","","null","<img src=""img/flower6.png"" style=""width:200px; border:14px solid green;"">","null","","","","","","","","",""
"","image-keyboard-response","209","148207","0.0-209.0","3NAPMVF0ZX1WSCK9Y1T5NVSD85627Q","ARN8MH7YKZKAZ","3I7KR83SNAZT1REYB2SRC49PCEEK9H","","1399.7000000476837","img/flower4.png","76","1401.1999998092651","3","1","2","2","1,0,0,1,1,0,1,0,1","0,1,0,0,1,1,1,1,0","3",""
"","html-keyboard-response","210","148509","0.0-210.0","3NAPMVF0ZX1WSCK9Y1T5NVSD85627Q","ARN8MH7YKZKAZ","3I7KR83SNAZT1REYB2SRC49PCEEK9H","","null","<img src=""img/flower4.png"" style=""width:200px; border:14px solid green;"">","null","","","","","","","","",""
"","image-keyboard-response","211","149287","0.0-211.0","3NAPMVF0ZX1WSCK9Y1T5NVSD85627Q","ARN8MH7YKZKAZ","3I7KR83SNAZT1REYB2SRC49PCEEK9H","","776.7999999523163","img/flower6.png","75","778.1000001430511","2","1","3","2","1,0,0,1,1,0,1,0,1","0,1,0,0,1,1,1,1,0","3",""
"","html-keyboard-response","212","149589","0.0-212.0","3NAPMVF0ZX1WSCK9Y1T5NVSD85627Q","ARN8MH7YKZKAZ","3I7KR83SNAZT1REYB2SRC49PCEEK9H","","null","<img src=""img/flower6.png"" style=""width:200px; border:14px solid green;"">","null","","","","","","","","",""
"","image-keyboard-response","213","150543","0.0-213.0","3NAPMVF0ZX1WSCK9Y1T5NVSD85627Q","ARN8MH7YKZKAZ","3I7KR83SNAZT1REYB2SRC49PCEEK9H","","952.6000001430511","img/flower5.png","74","953.7999999523163","1","0","1","2","1,0,0,1,1,0,1,0,1","0,1,0,0,1,1,1,1,0","3",""
"","html-keyboard-response","214","150846","0.0-214.0","3NAPMVF0ZX1WSCK9Y1T5NVSD85627Q","ARN8MH7YKZKAZ","3I7KR83SNAZT1REYB2SRC49PCEEK9H","","null","<img src=""img/flower5.png"" style=""width:200px;border:14px solid red;"">","null","","","","","","","","",""
"","image-keyboard-response","215","151191","0.0-215.0","3NAPMVF0ZX1WSCK9Y1T5NVSD85627Q","ARN8MH7YKZKAZ","3I7KR83SNAZT1REYB2SRC49PCEEK9H","","343.39999985694885","img/flower5.png","74","344.7999999523163","1","0","1","2","1,0,0,1,1,0,1,0,1","0,1,0,0,1,1,1,1,0","3",""
"","html-keyboard-response","216","151493","0.0-216.0","3NAPMVF0ZX1WSCK9Y1T5NVSD85627Q","ARN8MH7YKZKAZ","3I7KR83SNAZT1REYB2SRC49PCEEK9H","","null","<img src=""img/flower5.png"" style=""width:200px;border:14px solid red;"">","null","","","","","","","","",""
"","image-keyboard-response","217","153319","0.0-217.0","3NAPMVF0ZX1WSCK9Y1T5NVSD85627Q","ARN8MH7YKZKAZ","3I7KR83SNAZT1REYB2SRC49PCEEK9H","","1824.6999998092651","img/flower6.png","75","1826","2","1","3","2","1,0,0,1,1,0,1,0,1","0,1,0,0,1,1,1,1,0","3",""
"","html-keyboard-response","218","153621","0.0-218.0","3NAPMVF0ZX1WSCK9Y1T5NVSD85627Q","ARN8MH7YKZKAZ","3I7KR83SNAZT1REYB2SRC49PCEEK9H","","null","<img src=""img/flower6.png"" style=""width:200px; border:14px solid green;"">","null","","","","","","","","",""
"","image-keyboard-response","219","154863","0.0-219.0","3NAPMVF0ZX1WSCK9Y1T5NVSD85627Q","ARN8MH7YKZKAZ","3I7KR83SNAZT1REYB2SRC49PCEEK9H","","1240.6000001430511","img/flower5.png","74","1242.1000001430511","1","0","1","2","1,0,0,1,1,0,1,0,1","0,1,0,0,1,1,1,1,0","3",""
"","html-keyboard-response","220","155165","0.0-220.0","3NAPMVF0ZX1WSCK9Y1T5NVSD85627Q","ARN8MH7YKZKAZ","3I7KR83SNAZT1REYB2SRC49PCEEK9H","","null","<img src=""img/flower5.png"" style=""width:200px;border:14px solid red;"">","null","","","","","","","","",""
"","image-keyboard-response","221","155343","0.0-221.0","3NAPMVF0ZX1WSCK9Y1T5NVSD85627Q","ARN8MH7YKZKAZ","3I7KR83SNAZT1REYB2SRC49PCEEK9H","","176.5","img/flower6.png","74","177.89999985694885","1","1","3","2","1,0,0,1,1,0,1,0,1","0,1,0,0,1,1,1,1,0","3",""
"","html-keyboard-response","222","155646","0.0-222.0","3NAPMVF0ZX1WSCK9Y1T5NVSD85627Q","ARN8MH7YKZKAZ","3I7KR83SNAZT1REYB2SRC49PCEEK9H","","null","<img src=""img/flower6.png"" style=""width:200px; border:14px solid green;"">","null","","","","","","","","",""
"","image-keyboard-response","223","156367","0.0-223.0","3NAPMVF0ZX1WSCK9Y1T5NVSD85627Q","ARN8MH7YKZKAZ","3I7KR83SNAZT1REYB2SRC49PCEEK9H","","720.2999999523163","img/flower5.png","75","721.5","2","1","1","2","1,0,0,1,1,0,1,0,1","0,1,0,0,1,1,1,1,0","3",""
"","html-keyboard-response","224","156669","0.0-224.0","3NAPMVF0ZX1WSCK9Y1T5NVSD85627Q","ARN8MH7YKZKAZ","3I7KR83SNAZT1REYB2SRC49PCEEK9H","","null","<img src=""img/flower5.png"" style=""width:200px; border:14px solid green;"">","null","","","","","","","","",""
"","image-keyboard-response","225","157359","0.0-225.0","3NAPMVF0ZX1WSCK9Y1T5NVSD85627Q","ARN8MH7YKZKAZ","3I7KR83SNAZT1REYB2SRC49PCEEK9H","","688.6000001430511","img/flower6.png","76","689.7999999523163","3","0","3","2","1,0,0,1,1,0,1,0,1","0,1,0,0,1,1,1,1,0","3",""
"","html-keyboard-response","226","157661","0.0-226.0","3NAPMVF0ZX1WSCK9Y1T5NVSD85627Q","ARN8MH7YKZKAZ","3I7KR83SNAZT1REYB2SRC49PCEEK9H","","null","<img src=""img/flower6.png"" style=""width:200px;border:14px solid red;"">","null","","","","","","","","",""
"","image-keyboard-response","227","158063","0.0-227.0","3NAPMVF0ZX1WSCK9Y1T5NVSD85627Q","ARN8MH7YKZKAZ","3I7KR83SNAZT1REYB2SRC49PCEEK9H","","400.39999985694885","img/flower6.png","74","401.60000014305115","1","1","3","2","1,0,0,1,1,0,1,0,1","0,1,0,0,1,1,1,1,0","3",""
"","html-keyboard-response","228","158366","0.0-228.0","3NAPMVF0ZX1WSCK9Y1T5NVSD85627Q","ARN8MH7YKZKAZ","3I7KR83SNAZT1REYB2SRC49PCEEK9H","","null","<img src=""img/flower6.png"" style=""width:200px; border:14px solid green;"">","null","","","","","","","","",""
"","image-keyboard-response","229","159663","0.0-229.0","3NAPMVF0ZX1WSCK9Y1T5NVSD85627Q","ARN8MH7YKZKAZ","3I7KR83SNAZT1REYB2SRC49PCEEK9H","","1295.3999998569489","img/flower5.png","76","1296.7999999523163","3","0","1","2","1,0,0,1,1,0,1,0,1","0,1,0,0,1,1,1,1,0","3",""
"","html-keyboard-response","230","159965","0.0-230.0","3NAPMVF0ZX1WSCK9Y1T5NVSD85627Q","ARN8MH7YKZKAZ","3I7KR83SNAZT1REYB2SRC49PCEEK9H","","null","<img src=""img/flower5.png"" style=""width:200px;border:14px solid red;"">","null","","","","","","","","",""
"","image-keyboard-response","231","160455","0.0-231.0","3NAPMVF0ZX1WSCK9Y1T5NVSD85627Q","ARN8MH7YKZKAZ","3I7KR83SNAZT1REYB2SRC49PCEEK9H","","488.39999985694885","img/flower5.png","75","489.5","2","1","1","2","1,0,0,1,1,0,1,0,1","0,1,0,0,1,1,1,1,0","3",""
"","html-keyboard-response","232","160757","0.0-232.0","3NAPMVF0ZX1WSCK9Y1T5NVSD85627Q","ARN8MH7YKZKAZ","3I7KR83SNAZT1REYB2SRC49PCEEK9H","","null","<img src=""img/flower5.png"" style=""width:200px; border:14px solid green;"">","null","","","","","","","","",""
"","image-keyboard-response","233","161398","0.0-233.0","3NAPMVF0ZX1WSCK9Y1T5NVSD85627Q","ARN8MH7YKZKAZ","3I7KR83SNAZT1REYB2SRC49PCEEK9H","","640.2999999523163","img/flower4.png","75","641.4000000953674","2","1","2","2","1,0,0,1,1,0,1,0,1","0,1,0,0,1,1,1,1,0","3",""
"","html-keyboard-response","234","161700","0.0-234.0","3NAPMVF0ZX1WSCK9Y1T5NVSD85627Q","ARN8MH7YKZKAZ","3I7KR83SNAZT1REYB2SRC49PCEEK9H","","null","<img src=""img/flower4.png"" style=""width:200px; border:14px solid green;"">","null","","","","","","","","",""
"","image-keyboard-response","235","162359","0.0-235.0","3NAPMVF0ZX1WSCK9Y1T5NVSD85627Q","ARN8MH7YKZKAZ","3I7KR83SNAZT1REYB2SRC49PCEEK9H","","657.7999999523163","img/flower6.png","74","659.2000000476837","1","1","3","2","1,0,0,1,1,0,1,0,1","0,1,0,0,1,1,1,1,0","3",""
"","html-keyboard-response","236","162661","0.0-236.0","3NAPMVF0ZX1WSCK9Y1T5NVSD85627Q","ARN8MH7YKZKAZ","3I7KR83SNAZT1REYB2SRC49PCEEK9H","","null","<img src=""img/flower6.png"" style=""width:200px; border:14px solid green;"">","null","","","","","","","","",""
"","image-keyboard-response","237","163383","0.0-237.0","3NAPMVF0ZX1WSCK9Y1T5NVSD85627Q","ARN8MH7YKZKAZ","3I7KR83SNAZT1REYB2SRC49PCEEK9H","","720.8999998569489","img/flower4.png","76","722.1000001430511","3","1","2","2","1,0,0,1,1,0,1,0,1","0,1,0,0,1,1,1,1,0","3",""
"","html-keyboard-response","238","163686","0.0-238.0","3NAPMVF0ZX1WSCK9Y1T5NVSD85627Q","ARN8MH7YKZKAZ","3I7KR83SNAZT1REYB2SRC49PCEEK9H","","null","<img src=""img/flower4.png"" style=""width:200px; border:14px solid green;"">","null","","","","","","","","",""
"","image-keyboard-response","239","164687","0.0-239.0","3NAPMVF0ZX1WSCK9Y1T5NVSD85627Q","ARN8MH7YKZKAZ","3I7KR83SNAZT1REYB2SRC49PCEEK9H","","999.6000001430511","img/flower5.png","74","1001","1","0","1","2","1,0,0,1,1,0,1,0,1","0,1,0,0,1,1,1,1,0","3",""
"","html-keyboard-response","240","164989","0.0-240.0","3NAPMVF0ZX1WSCK9Y1T5NVSD85627Q","ARN8MH7YKZKAZ","3I7KR83SNAZT1REYB2SRC49PCEEK9H","","null","<img src=""img/flower5.png"" style=""width:200px;border:14px solid red;"">","null","","","","","","","","",""
"","image-keyboard-response","241","165327","0.0-241.0","3NAPMVF0ZX1WSCK9Y1T5NVSD85627Q","ARN8MH7YKZKAZ","3I7KR83SNAZT1REYB2SRC49PCEEK9H","","336.7999999523163","img/flower5.png","74","338.10000014305115","1","0","1","2","1,0,0,1,1,0,1,0,1","0,1,0,0,1,1,1,1,0","3",""
"","html-keyboard-response","242","165629","0.0-242.0","3NAPMVF0ZX1WSCK9Y1T5NVSD85627Q","ARN8MH7YKZKAZ","3I7KR83SNAZT1REYB2SRC49PCEEK9H","","null","<img src=""img/flower5.png"" style=""width:200px;border:14px solid red;"">","null","","","","","","","","",""
"","image-keyboard-response","243","166239","0.0-243.0","3NAPMVF0ZX1WSCK9Y1T5NVSD85627Q","ARN8MH7YKZKAZ","3I7KR83SNAZT1REYB2SRC49PCEEK9H","","608.5999999046326","img/flower5.png","76","610","3","0","1","2","1,0,0,1,1,0,1,0,1","0,1,0,0,1,1,1,1,0","3",""
"","html-keyboard-response","244","166541","0.0-244.0","3NAPMVF0ZX1WSCK9Y1T5NVSD85627Q","ARN8MH7YKZKAZ","3I7KR83SNAZT1REYB2SRC49PCEEK9H","","null","<img src=""img/flower5.png"" style=""width:200px;border:14px solid red;"">","null","","","","","","","","",""
"","image-keyboard-response","245","167247","0.0-245.0","3NAPMVF0ZX1WSCK9Y1T5NVSD85627Q","ARN8MH7YKZKAZ","3I7KR83SNAZT1REYB2SRC49PCEEK9H","","703.5","img/flower6.png","75","704.9000000953674","2","1","3","2","1,0,0,1,1,0,1,0,1","0,1,0,0,1,1,1,1,0","3",""
"","html-keyboard-response","246","167549","0.0-246.0","3NAPMVF0ZX1WSCK9Y1T5NVSD85627Q","ARN8MH7YKZKAZ","3I7KR83SNAZT1REYB2SRC49PCEEK9H","","null","<img src=""img/flower6.png"" style=""width:200px; border:14px solid green;"">","null","","","","","","","","",""
"","image-keyboard-response","247","167919","0.0-247.0","3NAPMVF0ZX1WSCK9Y1T5NVSD85627Q","ARN8MH7YKZKAZ","3I7KR83SNAZT1REYB2SRC49PCEEK9H","","368.59999990463257","img/flower6.png","75","369.7999999523163","2","1","3","2","1,0,0,1,1,0,1,0,1","0,1,0,0,1,1,1,1,0","3",""
"","html-keyboard-response","248","168221","0.0-248.0","3NAPMVF0ZX1WSCK9Y1T5NVSD85627Q","ARN8MH7YKZKAZ","3I7KR83SNAZT1REYB2SRC49PCEEK9H","","null","<img src=""img/flower6.png"" style=""width:200px; border:14px solid green;"">","null","","","","","","","","",""
"","image-keyboard-response","249","169063","0.0-249.0","3NAPMVF0ZX1WSCK9Y1T5NVSD85627Q","ARN8MH7YKZKAZ","3I7KR83SNAZT1REYB2SRC49PCEEK9H","","840.4000000953674","img/flower5.png","76","841.7000000476837","3","0","1","2","1,0,0,1,1,0,1,0,1","0,1,0,0,1,1,1,1,0","3",""
"","html-keyboard-response","250","169366","0.0-250.0","3NAPMVF0ZX1WSCK9Y1T5NVSD85627Q","ARN8MH7YKZKAZ","3I7KR83SNAZT1REYB2SRC49PCEEK9H","","null","<img src=""img/flower5.png"" style=""width:200px;border:14px solid red;"">","null","","","","","","","","",""
"","image-keyboard-response","251","169767","0.0-251.0","3NAPMVF0ZX1WSCK9Y1T5NVSD85627Q","ARN8MH7YKZKAZ","3I7KR83SNAZT1REYB2SRC49PCEEK9H","","399.60000014305115","img/flower5.png","76","400.90000009536743","3","0","1","2","1,0,0,1,1,0,1,0,1","0,1,0,0,1,1,1,1,0","3",""
"","html-keyboard-response","252","170069","0.0-252.0","3NAPMVF0ZX1WSCK9Y1T5NVSD85627Q","ARN8MH7YKZKAZ","3I7KR83SNAZT1REYB2SRC49PCEEK9H","","null","<img src=""img/flower5.png"" style=""width:200px;border:14px solid red;"">","null","","","","","","","","",""
"","image-keyboard-response","253","170551","0.0-253.0","3NAPMVF0ZX1WSCK9Y1T5NVSD85627Q","ARN8MH7YKZKAZ","3I7KR83SNAZT1REYB2SRC49PCEEK9H","","480.5","img/flower5.png","74","481.7999999523163","1","0","1","2","1,0,0,1,1,0,1,0,1","0,1,0,0,1,1,1,1,0","3",""
"","html-keyboard-response","254","170853","0.0-254.0","3NAPMVF0ZX1WSCK9Y1T5NVSD85627Q","ARN8MH7YKZKAZ","3I7KR83SNAZT1REYB2SRC49PCEEK9H","","null","<img src=""img/flower5.png"" style=""width:200px;border:14px solid red;"">","null","","","","","","","","",""
"","image-keyboard-response","255","171807","0.0-255.0","3NAPMVF0ZX1WSCK9Y1T5NVSD85627Q","ARN8MH7YKZKAZ","3I7KR83SNAZT1REYB2SRC49PCEEK9H","","952.7000000476837","img/flower6.png","75","954","2","1","3","2","1,0,0,1,1,0,1,0,1","0,1,0,0,1,1,1,1,0","3",""
"","html-keyboard-response","256","172110","0.0-256.0","3NAPMVF0ZX1WSCK9Y1T5NVSD85627Q","ARN8MH7YKZKAZ","3I7KR83SNAZT1REYB2SRC49PCEEK9H","","null","<img src=""img/flower6.png"" style=""width:200px; border:14px solid green;"">","null","","","","","","","","",""
"","image-keyboard-response","257","172607","0.0-257.0","3NAPMVF0ZX1WSCK9Y1T5NVSD85627Q","ARN8MH7YKZKAZ","3I7KR83SNAZT1REYB2SRC49PCEEK9H","","495.60000014305115","img/flower6.png","75","497","2","1","3","2","1,0,0,1,1,0,1,0,1","0,1,0,0,1,1,1,1,0","3",""
"","html-keyboard-response","258","172909","0.0-258.0","3NAPMVF0ZX1WSCK9Y1T5NVSD85627Q","ARN8MH7YKZKAZ","3I7KR83SNAZT1REYB2SRC49PCEEK9H","","null","<img src=""img/flower6.png"" style=""width:200px; border:14px solid green;"">","null","","","","","","","","",""
"","image-keyboard-response","259","173311","0.0-259.0","3NAPMVF0ZX1WSCK9Y1T5NVSD85627Q","ARN8MH7YKZKAZ","3I7KR83SNAZT1REYB2SRC49PCEEK9H","","399.90000009536743","img/flower6.png","75","401.2999999523163","2","1","3","2","1,0,0,1,1,0,1,0,1","0,1,0,0,1,1,1,1,0","3",""
"","html-keyboard-response","260","173613","0.0-260.0","3NAPMVF0ZX1WSCK9Y1T5NVSD85627Q","ARN8MH7YKZKAZ","3I7KR83SNAZT1REYB2SRC49PCEEK9H","","null","<img src=""img/flower6.png"" style=""width:200px; border:14px solid green;"">","null","","","","","","","","",""
"","image-keyboard-response","261","174055","0.0-261.0","3NAPMVF0ZX1WSCK9Y1T5NVSD85627Q","ARN8MH7YKZKAZ","3I7KR83SNAZT1REYB2SRC49PCEEK9H","","439.7999999523163","img/flower6.png","75","441.2000000476837","2","1","3","2","1,0,0,1,1,0,1,0,1","0,1,0,0,1,1,1,1,0","3",""
"","html-keyboard-response","262","174357","0.0-262.0","3NAPMVF0ZX1WSCK9Y1T5NVSD85627Q","ARN8MH7YKZKAZ","3I7KR83SNAZT1REYB2SRC49PCEEK9H","","null","<img src=""img/flower6.png"" style=""width:200px; border:14px solid green;"">","null","","","","","","","","",""
"","image-keyboard-response","263","175359","0.0-263.0","3NAPMVF0ZX1WSCK9Y1T5NVSD85627Q","ARN8MH7YKZKAZ","3I7KR83SNAZT1REYB2SRC49PCEEK9H","","1000.1999998092651","img/flower4.png","76","1001.5","3","1","2","2","1,0,0,1,1,0,1,0,1","0,1,0,0,1,1,1,1,0","3",""
"","html-keyboard-response","264","175661","0.0-264.0","3NAPMVF0ZX1WSCK9Y1T5NVSD85627Q","ARN8MH7YKZKAZ","3I7KR83SNAZT1REYB2SRC49PCEEK9H","","null","<img src=""img/flower4.png"" style=""width:200px; border:14px solid green;"">","null","","","","","","","","",""
"","image-keyboard-response","265","176095","0.0-265.0","3NAPMVF0ZX1WSCK9Y1T5NVSD85627Q","ARN8MH7YKZKAZ","3I7KR83SNAZT1REYB2SRC49PCEEK9H","","432.7000000476837","img/flower4.png","76","434","3","1","2","2","1,0,0,1,1,0,1,0,1","0,1,0,0,1,1,1,1,0","3",""
"","html-keyboard-response","266","176397","0.0-266.0","3NAPMVF0ZX1WSCK9Y1T5NVSD85627Q","ARN8MH7YKZKAZ","3I7KR83SNAZT1REYB2SRC49PCEEK9H","","null","<img src=""img/flower4.png"" style=""width:200px; border:14px solid green;"">","null","","","","","","","","",""
"","image-keyboard-response","267","176759","0.0-267.0","3NAPMVF0ZX1WSCK9Y1T5NVSD85627Q","ARN8MH7YKZKAZ","3I7KR83SNAZT1REYB2SRC49PCEEK9H","","360.2999999523163","img/flower4.png","76","361.59999990463257","3","1","2","2","1,0,0,1,1,0,1,0,1","0,1,0,0,1,1,1,1,0","3",""
"","html-keyboard-response","268","177061","0.0-268.0","3NAPMVF0ZX1WSCK9Y1T5NVSD85627Q","ARN8MH7YKZKAZ","3I7KR83SNAZT1REYB2SRC49PCEEK9H","","null","<img src=""img/flower4.png"" style=""width:200px; border:14px solid green;"">","null","","","","","","","","",""
"","image-keyboard-response","269","177431","0.0-269.0","3NAPMVF0ZX1WSCK9Y1T5NVSD85627Q","ARN8MH7YKZKAZ","3I7KR83SNAZT1REYB2SRC49PCEEK9H","","368.90000009536743","img/flower4.png","76","370.30000019073486","3","1","2","2","1,0,0,1,1,0,1,0,1","0,1,0,0,1,1,1,1,0","3",""
"","html-keyboard-response","270","177733","0.0-270.0","3NAPMVF0ZX1WSCK9Y1T5NVSD85627Q","ARN8MH7YKZKAZ","3I7KR83SNAZT1REYB2SRC49PCEEK9H","","null","<img src=""img/flower4.png"" style=""width:200px; border:14px solid green;"">","null","","","","","","","","",""
"","image-keyboard-response","271","178047","0.0-271.0","3NAPMVF0ZX1WSCK9Y1T5NVSD85627Q","ARN8MH7YKZKAZ","3I7KR83SNAZT1REYB2SRC49PCEEK9H","","312.59999990463257","img/flower4.png","76","313.89999985694885","3","1","2","2","1,0,0,1,1,0,1,0,1","0,1,0,0,1,1,1,1,0","3",""
"","html-keyboard-response","272","178349","0.0-272.0","3NAPMVF0ZX1WSCK9Y1T5NVSD85627Q","ARN8MH7YKZKAZ","3I7KR83SNAZT1REYB2SRC49PCEEK9H","","null","<img src=""img/flower4.png"" style=""width:200px; border:14px solid green;"">","null","","","","","","","","",""
"","image-keyboard-response","273","178735","0.0-273.0","3NAPMVF0ZX1WSCK9Y1T5NVSD85627Q","ARN8MH7YKZKAZ","3I7KR83SNAZT1REYB2SRC49PCEEK9H","","384.5","img/flower4.png","76","385.7999999523163","3","1","2","2","1,0,0,1,1,0,1,0,1","0,1,0,0,1,1,1,1,0","3",""
"","html-keyboard-response","274","179037","0.0-274.0","3NAPMVF0ZX1WSCK9Y1T5NVSD85627Q","ARN8MH7YKZKAZ","3I7KR83SNAZT1REYB2SRC49PCEEK9H","","null","<img src=""img/flower4.png"" style=""width:200px; border:14px solid green;"">","null","","","","","","","","",""
"","image-keyboard-response","275","179359","0.0-275.0","3NAPMVF0ZX1WSCK9Y1T5NVSD85627Q","ARN8MH7YKZKAZ","3I7KR83SNAZT1REYB2SRC49PCEEK9H","","321.09999990463257","img/flower4.png","76","322.09999990463257","3","1","2","2","1,0,0,1,1,0,1,0,1","0,1,0,0,1,1,1,1,0","3",""
"","html-keyboard-response","276","179661","0.0-276.0","3NAPMVF0ZX1WSCK9Y1T5NVSD85627Q","ARN8MH7YKZKAZ","3I7KR83SNAZT1REYB2SRC49PCEEK9H","","null","<img src=""img/flower4.png"" style=""width:200px; border:14px solid green;"">","null","","","","","","","","",""
"","image-keyboard-response","277","180367","0.0-277.0","3NAPMVF0ZX1WSCK9Y1T5NVSD85627Q","ARN8MH7YKZKAZ","3I7KR83SNAZT1REYB2SRC49PCEEK9H","","704.7999999523163","img/flower6.png","75","706.1999998092651","2","1","3","2","1,0,0,1,1,0,1,0,1","0,1,0,0,1,1,1,1,0","3",""
"","html-keyboard-response","278","180669","0.0-278.0","3NAPMVF0ZX1WSCK9Y1T5NVSD85627Q","ARN8MH7YKZKAZ","3I7KR83SNAZT1REYB2SRC49PCEEK9H","","null","<img src=""img/flower6.png"" style=""width:200px; border:14px solid green;"">","null","","","","","","","","",""
"","image-keyboard-response","279","181455","0.0-279.0","3NAPMVF0ZX1WSCK9Y1T5NVSD85627Q","ARN8MH7YKZKAZ","3I7KR83SNAZT1REYB2SRC49PCEEK9H","","784.7999999523163","img/flower4.png","76","786.0999999046326","3","1","2","2","1,0,0,1,1,0,1,0,1","0,1,0,0,1,1,1,1,0","3",""
"","html-keyboard-response","280","181757","0.0-280.0","3NAPMVF0ZX1WSCK9Y1T5NVSD85627Q","ARN8MH7YKZKAZ","3I7KR83SNAZT1REYB2SRC49PCEEK9H","","null","<img src=""img/flower4.png"" style=""width:200px; border:14px solid green;"">","null","","","","","","","","",""
"","image-keyboard-response","281","182647","0.0-281.0","3NAPMVF0ZX1WSCK9Y1T5NVSD85627Q","ARN8MH7YKZKAZ","3I7KR83SNAZT1REYB2SRC49PCEEK9H","","888.2999999523163","img/flower6.png","75","889.7999999523163","2","1","3","2","1,0,0,1,1,0,1,0,1","0,1,0,0,1,1,1,1,0","3",""
"","html-keyboard-response","282","182949","0.0-282.0","3NAPMVF0ZX1WSCK9Y1T5NVSD85627Q","ARN8MH7YKZKAZ","3I7KR83SNAZT1REYB2SRC49PCEEK9H","","null","<img src=""img/flower6.png"" style=""width:200px; border:14px solid green;"">","null","","","","","","","","",""
"","image-keyboard-response","283","183335","0.0-283.0","3NAPMVF0ZX1WSCK9Y1T5NVSD85627Q","ARN8MH7YKZKAZ","3I7KR83SNAZT1REYB2SRC49PCEEK9H","","384.09999990463257","img/flower6.png","75","385.40000009536743","2","1","3","2","1,0,0,1,1,0,1,0,1","0,1,0,0,1,1,1,1,0","3",""
"","html-keyboard-response","284","183637","0.0-284.0","3NAPMVF0ZX1WSCK9Y1T5NVSD85627Q","ARN8MH7YKZKAZ","3I7KR83SNAZT1REYB2SRC49PCEEK9H","","null","<img src=""img/flower6.png"" style=""width:200px; border:14px solid green;"">","null","","","","","","","","",""
"","image-keyboard-response","285","184239","0.0-285.0","3NAPMVF0ZX1WSCK9Y1T5NVSD85627Q","ARN8MH7YKZKAZ","3I7KR83SNAZT1REYB2SRC49PCEEK9H","","600.5999999046326","img/flower5.png","76","601.7999999523163","3","0","1","2","1,0,0,1,1,0,1,0,1","0,1,0,0,1,1,1,1,0","3",""
"","html-keyboard-response","286","184541","0.0-286.0","3NAPMVF0ZX1WSCK9Y1T5NVSD85627Q","ARN8MH7YKZKAZ","3I7KR83SNAZT1REYB2SRC49PCEEK9H","","null","<img src=""img/flower5.png"" style=""width:200px;border:14px solid red;"">","null","","","","","","","","",""
"","image-keyboard-response","287","185415","0.0-287.0","3NAPMVF0ZX1WSCK9Y1T5NVSD85627Q","ARN8MH7YKZKAZ","3I7KR83SNAZT1REYB2SRC49PCEEK9H","","872.6999998092651","img/flower6.png","75","874","2","1","3","2","1,0,0,1,1,0,1,0,1","0,1,0,0,1,1,1,1,0","3",""
"","html-keyboard-response","288","185717","0.0-288.0","3NAPMVF0ZX1WSCK9Y1T5NVSD85627Q","ARN8MH7YKZKAZ","3I7KR83SNAZT1REYB2SRC49PCEEK9H","","null","<img src=""img/flower6.png"" style=""width:200px; border:14px solid green;"">","null","","","","","","","","",""
"","image-keyboard-response","289","186639","0.0-289.0","3NAPMVF0ZX1WSCK9Y1T5NVSD85627Q","ARN8MH7YKZKAZ","3I7KR83SNAZT1REYB2SRC49PCEEK9H","","920.4000000953674","img/flower5.png","74","921.7000000476837","1","0","1","2","1,0,0,1,1,0,1,0,1","0,1,0,0,1,1,1,1,0","3",""
"","html-keyboard-response","290","186941","0.0-290.0","3NAPMVF0ZX1WSCK9Y1T5NVSD85627Q","ARN8MH7YKZKAZ","3I7KR83SNAZT1REYB2SRC49PCEEK9H","","null","<img src=""img/flower5.png"" style=""width:200px;border:14px solid red;"">","null","","","","","","","","",""
"","image-keyboard-response","291","187175","0.0-291.0","3NAPMVF0ZX1WSCK9Y1T5NVSD85627Q","ARN8MH7YKZKAZ","3I7KR83SNAZT1REYB2SRC49PCEEK9H","","232.69999980926514","img/flower5.png","74","234","1","0","1","2","1,0,0,1,1,0,1,0,1","0,1,0,0,1,1,1,1,0","3",""
"","html-keyboard-response","292","187478","0.0-292.0","3NAPMVF0ZX1WSCK9Y1T5NVSD85627Q","ARN8MH7YKZKAZ","3I7KR83SNAZT1REYB2SRC49PCEEK9H","","null","<img src=""img/flower5.png"" style=""width:200px;border:14px solid red;"">","null","","","","","","","","",""
"","image-keyboard-response","293","187823","0.0-293.0","3NAPMVF0ZX1WSCK9Y1T5NVSD85627Q","ARN8MH7YKZKAZ","3I7KR83SNAZT1REYB2SRC49PCEEK9H","","343.90000009536743","img/flower5.png","74","345.2000000476837","1","0","1","2","1,0,0,1,1,0,1,0,1","0,1,0,0,1,1,1,1,0","3",""
"","html-keyboard-response","294","188126","0.0-294.0","3NAPMVF0ZX1WSCK9Y1T5NVSD85627Q","ARN8MH7YKZKAZ","3I7KR83SNAZT1REYB2SRC49PCEEK9H","","null","<img src=""img/flower5.png"" style=""width:200px;border:14px solid red;"">","null","","","","","","","","",""
"","image-keyboard-response","295","188887","0.0-295.0","3NAPMVF0ZX1WSCK9Y1T5NVSD85627Q","ARN8MH7YKZKAZ","3I7KR83SNAZT1REYB2SRC49PCEEK9H","","759.6000001430511","img/flower5.png","76","760.7999999523163","3","0","1","2","1,0,0,1,1,0,1,0,1","0,1,0,0,1,1,1,1,0","3",""
"","html-keyboard-response","296","189189","0.0-296.0","3NAPMVF0ZX1WSCK9Y1T5NVSD85627Q","ARN8MH7YKZKAZ","3I7KR83SNAZT1REYB2SRC49PCEEK9H","","null","<img src=""img/flower5.png"" style=""width:200px;border:14px solid red;"">","null","","","","","","","","",""
"","image-keyboard-response","297","189511","0.0-297.0","3NAPMVF0ZX1WSCK9Y1T5NVSD85627Q","ARN8MH7YKZKAZ","3I7KR83SNAZT1REYB2SRC49PCEEK9H","","320.59999990463257","img/flower5.png","75","321.90000009536743","2","1","1","2","1,0,0,1,1,0,1,0,1","0,1,0,0,1,1,1,1,0","3",""
"","html-keyboard-response","298","189812","0.0-298.0","3NAPMVF0ZX1WSCK9Y1T5NVSD85627Q","ARN8MH7YKZKAZ","3I7KR83SNAZT1REYB2SRC49PCEEK9H","","null","<img src=""img/flower5.png"" style=""width:200px; border:14px solid green;"">","null","","","","","","","","",""
"","image-keyboard-response","299","190591","0.0-299.0","3NAPMVF0ZX1WSCK9Y1T5NVSD85627Q","ARN8MH7YKZKAZ","3I7KR83SNAZT1REYB2SRC49PCEEK9H","","776.5999999046326","img/flower4.png","76","777.8999998569489","3","1","2","2","1,0,0,1,1,0,1,0,1","0,1,0,0,1,1,1,1,0","3",""
"","html-keyboard-response","300","190896","0.0-300.0","3NAPMVF0ZX1WSCK9Y1T5NVSD85627Q","ARN8MH7YKZKAZ","3I7KR83SNAZT1REYB2SRC49PCEEK9H","","null","<img src=""img/flower4.png"" style=""width:200px; border:14px solid green;"">","null","","","","","","","","",""
"","image-keyboard-response","301","191823","0.0-301.0","3NAPMVF0ZX1WSCK9Y1T5NVSD85627Q","ARN8MH7YKZKAZ","3I7KR83SNAZT1REYB2SRC49PCEEK9H","","925.1000001430511","img/flower6.png","75","926.5","2","1","3","2","1,0,0,1,1,0,1,0,1","0,1,0,0,1,1,1,1,0","3",""
"","html-keyboard-response","302","192125","0.0-302.0","3NAPMVF0ZX1WSCK9Y1T5NVSD85627Q","ARN8MH7YKZKAZ","3I7KR83SNAZT1REYB2SRC49PCEEK9H","","null","<img src=""img/flower6.png"" style=""width:200px; border:14px solid green;"">","null","","","","","","","","",""
"","image-keyboard-response","303","192927","0.0-303.0","3NAPMVF0ZX1WSCK9Y1T5NVSD85627Q","ARN8MH7YKZKAZ","3I7KR83SNAZT1REYB2SRC49PCEEK9H","","800.5","img/flower4.png","76","801.9000000953674","3","1","2","2","1,0,0,1,1,0,1,0,1","0,1,0,0,1,1,1,1,0","3",""
"","html-keyboard-response","304","193229","0.0-304.0","3NAPMVF0ZX1WSCK9Y1T5NVSD85627Q","ARN8MH7YKZKAZ","3I7KR83SNAZT1REYB2SRC49PCEEK9H","","null","<img src=""img/flower4.png"" style=""width:200px; border:14px solid green;"">","null","","","","","","","","",""
"","image-keyboard-response","305","193591","0.0-305.0","3NAPMVF0ZX1WSCK9Y1T5NVSD85627Q","ARN8MH7YKZKAZ","3I7KR83SNAZT1REYB2SRC49PCEEK9H","","360.5","img/flower4.png","76","361.90000009536743","3","1","2","2","1,0,0,1,1,0,1,0,1","0,1,0,0,1,1,1,1,0","3",""
"","html-keyboard-response","306","193893","0.0-306.0","3NAPMVF0ZX1WSCK9Y1T5NVSD85627Q","ARN8MH7YKZKAZ","3I7KR83SNAZT1REYB2SRC49PCEEK9H","","null","<img src=""img/flower4.png"" style=""width:200px; border:14px solid green;"">","null","","","","","","","","",""
"","image-keyboard-response","307","194159","0.0-307.0","3NAPMVF0ZX1WSCK9Y1T5NVSD85627Q","ARN8MH7YKZKAZ","3I7KR83SNAZT1REYB2SRC49PCEEK9H","","263.7000000476837","img/flower4.png","76","265","3","1","2","2","1,0,0,1,1,0,1,0,1","0,1,0,0,1,1,1,1,0","3",""
"","html-keyboard-response","308","194460","0.0-308.0","3NAPMVF0ZX1WSCK9Y1T5NVSD85627Q","ARN8MH7YKZKAZ","3I7KR83SNAZT1REYB2SRC49PCEEK9H","","null","<img src=""img/flower4.png"" style=""width:200px; border:14px solid green;"">","null","","","","","","","","",""
"","image-keyboard-response","309","194767","0.0-309.0","3NAPMVF0ZX1WSCK9Y1T5NVSD85627Q","ARN8MH7YKZKAZ","3I7KR83SNAZT1REYB2SRC49PCEEK9H","","303.60000014305115","img/flower4.png","76","304.89999985694885","3","1","2","2","1,0,0,1,1,0,1,0,1","0,1,0,0,1,1,1,1,0","3",""
"","html-keyboard-response","310","195073","0.0-310.0","3NAPMVF0ZX1WSCK9Y1T5NVSD85627Q","ARN8MH7YKZKAZ","3I7KR83SNAZT1REYB2SRC49PCEEK9H","","null","<img src=""img/flower4.png"" style=""width:200px; border:14px solid green;"">","null","","","","","","","","",""
"","image-keyboard-response","311","195623","0.0-311.0","3NAPMVF0ZX1WSCK9Y1T5NVSD85627Q","ARN8MH7YKZKAZ","3I7KR83SNAZT1REYB2SRC49PCEEK9H","","548.5","img/flower6.png","75","549.5","2","1","3","2","1,0,0,1,1,0,1,0,1","0,1,0,0,1,1,1,1,0","3",""
"","html-keyboard-response","312","195925","0.0-312.0","3NAPMVF0ZX1WSCK9Y1T5NVSD85627Q","ARN8MH7YKZKAZ","3I7KR83SNAZT1REYB2SRC49PCEEK9H","","null","<img src=""img/flower6.png"" style=""width:200px; border:14px solid green;"">","null","","","","","","","","",""
"","image-keyboard-response","313","196599","0.0-313.0","3NAPMVF0ZX1WSCK9Y1T5NVSD85627Q","ARN8MH7YKZKAZ","3I7KR83SNAZT1REYB2SRC49PCEEK9H","","672","img/flower4.png","76","673.2999999523163","3","1","2","2","1,0,0,1,1,0,1,0,1","0,1,0,0,1,1,1,1,0","3",""
"","html-keyboard-response","314","196901","0.0-314.0","3NAPMVF0ZX1WSCK9Y1T5NVSD85627Q","ARN8MH7YKZKAZ","3I7KR83SNAZT1REYB2SRC49PCEEK9H","","null","<img src=""img/flower4.png"" style=""width:200px; border:14px solid green;"">","null","","","","","","","","",""
"","image-keyboard-response","315","197047","0.0-315.0","3NAPMVF0ZX1WSCK9Y1T5NVSD85627Q","ARN8MH7YKZKAZ","3I7KR83SNAZT1REYB2SRC49PCEEK9H","","144.20000004768372","img/flower6.png","76","145.5","3","0","3","2","1,0,0,1,1,0,1,0,1","0,1,0,0,1,1,1,1,0","3",""
"","html-keyboard-response","316","197348","0.0-316.0","3NAPMVF0ZX1WSCK9Y1T5NVSD85627Q","ARN8MH7YKZKAZ","3I7KR83SNAZT1REYB2SRC49PCEEK9H","","null","<img src=""img/flower6.png"" style=""width:200px;border:14px solid red;"">","null","","","","","","","","",""
"","image-keyboard-response","317","197887","0.0-317.0","3NAPMVF0ZX1WSCK9Y1T5NVSD85627Q","ARN8MH7YKZKAZ","3I7KR83SNAZT1REYB2SRC49PCEEK9H","","537","img/flower4.png","75","538.2000000476837","2","1","2","2","1,0,0,1,1,0,1,0,1","0,1,0,0,1,1,1,1,0","3",""
"","html-keyboard-response","318","198188","0.0-318.0","3NAPMVF0ZX1WSCK9Y1T5NVSD85627Q","ARN8MH7YKZKAZ","3I7KR83SNAZT1REYB2SRC49PCEEK9H","","null","<img src=""img/flower4.png"" style=""width:200px; border:14px solid green;"">","null","","","","","","","","",""
"","image-keyboard-response","319","199039","0.0-319.0","3NAPMVF0ZX1WSCK9Y1T5NVSD85627Q","ARN8MH7YKZKAZ","3I7KR83SNAZT1REYB2SRC49PCEEK9H","","848.7000000476837","img/flower5.png","75","850","2","1","1","2","1,0,0,1,1,0,1,0,1","0,1,0,0,1,1,1,1,0","3",""
"","html-keyboard-response","320","199340","0.0-320.0","3NAPMVF0ZX1WSCK9Y1T5NVSD85627Q","ARN8MH7YKZKAZ","3I7KR83SNAZT1REYB2SRC49PCEEK9H","","null","<img src=""img/flower5.png"" style=""width:200px; border:14px solid green;"">","null","","","","","","","","",""
"","image-keyboard-response","321","199807","0.0-321.0","3NAPMVF0ZX1WSCK9Y1T5NVSD85627Q","ARN8MH7YKZKAZ","3I7KR83SNAZT1REYB2SRC49PCEEK9H","","464.90000009536743","img/flower5.png","76","466.2000000476837","3","0","1","2","1,0,0,1,1,0,1,0,1","0,1,0,0,1,1,1,1,0","3",""
"","html-keyboard-response","322","200109","0.0-322.0","3NAPMVF0ZX1WSCK9Y1T5NVSD85627Q","ARN8MH7YKZKAZ","3I7KR83SNAZT1REYB2SRC49PCEEK9H","","null","<img src=""img/flower5.png"" style=""width:200px;border:14px solid red;"">","null","","","","","","","","",""
"","image-keyboard-response","323","202055","0.0-323.0","3NAPMVF0ZX1WSCK9Y1T5NVSD85627Q","ARN8MH7YKZKAZ","3I7KR83SNAZT1REYB2SRC49PCEEK9H","","1944.6000001430511","img/flower4.png","76","1946","3","1","2","2","1,0,0,1,1,0,1,0,1","0,1,0,0,1,1,1,1,0","3",""
"","html-keyboard-response","324","202371","0.0-324.0","3NAPMVF0ZX1WSCK9Y1T5NVSD85627Q","ARN8MH7YKZKAZ","3I7KR83SNAZT1REYB2SRC49PCEEK9H","","null","<img src=""img/flower4.png"" style=""width:200px; border:14px solid green;"">","null","","","","","","","","",""
"","image-keyboard-response","325","203879","0.0-325.0","3NAPMVF0ZX1WSCK9Y1T5NVSD85627Q","ARN8MH7YKZKAZ","3I7KR83SNAZT1REYB2SRC49PCEEK9H","","1506.0999999046326","img/flower5.png","76","1507.5","3","0","1","2","1,0,0,1,1,0,1,0,1","0,1,0,0,1,1,1,1,0","3",""
"","html-keyboard-response","326","204181","0.0-326.0","3NAPMVF0ZX1WSCK9Y1T5NVSD85627Q","ARN8MH7YKZKAZ","3I7KR83SNAZT1REYB2SRC49PCEEK9H","","null","<img src=""img/flower5.png"" style=""width:200px;border:14px solid red;"">","null","","","","","","","","",""
"","image-keyboard-response","327","204927","0.0-327.0","3NAPMVF0ZX1WSCK9Y1T5NVSD85627Q","ARN8MH7YKZKAZ","3I7KR83SNAZT1REYB2SRC49PCEEK9H","","744.2999999523163","img/flower6.png","75","745.5999999046326","2","1","3","2","1,0,0,1,1,0,1,0,1","0,1,0,0,1,1,1,1,0","3",""
"","html-keyboard-response","328","205228","0.0-328.0","3NAPMVF0ZX1WSCK9Y1T5NVSD85627Q","ARN8MH7YKZKAZ","3I7KR83SNAZT1REYB2SRC49PCEEK9H","","null","<img src=""img/flower6.png"" style=""width:200px; border:14px solid green;"">","null","","","","","","","","",""
"","image-keyboard-response","329","206159","0.0-329.0","3NAPMVF0ZX1WSCK9Y1T5NVSD85627Q","ARN8MH7YKZKAZ","3I7KR83SNAZT1REYB2SRC49PCEEK9H","","928.7000000476837","img/flower4.png","76","930","3","1","2","2","1,0,0,1,1,0,1,0,1","0,1,0,0,1,1,1,1,0","3",""
"","html-keyboard-response","330","206460","0.0-330.0","3NAPMVF0ZX1WSCK9Y1T5NVSD85627Q","ARN8MH7YKZKAZ","3I7KR83SNAZT1REYB2SRC49PCEEK9H","","null","<img src=""img/flower4.png"" style=""width:200px; border:14px solid green;"">","null","","","","","","","","",""
"","image-keyboard-response","331","207111","0.0-331.0","3NAPMVF0ZX1WSCK9Y1T5NVSD85627Q","ARN8MH7YKZKAZ","3I7KR83SNAZT1REYB2SRC49PCEEK9H","","648.5999999046326","img/flower5.png","75","649.7999999523163","2","1","1","2","1,0,0,1,1,0,1,0,1","0,1,0,0,1,1,1,1,0","3",""
"","html-keyboard-response","332","207425","0.0-332.0","3NAPMVF0ZX1WSCK9Y1T5NVSD85627Q","ARN8MH7YKZKAZ","3I7KR83SNAZT1REYB2SRC49PCEEK9H","","null","<img src=""img/flower5.png"" style=""width:200px; border:14px solid green;"">","null","","","","","","","","",""
"","image-keyboard-response","333","207783","0.0-333.0","3NAPMVF0ZX1WSCK9Y1T5NVSD85627Q","ARN8MH7YKZKAZ","3I7KR83SNAZT1REYB2SRC49PCEEK9H","","355.7999999523163","img/flower5.png","75","357.09999990463257","2","1","1","2","1,0,0,1,1,0,1,0,1","0,1,0,0,1,1,1,1,0","3",""
"","html-keyboard-response","334","208085","0.0-334.0","3NAPMVF0ZX1WSCK9Y1T5NVSD85627Q","ARN8MH7YKZKAZ","3I7KR83SNAZT1REYB2SRC49PCEEK9H","","null","<img src=""img/flower5.png"" style=""width:200px; border:14px solid green;"">","null","","","","","","","","",""
"","image-keyboard-response","335","208935","0.0-335.0","3NAPMVF0ZX1WSCK9Y1T5NVSD85627Q","ARN8MH7YKZKAZ","3I7KR83SNAZT1REYB2SRC49PCEEK9H","","848.5999999046326","img/flower6.png","75","849.8999998569489","2","1","3","2","1,0,0,1,1,0,1,0,1","0,1,0,0,1,1,1,1,0","3",""
"","html-keyboard-response","336","209237","0.0-336.0","3NAPMVF0ZX1WSCK9Y1T5NVSD85627Q","ARN8MH7YKZKAZ","3I7KR83SNAZT1REYB2SRC49PCEEK9H","","null","<img src=""img/flower6.png"" style=""width:200px; border:14px solid green;"">","null","","","","","","","","",""
"","image-keyboard-response","337","209638","0.0-337.0","3NAPMVF0ZX1WSCK9Y1T5NVSD85627Q","ARN8MH7YKZKAZ","3I7KR83SNAZT1REYB2SRC49PCEEK9H","","400.5","img/flower6.png","75","401.7000000476837","2","1","3","2","1,0,0,1,1,0,1,0,1","0,1,0,0,1,1,1,1,0","3",""
"","html-keyboard-response","338","209940","0.0-338.0","3NAPMVF0ZX1WSCK9Y1T5NVSD85627Q","ARN8MH7YKZKAZ","3I7KR83SNAZT1REYB2SRC49PCEEK9H","","null","<img src=""img/flower6.png"" style=""width:200px; border:14px solid green;"">","null","","","","","","","","",""
"","image-keyboard-response","339","210846","0.0-339.0","3NAPMVF0ZX1WSCK9Y1T5NVSD85627Q","ARN8MH7YKZKAZ","3I7KR83SNAZT1REYB2SRC49PCEEK9H","","904.7000000476837","img/flower5.png","75","906","2","1","1","2","1,0,0,1,1,0,1,0,1","0,1,0,0,1,1,1,1,0","3",""
"","html-keyboard-response","340","211149","0.0-340.0","3NAPMVF0ZX1WSCK9Y1T5NVSD85627Q","ARN8MH7YKZKAZ","3I7KR83SNAZT1REYB2SRC49PCEEK9H","","null","<img src=""img/flower5.png"" style=""width:200px; border:14px solid green;"">","null","","","","","","","","",""
"","image-keyboard-response","341","211782","0.0-341.0","3NAPMVF0ZX1WSCK9Y1T5NVSD85627Q","ARN8MH7YKZKAZ","3I7KR83SNAZT1REYB2SRC49PCEEK9H","","632.4000000953674","img/flower4.png","76","633.7000000476837","3","1","2","2","1,0,0,1,1,0,1,0,1","0,1,0,0,1,1,1,1,0","3",""
"","html-keyboard-response","342","212085","0.0-342.0","3NAPMVF0ZX1WSCK9Y1T5NVSD85627Q","ARN8MH7YKZKAZ","3I7KR83SNAZT1REYB2SRC49PCEEK9H","","null","<img src=""img/flower4.png"" style=""width:200px; border:14px solid green;"">","null","","","","","","","","",""
"","image-keyboard-response","343","212590","0.0-343.0","3NAPMVF0ZX1WSCK9Y1T5NVSD85627Q","ARN8MH7YKZKAZ","3I7KR83SNAZT1REYB2SRC49PCEEK9H","","503.90000009536743","img/flower4.png","76","505.19999980926514","3","1","2","2","1,0,0,1,1,0,1,0,1","0,1,0,0,1,1,1,1,0","3",""
"","html-keyboard-response","344","212892","0.0-344.0","3NAPMVF0ZX1WSCK9Y1T5NVSD85627Q","ARN8MH7YKZKAZ","3I7KR83SNAZT1REYB2SRC49PCEEK9H","","null","<img src=""img/flower4.png"" style=""width:200px; border:14px solid green;"">","null","","","","","","","","",""
"","image-keyboard-response","345","213590","0.0-345.0","3NAPMVF0ZX1WSCK9Y1T5NVSD85627Q","ARN8MH7YKZKAZ","3I7KR83SNAZT1REYB2SRC49PCEEK9H","","696.7999999523163","img/flower6.png","75","698.0999999046326","2","1","3","2","1,0,0,1,1,0,1,0,1","0,1,0,0,1,1,1,1,0","3",""
"","html-keyboard-response","346","213893","0.0-346.0","3NAPMVF0ZX1WSCK9Y1T5NVSD85627Q","ARN8MH7YKZKAZ","3I7KR83SNAZT1REYB2SRC49PCEEK9H","","null","<img src=""img/flower6.png"" style=""width:200px; border:14px solid green;"">","null","","","","","","","","",""
"","image-keyboard-response","347","214510","0.0-347.0","3NAPMVF0ZX1WSCK9Y1T5NVSD85627Q","ARN8MH7YKZKAZ","3I7KR83SNAZT1REYB2SRC49PCEEK9H","","615.7999999523163","img/flower4.png","76","617.1000001430511","3","1","2","2","1,0,0,1,1,0,1,0,1","0,1,0,0,1,1,1,1,0","3",""
"","html-keyboard-response","348","214812","0.0-348.0","3NAPMVF0ZX1WSCK9Y1T5NVSD85627Q","ARN8MH7YKZKAZ","3I7KR83SNAZT1REYB2SRC49PCEEK9H","","null","<img src=""img/flower4.png"" style=""width:200px; border:14px solid green;"">","null","","","","","","","","",""
"","image-keyboard-response","349","215534","0.0-349.0","3NAPMVF0ZX1WSCK9Y1T5NVSD85627Q","ARN8MH7YKZKAZ","3I7KR83SNAZT1REYB2SRC49PCEEK9H","","720.7999999523163","img/flower5.png","75","722.2000000476837","2","1","1","2","1,0,0,1,1,0,1,0,1","0,1,0,0,1,1,1,1,0","3",""
"","html-keyboard-response","350","215837","0.0-350.0","3NAPMVF0ZX1WSCK9Y1T5NVSD85627Q","ARN8MH7YKZKAZ","3I7KR83SNAZT1REYB2SRC49PCEEK9H","","null","<img src=""img/flower5.png"" style=""width:200px; border:14px solid green;"">","null","","","","","","","","",""
"","image-keyboard-response","351","216246","0.0-351.0","3NAPMVF0ZX1WSCK9Y1T5NVSD85627Q","ARN8MH7YKZKAZ","3I7KR83SNAZT1REYB2SRC49PCEEK9H","","408.2999999523163","img/flower5.png","75","409.2999999523163","2","1","1","2","1,0,0,1,1,0,1,0,1","0,1,0,0,1,1,1,1,0","3",""
"","html-keyboard-response","352","216548","0.0-352.0","3NAPMVF0ZX1WSCK9Y1T5NVSD85627Q","ARN8MH7YKZKAZ","3I7KR83SNAZT1REYB2SRC49PCEEK9H","","null","<img src=""img/flower5.png"" style=""width:200px; border:14px solid green;"">","null","","","","","","","","",""
"","image-keyboard-response","353","217086","0.0-353.0","3NAPMVF0ZX1WSCK9Y1T5NVSD85627Q","ARN8MH7YKZKAZ","3I7KR83SNAZT1REYB2SRC49PCEEK9H","","536.6000001430511","img/flower4.png","76","537.9000000953674","3","1","2","2","1,0,0,1,1,0,1,0,1","0,1,0,0,1,1,1,1,0","3",""
"","html-keyboard-response","354","217388","0.0-354.0","3NAPMVF0ZX1WSCK9Y1T5NVSD85627Q","ARN8MH7YKZKAZ","3I7KR83SNAZT1REYB2SRC49PCEEK9H","","null","<img src=""img/flower4.png"" style=""width:200px; border:14px solid green;"">","null","","","","","","","","",""
"","image-keyboard-response","355","217638","0.0-355.0","3NAPMVF0ZX1WSCK9Y1T5NVSD85627Q","ARN8MH7YKZKAZ","3I7KR83SNAZT1REYB2SRC49PCEEK9H","","248.60000014305115","img/flower5.png","76","250","3","0","1","2","1,0,0,1,1,0,1,0,1","0,1,0,0,1,1,1,1,0","3",""
"","html-keyboard-response","356","217940","0.0-356.0","3NAPMVF0ZX1WSCK9Y1T5NVSD85627Q","ARN8MH7YKZKAZ","3I7KR83SNAZT1REYB2SRC49PCEEK9H","","null","<img src=""img/flower5.png"" style=""width:200px;border:14px solid red;"">","null","","","","","","","","",""
"","image-keyboard-response","357","218951","0.0-357.0","3NAPMVF0ZX1WSCK9Y1T5NVSD85627Q","ARN8MH7YKZKAZ","3I7KR83SNAZT1REYB2SRC49PCEEK9H","","1008.9000000953674","img/flower4.png","76","1010.1000001430511","3","1","2","2","1,0,0,1,1,0,1,0,1","0,1,0,0,1,1,1,1,0","3",""
"","html-keyboard-response","358","219253","0.0-358.0","3NAPMVF0ZX1WSCK9Y1T5NVSD85627Q","ARN8MH7YKZKAZ","3I7KR83SNAZT1REYB2SRC49PCEEK9H","","null","<img src=""img/flower4.png"" style=""width:200px; border:14px solid green;"">","null","","","","","","","","",""
"","image-keyboard-response","359","219614","0.0-359.0","3NAPMVF0ZX1WSCK9Y1T5NVSD85627Q","ARN8MH7YKZKAZ","3I7KR83SNAZT1REYB2SRC49PCEEK9H","","359.89999985694885","img/flower4.png","75","361.2999999523163","2","1","2","2","1,0,0,1,1,0,1,0,1","0,1,0,0,1,1,1,1,0","3",""
"","html-keyboard-response","360","219917","0.0-360.0","3NAPMVF0ZX1WSCK9Y1T5NVSD85627Q","ARN8MH7YKZKAZ","3I7KR83SNAZT1REYB2SRC49PCEEK9H","","null","<img src=""img/flower4.png"" style=""width:200px; border:14px solid green;"">","null","","","","","","","","",""
"","image-keyboard-response","361","220102","0.0-361.0","3NAPMVF0ZX1WSCK9Y1T5NVSD85627Q","ARN8MH7YKZKAZ","3I7KR83SNAZT1REYB2SRC49PCEEK9H","","184.19999980926514","img/flower6.png","76","185.5","3","0","3","2","1,0,0,1,1,0,1,0,1","0,1,0,0,1,1,1,1,0","3",""
"","html-keyboard-response","362","220404","0.0-362.0","3NAPMVF0ZX1WSCK9Y1T5NVSD85627Q","ARN8MH7YKZKAZ","3I7KR83SNAZT1REYB2SRC49PCEEK9H","","null","<img src=""img/flower6.png"" style=""width:200px;border:14px solid red;"">","null","","","","","","","","",""
"","instructions","363","227066","0.0-363.0","3NAPMVF0ZX1WSCK9Y1T5NVSD85627Q","ARN8MH7YKZKAZ","3I7KR83SNAZT1REYB2SRC49PCEEK9H","[{""page_index"":0,""viewing_time"":6660.400000095367}]","6660.700000047684","","","","","","","","","","",""
"","survey-text","364","229915","0.0-364.0","3NAPMVF0ZX1WSCK9Y1T5NVSD85627Q","ARN8MH7YKZKAZ","3I7KR83SNAZT1REYB2SRC49PCEEK9H","","2844.5999999046326","","","","","","","","","","","{""Q0"":""ARN8MH7YKZKAZ""}"
