"success","trial_type","trial_index","time_elapsed","internal_node_id","assignmentID","mturkID","hitID","view_history","rt","stimulus","key_press","reactionTime","a","r","s","cond","reward_cond","reward_cond_actual","reward_matrix_idx","responses"
"true","fullscreen","0","3486","0.0-0.0","33SA9F9TRYG3D7XQZTWIHC0JYZ3WEM","ARR3UJTM2ZGK4","3566S7OX5D5NH74JOVOPTTMK8IR17K","","","","","","","","","","","","",""
"","instructions","1","48565","0.0-1.0","33SA9F9TRYG3D7XQZTWIHC0JYZ3WEM","ARR3UJTM2ZGK4","3566S7OX5D5NH74JOVOPTTMK8IR17K","[{""page_index"":0,""viewing_time"":6844.799999999814},{""page_index"":1,""viewing_time"":3023.7999999998137},{""page_index"":2,""viewing_time"":7535.9000000003725},{""page_index"":3,""viewing_time"":4168},{""page_index"":4,""viewing_time"":4455.799999999814},{""page_index"":5,""viewing_time"":3832.0999999996275},{""page_index"":6,""viewing_time"":8903.900000000373},{""page_index"":7,""viewing_time"":6311.899999999441}]","45076.5","","","","","","","","","","",""
"","image-keyboard-response","2","49367","0.0-2.0","33SA9F9TRYG3D7XQZTWIHC0JYZ3WEM","ARR3UJTM2ZGK4","3566S7OX5D5NH74JOVOPTTMK8IR17K","","799.2999999998137","img/flower3.png","74","801","1","1","3","2","1,0,0,1,1,0,1,0,1","1,0,0,1,1,0,1,0,1","1",""
"","html-keyboard-response","3","49670","0.0-3.0","33SA9F9TRYG3D7XQZTWIHC0JYZ3WEM","ARR3UJTM2ZGK4","3566S7OX5D5NH74JOVOPTTMK8IR17K","","null","<img src=""img/flower3.png"" style=""width:200px; border:14px solid green;"">","null","","","","","","","","",""
"","image-keyboard-response","4","50373","0.0-4.0","33SA9F9TRYG3D7XQZTWIHC0JYZ3WEM","ARR3UJTM2ZGK4","3566S7OX5D5NH74JOVOPTTMK8IR17K","","701.6999999992549","img/flower1.png","75","703","2","0","1","2","1,0,0,1,1,0,1,0,1","1,0,0,1,1,0,1,0,1","1",""
"","html-keyboard-response","5","50677","0.0-5.0","33SA9F9TRYG3D7XQZTWIHC0JYZ3WEM","ARR3UJTM2ZGK4","3566S7OX5D5NH74JOVOPTTMK8IR17K","","null","<img src=""img/flower1.png"" style=""width:200px;border:14px solid red;"">","null","","","","","","","","",""
"","image-keyboard-response","6","51317","0.0-6.0","33SA9F9TRYG3D7XQZTWIHC0JYZ3WEM","ARR3UJTM2ZGK4","3566S7OX5D5NH74JOVOPTTMK8IR17K","","638.5","img/flower1.png","76","639.5","3","0","1","2","1,0,0,1,1,0,1,0,1","1,0,0,1,1,0,1,0,1","1",""
"","html-keyboard-response","7","51618","0.0-7.0","33SA9F9TRYG3D7XQZTWIHC0JYZ3WEM","ARR3UJTM2ZGK4","3566S7OX5D5NH74JOVOPTTMK8IR17K","","null","<img src=""img/flower1.png"" style=""width:200px;border:14px solid red;"">","null","","","","","","","","",""
"","image-keyboard-response","8","52229","0.0-8.0","33SA9F9TRYG3D7XQZTWIHC0JYZ3WEM","ARR3UJTM2ZGK4","3566S7OX5D5NH74JOVOPTTMK8IR17K","","609.4000000003725","img/flower1.png","74","610.7999999998137","1","1","1","2","1,0,0,1,1,0,1,0,1","1,0,0,1,1,0,1,0,1","1",""
"","html-keyboard-response","9","52532","0.0-9.0","33SA9F9TRYG3D7XQZTWIHC0JYZ3WEM","ARR3UJTM2ZGK4","3566S7OX5D5NH74JOVOPTTMK8IR17K","","null","<img src=""img/flower1.png"" style=""width:200px; border:14px solid green;"">","null","","","","","","","","",""
"","image-keyboard-response","10","52997","0.0-10.0","33SA9F9TRYG3D7XQZTWIHC0JYZ3WEM","ARR3UJTM2ZGK4","3566S7OX5D5NH74JOVOPTTMK8IR17K","","464.29999999981374","img/flower1.png","74","465.70000000018626","1","1","1","2","1,0,0,1,1,0,1,0,1","1,0,0,1,1,0,1,0,1","1",""
"","html-keyboard-response","11","53300","0.0-11.0","33SA9F9TRYG3D7XQZTWIHC0JYZ3WEM","ARR3UJTM2ZGK4","3566S7OX5D5NH74JOVOPTTMK8IR17K","","null","<img src=""img/flower1.png"" style=""width:200px; border:14px solid green;"">","null","","","","","","","","",""
"","image-keyboard-response","12","53669","0.0-12.0","33SA9F9TRYG3D7XQZTWIHC0JYZ3WEM","ARR3UJTM2ZGK4","3566S7OX5D5NH74JOVOPTTMK8IR17K","","368.19999999925494","img/flower1.png","74","369.40000000037253","1","1","1","2","1,0,0,1,1,0,1,0,1","1,0,0,1,1,0,1,0,1","1",""
"","html-keyboard-response","13","53971","0.0-13.0","33SA9F9TRYG3D7XQZTWIHC0JYZ3WEM","ARR3UJTM2ZGK4","3566S7OX5D5NH74JOVOPTTMK8IR17K","","null","<img src=""img/flower1.png"" style=""width:200px; border:14px solid green;"">","null","","","","","","","","",""
"","image-keyboard-response","14","54837","0.0-14.0","33SA9F9TRYG3D7XQZTWIHC0JYZ3WEM","ARR3UJTM2ZGK4","3566S7OX5D5NH74JOVOPTTMK8IR17K","","865.3999999994412","img/flower2.png","76","866.1000000005588","3","0","2","2","1,0,0,1,1,0,1,0,1","1,0,0,1,1,0,1,0,1","1",""
"","html-keyboard-response","15","55140","0.0-15.0","33SA9F9TRYG3D7XQZTWIHC0JYZ3WEM","ARR3UJTM2ZGK4","3566S7OX5D5NH74JOVOPTTMK8IR17K","","null","<img src=""img/flower2.png"" style=""width:200px;border:14px solid red;"">","null","","","","","","","","",""
"","image-keyboard-response","16","55493","0.0-16.0","33SA9F9TRYG3D7XQZTWIHC0JYZ3WEM","ARR3UJTM2ZGK4","3566S7OX5D5NH74JOVOPTTMK8IR17K","","352.09999999962747","img/flower2.png","75","353.20000000018626","2","1","2","2","1,0,0,1,1,0,1,0,1","1,0,0,1,1,0,1,0,1","1",""
"","html-keyboard-response","17","55795","0.0-17.0","33SA9F9TRYG3D7XQZTWIHC0JYZ3WEM","ARR3UJTM2ZGK4","3566S7OX5D5NH74JOVOPTTMK8IR17K","","null","<img src=""img/flower2.png"" style=""width:200px; border:14px solid green;"">","null","","","","","","","","",""
"","image-keyboard-response","18","56597","0.0-18.0","33SA9F9TRYG3D7XQZTWIHC0JYZ3WEM","ARR3UJTM2ZGK4","3566S7OX5D5NH74JOVOPTTMK8IR17K","","800.6000000005588","img/flower3.png","76","801.7999999998137","3","1","3","2","1,0,0,1,1,0,1,0,1","1,0,0,1,1,0,1,0,1","1",""
"","html-keyboard-response","19","56900","0.0-19.0","33SA9F9TRYG3D7XQZTWIHC0JYZ3WEM","ARR3UJTM2ZGK4","3566S7OX5D5NH74JOVOPTTMK8IR17K","","null","<img src=""img/flower3.png"" style=""width:200px; border:14px solid green;"">","null","","","","","","","","",""
"","image-keyboard-response","20","57605","0.0-20.0","33SA9F9TRYG3D7XQZTWIHC0JYZ3WEM","ARR3UJTM2ZGK4","3566S7OX5D5NH74JOVOPTTMK8IR17K","","704.3999999994412","img/flower1.png","74","705.5","1","1","1","2","1,0,0,1,1,0,1,0,1","1,0,0,1,1,0,1,0,1","1",""
"","html-keyboard-response","21","57908","0.0-21.0","33SA9F9TRYG3D7XQZTWIHC0JYZ3WEM","ARR3UJTM2ZGK4","3566S7OX5D5NH74JOVOPTTMK8IR17K","","null","<img src=""img/flower1.png"" style=""width:200px; border:14px solid green;"">","null","","","","","","","","",""
"","image-keyboard-response","22","58277","0.0-22.0","33SA9F9TRYG3D7XQZTWIHC0JYZ3WEM","ARR3UJTM2ZGK4","3566S7OX5D5NH74JOVOPTTMK8IR17K","","368.1000000005588","img/flower1.png","74","369.20000000018626","1","1","1","2","1,0,0,1,1,0,1,0,1","1,0,0,1,1,0,1,0,1","1",""
"","html-keyboard-response","23","58579","0.0-23.0","33SA9F9TRYG3D7XQZTWIHC0JYZ3WEM","ARR3UJTM2ZGK4","3566S7OX5D5NH74JOVOPTTMK8IR17K","","null","<img src=""img/flower1.png"" style=""width:200px; border:14px solid green;"">","null","","","","","","","","",""
"","image-keyboard-response","24","59494","0.0-24.0","33SA9F9TRYG3D7XQZTWIHC0JYZ3WEM","ARR3UJTM2ZGK4","3566S7OX5D5NH74JOVOPTTMK8IR17K","","912.5","img/flower2.png","75","913.6999999992549","2","1","2","2","1,0,0,1,1,0,1,0,1","1,0,0,1,1,0,1,0,1","1",""
"","html-keyboard-response","25","59796","0.0-25.0","33SA9F9TRYG3D7XQZTWIHC0JYZ3WEM","ARR3UJTM2ZGK4","3566S7OX5D5NH74JOVOPTTMK8IR17K","","null","<img src=""img/flower2.png"" style=""width:200px; border:14px solid green;"">","null","","","","","","","","",""
"","image-keyboard-response","26","59974","0.0-26.0","33SA9F9TRYG3D7XQZTWIHC0JYZ3WEM","ARR3UJTM2ZGK4","3566S7OX5D5NH74JOVOPTTMK8IR17K","","176.29999999981374","img/flower1.png","76","177.5","3","0","1","2","1,0,0,1,1,0,1,0,1","1,0,0,1,1,0,1,0,1","1",""
"","html-keyboard-response","27","60276","0.0-27.0","33SA9F9TRYG3D7XQZTWIHC0JYZ3WEM","ARR3UJTM2ZGK4","3566S7OX5D5NH74JOVOPTTMK8IR17K","","null","<img src=""img/flower1.png"" style=""width:200px;border:14px solid red;"">","null","","","","","","","","",""
"","image-keyboard-response","28","61158","0.0-28.0","33SA9F9TRYG3D7XQZTWIHC0JYZ3WEM","ARR3UJTM2ZGK4","3566S7OX5D5NH74JOVOPTTMK8IR17K","","880.2000000001863","img/flower3.png","74","881.3999999994412","1","1","3","2","1,0,0,1,1,0,1,0,1","1,0,0,1,1,0,1,0,1","1",""
"","html-keyboard-response","29","61459","0.0-29.0","33SA9F9TRYG3D7XQZTWIHC0JYZ3WEM","ARR3UJTM2ZGK4","3566S7OX5D5NH74JOVOPTTMK8IR17K","","null","<img src=""img/flower3.png"" style=""width:200px; border:14px solid green;"">","null","","","","","","","","",""
"","image-keyboard-response","30","62326","0.0-30.0","33SA9F9TRYG3D7XQZTWIHC0JYZ3WEM","ARR3UJTM2ZGK4","3566S7OX5D5NH74JOVOPTTMK8IR17K","","865.2000000001863","img/flower2.png","75","866.3999999994412","2","1","2","2","1,0,0,1,1,0,1,0,1","1,0,0,1,1,0,1,0,1","1",""
"","html-keyboard-response","31","62628","0.0-31.0","33SA9F9TRYG3D7XQZTWIHC0JYZ3WEM","ARR3UJTM2ZGK4","3566S7OX5D5NH74JOVOPTTMK8IR17K","","null","<img src=""img/flower2.png"" style=""width:200px; border:14px solid green;"">","null","","","","","","","","",""
"","image-keyboard-response","32","63478","0.0-32.0","33SA9F9TRYG3D7XQZTWIHC0JYZ3WEM","ARR3UJTM2ZGK4","3566S7OX5D5NH74JOVOPTTMK8IR17K","","848.8000000007451","img/flower3.png","74","850","1","1","3","2","1,0,0,1,1,0,1,0,1","1,0,0,1,1,0,1,0,1","1",""
"","html-keyboard-response","33","63781","0.0-33.0","33SA9F9TRYG3D7XQZTWIHC0JYZ3WEM","ARR3UJTM2ZGK4","3566S7OX5D5NH74JOVOPTTMK8IR17K","","null","<img src=""img/flower3.png"" style=""width:200px; border:14px solid green;"">","null","","","","","","","","",""
"","image-keyboard-response","34","64854","0.0-34.0","33SA9F9TRYG3D7XQZTWIHC0JYZ3WEM","ARR3UJTM2ZGK4","3566S7OX5D5NH74JOVOPTTMK8IR17K","","1071.5999999996275","img/flower1.png","76","1072.7000000001863","3","0","1","2","1,0,0,1,1,0,1,0,1","1,0,0,1,1,0,1,0,1","1",""
"","html-keyboard-response","35","65156","0.0-35.0","33SA9F9TRYG3D7XQZTWIHC0JYZ3WEM","ARR3UJTM2ZGK4","3566S7OX5D5NH74JOVOPTTMK8IR17K","","null","<img src=""img/flower1.png"" style=""width:200px;border:14px solid red;"">","null","","","","","","","","",""
"","image-keyboard-response","36","66134","0.0-36.0","33SA9F9TRYG3D7XQZTWIHC0JYZ3WEM","ARR3UJTM2ZGK4","3566S7OX5D5NH74JOVOPTTMK8IR17K","","976.8999999994412","img/flower2.png","74","978.0999999996275","1","1","2","2","1,0,0,1,1,0,1,0,1","1,0,0,1,1,0,1,0,1","1",""
"","html-keyboard-response","37","66441","0.0-37.0","33SA9F9TRYG3D7XQZTWIHC0JYZ3WEM","ARR3UJTM2ZGK4","3566S7OX5D5NH74JOVOPTTMK8IR17K","","null","<img src=""img/flower2.png"" style=""width:200px; border:14px solid green;"">","null","","","","","","","","",""
"","image-keyboard-response","38","66934","0.0-38.0","33SA9F9TRYG3D7XQZTWIHC0JYZ3WEM","ARR3UJTM2ZGK4","3566S7OX5D5NH74JOVOPTTMK8IR17K","","491.20000000018626","img/flower2.png","74","492.29999999981374","1","1","2","2","1,0,0,1,1,0,1,0,1","1,0,0,1,1,0,1,0,1","1",""
"","html-keyboard-response","39","67236","0.0-39.0","33SA9F9TRYG3D7XQZTWIHC0JYZ3WEM","ARR3UJTM2ZGK4","3566S7OX5D5NH74JOVOPTTMK8IR17K","","null","<img src=""img/flower2.png"" style=""width:200px; border:14px solid green;"">","null","","","","","","","","",""
"","image-keyboard-response","40","67637","0.0-40.0","33SA9F9TRYG3D7XQZTWIHC0JYZ3WEM","ARR3UJTM2ZGK4","3566S7OX5D5NH74JOVOPTTMK8IR17K","","400.30000000074506","img/flower2.png","74","401.3999999994412","1","1","2","2","1,0,0,1,1,0,1,0,1","1,0,0,1,1,0,1,0,1","1",""
"","html-keyboard-response","41","67939","0.0-41.0","33SA9F9TRYG3D7XQZTWIHC0JYZ3WEM","ARR3UJTM2ZGK4","3566S7OX5D5NH74JOVOPTTMK8IR17K","","null","<img src=""img/flower2.png"" style=""width:200px; border:14px solid green;"">","null","","","","","","","","",""
"","image-keyboard-response","42","68278","0.0-42.0","33SA9F9TRYG3D7XQZTWIHC0JYZ3WEM","ARR3UJTM2ZGK4","3566S7OX5D5NH74JOVOPTTMK8IR17K","","337.70000000018626","img/flower2.png","74","338.70000000018626","1","1","2","2","1,0,0,1,1,0,1,0,1","1,0,0,1,1,0,1,0,1","1",""
"","html-keyboard-response","43","68581","0.0-43.0","33SA9F9TRYG3D7XQZTWIHC0JYZ3WEM","ARR3UJTM2ZGK4","3566S7OX5D5NH74JOVOPTTMK8IR17K","","null","<img src=""img/flower2.png"" style=""width:200px; border:14px solid green;"">","null","","","","","","","","",""
"","image-keyboard-response","44","69446","0.0-44.0","33SA9F9TRYG3D7XQZTWIHC0JYZ3WEM","ARR3UJTM2ZGK4","3566S7OX5D5NH74JOVOPTTMK8IR17K","","863.7999999998137","img/flower3.png","75","864.8999999994412","2","0","3","2","1,0,0,1,1,0,1,0,1","1,0,0,1,1,0,1,0,1","1",""
"","html-keyboard-response","45","69763","0.0-45.0","33SA9F9TRYG3D7XQZTWIHC0JYZ3WEM","ARR3UJTM2ZGK4","3566S7OX5D5NH74JOVOPTTMK8IR17K","","null","<img src=""img/flower3.png"" style=""width:200px;border:14px solid red;"">","null","","","","","","","","",""
"","image-keyboard-response","46","70406","0.0-46.0","33SA9F9TRYG3D7XQZTWIHC0JYZ3WEM","ARR3UJTM2ZGK4","3566S7OX5D5NH74JOVOPTTMK8IR17K","","641.6999999992549","img/flower1.png","74","642.9000000003725","1","1","1","2","1,0,0,1,1,0,1,0,1","1,0,0,1,1,0,1,0,1","1",""
"","html-keyboard-response","47","70708","0.0-47.0","33SA9F9TRYG3D7XQZTWIHC0JYZ3WEM","ARR3UJTM2ZGK4","3566S7OX5D5NH74JOVOPTTMK8IR17K","","null","<img src=""img/flower1.png"" style=""width:200px; border:14px solid green;"">","null","","","","","","","","",""
"","image-keyboard-response","48","71654","0.0-48.0","33SA9F9TRYG3D7XQZTWIHC0JYZ3WEM","ARR3UJTM2ZGK4","3566S7OX5D5NH74JOVOPTTMK8IR17K","","944.3999999994412","img/flower2.png","76","945.6000000005588","3","0","2","2","1,0,0,1,1,0,1,0,1","1,0,0,1,1,0,1,0,1","1",""
"","html-keyboard-response","49","71956","0.0-49.0","33SA9F9TRYG3D7XQZTWIHC0JYZ3WEM","ARR3UJTM2ZGK4","3566S7OX5D5NH74JOVOPTTMK8IR17K","","null","<img src=""img/flower2.png"" style=""width:200px;border:14px solid red;"">","null","","","","","","","","",""
"","image-keyboard-response","50","72918","0.0-50.0","33SA9F9TRYG3D7XQZTWIHC0JYZ3WEM","ARR3UJTM2ZGK4","3566S7OX5D5NH74JOVOPTTMK8IR17K","","961","img/flower3.png","74","962.2000000001863","1","1","3","2","1,0,0,1,1,0,1,0,1","1,0,0,1,1,0,1,0,1","1",""
"","html-keyboard-response","51","73221","0.0-51.0","33SA9F9TRYG3D7XQZTWIHC0JYZ3WEM","ARR3UJTM2ZGK4","3566S7OX5D5NH74JOVOPTTMK8IR17K","","null","<img src=""img/flower3.png"" style=""width:200px; border:14px solid green;"">","null","","","","","","","","",""
"","image-keyboard-response","52","74470","0.0-52.0","33SA9F9TRYG3D7XQZTWIHC0JYZ3WEM","ARR3UJTM2ZGK4","3566S7OX5D5NH74JOVOPTTMK8IR17K","","1247.7000000001863","img/flower1.png","74","1248.7000000001863","1","1","1","2","1,0,0,1,1,0,1,0,1","1,0,0,1,1,0,1,0,1","1",""
"","html-keyboard-response","53","74771","0.0-53.0","33SA9F9TRYG3D7XQZTWIHC0JYZ3WEM","ARR3UJTM2ZGK4","3566S7OX5D5NH74JOVOPTTMK8IR17K","","null","<img src=""img/flower1.png"" style=""width:200px; border:14px solid green;"">","null","","","","","","","","",""
"","image-keyboard-response","54","75190","0.0-54.0","33SA9F9TRYG3D7XQZTWIHC0JYZ3WEM","ARR3UJTM2ZGK4","3566S7OX5D5NH74JOVOPTTMK8IR17K","","417","img/flower1.png","74","418","1","1","1","2","1,0,0,1,1,0,1,0,1","1,0,0,1,1,0,1,0,1","1",""
"","html-keyboard-response","55","75491","0.0-55.0","33SA9F9TRYG3D7XQZTWIHC0JYZ3WEM","ARR3UJTM2ZGK4","3566S7OX5D5NH74JOVOPTTMK8IR17K","","null","<img src=""img/flower1.png"" style=""width:200px; border:14px solid green;"">","null","","","","","","","","",""
"","image-keyboard-response","56","76566","0.0-56.0","33SA9F9TRYG3D7XQZTWIHC0JYZ3WEM","ARR3UJTM2ZGK4","3566S7OX5D5NH74JOVOPTTMK8IR17K","","1073.5","img/flower3.png","74","1074.3999999994412","1","1","3","2","1,0,0,1,1,0,1,0,1","1,0,0,1,1,0,1,0,1","1",""
"","html-keyboard-response","57","76867","0.0-57.0","33SA9F9TRYG3D7XQZTWIHC0JYZ3WEM","ARR3UJTM2ZGK4","3566S7OX5D5NH74JOVOPTTMK8IR17K","","null","<img src=""img/flower3.png"" style=""width:200px; border:14px solid green;"">","null","","","","","","","","",""
"","image-keyboard-response","58","77222","0.0-58.0","33SA9F9TRYG3D7XQZTWIHC0JYZ3WEM","ARR3UJTM2ZGK4","3566S7OX5D5NH74JOVOPTTMK8IR17K","","352.90000000037253","img/flower3.png","74","354","1","1","3","2","1,0,0,1,1,0,1,0,1","1,0,0,1,1,0,1,0,1","1",""
"","html-keyboard-response","59","77534","0.0-59.0","33SA9F9TRYG3D7XQZTWIHC0JYZ3WEM","ARR3UJTM2ZGK4","3566S7OX5D5NH74JOVOPTTMK8IR17K","","null","<img src=""img/flower3.png"" style=""width:200px; border:14px solid green;"">","null","","","","","","","","",""
"","image-keyboard-response","60","77862","0.0-60.0","33SA9F9TRYG3D7XQZTWIHC0JYZ3WEM","ARR3UJTM2ZGK4","3566S7OX5D5NH74JOVOPTTMK8IR17K","","325.79999999981374","img/flower3.png","74","326.90000000037253","1","1","3","2","1,0,0,1,1,0,1,0,1","1,0,0,1,1,0,1,0,1","1",""
"","html-keyboard-response","61","78163","0.0-61.0","33SA9F9TRYG3D7XQZTWIHC0JYZ3WEM","ARR3UJTM2ZGK4","3566S7OX5D5NH74JOVOPTTMK8IR17K","","null","<img src=""img/flower3.png"" style=""width:200px; border:14px solid green;"">","null","","","","","","","","",""
"","image-keyboard-response","62","78534","0.0-62.0","33SA9F9TRYG3D7XQZTWIHC0JYZ3WEM","ARR3UJTM2ZGK4","3566S7OX5D5NH74JOVOPTTMK8IR17K","","368.79999999981374","img/flower3.png","74","370.09999999962747","1","1","3","2","1,0,0,1,1,0,1,0,1","1,0,0,1,1,0,1,0,1","1",""
"","html-keyboard-response","63","78835","0.0-63.0","33SA9F9TRYG3D7XQZTWIHC0JYZ3WEM","ARR3UJTM2ZGK4","3566S7OX5D5NH74JOVOPTTMK8IR17K","","null","<img src=""img/flower3.png"" style=""width:200px; border:14px solid green;"">","null","","","","","","","","",""
"","image-keyboard-response","64","79190","0.0-64.0","33SA9F9TRYG3D7XQZTWIHC0JYZ3WEM","ARR3UJTM2ZGK4","3566S7OX5D5NH74JOVOPTTMK8IR17K","","352.8999999994412","img/flower3.png","74","354.1000000005588","1","1","3","2","1,0,0,1,1,0,1,0,1","1,0,0,1,1,0,1,0,1","1",""
"","html-keyboard-response","65","79492","0.0-65.0","33SA9F9TRYG3D7XQZTWIHC0JYZ3WEM","ARR3UJTM2ZGK4","3566S7OX5D5NH74JOVOPTTMK8IR17K","","null","<img src=""img/flower3.png"" style=""width:200px; border:14px solid green;"">","null","","","","","","","","",""
"","image-keyboard-response","66","79894","0.0-66.0","33SA9F9TRYG3D7XQZTWIHC0JYZ3WEM","ARR3UJTM2ZGK4","3566S7OX5D5NH74JOVOPTTMK8IR17K","","400.70000000018626","img/flower3.png","74","401.8999999994412","1","1","3","2","1,0,0,1,1,0,1,0,1","1,0,0,1,1,0,1,0,1","1",""
"","html-keyboard-response","67","80196","0.0-67.0","33SA9F9TRYG3D7XQZTWIHC0JYZ3WEM","ARR3UJTM2ZGK4","3566S7OX5D5NH74JOVOPTTMK8IR17K","","null","<img src=""img/flower3.png"" style=""width:200px; border:14px solid green;"">","null","","","","","","","","",""
"","image-keyboard-response","68","81014","0.0-68.0","33SA9F9TRYG3D7XQZTWIHC0JYZ3WEM","ARR3UJTM2ZGK4","3566S7OX5D5NH74JOVOPTTMK8IR17K","","817.0999999996275","img/flower1.png","74","818.1000000005588","1","1","1","2","1,0,0,1,1,0,1,0,1","1,0,0,1,1,0,1,0,1","1",""
"","html-keyboard-response","69","81316","0.0-69.0","33SA9F9TRYG3D7XQZTWIHC0JYZ3WEM","ARR3UJTM2ZGK4","3566S7OX5D5NH74JOVOPTTMK8IR17K","","null","<img src=""img/flower1.png"" style=""width:200px; border:14px solid green;"">","null","","","","","","","","",""
"","image-keyboard-response","70","82006","0.0-70.0","33SA9F9TRYG3D7XQZTWIHC0JYZ3WEM","ARR3UJTM2ZGK4","3566S7OX5D5NH74JOVOPTTMK8IR17K","","688.7000000001863","img/flower3.png","74","690","1","1","3","2","1,0,0,1,1,0,1,0,1","1,0,0,1,1,0,1,0,1","1",""
"","html-keyboard-response","71","82309","0.0-71.0","33SA9F9TRYG3D7XQZTWIHC0JYZ3WEM","ARR3UJTM2ZGK4","3566S7OX5D5NH74JOVOPTTMK8IR17K","","null","<img src=""img/flower3.png"" style=""width:200px; border:14px solid green;"">","null","","","","","","","","",""
"","image-keyboard-response","72","82614","0.0-72.0","33SA9F9TRYG3D7XQZTWIHC0JYZ3WEM","ARR3UJTM2ZGK4","3566S7OX5D5NH74JOVOPTTMK8IR17K","","303.70000000018626","img/flower3.png","74","304.70000000018626","1","1","3","2","1,0,0,1,1,0,1,0,1","1,0,0,1,1,0,1,0,1","1",""
"","html-keyboard-response","73","82916","0.0-73.0","33SA9F9TRYG3D7XQZTWIHC0JYZ3WEM","ARR3UJTM2ZGK4","3566S7OX5D5NH74JOVOPTTMK8IR17K","","null","<img src=""img/flower3.png"" style=""width:200px; border:14px solid green;"">","null","","","","","","","","",""
"","image-keyboard-response","74","83638","0.0-74.0","33SA9F9TRYG3D7XQZTWIHC0JYZ3WEM","ARR3UJTM2ZGK4","3566S7OX5D5NH74JOVOPTTMK8IR17K","","720.4000000003725","img/flower2.png","75","721.5999999996275","2","1","2","2","1,0,0,1,1,0,1,0,1","1,0,0,1,1,0,1,0,1","1",""
"","html-keyboard-response","75","83940","0.0-75.0","33SA9F9TRYG3D7XQZTWIHC0JYZ3WEM","ARR3UJTM2ZGK4","3566S7OX5D5NH74JOVOPTTMK8IR17K","","null","<img src=""img/flower2.png"" style=""width:200px; border:14px solid green;"">","null","","","","","","","","",""
"","image-keyboard-response","76","84550","0.0-76.0","33SA9F9TRYG3D7XQZTWIHC0JYZ3WEM","ARR3UJTM2ZGK4","3566S7OX5D5NH74JOVOPTTMK8IR17K","","608.0999999996275","img/flower3.png","74","609","1","1","3","2","1,0,0,1,1,0,1,0,1","1,0,0,1,1,0,1,0,1","1",""
"","html-keyboard-response","77","84852","0.0-77.0","33SA9F9TRYG3D7XQZTWIHC0JYZ3WEM","ARR3UJTM2ZGK4","3566S7OX5D5NH74JOVOPTTMK8IR17K","","null","<img src=""img/flower3.png"" style=""width:200px; border:14px solid green;"">","null","","","","","","","","",""
"","image-keyboard-response","78","85174","0.0-78.0","33SA9F9TRYG3D7XQZTWIHC0JYZ3WEM","ARR3UJTM2ZGK4","3566S7OX5D5NH74JOVOPTTMK8IR17K","","320.70000000018626","img/flower3.png","74","321.79999999981374","1","1","3","2","1,0,0,1,1,0,1,0,1","1,0,0,1,1,0,1,0,1","1",""
"","html-keyboard-response","79","85476","0.0-79.0","33SA9F9TRYG3D7XQZTWIHC0JYZ3WEM","ARR3UJTM2ZGK4","3566S7OX5D5NH74JOVOPTTMK8IR17K","","null","<img src=""img/flower3.png"" style=""width:200px; border:14px solid green;"">","null","","","","","","","","",""
"","image-keyboard-response","80","85814","0.0-80.0","33SA9F9TRYG3D7XQZTWIHC0JYZ3WEM","ARR3UJTM2ZGK4","3566S7OX5D5NH74JOVOPTTMK8IR17K","","336.79999999981374","img/flower3.png","74","337.90000000037253","1","1","3","2","1,0,0,1,1,0,1,0,1","1,0,0,1,1,0,1,0,1","1",""
"","html-keyboard-response","81","86115","0.0-81.0","33SA9F9TRYG3D7XQZTWIHC0JYZ3WEM","ARR3UJTM2ZGK4","3566S7OX5D5NH74JOVOPTTMK8IR17K","","null","<img src=""img/flower3.png"" style=""width:200px; border:14px solid green;"">","null","","","","","","","","",""
"","image-keyboard-response","82","86421","0.0-82.0","33SA9F9TRYG3D7XQZTWIHC0JYZ3WEM","ARR3UJTM2ZGK4","3566S7OX5D5NH74JOVOPTTMK8IR17K","","304.5","img/flower2.png","74","305.5","1","1","2","2","1,0,0,1,1,0,1,0,1","1,0,0,1,1,0,1,0,1","1",""
"","html-keyboard-response","83","86722","0.0-83.0","33SA9F9TRYG3D7XQZTWIHC0JYZ3WEM","ARR3UJTM2ZGK4","3566S7OX5D5NH74JOVOPTTMK8IR17K","","null","<img src=""img/flower2.png"" style=""width:200px; border:14px solid green;"">","null","","","","","","","","",""
"","image-keyboard-response","84","86902","0.0-84.0","33SA9F9TRYG3D7XQZTWIHC0JYZ3WEM","ARR3UJTM2ZGK4","3566S7OX5D5NH74JOVOPTTMK8IR17K","","177.70000000018626","img/flower3.png","75","178.90000000037253","2","0","3","2","1,0,0,1,1,0,1,0,1","1,0,0,1,1,0,1,0,1","1",""
"","html-keyboard-response","85","87203","0.0-85.0","33SA9F9TRYG3D7XQZTWIHC0JYZ3WEM","ARR3UJTM2ZGK4","3566S7OX5D5NH74JOVOPTTMK8IR17K","","null","<img src=""img/flower3.png"" style=""width:200px;border:14px solid red;"">","null","","","","","","","","",""
"","image-keyboard-response","86","88198","0.0-86.0","33SA9F9TRYG3D7XQZTWIHC0JYZ3WEM","ARR3UJTM2ZGK4","3566S7OX5D5NH74JOVOPTTMK8IR17K","","992.6999999992549","img/flower2.png","75","993.8000000007451","2","1","2","2","1,0,0,1,1,0,1,0,1","1,0,0,1,1,0,1,0,1","1",""
"","html-keyboard-response","87","88499","0.0-87.0","33SA9F9TRYG3D7XQZTWIHC0JYZ3WEM","ARR3UJTM2ZGK4","3566S7OX5D5NH74JOVOPTTMK8IR17K","","null","<img src=""img/flower2.png"" style=""width:200px; border:14px solid green;"">","null","","","","","","","","",""
"","image-keyboard-response","88","89077","0.0-88.0","33SA9F9TRYG3D7XQZTWIHC0JYZ3WEM","ARR3UJTM2ZGK4","3566S7OX5D5NH74JOVOPTTMK8IR17K","","576.5999999996275","img/flower1.png","74","578","1","1","1","2","1,0,0,1,1,0,1,0,1","1,0,0,1,1,0,1,0,1","1",""
"","html-keyboard-response","89","89379","0.0-89.0","33SA9F9TRYG3D7XQZTWIHC0JYZ3WEM","ARR3UJTM2ZGK4","3566S7OX5D5NH74JOVOPTTMK8IR17K","","null","<img src=""img/flower1.png"" style=""width:200px; border:14px solid green;"">","null","","","","","","","","",""
"","image-keyboard-response","90","90053","0.0-90.0","33SA9F9TRYG3D7XQZTWIHC0JYZ3WEM","ARR3UJTM2ZGK4","3566S7OX5D5NH74JOVOPTTMK8IR17K","","672.9000000003725","img/flower2.png","75","674.1000000005588","2","1","2","2","1,0,0,1,1,0,1,0,1","1,0,0,1,1,0,1,0,1","1",""
"","html-keyboard-response","91","90355","0.0-91.0","33SA9F9TRYG3D7XQZTWIHC0JYZ3WEM","ARR3UJTM2ZGK4","3566S7OX5D5NH74JOVOPTTMK8IR17K","","null","<img src=""img/flower2.png"" style=""width:200px; border:14px solid green;"">","null","","","","","","","","",""
"","image-keyboard-response","92","91078","0.0-92.0","33SA9F9TRYG3D7XQZTWIHC0JYZ3WEM","ARR3UJTM2ZGK4","3566S7OX5D5NH74JOVOPTTMK8IR17K","","720.7999999998137","img/flower3.png","74","722","1","1","3","2","1,0,0,1,1,0,1,0,1","1,0,0,1,1,0,1,0,1","1",""
"","html-keyboard-response","93","91379","0.0-93.0","33SA9F9TRYG3D7XQZTWIHC0JYZ3WEM","ARR3UJTM2ZGK4","3566S7OX5D5NH74JOVOPTTMK8IR17K","","null","<img src=""img/flower3.png"" style=""width:200px; border:14px solid green;"">","null","","","","","","","","",""
"","image-keyboard-response","94","91702","0.0-94.0","33SA9F9TRYG3D7XQZTWIHC0JYZ3WEM","ARR3UJTM2ZGK4","3566S7OX5D5NH74JOVOPTTMK8IR17K","","320.8999999994412","img/flower3.png","74","322.09999999962747","1","1","3","2","1,0,0,1,1,0,1,0,1","1,0,0,1,1,0,1,0,1","1",""
"","html-keyboard-response","95","92003","0.0-95.0","33SA9F9TRYG3D7XQZTWIHC0JYZ3WEM","ARR3UJTM2ZGK4","3566S7OX5D5NH74JOVOPTTMK8IR17K","","null","<img src=""img/flower3.png"" style=""width:200px; border:14px solid green;"">","null","","","","","","","","",""
"","image-keyboard-response","96","92358","0.0-96.0","33SA9F9TRYG3D7XQZTWIHC0JYZ3WEM","ARR3UJTM2ZGK4","3566S7OX5D5NH74JOVOPTTMK8IR17K","","352.8999999994412","img/flower3.png","74","354","1","1","3","2","1,0,0,1,1,0,1,0,1","1,0,0,1,1,0,1,0,1","1",""
"","html-keyboard-response","97","92660","0.0-97.0","33SA9F9TRYG3D7XQZTWIHC0JYZ3WEM","ARR3UJTM2ZGK4","3566S7OX5D5NH74JOVOPTTMK8IR17K","","null","<img src=""img/flower3.png"" style=""width:200px; border:14px solid green;"">","null","","","","","","","","",""
"","image-keyboard-response","98","93014","0.0-98.0","33SA9F9TRYG3D7XQZTWIHC0JYZ3WEM","ARR3UJTM2ZGK4","3566S7OX5D5NH74JOVOPTTMK8IR17K","","352","img/flower3.png","74","353","1","1","3","2","1,0,0,1,1,0,1,0,1","1,0,0,1,1,0,1,0,1","1",""
"","html-keyboard-response","99","93316","0.0-99.0","33SA9F9TRYG3D7XQZTWIHC0JYZ3WEM","ARR3UJTM2ZGK4","3566S7OX5D5NH74JOVOPTTMK8IR17K","","null","<img src=""img/flower3.png"" style=""width:200px; border:14px solid green;"">","null","","","","","","","","",""
"","image-keyboard-response","100","94038","0.0-100.0","33SA9F9TRYG3D7XQZTWIHC0JYZ3WEM","ARR3UJTM2ZGK4","3566S7OX5D5NH74JOVOPTTMK8IR17K","","720.2000000001863","img/flower2.png","75","721.4000000003725","2","1","2","2","1,0,0,1,1,0,1,0,1","1,0,0,1,1,0,1,0,1","1",""
"","html-keyboard-response","101","94339","0.0-101.0","33SA9F9TRYG3D7XQZTWIHC0JYZ3WEM","ARR3UJTM2ZGK4","3566S7OX5D5NH74JOVOPTTMK8IR17K","","null","<img src=""img/flower2.png"" style=""width:200px; border:14px solid green;"">","null","","","","","","","","",""
"","image-keyboard-response","102","94886","0.0-102.0","33SA9F9TRYG3D7XQZTWIHC0JYZ3WEM","ARR3UJTM2ZGK4","3566S7OX5D5NH74JOVOPTTMK8IR17K","","544.8999999994412","img/flower1.png","74","546","1","1","1","2","1,0,0,1,1,0,1,0,1","1,0,0,1,1,0,1,0,1","1",""
"","html-keyboard-response","103","95188","0.0-103.0","33SA9F9TRYG3D7XQZTWIHC0JYZ3WEM","ARR3UJTM2ZGK4","3566S7OX5D5NH74JOVOPTTMK8IR17K","","null","<img src=""img/flower1.png"" style=""width:200px; border:14px solid green;"">","null","","","","","","","","",""
"","image-keyboard-response","104","95813","0.0-104.0","33SA9F9TRYG3D7XQZTWIHC0JYZ3WEM","ARR3UJTM2ZGK4","3566S7OX5D5NH74JOVOPTTMK8IR17K","","624.3999999994412","img/flower2.png","75","625.5999999996275","2","1","2","2","1,0,0,1,1,0,1,0,1","1,0,0,1,1,0,1,0,1","1",""
"","html-keyboard-response","105","96116","0.0-105.0","33SA9F9TRYG3D7XQZTWIHC0JYZ3WEM","ARR3UJTM2ZGK4","3566S7OX5D5NH74JOVOPTTMK8IR17K","","null","<img src=""img/flower2.png"" style=""width:200px; border:14px solid green;"">","null","","","","","","","","",""
"","image-keyboard-response","106","96805","0.0-106.0","33SA9F9TRYG3D7XQZTWIHC0JYZ3WEM","ARR3UJTM2ZGK4","3566S7OX5D5NH74JOVOPTTMK8IR17K","","688.4000000003725","img/flower3.png","74","689.6000000005588","1","1","3","2","1,0,0,1,1,0,1,0,1","1,0,0,1,1,0,1,0,1","1",""
"","html-keyboard-response","107","97108","0.0-107.0","33SA9F9TRYG3D7XQZTWIHC0JYZ3WEM","ARR3UJTM2ZGK4","3566S7OX5D5NH74JOVOPTTMK8IR17K","","null","<img src=""img/flower3.png"" style=""width:200px; border:14px solid green;"">","null","","","","","","","","",""
"","image-keyboard-response","108","98086","0.0-108.0","33SA9F9TRYG3D7XQZTWIHC0JYZ3WEM","ARR3UJTM2ZGK4","3566S7OX5D5NH74JOVOPTTMK8IR17K","","975.8999999994412","img/flower1.png","74","977","1","1","1","2","1,0,0,1,1,0,1,0,1","1,0,0,1,1,0,1,0,1","1",""
"","html-keyboard-response","109","98387","0.0-109.0","33SA9F9TRYG3D7XQZTWIHC0JYZ3WEM","ARR3UJTM2ZGK4","3566S7OX5D5NH74JOVOPTTMK8IR17K","","null","<img src=""img/flower1.png"" style=""width:200px; border:14px solid green;"">","null","","","","","","","","",""
"","image-keyboard-response","110","99141","0.0-110.0","33SA9F9TRYG3D7XQZTWIHC0JYZ3WEM","ARR3UJTM2ZGK4","3566S7OX5D5NH74JOVOPTTMK8IR17K","","752.7000000001863","img/flower2.png","75","753.7000000001863","2","1","2","2","1,0,0,1,1,0,1,0,1","1,0,0,1,1,0,1,0,1","1",""
"","html-keyboard-response","111","99443","0.0-111.0","33SA9F9TRYG3D7XQZTWIHC0JYZ3WEM","ARR3UJTM2ZGK4","3566S7OX5D5NH74JOVOPTTMK8IR17K","","null","<img src=""img/flower2.png"" style=""width:200px; border:14px solid green;"">","null","","","","","","","","",""
"","image-keyboard-response","112","100069","0.0-112.0","33SA9F9TRYG3D7XQZTWIHC0JYZ3WEM","ARR3UJTM2ZGK4","3566S7OX5D5NH74JOVOPTTMK8IR17K","","624.5","img/flower2.png","75","625.5","2","1","2","2","1,0,0,1,1,0,1,0,1","1,0,0,1,1,0,1,0,1","1",""
"","html-keyboard-response","113","100371","0.0-113.0","33SA9F9TRYG3D7XQZTWIHC0JYZ3WEM","ARR3UJTM2ZGK4","3566S7OX5D5NH74JOVOPTTMK8IR17K","","null","<img src=""img/flower2.png"" style=""width:200px; border:14px solid green;"">","null","","","","","","","","",""
"","image-keyboard-response","114","100869","0.0-114.0","33SA9F9TRYG3D7XQZTWIHC0JYZ3WEM","ARR3UJTM2ZGK4","3566S7OX5D5NH74JOVOPTTMK8IR17K","","497.09999999962747","img/flower1.png","74","498.20000000018626","1","1","1","2","1,0,0,1,1,0,1,0,1","1,0,0,1,1,0,1,0,1","1",""
"","html-keyboard-response","115","101173","0.0-115.0","33SA9F9TRYG3D7XQZTWIHC0JYZ3WEM","ARR3UJTM2ZGK4","3566S7OX5D5NH74JOVOPTTMK8IR17K","","null","<img src=""img/flower1.png"" style=""width:200px; border:14px solid green;"">","null","","","","","","","","",""
"","image-keyboard-response","116","101510","0.0-116.0","33SA9F9TRYG3D7XQZTWIHC0JYZ3WEM","ARR3UJTM2ZGK4","3566S7OX5D5NH74JOVOPTTMK8IR17K","","335.79999999981374","img/flower1.png","74","336.8999999994412","1","1","1","2","1,0,0,1,1,0,1,0,1","1,0,0,1,1,0,1,0,1","1",""
"","html-keyboard-response","117","101812","0.0-117.0","33SA9F9TRYG3D7XQZTWIHC0JYZ3WEM","ARR3UJTM2ZGK4","3566S7OX5D5NH74JOVOPTTMK8IR17K","","null","<img src=""img/flower1.png"" style=""width:200px; border:14px solid green;"">","null","","","","","","","","",""
"","image-keyboard-response","118","102181","0.0-118.0","33SA9F9TRYG3D7XQZTWIHC0JYZ3WEM","ARR3UJTM2ZGK4","3566S7OX5D5NH74JOVOPTTMK8IR17K","","368.29999999981374","img/flower1.png","74","369.3999999994412","1","1","1","2","1,0,0,1,1,0,1,0,1","1,0,0,1,1,0,1,0,1","1",""
"","html-keyboard-response","119","102483","0.0-119.0","33SA9F9TRYG3D7XQZTWIHC0JYZ3WEM","ARR3UJTM2ZGK4","3566S7OX5D5NH74JOVOPTTMK8IR17K","","null","<img src=""img/flower1.png"" style=""width:200px; border:14px solid green;"">","null","","","","","","","","",""
"","image-keyboard-response","120","103141","0.0-120.0","33SA9F9TRYG3D7XQZTWIHC0JYZ3WEM","ARR3UJTM2ZGK4","3566S7OX5D5NH74JOVOPTTMK8IR17K","","656.8999999994412","img/flower2.png","75","658.1000000005588","2","1","2","2","1,0,0,1,1,0,1,0,1","1,0,0,1,1,0,1,0,1","1",""
"","html-keyboard-response","121","103444","0.0-121.0","33SA9F9TRYG3D7XQZTWIHC0JYZ3WEM","ARR3UJTM2ZGK4","3566S7OX5D5NH74JOVOPTTMK8IR17K","","null","<img src=""img/flower2.png"" style=""width:200px; border:14px solid green;"">","null","","","","","","","","",""
"","image-keyboard-response","122","104005","0.0-122.0","33SA9F9TRYG3D7XQZTWIHC0JYZ3WEM","ARR3UJTM2ZGK4","3566S7OX5D5NH74JOVOPTTMK8IR17K","","560.5","img/flower2.png","75","561.6000000005588","2","1","2","2","1,0,0,1,1,0,1,0,1","1,0,0,1,1,0,1,0,1","1",""
"","html-keyboard-response","123","104308","0.0-123.0","33SA9F9TRYG3D7XQZTWIHC0JYZ3WEM","ARR3UJTM2ZGK4","3566S7OX5D5NH74JOVOPTTMK8IR17K","","null","<img src=""img/flower2.png"" style=""width:200px; border:14px solid green;"">","null","","","","","","","","",""
"","image-keyboard-response","124","104869","0.0-124.0","33SA9F9TRYG3D7XQZTWIHC0JYZ3WEM","ARR3UJTM2ZGK4","3566S7OX5D5NH74JOVOPTTMK8IR17K","","560.1000000005588","img/flower3.png","74","561.2999999998137","1","1","3","2","1,0,0,1,1,0,1,0,1","1,0,0,1,1,0,1,0,1","1",""
"","html-keyboard-response","125","105171","0.0-125.0","33SA9F9TRYG3D7XQZTWIHC0JYZ3WEM","ARR3UJTM2ZGK4","3566S7OX5D5NH74JOVOPTTMK8IR17K","","null","<img src=""img/flower3.png"" style=""width:200px; border:14px solid green;"">","null","","","","","","","","",""
"","image-keyboard-response","126","105893","0.0-126.0","33SA9F9TRYG3D7XQZTWIHC0JYZ3WEM","ARR3UJTM2ZGK4","3566S7OX5D5NH74JOVOPTTMK8IR17K","","720.7000000001863","img/flower2.png","75","721.7000000001863","2","1","2","2","1,0,0,1,1,0,1,0,1","1,0,0,1,1,0,1,0,1","1",""
"","html-keyboard-response","127","106195","0.0-127.0","33SA9F9TRYG3D7XQZTWIHC0JYZ3WEM","ARR3UJTM2ZGK4","3566S7OX5D5NH74JOVOPTTMK8IR17K","","null","<img src=""img/flower2.png"" style=""width:200px; border:14px solid green;"">","null","","","","","","","","",""
"","image-keyboard-response","128","106933","0.0-128.0","33SA9F9TRYG3D7XQZTWIHC0JYZ3WEM","ARR3UJTM2ZGK4","3566S7OX5D5NH74JOVOPTTMK8IR17K","","737","img/flower1.png","74","738","1","1","1","2","1,0,0,1,1,0,1,0,1","1,0,0,1,1,0,1,0,1","1",""
"","html-keyboard-response","129","107235","0.0-129.0","33SA9F9TRYG3D7XQZTWIHC0JYZ3WEM","ARR3UJTM2ZGK4","3566S7OX5D5NH74JOVOPTTMK8IR17K","","null","<img src=""img/flower1.png"" style=""width:200px; border:14px solid green;"">","null","","","","","","","","",""
"","image-keyboard-response","130","107589","0.0-130.0","33SA9F9TRYG3D7XQZTWIHC0JYZ3WEM","ARR3UJTM2ZGK4","3566S7OX5D5NH74JOVOPTTMK8IR17K","","353","img/flower1.png","74","353.79999999981374","1","1","1","2","1,0,0,1,1,0,1,0,1","1,0,0,1,1,0,1,0,1","1",""
"","html-keyboard-response","131","107891","0.0-131.0","33SA9F9TRYG3D7XQZTWIHC0JYZ3WEM","ARR3UJTM2ZGK4","3566S7OX5D5NH74JOVOPTTMK8IR17K","","null","<img src=""img/flower1.png"" style=""width:200px; border:14px solid green;"">","null","","","","","","","","",""
"","image-keyboard-response","132","108437","0.0-132.0","33SA9F9TRYG3D7XQZTWIHC0JYZ3WEM","ARR3UJTM2ZGK4","3566S7OX5D5NH74JOVOPTTMK8IR17K","","544.0999999996275","img/flower2.png","75","545.1999999992549","2","1","2","2","1,0,0,1,1,0,1,0,1","1,0,0,1,1,0,1,0,1","1",""
"","html-keyboard-response","133","108738","0.0-133.0","33SA9F9TRYG3D7XQZTWIHC0JYZ3WEM","ARR3UJTM2ZGK4","3566S7OX5D5NH74JOVOPTTMK8IR17K","","null","<img src=""img/flower2.png"" style=""width:200px; border:14px solid green;"">","null","","","","","","","","",""
"","image-keyboard-response","134","109285","0.0-134.0","33SA9F9TRYG3D7XQZTWIHC0JYZ3WEM","ARR3UJTM2ZGK4","3566S7OX5D5NH74JOVOPTTMK8IR17K","","545.7999999998137","img/flower2.png","75","546.7999999998137","2","1","2","2","1,0,0,1,1,0,1,0,1","1,0,0,1,1,0,1,0,1","1",""
"","html-keyboard-response","135","109587","0.0-135.0","33SA9F9TRYG3D7XQZTWIHC0JYZ3WEM","ARR3UJTM2ZGK4","3566S7OX5D5NH74JOVOPTTMK8IR17K","","null","<img src=""img/flower2.png"" style=""width:200px; border:14px solid green;"">","null","","","","","","","","",""
"","image-keyboard-response","136","110165","0.0-136.0","33SA9F9TRYG3D7XQZTWIHC0JYZ3WEM","ARR3UJTM2ZGK4","3566S7OX5D5NH74JOVOPTTMK8IR17K","","576.5","img/flower2.png","75","577.5999999996275","2","1","2","2","1,0,0,1,1,0,1,0,1","1,0,0,1,1,0,1,0,1","1",""
"","html-keyboard-response","137","110467","0.0-137.0","33SA9F9TRYG3D7XQZTWIHC0JYZ3WEM","ARR3UJTM2ZGK4","3566S7OX5D5NH74JOVOPTTMK8IR17K","","null","<img src=""img/flower2.png"" style=""width:200px; border:14px solid green;"">","null","","","","","","","","",""
"","image-keyboard-response","138","111061","0.0-138.0","33SA9F9TRYG3D7XQZTWIHC0JYZ3WEM","ARR3UJTM2ZGK4","3566S7OX5D5NH74JOVOPTTMK8IR17K","","592.3999999994412","img/flower1.png","74","593.8999999994412","1","1","1","2","1,0,0,1,1,0,1,0,1","1,0,0,1,1,0,1,0,1","1",""
"","html-keyboard-response","139","111363","0.0-139.0","33SA9F9TRYG3D7XQZTWIHC0JYZ3WEM","ARR3UJTM2ZGK4","3566S7OX5D5NH74JOVOPTTMK8IR17K","","null","<img src=""img/flower1.png"" style=""width:200px; border:14px solid green;"">","null","","","","","","","","",""
"","image-keyboard-response","140","112021","0.0-140.0","33SA9F9TRYG3D7XQZTWIHC0JYZ3WEM","ARR3UJTM2ZGK4","3566S7OX5D5NH74JOVOPTTMK8IR17K","","656.9000000003725","img/flower2.png","75","657.8999999994412","2","1","2","2","1,0,0,1,1,0,1,0,1","1,0,0,1,1,0,1,0,1","1",""
"","html-keyboard-response","141","112323","0.0-141.0","33SA9F9TRYG3D7XQZTWIHC0JYZ3WEM","ARR3UJTM2ZGK4","3566S7OX5D5NH74JOVOPTTMK8IR17K","","null","<img src=""img/flower2.png"" style=""width:200px; border:14px solid green;"">","null","","","","","","","","",""
"","image-keyboard-response","142","112885","0.0-142.0","33SA9F9TRYG3D7XQZTWIHC0JYZ3WEM","ARR3UJTM2ZGK4","3566S7OX5D5NH74JOVOPTTMK8IR17K","","560.7999999998137","img/flower3.png","74","561.8999999994412","1","1","3","2","1,0,0,1,1,0,1,0,1","1,0,0,1,1,0,1,0,1","1",""
"","html-keyboard-response","143","113188","0.0-143.0","33SA9F9TRYG3D7XQZTWIHC0JYZ3WEM","ARR3UJTM2ZGK4","3566S7OX5D5NH74JOVOPTTMK8IR17K","","null","<img src=""img/flower3.png"" style=""width:200px; border:14px solid green;"">","null","","","","","","","","",""
"","image-keyboard-response","144","113845","0.0-144.0","33SA9F9TRYG3D7XQZTWIHC0JYZ3WEM","ARR3UJTM2ZGK4","3566S7OX5D5NH74JOVOPTTMK8IR17K","","655.8999999994412","img/flower1.png","75","657","2","0","1","2","1,0,0,1,1,0,1,0,1","1,0,0,1,1,0,1,0,1","1",""
"","html-keyboard-response","145","114147","0.0-145.0","33SA9F9TRYG3D7XQZTWIHC0JYZ3WEM","ARR3UJTM2ZGK4","3566S7OX5D5NH74JOVOPTTMK8IR17K","","null","<img src=""img/flower1.png"" style=""width:200px;border:14px solid red;"">","null","","","","","","","","",""
"","image-keyboard-response","146","115013","0.0-146.0","33SA9F9TRYG3D7XQZTWIHC0JYZ3WEM","ARR3UJTM2ZGK4","3566S7OX5D5NH74JOVOPTTMK8IR17K","","864.5999999996275","img/flower3.png","74","865.7000000001863","1","1","3","2","1,0,0,1,1,0,1,0,1","1,0,0,1,1,0,1,0,1","1",""
"","html-keyboard-response","147","115315","0.0-147.0","33SA9F9TRYG3D7XQZTWIHC0JYZ3WEM","ARR3UJTM2ZGK4","3566S7OX5D5NH74JOVOPTTMK8IR17K","","null","<img src=""img/flower3.png"" style=""width:200px; border:14px solid green;"">","null","","","","","","","","",""
"","image-keyboard-response","148","116005","0.0-148.0","33SA9F9TRYG3D7XQZTWIHC0JYZ3WEM","ARR3UJTM2ZGK4","3566S7OX5D5NH74JOVOPTTMK8IR17K","","688.9000000003725","img/flower2.png","75","690.0999999996275","2","1","2","2","1,0,0,1,1,0,1,0,1","1,0,0,1,1,0,1,0,1","1",""
"","html-keyboard-response","149","116308","0.0-149.0","33SA9F9TRYG3D7XQZTWIHC0JYZ3WEM","ARR3UJTM2ZGK4","3566S7OX5D5NH74JOVOPTTMK8IR17K","","null","<img src=""img/flower2.png"" style=""width:200px; border:14px solid green;"">","null","","","","","","","","",""
"","image-keyboard-response","150","116853","0.0-150.0","33SA9F9TRYG3D7XQZTWIHC0JYZ3WEM","ARR3UJTM2ZGK4","3566S7OX5D5NH74JOVOPTTMK8IR17K","","544.2000000001863","img/flower1.png","74","545.3999999994412","1","1","1","2","1,0,0,1,1,0,1,0,1","1,0,0,1,1,0,1,0,1","1",""
"","html-keyboard-response","151","117155","0.0-151.0","33SA9F9TRYG3D7XQZTWIHC0JYZ3WEM","ARR3UJTM2ZGK4","3566S7OX5D5NH74JOVOPTTMK8IR17K","","null","<img src=""img/flower1.png"" style=""width:200px; border:14px solid green;"">","null","","","","","","","","",""
"","image-keyboard-response","152","117621","0.0-152.0","33SA9F9TRYG3D7XQZTWIHC0JYZ3WEM","ARR3UJTM2ZGK4","3566S7OX5D5NH74JOVOPTTMK8IR17K","","465","img/flower3.png","74","466","1","1","3","2","1,0,0,1,1,0,1,0,1","1,0,0,1,1,0,1,0,1","1",""
"","html-keyboard-response","153","117923","0.0-153.0","33SA9F9TRYG3D7XQZTWIHC0JYZ3WEM","ARR3UJTM2ZGK4","3566S7OX5D5NH74JOVOPTTMK8IR17K","","null","<img src=""img/flower3.png"" style=""width:200px; border:14px solid green;"">","null","","","","","","","","",""
"","image-keyboard-response","154","118773","0.0-154.0","33SA9F9TRYG3D7XQZTWIHC0JYZ3WEM","ARR3UJTM2ZGK4","3566S7OX5D5NH74JOVOPTTMK8IR17K","","848.5999999996275","img/flower1.png","74","849.7000000001863","1","1","1","2","1,0,0,1,1,0,1,0,1","1,0,0,1,1,0,1,0,1","1",""
"","html-keyboard-response","155","119075","0.0-155.0","33SA9F9TRYG3D7XQZTWIHC0JYZ3WEM","ARR3UJTM2ZGK4","3566S7OX5D5NH74JOVOPTTMK8IR17K","","null","<img src=""img/flower1.png"" style=""width:200px; border:14px solid green;"">","null","","","","","","","","",""
"","image-keyboard-response","156","120246","0.0-156.0","33SA9F9TRYG3D7XQZTWIHC0JYZ3WEM","ARR3UJTM2ZGK4","3566S7OX5D5NH74JOVOPTTMK8IR17K","","1169.1000000005588","img/flower3.png","74","1170.2000000001863","1","1","3","2","1,0,0,1,1,0,1,0,1","1,0,0,1,1,0,1,0,1","1",""
"","html-keyboard-response","157","120549","0.0-157.0","33SA9F9TRYG3D7XQZTWIHC0JYZ3WEM","ARR3UJTM2ZGK4","3566S7OX5D5NH74JOVOPTTMK8IR17K","","null","<img src=""img/flower3.png"" style=""width:200px; border:14px solid green;"">","null","","","","","","","","",""
"","image-keyboard-response","158","121270","0.0-158.0","33SA9F9TRYG3D7XQZTWIHC0JYZ3WEM","ARR3UJTM2ZGK4","3566S7OX5D5NH74JOVOPTTMK8IR17K","","720","img/flower2.png","75","721.2000000001863","2","1","2","2","1,0,0,1,1,0,1,0,1","1,0,0,1,1,0,1,0,1","1",""
"","html-keyboard-response","159","121572","0.0-159.0","33SA9F9TRYG3D7XQZTWIHC0JYZ3WEM","ARR3UJTM2ZGK4","3566S7OX5D5NH74JOVOPTTMK8IR17K","","null","<img src=""img/flower2.png"" style=""width:200px; border:14px solid green;"">","null","","","","","","","","",""
"","image-keyboard-response","160","122054","0.0-160.0","33SA9F9TRYG3D7XQZTWIHC0JYZ3WEM","ARR3UJTM2ZGK4","3566S7OX5D5NH74JOVOPTTMK8IR17K","","480.5","img/flower3.png","74","481.70000000018626","1","1","3","2","1,0,0,1,1,0,1,0,1","1,0,0,1,1,0,1,0,1","1",""
"","html-keyboard-response","161","122356","0.0-161.0","33SA9F9TRYG3D7XQZTWIHC0JYZ3WEM","ARR3UJTM2ZGK4","3566S7OX5D5NH74JOVOPTTMK8IR17K","","null","<img src=""img/flower3.png"" style=""width:200px; border:14px solid green;"">","null","","","","","","","","",""
"","image-keyboard-response","162","122854","0.0-162.0","33SA9F9TRYG3D7XQZTWIHC0JYZ3WEM","ARR3UJTM2ZGK4","3566S7OX5D5NH74JOVOPTTMK8IR17K","","496.5","img/flower3.png","74","497.70000000018626","1","1","3","2","1,0,0,1,1,0,1,0,1","1,0,0,1,1,0,1,0,1","1",""
"","html-keyboard-response","163","123156","0.0-163.0","33SA9F9TRYG3D7XQZTWIHC0JYZ3WEM","ARR3UJTM2ZGK4","3566S7OX5D5NH74JOVOPTTMK8IR17K","","null","<img src=""img/flower3.png"" style=""width:200px; border:14px solid green;"">","null","","","","","","","","",""
"","image-keyboard-response","164","123702","0.0-164.0","33SA9F9TRYG3D7XQZTWIHC0JYZ3WEM","ARR3UJTM2ZGK4","3566S7OX5D5NH74JOVOPTTMK8IR17K","","544.7999999998137","img/flower1.png","74","546","1","1","1","2","1,0,0,1,1,0,1,0,1","1,0,0,1,1,0,1,0,1","1",""
"","html-keyboard-response","165","124004","0.0-165.0","33SA9F9TRYG3D7XQZTWIHC0JYZ3WEM","ARR3UJTM2ZGK4","3566S7OX5D5NH74JOVOPTTMK8IR17K","","null","<img src=""img/flower1.png"" style=""width:200px; border:14px solid green;"">","null","","","","","","","","",""
"","image-keyboard-response","166","124566","0.0-166.0","33SA9F9TRYG3D7XQZTWIHC0JYZ3WEM","ARR3UJTM2ZGK4","3566S7OX5D5NH74JOVOPTTMK8IR17K","","560.6999999992549","img/flower1.png","74","562","1","1","1","2","1,0,0,1,1,0,1,0,1","1,0,0,1,1,0,1,0,1","1",""
"","html-keyboard-response","167","124868","0.0-167.0","33SA9F9TRYG3D7XQZTWIHC0JYZ3WEM","ARR3UJTM2ZGK4","3566S7OX5D5NH74JOVOPTTMK8IR17K","","null","<img src=""img/flower1.png"" style=""width:200px; border:14px solid green;"">","null","","","","","","","","",""
"","image-keyboard-response","168","125334","0.0-168.0","33SA9F9TRYG3D7XQZTWIHC0JYZ3WEM","ARR3UJTM2ZGK4","3566S7OX5D5NH74JOVOPTTMK8IR17K","","464.5","img/flower1.png","74","465.59999999962747","1","1","1","2","1,0,0,1,1,0,1,0,1","1,0,0,1,1,0,1,0,1","1",""
"","html-keyboard-response","169","125636","0.0-169.0","33SA9F9TRYG3D7XQZTWIHC0JYZ3WEM","ARR3UJTM2ZGK4","3566S7OX5D5NH74JOVOPTTMK8IR17K","","null","<img src=""img/flower1.png"" style=""width:200px; border:14px solid green;"">","null","","","","","","","","",""
"","image-keyboard-response","170","126086","0.0-170.0","33SA9F9TRYG3D7XQZTWIHC0JYZ3WEM","ARR3UJTM2ZGK4","3566S7OX5D5NH74JOVOPTTMK8IR17K","","448.5","img/flower1.png","74","449.5","1","1","1","2","1,0,0,1,1,0,1,0,1","1,0,0,1,1,0,1,0,1","1",""
"","html-keyboard-response","171","126393","0.0-171.0","33SA9F9TRYG3D7XQZTWIHC0JYZ3WEM","ARR3UJTM2ZGK4","3566S7OX5D5NH74JOVOPTTMK8IR17K","","null","<img src=""img/flower1.png"" style=""width:200px; border:14px solid green;"">","null","","","","","","","","",""
"","image-keyboard-response","172","126998","0.0-172.0","33SA9F9TRYG3D7XQZTWIHC0JYZ3WEM","ARR3UJTM2ZGK4","3566S7OX5D5NH74JOVOPTTMK8IR17K","","603.8999999994412","img/flower2.png","75","605.9000000003725","2","1","2","2","1,0,0,1,1,0,1,0,1","1,0,0,1,1,0,1,0,1","1",""
"","html-keyboard-response","173","127301","0.0-173.0","33SA9F9TRYG3D7XQZTWIHC0JYZ3WEM","ARR3UJTM2ZGK4","3566S7OX5D5NH74JOVOPTTMK8IR17K","","null","<img src=""img/flower2.png"" style=""width:200px; border:14px solid green;"">","null","","","","","","","","",""
"","image-keyboard-response","174","127782","0.0-174.0","33SA9F9TRYG3D7XQZTWIHC0JYZ3WEM","ARR3UJTM2ZGK4","3566S7OX5D5NH74JOVOPTTMK8IR17K","","479.6000000005588","img/flower2.png","75","480.79999999981374","2","1","2","2","1,0,0,1,1,0,1,0,1","1,0,0,1,1,0,1,0,1","1",""
"","html-keyboard-response","175","128084","0.0-175.0","33SA9F9TRYG3D7XQZTWIHC0JYZ3WEM","ARR3UJTM2ZGK4","3566S7OX5D5NH74JOVOPTTMK8IR17K","","null","<img src=""img/flower2.png"" style=""width:200px; border:14px solid green;"">","null","","","","","","","","",""
"","image-keyboard-response","176","128630","0.0-176.0","33SA9F9TRYG3D7XQZTWIHC0JYZ3WEM","ARR3UJTM2ZGK4","3566S7OX5D5NH74JOVOPTTMK8IR17K","","544.1999999992549","img/flower1.png","74","545.4000000003725","1","1","1","2","1,0,0,1,1,0,1,0,1","1,0,0,1,1,0,1,0,1","1",""
"","html-keyboard-response","177","128932","0.0-177.0","33SA9F9TRYG3D7XQZTWIHC0JYZ3WEM","ARR3UJTM2ZGK4","3566S7OX5D5NH74JOVOPTTMK8IR17K","","null","<img src=""img/flower1.png"" style=""width:200px; border:14px solid green;"">","null","","","","","","","","",""
"","image-keyboard-response","178","129622","0.0-178.0","33SA9F9TRYG3D7XQZTWIHC0JYZ3WEM","ARR3UJTM2ZGK4","3566S7OX5D5NH74JOVOPTTMK8IR17K","","688.7000000001863","img/flower2.png","75","690","2","1","2","2","1,0,0,1,1,0,1,0,1","1,0,0,1,1,0,1,0,1","1",""
"","html-keyboard-response","179","129924","0.0-179.0","33SA9F9TRYG3D7XQZTWIHC0JYZ3WEM","ARR3UJTM2ZGK4","3566S7OX5D5NH74JOVOPTTMK8IR17K","","null","<img src=""img/flower2.png"" style=""width:200px; border:14px solid green;"">","null","","","","","","","","",""
"","image-keyboard-response","180","130438","0.0-180.0","33SA9F9TRYG3D7XQZTWIHC0JYZ3WEM","ARR3UJTM2ZGK4","3566S7OX5D5NH74JOVOPTTMK8IR17K","","512.5","img/flower2.png","75","513.5","2","1","2","2","1,0,0,1,1,0,1,0,1","1,0,0,1,1,0,1,0,1","1",""
"","html-keyboard-response","181","130740","0.0-181.0","33SA9F9TRYG3D7XQZTWIHC0JYZ3WEM","ARR3UJTM2ZGK4","3566S7OX5D5NH74JOVOPTTMK8IR17K","","null","<img src=""img/flower2.png"" style=""width:200px; border:14px solid green;"">","null","","","","","","","","",""
"","image-keyboard-response","182","131270","0.0-182.0","33SA9F9TRYG3D7XQZTWIHC0JYZ3WEM","ARR3UJTM2ZGK4","3566S7OX5D5NH74JOVOPTTMK8IR17K","","528.5","img/flower5.png","74","529.5999999996275","1","1","3","1","1,0.333,0.333,0.333,1,0.333,0.333,0.333,1","1,0.333,0.333,0.333,1,0.333,0.333,0.333,1","1",""
"","html-keyboard-response","183","131572","0.0-183.0","33SA9F9TRYG3D7XQZTWIHC0JYZ3WEM","ARR3UJTM2ZGK4","3566S7OX5D5NH74JOVOPTTMK8IR17K","","null","<img src=""img/flower5.png"" style=""width:200px; border:14px solid green;"">","null","","","","","","","","",""
"","image-keyboard-response","184","132854","0.0-184.0","33SA9F9TRYG3D7XQZTWIHC0JYZ3WEM","ARR3UJTM2ZGK4","3566S7OX5D5NH74JOVOPTTMK8IR17K","","1280.5999999996275","img/flower4.png","74","1281.7000000001863","1","1","1","1","1,0.333,0.333,0.333,1,0.333,0.333,0.333,1","1,0.333,0.333,0.333,1,0.333,0.333,0.333,1","1",""
"","html-keyboard-response","185","133155","0.0-185.0","33SA9F9TRYG3D7XQZTWIHC0JYZ3WEM","ARR3UJTM2ZGK4","3566S7OX5D5NH74JOVOPTTMK8IR17K","","null","<img src=""img/flower4.png"" style=""width:200px; border:14px solid green;"">","null","","","","","","","","",""
"","image-keyboard-response","186","134790","0.0-186.0","33SA9F9TRYG3D7XQZTWIHC0JYZ3WEM","ARR3UJTM2ZGK4","3566S7OX5D5NH74JOVOPTTMK8IR17K","","1633","img/flower6.png","75","1634.2000000001863","2","1","2","1","1,0.333,0.333,0.333,1,0.333,0.333,0.333,1","1,0.333,0.333,0.333,1,0.333,0.333,0.333,1","1",""
"","html-keyboard-response","187","135092","0.0-187.0","33SA9F9TRYG3D7XQZTWIHC0JYZ3WEM","ARR3UJTM2ZGK4","3566S7OX5D5NH74JOVOPTTMK8IR17K","","null","<img src=""img/flower6.png"" style=""width:200px; border:14px solid green;"">","null","","","","","","","","",""
"","image-keyboard-response","188","135654","0.0-188.0","33SA9F9TRYG3D7XQZTWIHC0JYZ3WEM","ARR3UJTM2ZGK4","3566S7OX5D5NH74JOVOPTTMK8IR17K","","560.1999999992549","img/flower6.png","75","561.2000000001863","2","1","2","1","1,0.333,0.333,0.333,1,0.333,0.333,0.333,1","1,0.333,0.333,0.333,1,0.333,0.333,0.333,1","1",""
"","html-keyboard-response","189","135955","0.0-189.0","33SA9F9TRYG3D7XQZTWIHC0JYZ3WEM","ARR3UJTM2ZGK4","3566S7OX5D5NH74JOVOPTTMK8IR17K","","null","<img src=""img/flower6.png"" style=""width:200px; border:14px solid green;"">","null","","","","","","","","",""
"","image-keyboard-response","190","136326","0.0-190.0","33SA9F9TRYG3D7XQZTWIHC0JYZ3WEM","ARR3UJTM2ZGK4","3566S7OX5D5NH74JOVOPTTMK8IR17K","","369.29999999981374","img/flower6.png","75","370.30000000074506","2","1","2","1","1,0.333,0.333,0.333,1,0.333,0.333,0.333,1","1,0.333,0.333,0.333,1,0.333,0.333,0.333,1","1",""
"","html-keyboard-response","191","136628","0.0-191.0","33SA9F9TRYG3D7XQZTWIHC0JYZ3WEM","ARR3UJTM2ZGK4","3566S7OX5D5NH74JOVOPTTMK8IR17K","","null","<img src=""img/flower6.png"" style=""width:200px; border:14px solid green;"">","null","","","","","","","","",""
"","image-keyboard-response","192","137222","0.0-192.0","33SA9F9TRYG3D7XQZTWIHC0JYZ3WEM","ARR3UJTM2ZGK4","3566S7OX5D5NH74JOVOPTTMK8IR17K","","592.5","img/flower5.png","74","593.7000000001863","1","0","3","1","1,0.333,0.333,0.333,1,0.333,0.333,0.333,1","1,0.333,0.333,0.333,1,0.333,0.333,0.333,1","1",""
"","html-keyboard-response","193","137524","0.0-193.0","33SA9F9TRYG3D7XQZTWIHC0JYZ3WEM","ARR3UJTM2ZGK4","3566S7OX5D5NH74JOVOPTTMK8IR17K","","null","<img src=""img/flower5.png"" style=""width:200px;border:14px solid red;"">","null","","","","","","","","",""
"","image-keyboard-response","194","139110","0.0-194.0","33SA9F9TRYG3D7XQZTWIHC0JYZ3WEM","ARR3UJTM2ZGK4","3566S7OX5D5NH74JOVOPTTMK8IR17K","","1584.5999999996275","img/flower6.png","75","1585.6000000005588","2","1","2","1","1,0.333,0.333,0.333,1,0.333,0.333,0.333,1","1,0.333,0.333,0.333,1,0.333,0.333,0.333,1","1",""
"","html-keyboard-response","195","139412","0.0-195.0","33SA9F9TRYG3D7XQZTWIHC0JYZ3WEM","ARR3UJTM2ZGK4","3566S7OX5D5NH74JOVOPTTMK8IR17K","","null","<img src=""img/flower6.png"" style=""width:200px; border:14px solid green;"">","null","","","","","","","","",""
"","image-keyboard-response","196","140246","0.0-196.0","33SA9F9TRYG3D7XQZTWIHC0JYZ3WEM","ARR3UJTM2ZGK4","3566S7OX5D5NH74JOVOPTTMK8IR17K","","832.5","img/flower5.png","74","833.6000000005588","1","0","3","1","1,0.333,0.333,0.333,1,0.333,0.333,0.333,1","1,0.333,0.333,0.333,1,0.333,0.333,0.333,1","1",""
"","html-keyboard-response","197","140548","0.0-197.0","33SA9F9TRYG3D7XQZTWIHC0JYZ3WEM","ARR3UJTM2ZGK4","3566S7OX5D5NH74JOVOPTTMK8IR17K","","null","<img src=""img/flower5.png"" style=""width:200px;border:14px solid red;"">","null","","","","","","","","",""
"","image-keyboard-response","198","141446","0.0-198.0","33SA9F9TRYG3D7XQZTWIHC0JYZ3WEM","ARR3UJTM2ZGK4","3566S7OX5D5NH74JOVOPTTMK8IR17K","","896.2000000001863","img/flower4.png","75","897.4000000003725","2","1","1","1","1,0.333,0.333,0.333,1,0.333,0.333,0.333,1","1,0.333,0.333,0.333,1,0.333,0.333,0.333,1","1",""
"","html-keyboard-response","199","141756","0.0-199.0","33SA9F9TRYG3D7XQZTWIHC0JYZ3WEM","ARR3UJTM2ZGK4","3566S7OX5D5NH74JOVOPTTMK8IR17K","","null","<img src=""img/flower4.png"" style=""width:200px; border:14px solid green;"">","null","","","","","","","","",""
"","image-keyboard-response","200","142774","0.0-200.0","33SA9F9TRYG3D7XQZTWIHC0JYZ3WEM","ARR3UJTM2ZGK4","3566S7OX5D5NH74JOVOPTTMK8IR17K","","1016.7000000001863","img/flower6.png","75","1017.8000000007451","2","1","2","1","1,0.333,0.333,0.333,1,0.333,0.333,0.333,1","1,0.333,0.333,0.333,1,0.333,0.333,0.333,1","1",""
"","html-keyboard-response","201","143075","0.0-201.0","33SA9F9TRYG3D7XQZTWIHC0JYZ3WEM","ARR3UJTM2ZGK4","3566S7OX5D5NH74JOVOPTTMK8IR17K","","null","<img src=""img/flower6.png"" style=""width:200px; border:14px solid green;"">","null","","","","","","","","",""
"","image-keyboard-response","202","143478","0.0-202.0","33SA9F9TRYG3D7XQZTWIHC0JYZ3WEM","ARR3UJTM2ZGK4","3566S7OX5D5NH74JOVOPTTMK8IR17K","","401.40000000037253","img/flower6.png","75","402.5","2","1","2","1","1,0.333,0.333,0.333,1,0.333,0.333,0.333,1","1,0.333,0.333,0.333,1,0.333,0.333,0.333,1","1",""
"","html-keyboard-response","203","143780","0.0-203.0","33SA9F9TRYG3D7XQZTWIHC0JYZ3WEM","ARR3UJTM2ZGK4","3566S7OX5D5NH74JOVOPTTMK8IR17K","","null","<img src=""img/flower6.png"" style=""width:200px; border:14px solid green;"">","null","","","","","","","","",""
"","image-keyboard-response","204","144806","0.0-204.0","33SA9F9TRYG3D7XQZTWIHC0JYZ3WEM","ARR3UJTM2ZGK4","3566S7OX5D5NH74JOVOPTTMK8IR17K","","1024.5999999996275","img/flower5.png","75","1025.7000000001863","2","0","3","1","1,0.333,0.333,0.333,1,0.333,0.333,0.333,1","1,0.333,0.333,0.333,1,0.333,0.333,0.333,1","1",""
"","html-keyboard-response","205","145107","0.0-205.0","33SA9F9TRYG3D7XQZTWIHC0JYZ3WEM","ARR3UJTM2ZGK4","3566S7OX5D5NH74JOVOPTTMK8IR17K","","null","<img src=""img/flower5.png"" style=""width:200px;border:14px solid red;"">","null","","","","","","","","",""
"","image-keyboard-response","206","145525","0.0-206.0","33SA9F9TRYG3D7XQZTWIHC0JYZ3WEM","ARR3UJTM2ZGK4","3566S7OX5D5NH74JOVOPTTMK8IR17K","","417","img/flower5.png","74","418.1000000005588","1","1","3","1","1,0.333,0.333,0.333,1,0.333,0.333,0.333,1","1,0.333,0.333,0.333,1,0.333,0.333,0.333,1","1",""
"","html-keyboard-response","207","145828","0.0-207.0","33SA9F9TRYG3D7XQZTWIHC0JYZ3WEM","ARR3UJTM2ZGK4","3566S7OX5D5NH74JOVOPTTMK8IR17K","","null","<img src=""img/flower5.png"" style=""width:200px; border:14px solid green;"">","null","","","","","","","","",""
"","image-keyboard-response","208","147750","0.0-208.0","33SA9F9TRYG3D7XQZTWIHC0JYZ3WEM","ARR3UJTM2ZGK4","3566S7OX5D5NH74JOVOPTTMK8IR17K","","1920.0999999996275","img/flower4.png","74","1921.2000000001863","1","1","1","1","1,0.333,0.333,0.333,1,0.333,0.333,0.333,1","1,0.333,0.333,0.333,1,0.333,0.333,0.333,1","1",""
"","html-keyboard-response","209","148051","0.0-209.0","33SA9F9TRYG3D7XQZTWIHC0JYZ3WEM","ARR3UJTM2ZGK4","3566S7OX5D5NH74JOVOPTTMK8IR17K","","null","<img src=""img/flower4.png"" style=""width:200px; border:14px solid green;"">","null","","","","","","","","",""
"","image-keyboard-response","210","148437","0.0-210.0","33SA9F9TRYG3D7XQZTWIHC0JYZ3WEM","ARR3UJTM2ZGK4","3566S7OX5D5NH74JOVOPTTMK8IR17K","","384.80000000074506","img/flower4.png","74","385.90000000037253","1","1","1","1","1,0.333,0.333,0.333,1,0.333,0.333,0.333,1","1,0.333,0.333,0.333,1,0.333,0.333,0.333,1","1",""
"","html-keyboard-response","211","148747","0.0-211.0","33SA9F9TRYG3D7XQZTWIHC0JYZ3WEM","ARR3UJTM2ZGK4","3566S7OX5D5NH74JOVOPTTMK8IR17K","","null","<img src=""img/flower4.png"" style=""width:200px; border:14px solid green;"">","null","","","","","","","","",""
"","image-keyboard-response","212","149157","0.0-212.0","33SA9F9TRYG3D7XQZTWIHC0JYZ3WEM","ARR3UJTM2ZGK4","3566S7OX5D5NH74JOVOPTTMK8IR17K","","408.70000000018626","img/flower4.png","74","409.70000000018626","1","1","1","1","1,0.333,0.333,0.333,1,0.333,0.333,0.333,1","1,0.333,0.333,0.333,1,0.333,0.333,0.333,1","1",""
"","html-keyboard-response","213","149459","0.0-213.0","33SA9F9TRYG3D7XQZTWIHC0JYZ3WEM","ARR3UJTM2ZGK4","3566S7OX5D5NH74JOVOPTTMK8IR17K","","null","<img src=""img/flower4.png"" style=""width:200px; border:14px solid green;"">","null","","","","","","","","",""
"","image-keyboard-response","214","150230","0.0-214.0","33SA9F9TRYG3D7XQZTWIHC0JYZ3WEM","ARR3UJTM2ZGK4","3566S7OX5D5NH74JOVOPTTMK8IR17K","","769","img/flower5.png","74","770.2000000001863","1","0","3","1","1,0.333,0.333,0.333,1,0.333,0.333,0.333,1","1,0.333,0.333,0.333,1,0.333,0.333,0.333,1","1",""
"","html-keyboard-response","215","150532","0.0-215.0","33SA9F9TRYG3D7XQZTWIHC0JYZ3WEM","ARR3UJTM2ZGK4","3566S7OX5D5NH74JOVOPTTMK8IR17K","","null","<img src=""img/flower5.png"" style=""width:200px;border:14px solid red;"">","null","","","","","","","","",""
"","image-keyboard-response","216","151670","0.0-216.0","33SA9F9TRYG3D7XQZTWIHC0JYZ3WEM","ARR3UJTM2ZGK4","3566S7OX5D5NH74JOVOPTTMK8IR17K","","1136.3999999994412","img/flower4.png","74","1137.5","1","1","1","1","1,0.333,0.333,0.333,1,0.333,0.333,0.333,1","1,0.333,0.333,0.333,1,0.333,0.333,0.333,1","1",""
"","html-keyboard-response","217","151971","0.0-217.0","33SA9F9TRYG3D7XQZTWIHC0JYZ3WEM","ARR3UJTM2ZGK4","3566S7OX5D5NH74JOVOPTTMK8IR17K","","null","<img src=""img/flower4.png"" style=""width:200px; border:14px solid green;"">","null","","","","","","","","",""
"","image-keyboard-response","218","152869","0.0-218.0","33SA9F9TRYG3D7XQZTWIHC0JYZ3WEM","ARR3UJTM2ZGK4","3566S7OX5D5NH74JOVOPTTMK8IR17K","","896.8000000007451","img/flower5.png","75","897.9000000003725","2","1","3","1","1,0.333,0.333,0.333,1,0.333,0.333,0.333,1","1,0.333,0.333,0.333,1,0.333,0.333,0.333,1","1",""
"","html-keyboard-response","219","153172","0.0-219.0","33SA9F9TRYG3D7XQZTWIHC0JYZ3WEM","ARR3UJTM2ZGK4","3566S7OX5D5NH74JOVOPTTMK8IR17K","","null","<img src=""img/flower5.png"" style=""width:200px; border:14px solid green;"">","null","","","","","","","","",""
"","image-keyboard-response","220","154086","0.0-220.0","33SA9F9TRYG3D7XQZTWIHC0JYZ3WEM","ARR3UJTM2ZGK4","3566S7OX5D5NH74JOVOPTTMK8IR17K","","912.6999999992549","img/flower4.png","74","913.9000000003725","1","1","1","1","1,0.333,0.333,0.333,1,0.333,0.333,0.333,1","1,0.333,0.333,0.333,1,0.333,0.333,0.333,1","1",""
"","html-keyboard-response","221","154388","0.0-221.0","33SA9F9TRYG3D7XQZTWIHC0JYZ3WEM","ARR3UJTM2ZGK4","3566S7OX5D5NH74JOVOPTTMK8IR17K","","null","<img src=""img/flower4.png"" style=""width:200px; border:14px solid green;"">","null","","","","","","","","",""
"","image-keyboard-response","222","155190","0.0-222.0","33SA9F9TRYG3D7XQZTWIHC0JYZ3WEM","ARR3UJTM2ZGK4","3566S7OX5D5NH74JOVOPTTMK8IR17K","","800.5","img/flower6.png","75","801.5999999996275","2","1","2","1","1,0.333,0.333,0.333,1,0.333,0.333,0.333,1","1,0.333,0.333,0.333,1,0.333,0.333,0.333,1","1",""
"","html-keyboard-response","223","155492","0.0-223.0","33SA9F9TRYG3D7XQZTWIHC0JYZ3WEM","ARR3UJTM2ZGK4","3566S7OX5D5NH74JOVOPTTMK8IR17K","","null","<img src=""img/flower6.png"" style=""width:200px; border:14px solid green;"">","null","","","","","","","","",""
"","image-keyboard-response","224","156197","0.0-224.0","33SA9F9TRYG3D7XQZTWIHC0JYZ3WEM","ARR3UJTM2ZGK4","3566S7OX5D5NH74JOVOPTTMK8IR17K","","703.8000000007451","img/flower5.png","74","704.7999999998137","1","1","3","1","1,0.333,0.333,0.333,1,0.333,0.333,0.333,1","1,0.333,0.333,0.333,1,0.333,0.333,0.333,1","1",""
"","html-keyboard-response","225","156500","0.0-225.0","33SA9F9TRYG3D7XQZTWIHC0JYZ3WEM","ARR3UJTM2ZGK4","3566S7OX5D5NH74JOVOPTTMK8IR17K","","null","<img src=""img/flower5.png"" style=""width:200px; border:14px solid green;"">","null","","","","","","","","",""
"","image-keyboard-response","226","156629","0.0-226.0","33SA9F9TRYG3D7XQZTWIHC0JYZ3WEM","ARR3UJTM2ZGK4","3566S7OX5D5NH74JOVOPTTMK8IR17K","","128.29999999981374","img/flower6.png","75","129.6000000005588","2","1","2","1","1,0.333,0.333,0.333,1,0.333,0.333,0.333,1","1,0.333,0.333,0.333,1,0.333,0.333,0.333,1","1",""
"","html-keyboard-response","227","156932","0.0-227.0","33SA9F9TRYG3D7XQZTWIHC0JYZ3WEM","ARR3UJTM2ZGK4","3566S7OX5D5NH74JOVOPTTMK8IR17K","","null","<img src=""img/flower6.png"" style=""width:200px; border:14px solid green;"">","null","","","","","","","","",""
"","image-keyboard-response","228","158421","0.0-228.0","33SA9F9TRYG3D7XQZTWIHC0JYZ3WEM","ARR3UJTM2ZGK4","3566S7OX5D5NH74JOVOPTTMK8IR17K","","1487.699999999255","img/flower5.png","75","1488.9000000003725","2","1","3","1","1,0.333,0.333,0.333,1,0.333,0.333,0.333,1","1,0.333,0.333,0.333,1,0.333,0.333,0.333,1","1",""
"","html-keyboard-response","229","158723","0.0-229.0","33SA9F9TRYG3D7XQZTWIHC0JYZ3WEM","ARR3UJTM2ZGK4","3566S7OX5D5NH74JOVOPTTMK8IR17K","","null","<img src=""img/flower5.png"" style=""width:200px; border:14px solid green;"">","null","","","","","","","","",""
"","image-keyboard-response","230","159173","0.0-230.0","33SA9F9TRYG3D7XQZTWIHC0JYZ3WEM","ARR3UJTM2ZGK4","3566S7OX5D5NH74JOVOPTTMK8IR17K","","448.6000000005588","img/flower5.png","75","449.70000000018626","2","0","3","1","1,0.333,0.333,0.333,1,0.333,0.333,0.333,1","1,0.333,0.333,0.333,1,0.333,0.333,0.333,1","1",""
"","html-keyboard-response","231","159475","0.0-231.0","33SA9F9TRYG3D7XQZTWIHC0JYZ3WEM","ARR3UJTM2ZGK4","3566S7OX5D5NH74JOVOPTTMK8IR17K","","null","<img src=""img/flower5.png"" style=""width:200px;border:14px solid red;"">","null","","","","","","","","",""
"","image-keyboard-response","232","160454","0.0-232.0","33SA9F9TRYG3D7XQZTWIHC0JYZ3WEM","ARR3UJTM2ZGK4","3566S7OX5D5NH74JOVOPTTMK8IR17K","","976.9000000003725","img/flower6.png","75","978","2","1","2","1","1,0.333,0.333,0.333,1,0.333,0.333,0.333,1","1,0.333,0.333,0.333,1,0.333,0.333,0.333,1","1",""
"","html-keyboard-response","233","160755","0.0-233.0","33SA9F9TRYG3D7XQZTWIHC0JYZ3WEM","ARR3UJTM2ZGK4","3566S7OX5D5NH74JOVOPTTMK8IR17K","","null","<img src=""img/flower6.png"" style=""width:200px; border:14px solid green;"">","null","","","","","","","","",""
"","image-keyboard-response","234","161493","0.0-234.0","33SA9F9TRYG3D7XQZTWIHC0JYZ3WEM","ARR3UJTM2ZGK4","3566S7OX5D5NH74JOVOPTTMK8IR17K","","737.2999999998137","img/flower4.png","74","738.1999999992549","1","1","1","1","1,0.333,0.333,0.333,1,0.333,0.333,0.333,1","1,0.333,0.333,0.333,1,0.333,0.333,0.333,1","1",""
"","html-keyboard-response","235","161796","0.0-235.0","33SA9F9TRYG3D7XQZTWIHC0JYZ3WEM","ARR3UJTM2ZGK4","3566S7OX5D5NH74JOVOPTTMK8IR17K","","null","<img src=""img/flower4.png"" style=""width:200px; border:14px solid green;"">","null","","","","","","","","",""
"","image-keyboard-response","236","162741","0.0-236.0","33SA9F9TRYG3D7XQZTWIHC0JYZ3WEM","ARR3UJTM2ZGK4","3566S7OX5D5NH74JOVOPTTMK8IR17K","","944.1000000005588","img/flower5.png","75","944.8999999994412","2","0","3","1","1,0.333,0.333,0.333,1,0.333,0.333,0.333,1","1,0.333,0.333,0.333,1,0.333,0.333,0.333,1","1",""
"","html-keyboard-response","237","163043","0.0-237.0","33SA9F9TRYG3D7XQZTWIHC0JYZ3WEM","ARR3UJTM2ZGK4","3566S7OX5D5NH74JOVOPTTMK8IR17K","","null","<img src=""img/flower5.png"" style=""width:200px;border:14px solid red;"">","null","","","","","","","","",""
"","image-keyboard-response","238","163541","0.0-238.0","33SA9F9TRYG3D7XQZTWIHC0JYZ3WEM","ARR3UJTM2ZGK4","3566S7OX5D5NH74JOVOPTTMK8IR17K","","497.3999999994412","img/flower5.png","74","498.20000000018626","1","0","3","1","1,0.333,0.333,0.333,1,0.333,0.333,0.333,1","1,0.333,0.333,0.333,1,0.333,0.333,0.333,1","1",""
"","html-keyboard-response","239","163843","0.0-239.0","33SA9F9TRYG3D7XQZTWIHC0JYZ3WEM","ARR3UJTM2ZGK4","3566S7OX5D5NH74JOVOPTTMK8IR17K","","null","<img src=""img/flower5.png"" style=""width:200px;border:14px solid red;"">","null","","","","","","","","",""
"","image-keyboard-response","240","165206","0.0-240.0","33SA9F9TRYG3D7XQZTWIHC0JYZ3WEM","ARR3UJTM2ZGK4","3566S7OX5D5NH74JOVOPTTMK8IR17K","","1361.2000000001863","img/flower4.png","74","1362.300000000745","1","1","1","1","1,0.333,0.333,0.333,1,0.333,0.333,0.333,1","1,0.333,0.333,0.333,1,0.333,0.333,0.333,1","1",""
"","html-keyboard-response","241","165511","0.0-241.0","33SA9F9TRYG3D7XQZTWIHC0JYZ3WEM","ARR3UJTM2ZGK4","3566S7OX5D5NH74JOVOPTTMK8IR17K","","null","<img src=""img/flower4.png"" style=""width:200px; border:14px solid green;"">","null","","","","","","","","",""
"","image-keyboard-response","242","165957","0.0-242.0","33SA9F9TRYG3D7XQZTWIHC0JYZ3WEM","ARR3UJTM2ZGK4","3566S7OX5D5NH74JOVOPTTMK8IR17K","","444.40000000037253","img/flower4.png","74","445.5","1","1","1","1","1,0.333,0.333,0.333,1,0.333,0.333,0.333,1","1,0.333,0.333,0.333,1,0.333,0.333,0.333,1","1",""
"","html-keyboard-response","243","166259","0.0-243.0","33SA9F9TRYG3D7XQZTWIHC0JYZ3WEM","ARR3UJTM2ZGK4","3566S7OX5D5NH74JOVOPTTMK8IR17K","","null","<img src=""img/flower4.png"" style=""width:200px; border:14px solid green;"">","null","","","","","","","","",""
"","image-keyboard-response","244","167221","0.0-244.0","33SA9F9TRYG3D7XQZTWIHC0JYZ3WEM","ARR3UJTM2ZGK4","3566S7OX5D5NH74JOVOPTTMK8IR17K","","961.3999999994412","img/flower6.png","75","962.6000000005588","2","1","2","1","1,0.333,0.333,0.333,1,0.333,0.333,0.333,1","1,0.333,0.333,0.333,1,0.333,0.333,0.333,1","1",""
"","html-keyboard-response","245","167523","0.0-245.0","33SA9F9TRYG3D7XQZTWIHC0JYZ3WEM","ARR3UJTM2ZGK4","3566S7OX5D5NH74JOVOPTTMK8IR17K","","null","<img src=""img/flower6.png"" style=""width:200px; border:14px solid green;"">","null","","","","","","","","",""
"","image-keyboard-response","246","168565","0.0-246.0","33SA9F9TRYG3D7XQZTWIHC0JYZ3WEM","ARR3UJTM2ZGK4","3566S7OX5D5NH74JOVOPTTMK8IR17K","","1041","img/flower4.png","74","1042","1","1","1","1","1,0.333,0.333,0.333,1,0.333,0.333,0.333,1","1,0.333,0.333,0.333,1,0.333,0.333,0.333,1","1",""
"","html-keyboard-response","247","168869","0.0-247.0","33SA9F9TRYG3D7XQZTWIHC0JYZ3WEM","ARR3UJTM2ZGK4","3566S7OX5D5NH74JOVOPTTMK8IR17K","","null","<img src=""img/flower4.png"" style=""width:200px; border:14px solid green;"">","null","","","","","","","","",""
"","image-keyboard-response","248","169701","0.0-248.0","33SA9F9TRYG3D7XQZTWIHC0JYZ3WEM","ARR3UJTM2ZGK4","3566S7OX5D5NH74JOVOPTTMK8IR17K","","831.1999999992549","img/flower6.png","75","832.4000000003725","2","1","2","1","1,0.333,0.333,0.333,1,0.333,0.333,0.333,1","1,0.333,0.333,0.333,1,0.333,0.333,0.333,1","1",""
"","html-keyboard-response","249","170005","0.0-249.0","33SA9F9TRYG3D7XQZTWIHC0JYZ3WEM","ARR3UJTM2ZGK4","3566S7OX5D5NH74JOVOPTTMK8IR17K","","null","<img src=""img/flower6.png"" style=""width:200px; border:14px solid green;"">","null","","","","","","","","",""
"","image-keyboard-response","250","170678","0.0-250.0","33SA9F9TRYG3D7XQZTWIHC0JYZ3WEM","ARR3UJTM2ZGK4","3566S7OX5D5NH74JOVOPTTMK8IR17K","","671.2999999998137","img/flower4.png","74","672.5","1","1","1","1","1,0.333,0.333,0.333,1,0.333,0.333,0.333,1","1,0.333,0.333,0.333,1,0.333,0.333,0.333,1","1",""
"","html-keyboard-response","251","170980","0.0-251.0","33SA9F9TRYG3D7XQZTWIHC0JYZ3WEM","ARR3UJTM2ZGK4","3566S7OX5D5NH74JOVOPTTMK8IR17K","","null","<img src=""img/flower4.png"" style=""width:200px; border:14px solid green;"">","null","","","","","","","","",""
"","image-keyboard-response","252","171461","0.0-252.0","33SA9F9TRYG3D7XQZTWIHC0JYZ3WEM","ARR3UJTM2ZGK4","3566S7OX5D5NH74JOVOPTTMK8IR17K","","479.8999999994412","img/flower4.png","74","481.09999999962747","1","1","1","1","1,0.333,0.333,0.333,1,0.333,0.333,0.333,1","1,0.333,0.333,0.333,1,0.333,0.333,0.333,1","1",""
"","html-keyboard-response","253","171764","0.0-253.0","33SA9F9TRYG3D7XQZTWIHC0JYZ3WEM","ARR3UJTM2ZGK4","3566S7OX5D5NH74JOVOPTTMK8IR17K","","null","<img src=""img/flower4.png"" style=""width:200px; border:14px solid green;"">","null","","","","","","","","",""
"","image-keyboard-response","254","172117","0.0-254.0","33SA9F9TRYG3D7XQZTWIHC0JYZ3WEM","ARR3UJTM2ZGK4","3566S7OX5D5NH74JOVOPTTMK8IR17K","","352.29999999981374","img/flower4.png","74","353.5","1","1","1","1","1,0.333,0.333,0.333,1,0.333,0.333,0.333,1","1,0.333,0.333,0.333,1,0.333,0.333,0.333,1","1",""
"","html-keyboard-response","255","172419","0.0-255.0","33SA9F9TRYG3D7XQZTWIHC0JYZ3WEM","ARR3UJTM2ZGK4","3566S7OX5D5NH74JOVOPTTMK8IR17K","","null","<img src=""img/flower4.png"" style=""width:200px; border:14px solid green;"">","null","","","","","","","","",""
"","image-keyboard-response","256","172853","0.0-256.0","33SA9F9TRYG3D7XQZTWIHC0JYZ3WEM","ARR3UJTM2ZGK4","3566S7OX5D5NH74JOVOPTTMK8IR17K","","432.6000000005588","img/flower4.png","74","433.59999999962747","1","1","1","1","1,0.333,0.333,0.333,1,0.333,0.333,0.333,1","1,0.333,0.333,0.333,1,0.333,0.333,0.333,1","1",""
"","html-keyboard-response","257","173155","0.0-257.0","33SA9F9TRYG3D7XQZTWIHC0JYZ3WEM","ARR3UJTM2ZGK4","3566S7OX5D5NH74JOVOPTTMK8IR17K","","null","<img src=""img/flower4.png"" style=""width:200px; border:14px solid green;"">","null","","","","","","","","",""
"","image-keyboard-response","258","174037","0.0-258.0","33SA9F9TRYG3D7XQZTWIHC0JYZ3WEM","ARR3UJTM2ZGK4","3566S7OX5D5NH74JOVOPTTMK8IR17K","","880.8999999994412","img/flower5.png","74","882","1","1","3","1","1,0.333,0.333,0.333,1,0.333,0.333,0.333,1","1,0.333,0.333,0.333,1,0.333,0.333,0.333,1","1",""
"","html-keyboard-response","259","174339","0.0-259.0","33SA9F9TRYG3D7XQZTWIHC0JYZ3WEM","ARR3UJTM2ZGK4","3566S7OX5D5NH74JOVOPTTMK8IR17K","","null","<img src=""img/flower5.png"" style=""width:200px; border:14px solid green;"">","null","","","","","","","","",""
"","image-keyboard-response","260","175077","0.0-260.0","33SA9F9TRYG3D7XQZTWIHC0JYZ3WEM","ARR3UJTM2ZGK4","3566S7OX5D5NH74JOVOPTTMK8IR17K","","736.7000000001863","img/flower4.png","74","737.5999999996275","1","1","1","1","1,0.333,0.333,0.333,1,0.333,0.333,0.333,1","1,0.333,0.333,0.333,1,0.333,0.333,0.333,1","1",""
"","html-keyboard-response","261","175380","0.0-261.0","33SA9F9TRYG3D7XQZTWIHC0JYZ3WEM","ARR3UJTM2ZGK4","3566S7OX5D5NH74JOVOPTTMK8IR17K","","null","<img src=""img/flower4.png"" style=""width:200px; border:14px solid green;"">","null","","","","","","","","",""
"","image-keyboard-response","262","176149","0.0-262.0","33SA9F9TRYG3D7XQZTWIHC0JYZ3WEM","ARR3UJTM2ZGK4","3566S7OX5D5NH74JOVOPTTMK8IR17K","","768.9000000003725","img/flower6.png","75","769.7000000001863","2","1","2","1","1,0.333,0.333,0.333,1,0.333,0.333,0.333,1","1,0.333,0.333,0.333,1,0.333,0.333,0.333,1","1",""
"","html-keyboard-response","263","176451","0.0-263.0","33SA9F9TRYG3D7XQZTWIHC0JYZ3WEM","ARR3UJTM2ZGK4","3566S7OX5D5NH74JOVOPTTMK8IR17K","","null","<img src=""img/flower6.png"" style=""width:200px; border:14px solid green;"">","null","","","","","","","","",""
"","image-keyboard-response","264","177237","0.0-264.0","33SA9F9TRYG3D7XQZTWIHC0JYZ3WEM","ARR3UJTM2ZGK4","3566S7OX5D5NH74JOVOPTTMK8IR17K","","784.5","img/flower5.png","74","785.6999999992549","1","1","3","1","1,0.333,0.333,0.333,1,0.333,0.333,0.333,1","1,0.333,0.333,0.333,1,0.333,0.333,0.333,1","1",""
"","html-keyboard-response","265","177545","0.0-265.0","33SA9F9TRYG3D7XQZTWIHC0JYZ3WEM","ARR3UJTM2ZGK4","3566S7OX5D5NH74JOVOPTTMK8IR17K","","null","<img src=""img/flower5.png"" style=""width:200px; border:14px solid green;"">","null","","","","","","","","",""
"","image-keyboard-response","266","178021","0.0-266.0","33SA9F9TRYG3D7XQZTWIHC0JYZ3WEM","ARR3UJTM2ZGK4","3566S7OX5D5NH74JOVOPTTMK8IR17K","","474.79999999981374","img/flower5.png","74","476.09999999962747","1","0","3","1","1,0.333,0.333,0.333,1,0.333,0.333,0.333,1","1,0.333,0.333,0.333,1,0.333,0.333,0.333,1","1",""
"","html-keyboard-response","267","178323","0.0-267.0","33SA9F9TRYG3D7XQZTWIHC0JYZ3WEM","ARR3UJTM2ZGK4","3566S7OX5D5NH74JOVOPTTMK8IR17K","","null","<img src=""img/flower5.png"" style=""width:200px;border:14px solid red;"">","null","","","","","","","","",""
"","image-keyboard-response","268","178981","0.0-268.0","33SA9F9TRYG3D7XQZTWIHC0JYZ3WEM","ARR3UJTM2ZGK4","3566S7OX5D5NH74JOVOPTTMK8IR17K","","657","img/flower6.png","74","658.0999999996275","1","0","2","1","1,0.333,0.333,0.333,1,0.333,0.333,0.333,1","1,0.333,0.333,0.333,1,0.333,0.333,0.333,1","1",""
"","html-keyboard-response","269","179283","0.0-269.0","33SA9F9TRYG3D7XQZTWIHC0JYZ3WEM","ARR3UJTM2ZGK4","3566S7OX5D5NH74JOVOPTTMK8IR17K","","null","<img src=""img/flower6.png"" style=""width:200px;border:14px solid red;"">","null","","","","","","","","",""
"","image-keyboard-response","270","180310","0.0-270.0","33SA9F9TRYG3D7XQZTWIHC0JYZ3WEM","ARR3UJTM2ZGK4","3566S7OX5D5NH74JOVOPTTMK8IR17K","","1024.4000000003725","img/flower5.png","74","1025.5999999996275","1","1","3","1","1,0.333,0.333,0.333,1,0.333,0.333,0.333,1","1,0.333,0.333,0.333,1,0.333,0.333,0.333,1","1",""
"","html-keyboard-response","271","180611","0.0-271.0","33SA9F9TRYG3D7XQZTWIHC0JYZ3WEM","ARR3UJTM2ZGK4","3566S7OX5D5NH74JOVOPTTMK8IR17K","","null","<img src=""img/flower5.png"" style=""width:200px; border:14px solid green;"">","null","","","","","","","","",""
"","image-keyboard-response","272","181414","0.0-272.0","33SA9F9TRYG3D7XQZTWIHC0JYZ3WEM","ARR3UJTM2ZGK4","3566S7OX5D5NH74JOVOPTTMK8IR17K","","801.3999999994412","img/flower4.png","74","802.2000000001863","1","1","1","1","1,0.333,0.333,0.333,1,0.333,0.333,0.333,1","1,0.333,0.333,0.333,1,0.333,0.333,0.333,1","1",""
"","html-keyboard-response","273","181716","0.0-273.0","33SA9F9TRYG3D7XQZTWIHC0JYZ3WEM","ARR3UJTM2ZGK4","3566S7OX5D5NH74JOVOPTTMK8IR17K","","null","<img src=""img/flower4.png"" style=""width:200px; border:14px solid green;"">","null","","","","","","","","",""
"","image-keyboard-response","274","182502","0.0-274.0","33SA9F9TRYG3D7XQZTWIHC0JYZ3WEM","ARR3UJTM2ZGK4","3566S7OX5D5NH74JOVOPTTMK8IR17K","","784.5","img/flower6.png","75","785.7000000001863","2","1","2","1","1,0.333,0.333,0.333,1,0.333,0.333,0.333,1","1,0.333,0.333,0.333,1,0.333,0.333,0.333,1","1",""
"","html-keyboard-response","275","182803","0.0-275.0","33SA9F9TRYG3D7XQZTWIHC0JYZ3WEM","ARR3UJTM2ZGK4","3566S7OX5D5NH74JOVOPTTMK8IR17K","","null","<img src=""img/flower6.png"" style=""width:200px; border:14px solid green;"">","null","","","","","","","","",""
"","image-keyboard-response","276","183398","0.0-276.0","33SA9F9TRYG3D7XQZTWIHC0JYZ3WEM","ARR3UJTM2ZGK4","3566S7OX5D5NH74JOVOPTTMK8IR17K","","592.9000000003725","img/flower5.png","74","594","1","0","3","1","1,0.333,0.333,0.333,1,0.333,0.333,0.333,1","1,0.333,0.333,0.333,1,0.333,0.333,0.333,1","1",""
"","html-keyboard-response","277","183700","0.0-277.0","33SA9F9TRYG3D7XQZTWIHC0JYZ3WEM","ARR3UJTM2ZGK4","3566S7OX5D5NH74JOVOPTTMK8IR17K","","null","<img src=""img/flower5.png"" style=""width:200px;border:14px solid red;"">","null","","","","","","","","",""
"","image-keyboard-response","278","184789","0.0-278.0","33SA9F9TRYG3D7XQZTWIHC0JYZ3WEM","ARR3UJTM2ZGK4","3566S7OX5D5NH74JOVOPTTMK8IR17K","","1088","img/flower4.png","74","1089.2000000001863","1","1","1","1","1,0.333,0.333,0.333,1,0.333,0.333,0.333,1","1,0.333,0.333,0.333,1,0.333,0.333,0.333,1","1",""
"","html-keyboard-response","279","185090","0.0-279.0","33SA9F9TRYG3D7XQZTWIHC0JYZ3WEM","ARR3UJTM2ZGK4","3566S7OX5D5NH74JOVOPTTMK8IR17K","","null","<img src=""img/flower4.png"" style=""width:200px; border:14px solid green;"">","null","","","","","","","","",""
"","image-keyboard-response","280","186342","0.0-280.0","33SA9F9TRYG3D7XQZTWIHC0JYZ3WEM","ARR3UJTM2ZGK4","3566S7OX5D5NH74JOVOPTTMK8IR17K","","1249.8999999994412","img/flower5.png","75","1251.199999999255","2","0","3","1","1,0.333,0.333,0.333,1,0.333,0.333,0.333,1","1,0.333,0.333,0.333,1,0.333,0.333,0.333,1","1",""
"","html-keyboard-response","281","186644","0.0-281.0","33SA9F9TRYG3D7XQZTWIHC0JYZ3WEM","ARR3UJTM2ZGK4","3566S7OX5D5NH74JOVOPTTMK8IR17K","","null","<img src=""img/flower5.png"" style=""width:200px;border:14px solid red;"">","null","","","","","","","","",""
"","image-keyboard-response","282","187862","0.0-282.0","33SA9F9TRYG3D7XQZTWIHC0JYZ3WEM","ARR3UJTM2ZGK4","3566S7OX5D5NH74JOVOPTTMK8IR17K","","1216.2999999998137","img/flower6.png","75","1217.4000000003725","2","1","2","1","1,0.333,0.333,0.333,1,0.333,0.333,0.333,1","1,0.333,0.333,0.333,1,0.333,0.333,0.333,1","1",""
"","html-keyboard-response","283","188164","0.0-283.0","33SA9F9TRYG3D7XQZTWIHC0JYZ3WEM","ARR3UJTM2ZGK4","3566S7OX5D5NH74JOVOPTTMK8IR17K","","null","<img src=""img/flower6.png"" style=""width:200px; border:14px solid green;"">","null","","","","","","","","",""
"","image-keyboard-response","284","189478","0.0-284.0","33SA9F9TRYG3D7XQZTWIHC0JYZ3WEM","ARR3UJTM2ZGK4","3566S7OX5D5NH74JOVOPTTMK8IR17K","","1312.5","img/flower5.png","75","1313.5999999996275","2","0","3","1","1,0.333,0.333,0.333,1,0.333,0.333,0.333,1","1,0.333,0.333,0.333,1,0.333,0.333,0.333,1","1",""
"","html-keyboard-response","285","189781","0.0-285.0","33SA9F9TRYG3D7XQZTWIHC0JYZ3WEM","ARR3UJTM2ZGK4","3566S7OX5D5NH74JOVOPTTMK8IR17K","","null","<img src=""img/flower5.png"" style=""width:200px;border:14px solid red;"">","null","","","","","","","","",""
"","image-keyboard-response","286","190550","0.0-286.0","33SA9F9TRYG3D7XQZTWIHC0JYZ3WEM","ARR3UJTM2ZGK4","3566S7OX5D5NH74JOVOPTTMK8IR17K","","767.7000000001863","img/flower4.png","74","768.8000000007451","1","1","1","1","1,0.333,0.333,0.333,1,0.333,0.333,0.333,1","1,0.333,0.333,0.333,1,0.333,0.333,0.333,1","1",""
"","html-keyboard-response","287","190852","0.0-287.0","33SA9F9TRYG3D7XQZTWIHC0JYZ3WEM","ARR3UJTM2ZGK4","3566S7OX5D5NH74JOVOPTTMK8IR17K","","null","<img src=""img/flower4.png"" style=""width:200px; border:14px solid green;"">","null","","","","","","","","",""
"","image-keyboard-response","288","192166","0.0-288.0","33SA9F9TRYG3D7XQZTWIHC0JYZ3WEM","ARR3UJTM2ZGK4","3566S7OX5D5NH74JOVOPTTMK8IR17K","","1312.6000000005588","img/flower5.png","74","1313.9000000003725","1","1","3","1","1,0.333,0.333,0.333,1,0.333,0.333,0.333,1","1,0.333,0.333,0.333,1,0.333,0.333,0.333,1","1",""
"","html-keyboard-response","289","192468","0.0-289.0","33SA9F9TRYG3D7XQZTWIHC0JYZ3WEM","ARR3UJTM2ZGK4","3566S7OX5D5NH74JOVOPTTMK8IR17K","","null","<img src=""img/flower5.png"" style=""width:200px; border:14px solid green;"">","null","","","","","","","","",""
"","image-keyboard-response","290","192981","0.0-290.0","33SA9F9TRYG3D7XQZTWIHC0JYZ3WEM","ARR3UJTM2ZGK4","3566S7OX5D5NH74JOVOPTTMK8IR17K","","512.5","img/flower5.png","74","513.5999999996275","1","0","3","1","1,0.333,0.333,0.333,1,0.333,0.333,0.333,1","1,0.333,0.333,0.333,1,0.333,0.333,0.333,1","1",""
"","html-keyboard-response","291","193283","0.0-291.0","33SA9F9TRYG3D7XQZTWIHC0JYZ3WEM","ARR3UJTM2ZGK4","3566S7OX5D5NH74JOVOPTTMK8IR17K","","null","<img src=""img/flower5.png"" style=""width:200px;border:14px solid red;"">","null","","","","","","","","",""
"","image-keyboard-response","292","194198","0.0-292.0","33SA9F9TRYG3D7XQZTWIHC0JYZ3WEM","ARR3UJTM2ZGK4","3566S7OX5D5NH74JOVOPTTMK8IR17K","","912.5999999996275","img/flower5.png","75","913.8999999994412","2","0","3","1","1,0.333,0.333,0.333,1,0.333,0.333,0.333,1","1,0.333,0.333,0.333,1,0.333,0.333,0.333,1","1",""
"","html-keyboard-response","293","194500","0.0-293.0","33SA9F9TRYG3D7XQZTWIHC0JYZ3WEM","ARR3UJTM2ZGK4","3566S7OX5D5NH74JOVOPTTMK8IR17K","","null","<img src=""img/flower5.png"" style=""width:200px;border:14px solid red;"">","null","","","","","","","","",""
"","image-keyboard-response","294","195446","0.0-294.0","33SA9F9TRYG3D7XQZTWIHC0JYZ3WEM","ARR3UJTM2ZGK4","3566S7OX5D5NH74JOVOPTTMK8IR17K","","944.5","img/flower6.png","75","945.5999999996275","2","1","2","1","1,0.333,0.333,0.333,1,0.333,0.333,0.333,1","1,0.333,0.333,0.333,1,0.333,0.333,0.333,1","1",""
"","html-keyboard-response","295","195747","0.0-295.0","33SA9F9TRYG3D7XQZTWIHC0JYZ3WEM","ARR3UJTM2ZGK4","3566S7OX5D5NH74JOVOPTTMK8IR17K","","null","<img src=""img/flower6.png"" style=""width:200px; border:14px solid green;"">","null","","","","","","","","",""
"","image-keyboard-response","296","196230","0.0-296.0","33SA9F9TRYG3D7XQZTWIHC0JYZ3WEM","ARR3UJTM2ZGK4","3566S7OX5D5NH74JOVOPTTMK8IR17K","","480.79999999981374","img/flower6.png","75","482.09999999962747","2","1","2","1","1,0.333,0.333,0.333,1,0.333,0.333,0.333,1","1,0.333,0.333,0.333,1,0.333,0.333,0.333,1","1",""
"","html-keyboard-response","297","196532","0.0-297.0","33SA9F9TRYG3D7XQZTWIHC0JYZ3WEM","ARR3UJTM2ZGK4","3566S7OX5D5NH74JOVOPTTMK8IR17K","","null","<img src=""img/flower6.png"" style=""width:200px; border:14px solid green;"">","null","","","","","","","","",""
"","image-keyboard-response","298","197558","0.0-298.0","33SA9F9TRYG3D7XQZTWIHC0JYZ3WEM","ARR3UJTM2ZGK4","3566S7OX5D5NH74JOVOPTTMK8IR17K","","1024.2999999998137","img/flower5.png","74","1025.5","1","1","3","1","1,0.333,0.333,0.333,1,0.333,0.333,0.333,1","1,0.333,0.333,0.333,1,0.333,0.333,0.333,1","1",""
"","html-keyboard-response","299","197859","0.0-299.0","33SA9F9TRYG3D7XQZTWIHC0JYZ3WEM","ARR3UJTM2ZGK4","3566S7OX5D5NH74JOVOPTTMK8IR17K","","null","<img src=""img/flower5.png"" style=""width:200px; border:14px solid green;"">","null","","","","","","","","",""
"","image-keyboard-response","300","198582","0.0-300.0","33SA9F9TRYG3D7XQZTWIHC0JYZ3WEM","ARR3UJTM2ZGK4","3566S7OX5D5NH74JOVOPTTMK8IR17K","","720.9000000003725","img/flower4.png","74","722.2000000001863","1","1","1","1","1,0.333,0.333,0.333,1,0.333,0.333,0.333,1","1,0.333,0.333,0.333,1,0.333,0.333,0.333,1","1",""
"","html-keyboard-response","301","198884","0.0-301.0","33SA9F9TRYG3D7XQZTWIHC0JYZ3WEM","ARR3UJTM2ZGK4","3566S7OX5D5NH74JOVOPTTMK8IR17K","","null","<img src=""img/flower4.png"" style=""width:200px; border:14px solid green;"">","null","","","","","","","","",""
"","image-keyboard-response","302","199317","0.0-302.0","33SA9F9TRYG3D7XQZTWIHC0JYZ3WEM","ARR3UJTM2ZGK4","3566S7OX5D5NH74JOVOPTTMK8IR17K","","432.70000000018626","img/flower4.png","74","433.69999999925494","1","1","1","1","1,0.333,0.333,0.333,1,0.333,0.333,0.333,1","1,0.333,0.333,0.333,1,0.333,0.333,0.333,1","1",""
"","html-keyboard-response","303","199619","0.0-303.0","33SA9F9TRYG3D7XQZTWIHC0JYZ3WEM","ARR3UJTM2ZGK4","3566S7OX5D5NH74JOVOPTTMK8IR17K","","null","<img src=""img/flower4.png"" style=""width:200px; border:14px solid green;"">","null","","","","","","","","",""
"","image-keyboard-response","304","200069","0.0-304.0","33SA9F9TRYG3D7XQZTWIHC0JYZ3WEM","ARR3UJTM2ZGK4","3566S7OX5D5NH74JOVOPTTMK8IR17K","","448.70000000018626","img/flower4.png","74","450.80000000074506","1","1","1","1","1,0.333,0.333,0.333,1,0.333,0.333,0.333,1","1,0.333,0.333,0.333,1,0.333,0.333,0.333,1","1",""
"","html-keyboard-response","305","200372","0.0-305.0","33SA9F9TRYG3D7XQZTWIHC0JYZ3WEM","ARR3UJTM2ZGK4","3566S7OX5D5NH74JOVOPTTMK8IR17K","","null","<img src=""img/flower4.png"" style=""width:200px; border:14px solid green;"">","null","","","","","","","","",""
"","image-keyboard-response","306","200805","0.0-306.0","33SA9F9TRYG3D7XQZTWIHC0JYZ3WEM","ARR3UJTM2ZGK4","3566S7OX5D5NH74JOVOPTTMK8IR17K","","431.79999999981374","img/flower4.png","74","433.1000000005588","1","1","1","1","1,0.333,0.333,0.333,1,0.333,0.333,0.333,1","1,0.333,0.333,0.333,1,0.333,0.333,0.333,1","1",""
"","html-keyboard-response","307","201108","0.0-307.0","33SA9F9TRYG3D7XQZTWIHC0JYZ3WEM","ARR3UJTM2ZGK4","3566S7OX5D5NH74JOVOPTTMK8IR17K","","null","<img src=""img/flower4.png"" style=""width:200px; border:14px solid green;"">","null","","","","","","","","",""
"","image-keyboard-response","308","202278","0.0-308.0","33SA9F9TRYG3D7XQZTWIHC0JYZ3WEM","ARR3UJTM2ZGK4","3566S7OX5D5NH74JOVOPTTMK8IR17K","","1168.2000000001863","img/flower5.png","75","1169.4000000003725","2","0","3","1","1,0.333,0.333,0.333,1,0.333,0.333,0.333,1","1,0.333,0.333,0.333,1,0.333,0.333,0.333,1","1",""
"","html-keyboard-response","309","202580","0.0-309.0","33SA9F9TRYG3D7XQZTWIHC0JYZ3WEM","ARR3UJTM2ZGK4","3566S7OX5D5NH74JOVOPTTMK8IR17K","","null","<img src=""img/flower5.png"" style=""width:200px;border:14px solid red;"">","null","","","","","","","","",""
"","image-keyboard-response","310","203302","0.0-310.0","33SA9F9TRYG3D7XQZTWIHC0JYZ3WEM","ARR3UJTM2ZGK4","3566S7OX5D5NH74JOVOPTTMK8IR17K","","720.2999999998137","img/flower6.png","74","721.2999999998137","1","1","2","1","1,0.333,0.333,0.333,1,0.333,0.333,0.333,1","1,0.333,0.333,0.333,1,0.333,0.333,0.333,1","1",""
"","html-keyboard-response","311","203604","0.0-311.0","33SA9F9TRYG3D7XQZTWIHC0JYZ3WEM","ARR3UJTM2ZGK4","3566S7OX5D5NH74JOVOPTTMK8IR17K","","null","<img src=""img/flower6.png"" style=""width:200px; border:14px solid green;"">","null","","","","","","","","",""
"","image-keyboard-response","312","204630","0.0-312.0","33SA9F9TRYG3D7XQZTWIHC0JYZ3WEM","ARR3UJTM2ZGK4","3566S7OX5D5NH74JOVOPTTMK8IR17K","","1024.7000000001863","img/flower5.png","74","1025.7999999998137","1","0","3","1","1,0.333,0.333,0.333,1,0.333,0.333,0.333,1","1,0.333,0.333,0.333,1,0.333,0.333,0.333,1","1",""
"","html-keyboard-response","313","204932","0.0-313.0","33SA9F9TRYG3D7XQZTWIHC0JYZ3WEM","ARR3UJTM2ZGK4","3566S7OX5D5NH74JOVOPTTMK8IR17K","","null","<img src=""img/flower5.png"" style=""width:200px;border:14px solid red;"">","null","","","","","","","","",""
"","image-keyboard-response","314","205685","0.0-314.0","33SA9F9TRYG3D7XQZTWIHC0JYZ3WEM","ARR3UJTM2ZGK4","3566S7OX5D5NH74JOVOPTTMK8IR17K","","752.1000000005588","img/flower6.png","74","753.2999999998137","1","1","2","1","1,0.333,0.333,0.333,1,0.333,0.333,0.333,1","1,0.333,0.333,0.333,1,0.333,0.333,0.333,1","1",""
"","html-keyboard-response","315","205989","0.0-315.0","33SA9F9TRYG3D7XQZTWIHC0JYZ3WEM","ARR3UJTM2ZGK4","3566S7OX5D5NH74JOVOPTTMK8IR17K","","null","<img src=""img/flower6.png"" style=""width:200px; border:14px solid green;"">","null","","","","","","","","",""
"","image-keyboard-response","316","206725","0.0-316.0","33SA9F9TRYG3D7XQZTWIHC0JYZ3WEM","ARR3UJTM2ZGK4","3566S7OX5D5NH74JOVOPTTMK8IR17K","","735.5","img/flower6.png","74","736.7000000001863","1","1","2","1","1,0.333,0.333,0.333,1,0.333,0.333,0.333,1","1,0.333,0.333,0.333,1,0.333,0.333,0.333,1","1",""
"","html-keyboard-response","317","207028","0.0-317.0","33SA9F9TRYG3D7XQZTWIHC0JYZ3WEM","ARR3UJTM2ZGK4","3566S7OX5D5NH74JOVOPTTMK8IR17K","","null","<img src=""img/flower6.png"" style=""width:200px; border:14px solid green;"">","null","","","","","","","","",""
"","image-keyboard-response","318","208742","0.0-318.0","33SA9F9TRYG3D7XQZTWIHC0JYZ3WEM","ARR3UJTM2ZGK4","3566S7OX5D5NH74JOVOPTTMK8IR17K","","1712.5","img/flower5.png","74","1713.7000000001863","1","0","3","1","1,0.333,0.333,0.333,1,0.333,0.333,0.333,1","1,0.333,0.333,0.333,1,0.333,0.333,0.333,1","1",""
"","html-keyboard-response","319","209044","0.0-319.0","33SA9F9TRYG3D7XQZTWIHC0JYZ3WEM","ARR3UJTM2ZGK4","3566S7OX5D5NH74JOVOPTTMK8IR17K","","null","<img src=""img/flower5.png"" style=""width:200px;border:14px solid red;"">","null","","","","","","","","",""
"","image-keyboard-response","320","209829","0.0-320.0","33SA9F9TRYG3D7XQZTWIHC0JYZ3WEM","ARR3UJTM2ZGK4","3566S7OX5D5NH74JOVOPTTMK8IR17K","","784.2000000001863","img/flower4.png","74","785.1999999992549","1","1","1","1","1,0.333,0.333,0.333,1,0.333,0.333,0.333,1","1,0.333,0.333,0.333,1,0.333,0.333,0.333,1","1",""
"","html-keyboard-response","321","210131","0.0-321.0","33SA9F9TRYG3D7XQZTWIHC0JYZ3WEM","ARR3UJTM2ZGK4","3566S7OX5D5NH74JOVOPTTMK8IR17K","","null","<img src=""img/flower4.png"" style=""width:200px; border:14px solid green;"">","null","","","","","","","","",""
"","image-keyboard-response","322","210533","0.0-322.0","33SA9F9TRYG3D7XQZTWIHC0JYZ3WEM","ARR3UJTM2ZGK4","3566S7OX5D5NH74JOVOPTTMK8IR17K","","401.1000000005588","img/flower4.png","74","402.40000000037253","1","1","1","1","1,0.333,0.333,0.333,1,0.333,0.333,0.333,1","1,0.333,0.333,0.333,1,0.333,0.333,0.333,1","1",""
"","html-keyboard-response","323","210835","0.0-323.0","33SA9F9TRYG3D7XQZTWIHC0JYZ3WEM","ARR3UJTM2ZGK4","3566S7OX5D5NH74JOVOPTTMK8IR17K","","null","<img src=""img/flower4.png"" style=""width:200px; border:14px solid green;"">","null","","","","","","","","",""
"","image-keyboard-response","324","211717","0.0-324.0","33SA9F9TRYG3D7XQZTWIHC0JYZ3WEM","ARR3UJTM2ZGK4","3566S7OX5D5NH74JOVOPTTMK8IR17K","","880.7000000001863","img/flower6.png","75","881.8999999994412","2","1","2","1","1,0.333,0.333,0.333,1,0.333,0.333,0.333,1","1,0.333,0.333,0.333,1,0.333,0.333,0.333,1","1",""
"","html-keyboard-response","325","212020","0.0-325.0","33SA9F9TRYG3D7XQZTWIHC0JYZ3WEM","ARR3UJTM2ZGK4","3566S7OX5D5NH74JOVOPTTMK8IR17K","","null","<img src=""img/flower6.png"" style=""width:200px; border:14px solid green;"">","null","","","","","","","","",""
"","image-keyboard-response","326","213109","0.0-326.0","33SA9F9TRYG3D7XQZTWIHC0JYZ3WEM","ARR3UJTM2ZGK4","3566S7OX5D5NH74JOVOPTTMK8IR17K","","1087","img/flower4.png","74","1088.300000000745","1","1","1","1","1,0.333,0.333,0.333,1,0.333,0.333,0.333,1","1,0.333,0.333,0.333,1,0.333,0.333,0.333,1","1",""
"","html-keyboard-response","327","213410","0.0-327.0","33SA9F9TRYG3D7XQZTWIHC0JYZ3WEM","ARR3UJTM2ZGK4","3566S7OX5D5NH74JOVOPTTMK8IR17K","","null","<img src=""img/flower4.png"" style=""width:200px; border:14px solid green;"">","null","","","","","","","","",""
"","image-keyboard-response","328","214229","0.0-328.0","33SA9F9TRYG3D7XQZTWIHC0JYZ3WEM","ARR3UJTM2ZGK4","3566S7OX5D5NH74JOVOPTTMK8IR17K","","817.6999999992549","img/flower6.png","75","819","2","1","2","1","1,0.333,0.333,0.333,1,0.333,0.333,0.333,1","1,0.333,0.333,0.333,1,0.333,0.333,0.333,1","1",""
"","html-keyboard-response","329","214532","0.0-329.0","33SA9F9TRYG3D7XQZTWIHC0JYZ3WEM","ARR3UJTM2ZGK4","3566S7OX5D5NH74JOVOPTTMK8IR17K","","null","<img src=""img/flower6.png"" style=""width:200px; border:14px solid green;"">","null","","","","","","","","",""
"","image-keyboard-response","330","215173","0.0-330.0","33SA9F9TRYG3D7XQZTWIHC0JYZ3WEM","ARR3UJTM2ZGK4","3566S7OX5D5NH74JOVOPTTMK8IR17K","","639.5","img/flower4.png","74","640.5","1","1","1","1","1,0.333,0.333,0.333,1,0.333,0.333,0.333,1","1,0.333,0.333,0.333,1,0.333,0.333,0.333,1","1",""
"","html-keyboard-response","331","215475","0.0-331.0","33SA9F9TRYG3D7XQZTWIHC0JYZ3WEM","ARR3UJTM2ZGK4","3566S7OX5D5NH74JOVOPTTMK8IR17K","","null","<img src=""img/flower4.png"" style=""width:200px; border:14px solid green;"">","null","","","","","","","","",""
"","image-keyboard-response","332","215973","0.0-332.0","33SA9F9TRYG3D7XQZTWIHC0JYZ3WEM","ARR3UJTM2ZGK4","3566S7OX5D5NH74JOVOPTTMK8IR17K","","497.19999999925494","img/flower4.png","74","498.40000000037253","1","1","1","1","1,0.333,0.333,0.333,1,0.333,0.333,0.333,1","1,0.333,0.333,0.333,1,0.333,0.333,0.333,1","1",""
"","html-keyboard-response","333","216275","0.0-333.0","33SA9F9TRYG3D7XQZTWIHC0JYZ3WEM","ARR3UJTM2ZGK4","3566S7OX5D5NH74JOVOPTTMK8IR17K","","null","<img src=""img/flower4.png"" style=""width:200px; border:14px solid green;"">","null","","","","","","","","",""
"","image-keyboard-response","334","217093","0.0-334.0","33SA9F9TRYG3D7XQZTWIHC0JYZ3WEM","ARR3UJTM2ZGK4","3566S7OX5D5NH74JOVOPTTMK8IR17K","","816.9000000003725","img/flower6.png","75","817.8999999994412","2","1","2","1","1,0.333,0.333,0.333,1,0.333,0.333,0.333,1","1,0.333,0.333,0.333,1,0.333,0.333,0.333,1","1",""
"","html-keyboard-response","335","217395","0.0-335.0","33SA9F9TRYG3D7XQZTWIHC0JYZ3WEM","ARR3UJTM2ZGK4","3566S7OX5D5NH74JOVOPTTMK8IR17K","","null","<img src=""img/flower6.png"" style=""width:200px; border:14px solid green;"">","null","","","","","","","","",""
"","image-keyboard-response","336","218005","0.0-336.0","33SA9F9TRYG3D7XQZTWIHC0JYZ3WEM","ARR3UJTM2ZGK4","3566S7OX5D5NH74JOVOPTTMK8IR17K","","608.9000000003725","img/flower6.png","75","610.2000000001863","2","1","2","1","1,0.333,0.333,0.333,1,0.333,0.333,0.333,1","1,0.333,0.333,0.333,1,0.333,0.333,0.333,1","1",""
"","html-keyboard-response","337","218307","0.0-337.0","33SA9F9TRYG3D7XQZTWIHC0JYZ3WEM","ARR3UJTM2ZGK4","3566S7OX5D5NH74JOVOPTTMK8IR17K","","null","<img src=""img/flower6.png"" style=""width:200px; border:14px solid green;"">","null","","","","","","","","",""
"","image-keyboard-response","338","218870","0.0-338.0","33SA9F9TRYG3D7XQZTWIHC0JYZ3WEM","ARR3UJTM2ZGK4","3566S7OX5D5NH74JOVOPTTMK8IR17K","","561.5","img/flower6.png","75","562.4000000003725","2","1","2","1","1,0.333,0.333,0.333,1,0.333,0.333,0.333,1","1,0.333,0.333,0.333,1,0.333,0.333,0.333,1","1",""
"","html-keyboard-response","339","219172","0.0-339.0","33SA9F9TRYG3D7XQZTWIHC0JYZ3WEM","ARR3UJTM2ZGK4","3566S7OX5D5NH74JOVOPTTMK8IR17K","","null","<img src=""img/flower6.png"" style=""width:200px; border:14px solid green;"">","null","","","","","","","","",""
"","image-keyboard-response","340","219701","0.0-340.0","33SA9F9TRYG3D7XQZTWIHC0JYZ3WEM","ARR3UJTM2ZGK4","3566S7OX5D5NH74JOVOPTTMK8IR17K","","527.5999999996275","img/flower6.png","75","528.9000000003725","2","1","2","1","1,0.333,0.333,0.333,1,0.333,0.333,0.333,1","1,0.333,0.333,0.333,1,0.333,0.333,0.333,1","1",""
"","html-keyboard-response","341","220003","0.0-341.0","33SA9F9TRYG3D7XQZTWIHC0JYZ3WEM","ARR3UJTM2ZGK4","3566S7OX5D5NH74JOVOPTTMK8IR17K","","null","<img src=""img/flower6.png"" style=""width:200px; border:14px solid green;"">","null","","","","","","","","",""
"","image-keyboard-response","342","220565","0.0-342.0","33SA9F9TRYG3D7XQZTWIHC0JYZ3WEM","ARR3UJTM2ZGK4","3566S7OX5D5NH74JOVOPTTMK8IR17K","","560.7000000001863","img/flower4.png","74","561.7999999998137","1","1","1","1","1,0.333,0.333,0.333,1,0.333,0.333,0.333,1","1,0.333,0.333,0.333,1,0.333,0.333,0.333,1","1",""
"","html-keyboard-response","343","220867","0.0-343.0","33SA9F9TRYG3D7XQZTWIHC0JYZ3WEM","ARR3UJTM2ZGK4","3566S7OX5D5NH74JOVOPTTMK8IR17K","","null","<img src=""img/flower4.png"" style=""width:200px; border:14px solid green;"">","null","","","","","","","","",""
"","image-keyboard-response","344","222053","0.0-344.0","33SA9F9TRYG3D7XQZTWIHC0JYZ3WEM","ARR3UJTM2ZGK4","3566S7OX5D5NH74JOVOPTTMK8IR17K","","1184.3999999994412","img/flower5.png","74","1185.5999999996275","1","0","3","1","1,0.333,0.333,0.333,1,0.333,0.333,0.333,1","1,0.333,0.333,0.333,1,0.333,0.333,0.333,1","1",""
"","html-keyboard-response","345","222355","0.0-345.0","33SA9F9TRYG3D7XQZTWIHC0JYZ3WEM","ARR3UJTM2ZGK4","3566S7OX5D5NH74JOVOPTTMK8IR17K","","null","<img src=""img/flower5.png"" style=""width:200px;border:14px solid red;"">","null","","","","","","","","",""
"","image-keyboard-response","346","223285","0.0-346.0","33SA9F9TRYG3D7XQZTWIHC0JYZ3WEM","ARR3UJTM2ZGK4","3566S7OX5D5NH74JOVOPTTMK8IR17K","","928.6999999992549","img/flower6.png","75","930","2","1","2","1","1,0.333,0.333,0.333,1,0.333,0.333,0.333,1","1,0.333,0.333,0.333,1,0.333,0.333,0.333,1","1",""
"","html-keyboard-response","347","223587","0.0-347.0","33SA9F9TRYG3D7XQZTWIHC0JYZ3WEM","ARR3UJTM2ZGK4","3566S7OX5D5NH74JOVOPTTMK8IR17K","","null","<img src=""img/flower6.png"" style=""width:200px; border:14px solid green;"">","null","","","","","","","","",""
"","image-keyboard-response","348","224261","0.0-348.0","33SA9F9TRYG3D7XQZTWIHC0JYZ3WEM","ARR3UJTM2ZGK4","3566S7OX5D5NH74JOVOPTTMK8IR17K","","672.6000000005588","img/flower4.png","74","673.8000000007451","1","1","1","1","1,0.333,0.333,0.333,1,0.333,0.333,0.333,1","1,0.333,0.333,0.333,1,0.333,0.333,0.333,1","1",""
"","html-keyboard-response","349","224564","0.0-349.0","33SA9F9TRYG3D7XQZTWIHC0JYZ3WEM","ARR3UJTM2ZGK4","3566S7OX5D5NH74JOVOPTTMK8IR17K","","null","<img src=""img/flower4.png"" style=""width:200px; border:14px solid green;"">","null","","","","","","","","",""
"","image-keyboard-response","350","225989","0.0-350.0","33SA9F9TRYG3D7XQZTWIHC0JYZ3WEM","ARR3UJTM2ZGK4","3566S7OX5D5NH74JOVOPTTMK8IR17K","","1424","img/flower5.png","75","1425.2000000001863","2","0","3","1","1,0.333,0.333,0.333,1,0.333,0.333,0.333,1","1,0.333,0.333,0.333,1,0.333,0.333,0.333,1","1",""
"","html-keyboard-response","351","226291","0.0-351.0","33SA9F9TRYG3D7XQZTWIHC0JYZ3WEM","ARR3UJTM2ZGK4","3566S7OX5D5NH74JOVOPTTMK8IR17K","","null","<img src=""img/flower5.png"" style=""width:200px;border:14px solid red;"">","null","","","","","","","","",""
"","image-keyboard-response","352","227077","0.0-352.0","33SA9F9TRYG3D7XQZTWIHC0JYZ3WEM","ARR3UJTM2ZGK4","3566S7OX5D5NH74JOVOPTTMK8IR17K","","785.2999999998137","img/flower5.png","74","786.5999999996275","1","1","3","1","1,0.333,0.333,0.333,1,0.333,0.333,0.333,1","1,0.333,0.333,0.333,1,0.333,0.333,0.333,1","1",""
"","html-keyboard-response","353","227380","0.0-353.0","33SA9F9TRYG3D7XQZTWIHC0JYZ3WEM","ARR3UJTM2ZGK4","3566S7OX5D5NH74JOVOPTTMK8IR17K","","null","<img src=""img/flower5.png"" style=""width:200px; border:14px solid green;"">","null","","","","","","","","",""
"","image-keyboard-response","354","228469","0.0-354.0","33SA9F9TRYG3D7XQZTWIHC0JYZ3WEM","ARR3UJTM2ZGK4","3566S7OX5D5NH74JOVOPTTMK8IR17K","","1088.2000000001863","img/flower6.png","75","1089.5","2","1","2","1","1,0.333,0.333,0.333,1,0.333,0.333,0.333,1","1,0.333,0.333,0.333,1,0.333,0.333,0.333,1","1",""
"","html-keyboard-response","355","228772","0.0-355.0","33SA9F9TRYG3D7XQZTWIHC0JYZ3WEM","ARR3UJTM2ZGK4","3566S7OX5D5NH74JOVOPTTMK8IR17K","","null","<img src=""img/flower6.png"" style=""width:200px; border:14px solid green;"">","null","","","","","","","","",""
"","image-keyboard-response","356","229238","0.0-356.0","33SA9F9TRYG3D7XQZTWIHC0JYZ3WEM","ARR3UJTM2ZGK4","3566S7OX5D5NH74JOVOPTTMK8IR17K","","464.3999999994412","img/flower6.png","75","465.29999999981374","2","1","2","1","1,0.333,0.333,0.333,1,0.333,0.333,0.333,1","1,0.333,0.333,0.333,1,0.333,0.333,0.333,1","1",""
"","html-keyboard-response","357","229540","0.0-357.0","33SA9F9TRYG3D7XQZTWIHC0JYZ3WEM","ARR3UJTM2ZGK4","3566S7OX5D5NH74JOVOPTTMK8IR17K","","null","<img src=""img/flower6.png"" style=""width:200px; border:14px solid green;"">","null","","","","","","","","",""
"","image-keyboard-response","358","229957","0.0-358.0","33SA9F9TRYG3D7XQZTWIHC0JYZ3WEM","ARR3UJTM2ZGK4","3566S7OX5D5NH74JOVOPTTMK8IR17K","","415.59999999962747","img/flower6.png","75","416.79999999981374","2","1","2","1","1,0.333,0.333,0.333,1,0.333,0.333,0.333,1","1,0.333,0.333,0.333,1,0.333,0.333,0.333,1","1",""
"","html-keyboard-response","359","230259","0.0-359.0","33SA9F9TRYG3D7XQZTWIHC0JYZ3WEM","ARR3UJTM2ZGK4","3566S7OX5D5NH74JOVOPTTMK8IR17K","","null","<img src=""img/flower6.png"" style=""width:200px; border:14px solid green;"">","null","","","","","","","","",""
"","image-keyboard-response","360","231397","0.0-360.0","33SA9F9TRYG3D7XQZTWIHC0JYZ3WEM","ARR3UJTM2ZGK4","3566S7OX5D5NH74JOVOPTTMK8IR17K","","1137","img/flower5.png","74","1138.300000000745","1","0","3","1","1,0.333,0.333,0.333,1,0.333,0.333,0.333,1","1,0.333,0.333,0.333,1,0.333,0.333,0.333,1","1",""
"","html-keyboard-response","361","231700","0.0-361.0","33SA9F9TRYG3D7XQZTWIHC0JYZ3WEM","ARR3UJTM2ZGK4","3566S7OX5D5NH74JOVOPTTMK8IR17K","","null","<img src=""img/flower5.png"" style=""width:200px;border:14px solid red;"">","null","","","","","","","","",""
"","html-keyboard-response","362","234941","0.0-362.0","33SA9F9TRYG3D7XQZTWIHC0JYZ3WEM","ARR3UJTM2ZGK4","3566S7OX5D5NH74JOVOPTTMK8IR17K","","","","","","","","","","","","",""
"","instructions","363","239061","0.0-363.0","33SA9F9TRYG3D7XQZTWIHC0JYZ3WEM","ARR3UJTM2ZGK4","3566S7OX5D5NH74JOVOPTTMK8IR17K","[{""page_index"":0,""viewing_time"":4119.0999999996275}]","4119.399999999441","","","","","","","","","","",""
"","survey-text","364","245941","0.0-364.0","33SA9F9TRYG3D7XQZTWIHC0JYZ3WEM","ARR3UJTM2ZGK4","3566S7OX5D5NH74JOVOPTTMK8IR17K","","6876.0999999996275","","","","","","","","","","","{""Q0"":""ARR3UJTM2ZGK4""}"
