"success","trial_type","trial_index","time_elapsed","internal_node_id","assignmentID","mturkID","hitID","view_history","rt","stimulus","key_press","reactionTime","a","r","s","cond","reward_cond","reward_cond_actual","reward_matrix_idx","responses"
"true","fullscreen","0","2650","0.0-0.0","33L7PJKHCHKUCPJ5RL572IXYJ4FT8Q","AS0REDD6MMWQG","3P520RYKCHSO30HY2QJC6BDLS9Z5UE","","","","","","","","","","","","",""
"","instructions","1","14659","0.0-1.0","33L7PJKHCHKUCPJ5RL572IXYJ4FT8Q","AS0REDD6MMWQG","3P520RYKCHSO30HY2QJC6BDLS9Z5UE","[{""page_index"":0,""viewing_time"":2576.100000023842},{""page_index"":1,""viewing_time"":1996.7999999523163},{""page_index"":2,""viewing_time"":1074.8999999761581},{""page_index"":3,""viewing_time"":693.7000000476837},{""page_index"":4,""viewing_time"":2274.2999999523163},{""page_index"":5,""viewing_time"":1165.7000000476837},{""page_index"":6,""viewing_time"":1071.5},{""page_index"":7,""viewing_time"":1152.1999999284744}]","12006.100000023842","","","","","","","","","","",""
"","image-keyboard-response","2","16663","0.0-2.0","33L7PJKHCHKUCPJ5RL572IXYJ4FT8Q","AS0REDD6MMWQG","3P520RYKCHSO30HY2QJC6BDLS9Z5UE","","","img/flower4.png","","2003.8000000715256","-1","0","3","1","1,0.333,0.333,0.333,1,0.333,0.333,0.333,1","1,0.333,0.333,0.333,1,0.333,0.333,0.333,1","1",""
"","html-keyboard-response","3","16966","0.0-3.0","33L7PJKHCHKUCPJ5RL572IXYJ4FT8Q","AS0REDD6MMWQG","3P520RYKCHSO30HY2QJC6BDLS9Z5UE","","null","<img src=""img/flower4.png"" style=""width:200px;border:14px solid red;"">","null","","","","","","","","",""
"","image-keyboard-response","4","17562","0.0-4.0","33L7PJKHCHKUCPJ5RL572IXYJ4FT8Q","AS0REDD6MMWQG","3P520RYKCHSO30HY2QJC6BDLS9Z5UE","","594.6000000238419","img/flower3.png","74","595.9000000953674","1","0","2","1","1,0.333,0.333,0.333,1,0.333,0.333,0.333,1","1,0.333,0.333,0.333,1,0.333,0.333,0.333,1","1",""
"","html-keyboard-response","5","17864","0.0-5.0","33L7PJKHCHKUCPJ5RL572IXYJ4FT8Q","AS0REDD6MMWQG","3P520RYKCHSO30HY2QJC6BDLS9Z5UE","","null","<img src=""img/flower3.png"" style=""width:200px;border:14px solid red;"">","null","","","","","","","","",""
"","image-keyboard-response","6","17935","0.0-6.0","33L7PJKHCHKUCPJ5RL572IXYJ4FT8Q","AS0REDD6MMWQG","3P520RYKCHSO30HY2QJC6BDLS9Z5UE","","70.10000002384186","img/flower3.png","74","70.90000009536743","1","1","2","1","1,0.333,0.333,0.333,1,0.333,0.333,0.333,1","1,0.333,0.333,0.333,1,0.333,0.333,0.333,1","1",""
"","html-keyboard-response","7","18237","0.0-7.0","33L7PJKHCHKUCPJ5RL572IXYJ4FT8Q","AS0REDD6MMWQG","3P520RYKCHSO30HY2QJC6BDLS9Z5UE","","null","<img src=""img/flower3.png"" style=""width:200px; border:14px solid green;"">","null","","","","","","","","",""
"","image-keyboard-response","8","18249","0.0-8.0","33L7PJKHCHKUCPJ5RL572IXYJ4FT8Q","AS0REDD6MMWQG","3P520RYKCHSO30HY2QJC6BDLS9Z5UE","","9.899999976158142","img/flower1.png","74","10.800000071525574","1","1","1","1","1,0.333,0.333,0.333,1,0.333,0.333,0.333,1","1,0.333,0.333,0.333,1,0.333,0.333,0.333,1","1",""
"","html-keyboard-response","9","18550","0.0-9.0","33L7PJKHCHKUCPJ5RL572IXYJ4FT8Q","AS0REDD6MMWQG","3P520RYKCHSO30HY2QJC6BDLS9Z5UE","","null","<img src=""img/flower1.png"" style=""width:200px; border:14px solid green;"">","null","","","","","","","","",""
"","image-keyboard-response","10","18599","0.0-10.0","33L7PJKHCHKUCPJ5RL572IXYJ4FT8Q","AS0REDD6MMWQG","3P520RYKCHSO30HY2QJC6BDLS9Z5UE","","48","img/flower4.png","74","49","1","1","3","1","1,0.333,0.333,0.333,1,0.333,0.333,0.333,1","1,0.333,0.333,0.333,1,0.333,0.333,0.333,1","1",""
"","html-keyboard-response","11","18901","0.0-11.0","33L7PJKHCHKUCPJ5RL572IXYJ4FT8Q","AS0REDD6MMWQG","3P520RYKCHSO30HY2QJC6BDLS9Z5UE","","null","<img src=""img/flower4.png"" style=""width:200px; border:14px solid green;"">","null","","","","","","","","",""
"","image-keyboard-response","12","18910","0.0-12.0","33L7PJKHCHKUCPJ5RL572IXYJ4FT8Q","AS0REDD6MMWQG","3P520RYKCHSO30HY2QJC6BDLS9Z5UE","","8","img/flower3.png","75","9.100000023841858","2","1","2","1","1,0.333,0.333,0.333,1,0.333,0.333,0.333,1","1,0.333,0.333,0.333,1,0.333,0.333,0.333,1","1",""
"","html-keyboard-response","13","19212","0.0-13.0","33L7PJKHCHKUCPJ5RL572IXYJ4FT8Q","AS0REDD6MMWQG","3P520RYKCHSO30HY2QJC6BDLS9Z5UE","","null","<img src=""img/flower3.png"" style=""width:200px; border:14px solid green;"">","null","","","","","","","","",""
"","image-keyboard-response","14","19223","0.0-14.0","33L7PJKHCHKUCPJ5RL572IXYJ4FT8Q","AS0REDD6MMWQG","3P520RYKCHSO30HY2QJC6BDLS9Z5UE","","9.399999976158142","img/flower4.png","75","10.5","2","0","3","1","1,0.333,0.333,0.333,1,0.333,0.333,0.333,1","1,0.333,0.333,0.333,1,0.333,0.333,0.333,1","1",""
"","html-keyboard-response","15","19526","0.0-15.0","33L7PJKHCHKUCPJ5RL572IXYJ4FT8Q","AS0REDD6MMWQG","3P520RYKCHSO30HY2QJC6BDLS9Z5UE","","null","<img src=""img/flower4.png"" style=""width:200px;border:14px solid red;"">","null","","","","","","","","",""
"","image-keyboard-response","16","19539","0.0-16.0","33L7PJKHCHKUCPJ5RL572IXYJ4FT8Q","AS0REDD6MMWQG","3P520RYKCHSO30HY2QJC6BDLS9Z5UE","","11.700000047683716","img/flower3.png","76","12.799999952316284","3","1","2","1","1,0.333,0.333,0.333,1,0.333,0.333,0.333,1","1,0.333,0.333,0.333,1,0.333,0.333,0.333,1","1",""
"","html-keyboard-response","17","19871","0.0-17.0","33L7PJKHCHKUCPJ5RL572IXYJ4FT8Q","AS0REDD6MMWQG","3P520RYKCHSO30HY2QJC6BDLS9Z5UE","","null","<img src=""img/flower3.png"" style=""width:200px; border:14px solid green;"">","null","","","","","","","","",""
"","image-keyboard-response","18","19967","0.0-18.0","33L7PJKHCHKUCPJ5RL572IXYJ4FT8Q","AS0REDD6MMWQG","3P520RYKCHSO30HY2QJC6BDLS9Z5UE","","94.20000004768372","img/flower1.png","76","95.90000009536743","3","1","1","1","1,0.333,0.333,0.333,1,0.333,0.333,0.333,1","1,0.333,0.333,0.333,1,0.333,0.333,0.333,1","1",""
"","html-keyboard-response","19","20269","0.0-19.0","33L7PJKHCHKUCPJ5RL572IXYJ4FT8Q","AS0REDD6MMWQG","3P520RYKCHSO30HY2QJC6BDLS9Z5UE","","null","<img src=""img/flower1.png"" style=""width:200px; border:14px solid green;"">","null","","","","","","","","",""
"","image-keyboard-response","20","20313","0.0-20.0","33L7PJKHCHKUCPJ5RL572IXYJ4FT8Q","AS0REDD6MMWQG","3P520RYKCHSO30HY2QJC6BDLS9Z5UE","","42.700000047683716","img/flower1.png","74","43.799999952316284","1","1","1","1","1,0.333,0.333,0.333,1,0.333,0.333,0.333,1","1,0.333,0.333,0.333,1,0.333,0.333,0.333,1","1",""
"","html-keyboard-response","21","20616","0.0-21.0","33L7PJKHCHKUCPJ5RL572IXYJ4FT8Q","AS0REDD6MMWQG","3P520RYKCHSO30HY2QJC6BDLS9Z5UE","","null","<img src=""img/flower1.png"" style=""width:200px; border:14px solid green;"">","null","","","","","","","","",""
"","image-keyboard-response","22","20671","0.0-22.0","33L7PJKHCHKUCPJ5RL572IXYJ4FT8Q","AS0REDD6MMWQG","3P520RYKCHSO30HY2QJC6BDLS9Z5UE","","53.300000071525574","img/flower3.png","74","54.5","1","1","2","1","1,0.333,0.333,0.333,1,0.333,0.333,0.333,1","1,0.333,0.333,0.333,1,0.333,0.333,0.333,1","1",""
"","html-keyboard-response","23","20972","0.0-23.0","33L7PJKHCHKUCPJ5RL572IXYJ4FT8Q","AS0REDD6MMWQG","3P520RYKCHSO30HY2QJC6BDLS9Z5UE","","null","<img src=""img/flower3.png"" style=""width:200px; border:14px solid green;"">","null","","","","","","","","",""
"","image-keyboard-response","24","21005","0.0-24.0","33L7PJKHCHKUCPJ5RL572IXYJ4FT8Q","AS0REDD6MMWQG","3P520RYKCHSO30HY2QJC6BDLS9Z5UE","","31.5","img/flower4.png","74","32.60000002384186","1","0","3","1","1,0.333,0.333,0.333,1,0.333,0.333,0.333,1","1,0.333,0.333,0.333,1,0.333,0.333,0.333,1","1",""
"","html-keyboard-response","25","21307","0.0-25.0","33L7PJKHCHKUCPJ5RL572IXYJ4FT8Q","AS0REDD6MMWQG","3P520RYKCHSO30HY2QJC6BDLS9Z5UE","","null","<img src=""img/flower4.png"" style=""width:200px;border:14px solid red;"">","null","","","","","","","","",""
"","image-keyboard-response","26","21327","0.0-26.0","33L7PJKHCHKUCPJ5RL572IXYJ4FT8Q","AS0REDD6MMWQG","3P520RYKCHSO30HY2QJC6BDLS9Z5UE","","19","img/flower1.png","74","20","1","1","1","1","1,0.333,0.333,0.333,1,0.333,0.333,0.333,1","1,0.333,0.333,0.333,1,0.333,0.333,0.333,1","1",""
"","html-keyboard-response","27","21629","0.0-27.0","33L7PJKHCHKUCPJ5RL572IXYJ4FT8Q","AS0REDD6MMWQG","3P520RYKCHSO30HY2QJC6BDLS9Z5UE","","null","<img src=""img/flower1.png"" style=""width:200px; border:14px solid green;"">","null","","","","","","","","",""
"","image-keyboard-response","28","21644","0.0-28.0","33L7PJKHCHKUCPJ5RL572IXYJ4FT8Q","AS0REDD6MMWQG","3P520RYKCHSO30HY2QJC6BDLS9Z5UE","","14.399999976158142","img/flower4.png","74","15.399999976158142","1","0","3","1","1,0.333,0.333,0.333,1,0.333,0.333,0.333,1","1,0.333,0.333,0.333,1,0.333,0.333,0.333,1","1",""
"","html-keyboard-response","29","21948","0.0-29.0","33L7PJKHCHKUCPJ5RL572IXYJ4FT8Q","AS0REDD6MMWQG","3P520RYKCHSO30HY2QJC6BDLS9Z5UE","","null","<img src=""img/flower4.png"" style=""width:200px;border:14px solid red;"">","null","","","","","","","","",""
"","image-keyboard-response","30","21990","0.0-30.0","33L7PJKHCHKUCPJ5RL572IXYJ4FT8Q","AS0REDD6MMWQG","3P520RYKCHSO30HY2QJC6BDLS9Z5UE","","39.699999928474426","img/flower1.png","74","41.10000002384186","1","1","1","1","1,0.333,0.333,0.333,1,0.333,0.333,0.333,1","1,0.333,0.333,0.333,1,0.333,0.333,0.333,1","1",""
"","html-keyboard-response","31","22292","0.0-31.0","33L7PJKHCHKUCPJ5RL572IXYJ4FT8Q","AS0REDD6MMWQG","3P520RYKCHSO30HY2QJC6BDLS9Z5UE","","null","<img src=""img/flower1.png"" style=""width:200px; border:14px solid green;"">","null","","","","","","","","",""
"","image-keyboard-response","32","22332","0.0-32.0","33L7PJKHCHKUCPJ5RL572IXYJ4FT8Q","AS0REDD6MMWQG","3P520RYKCHSO30HY2QJC6BDLS9Z5UE","","38.300000071525574","img/flower3.png","74","39.39999997615814","1","0","2","1","1,0.333,0.333,0.333,1,0.333,0.333,0.333,1","1,0.333,0.333,0.333,1,0.333,0.333,0.333,1","1",""
"","html-keyboard-response","33","22634","0.0-33.0","33L7PJKHCHKUCPJ5RL572IXYJ4FT8Q","AS0REDD6MMWQG","3P520RYKCHSO30HY2QJC6BDLS9Z5UE","","null","<img src=""img/flower3.png"" style=""width:200px;border:14px solid red;"">","null","","","","","","","","",""
"","image-keyboard-response","34","22653","0.0-34.0","33L7PJKHCHKUCPJ5RL572IXYJ4FT8Q","AS0REDD6MMWQG","3P520RYKCHSO30HY2QJC6BDLS9Z5UE","","18.299999952316284","img/flower4.png","74","19.299999952316284","1","1","3","1","1,0.333,0.333,0.333,1,0.333,0.333,0.333,1","1,0.333,0.333,0.333,1,0.333,0.333,0.333,1","1",""
"","html-keyboard-response","35","22955","0.0-35.0","33L7PJKHCHKUCPJ5RL572IXYJ4FT8Q","AS0REDD6MMWQG","3P520RYKCHSO30HY2QJC6BDLS9Z5UE","","null","<img src=""img/flower4.png"" style=""width:200px; border:14px solid green;"">","null","","","","","","","","",""
"","image-keyboard-response","36","22998","0.0-36.0","33L7PJKHCHKUCPJ5RL572IXYJ4FT8Q","AS0REDD6MMWQG","3P520RYKCHSO30HY2QJC6BDLS9Z5UE","","41.200000047683716","img/flower3.png","74","42.199999928474426","1","0","2","1","1,0.333,0.333,0.333,1,0.333,0.333,0.333,1","1,0.333,0.333,0.333,1,0.333,0.333,0.333,1","1",""
"","html-keyboard-response","37","23300","0.0-37.0","33L7PJKHCHKUCPJ5RL572IXYJ4FT8Q","AS0REDD6MMWQG","3P520RYKCHSO30HY2QJC6BDLS9Z5UE","","null","<img src=""img/flower3.png"" style=""width:200px;border:14px solid red;"">","null","","","","","","","","",""
"","image-keyboard-response","38","23340","0.0-38.0","33L7PJKHCHKUCPJ5RL572IXYJ4FT8Q","AS0REDD6MMWQG","3P520RYKCHSO30HY2QJC6BDLS9Z5UE","","38.5","img/flower4.png","74","39.60000002384186","1","0","3","1","1,0.333,0.333,0.333,1,0.333,0.333,0.333,1","1,0.333,0.333,0.333,1,0.333,0.333,0.333,1","1",""
"","html-keyboard-response","39","23641","0.0-39.0","33L7PJKHCHKUCPJ5RL572IXYJ4FT8Q","AS0REDD6MMWQG","3P520RYKCHSO30HY2QJC6BDLS9Z5UE","","null","<img src=""img/flower4.png"" style=""width:200px;border:14px solid red;"">","null","","","","","","","","",""
"","image-keyboard-response","40","23671","0.0-40.0","33L7PJKHCHKUCPJ5RL572IXYJ4FT8Q","AS0REDD6MMWQG","3P520RYKCHSO30HY2QJC6BDLS9Z5UE","","28.700000047683716","img/flower1.png","74","29.5","1","1","1","1","1,0.333,0.333,0.333,1,0.333,0.333,0.333,1","1,0.333,0.333,0.333,1,0.333,0.333,0.333,1","1",""
"","html-keyboard-response","41","23973","0.0-41.0","33L7PJKHCHKUCPJ5RL572IXYJ4FT8Q","AS0REDD6MMWQG","3P520RYKCHSO30HY2QJC6BDLS9Z5UE","","null","<img src=""img/flower1.png"" style=""width:200px; border:14px solid green;"">","null","","","","","","","","",""
"","image-keyboard-response","42","24014","0.0-42.0","33L7PJKHCHKUCPJ5RL572IXYJ4FT8Q","AS0REDD6MMWQG","3P520RYKCHSO30HY2QJC6BDLS9Z5UE","","40.199999928474426","img/flower3.png","74","41","1","1","2","1","1,0.333,0.333,0.333,1,0.333,0.333,0.333,1","1,0.333,0.333,0.333,1,0.333,0.333,0.333,1","1",""
"","html-keyboard-response","43","24316","0.0-43.0","33L7PJKHCHKUCPJ5RL572IXYJ4FT8Q","AS0REDD6MMWQG","3P520RYKCHSO30HY2QJC6BDLS9Z5UE","","null","<img src=""img/flower3.png"" style=""width:200px; border:14px solid green;"">","null","","","","","","","","",""
"","image-keyboard-response","44","24386","0.0-44.0","33L7PJKHCHKUCPJ5RL572IXYJ4FT8Q","AS0REDD6MMWQG","3P520RYKCHSO30HY2QJC6BDLS9Z5UE","","68.89999997615814","img/flower1.png","74","70.10000002384186","1","1","1","1","1,0.333,0.333,0.333,1,0.333,0.333,0.333,1","1,0.333,0.333,0.333,1,0.333,0.333,0.333,1","1",""
"","html-keyboard-response","45","24689","0.0-45.0","33L7PJKHCHKUCPJ5RL572IXYJ4FT8Q","AS0REDD6MMWQG","3P520RYKCHSO30HY2QJC6BDLS9Z5UE","","null","<img src=""img/flower1.png"" style=""width:200px; border:14px solid green;"">","null","","","","","","","","",""
"","image-keyboard-response","46","24753","0.0-46.0","33L7PJKHCHKUCPJ5RL572IXYJ4FT8Q","AS0REDD6MMWQG","3P520RYKCHSO30HY2QJC6BDLS9Z5UE","","61.10000002384186","img/flower1.png","74","63","1","1","1","1","1,0.333,0.333,0.333,1,0.333,0.333,0.333,1","1,0.333,0.333,0.333,1,0.333,0.333,0.333,1","1",""
"","html-keyboard-response","47","25054","0.0-47.0","33L7PJKHCHKUCPJ5RL572IXYJ4FT8Q","AS0REDD6MMWQG","3P520RYKCHSO30HY2QJC6BDLS9Z5UE","","null","<img src=""img/flower1.png"" style=""width:200px; border:14px solid green;"">","null","","","","","","","","",""
"","image-keyboard-response","48","25113","0.0-48.0","33L7PJKHCHKUCPJ5RL572IXYJ4FT8Q","AS0REDD6MMWQG","3P520RYKCHSO30HY2QJC6BDLS9Z5UE","","58.09999990463257","img/flower1.png","74","59.10000002384186","1","1","1","1","1,0.333,0.333,0.333,1,0.333,0.333,0.333,1","1,0.333,0.333,0.333,1,0.333,0.333,0.333,1","1",""
"","html-keyboard-response","49","25415","0.0-49.0","33L7PJKHCHKUCPJ5RL572IXYJ4FT8Q","AS0REDD6MMWQG","3P520RYKCHSO30HY2QJC6BDLS9Z5UE","","null","<img src=""img/flower1.png"" style=""width:200px; border:14px solid green;"">","null","","","","","","","","",""
"","image-keyboard-response","50","25490","0.0-50.0","33L7PJKHCHKUCPJ5RL572IXYJ4FT8Q","AS0REDD6MMWQG","3P520RYKCHSO30HY2QJC6BDLS9Z5UE","","74.29999995231628","img/flower1.png","74","75.30000007152557","1","1","1","1","1,0.333,0.333,0.333,1,0.333,0.333,0.333,1","1,0.333,0.333,0.333,1,0.333,0.333,0.333,1","1",""
"","html-keyboard-response","51","25793","0.0-51.0","33L7PJKHCHKUCPJ5RL572IXYJ4FT8Q","AS0REDD6MMWQG","3P520RYKCHSO30HY2QJC6BDLS9Z5UE","","null","<img src=""img/flower1.png"" style=""width:200px; border:14px solid green;"">","null","","","","","","","","",""
"","image-keyboard-response","52","25849","0.0-52.0","33L7PJKHCHKUCPJ5RL572IXYJ4FT8Q","AS0REDD6MMWQG","3P520RYKCHSO30HY2QJC6BDLS9Z5UE","","55.39999997615814","img/flower3.png","74","56.5","1","0","2","1","1,0.333,0.333,0.333,1,0.333,0.333,0.333,1","1,0.333,0.333,0.333,1,0.333,0.333,0.333,1","1",""
"","html-keyboard-response","53","26151","0.0-53.0","33L7PJKHCHKUCPJ5RL572IXYJ4FT8Q","AS0REDD6MMWQG","3P520RYKCHSO30HY2QJC6BDLS9Z5UE","","null","<img src=""img/flower3.png"" style=""width:200px;border:14px solid red;"">","null","","","","","","","","",""
"","image-keyboard-response","54","26240","0.0-54.0","33L7PJKHCHKUCPJ5RL572IXYJ4FT8Q","AS0REDD6MMWQG","3P520RYKCHSO30HY2QJC6BDLS9Z5UE","","87.70000004768372","img/flower4.png","74","88.79999995231628","1","1","3","1","1,0.333,0.333,0.333,1,0.333,0.333,0.333,1","1,0.333,0.333,0.333,1,0.333,0.333,0.333,1","1",""
"","html-keyboard-response","55","26541","0.0-55.0","33L7PJKHCHKUCPJ5RL572IXYJ4FT8Q","AS0REDD6MMWQG","3P520RYKCHSO30HY2QJC6BDLS9Z5UE","","null","<img src=""img/flower4.png"" style=""width:200px; border:14px solid green;"">","null","","","","","","","","",""
"","image-keyboard-response","56","26612","0.0-56.0","33L7PJKHCHKUCPJ5RL572IXYJ4FT8Q","AS0REDD6MMWQG","3P520RYKCHSO30HY2QJC6BDLS9Z5UE","","68.20000004768372","img/flower3.png","74","69.5","1","1","2","1","1,0.333,0.333,0.333,1,0.333,0.333,0.333,1","1,0.333,0.333,0.333,1,0.333,0.333,0.333,1","1",""
"","html-keyboard-response","57","26914","0.0-57.0","33L7PJKHCHKUCPJ5RL572IXYJ4FT8Q","AS0REDD6MMWQG","3P520RYKCHSO30HY2QJC6BDLS9Z5UE","","null","<img src=""img/flower3.png"" style=""width:200px; border:14px solid green;"">","null","","","","","","","","",""
"","image-keyboard-response","58","26924","0.0-58.0","33L7PJKHCHKUCPJ5RL572IXYJ4FT8Q","AS0REDD6MMWQG","3P520RYKCHSO30HY2QJC6BDLS9Z5UE","","9.600000023841858","img/flower4.png","75","10.399999976158142","2","0","3","1","1,0.333,0.333,0.333,1,0.333,0.333,0.333,1","1,0.333,0.333,0.333,1,0.333,0.333,0.333,1","1",""
"","html-keyboard-response","59","27227","0.0-59.0","33L7PJKHCHKUCPJ5RL572IXYJ4FT8Q","AS0REDD6MMWQG","3P520RYKCHSO30HY2QJC6BDLS9Z5UE","","null","<img src=""img/flower4.png"" style=""width:200px;border:14px solid red;"">","null","","","","","","","","",""
"","image-keyboard-response","60","27288","0.0-60.0","33L7PJKHCHKUCPJ5RL572IXYJ4FT8Q","AS0REDD6MMWQG","3P520RYKCHSO30HY2QJC6BDLS9Z5UE","","60.200000047683716","img/flower1.png","76","61.199999928474426","3","1","1","1","1,0.333,0.333,0.333,1,0.333,0.333,0.333,1","1,0.333,0.333,0.333,1,0.333,0.333,0.333,1","1",""
"","html-keyboard-response","61","27590","0.0-61.0","33L7PJKHCHKUCPJ5RL572IXYJ4FT8Q","AS0REDD6MMWQG","3P520RYKCHSO30HY2QJC6BDLS9Z5UE","","null","<img src=""img/flower1.png"" style=""width:200px; border:14px solid green;"">","null","","","","","","","","",""
"","image-keyboard-response","62","27670","0.0-62.0","33L7PJKHCHKUCPJ5RL572IXYJ4FT8Q","AS0REDD6MMWQG","3P520RYKCHSO30HY2QJC6BDLS9Z5UE","","78.79999995231628","img/flower1.png","76","79.69999992847443","3","0","1","1","1,0.333,0.333,0.333,1,0.333,0.333,0.333,1","1,0.333,0.333,0.333,1,0.333,0.333,0.333,1","1",""
"","html-keyboard-response","63","27973","0.0-63.0","33L7PJKHCHKUCPJ5RL572IXYJ4FT8Q","AS0REDD6MMWQG","3P520RYKCHSO30HY2QJC6BDLS9Z5UE","","null","<img src=""img/flower1.png"" style=""width:200px;border:14px solid red;"">","null","","","","","","","","",""
"","image-keyboard-response","64","28024","0.0-64.0","33L7PJKHCHKUCPJ5RL572IXYJ4FT8Q","AS0REDD6MMWQG","3P520RYKCHSO30HY2QJC6BDLS9Z5UE","","49.5","img/flower4.png","76","50.60000002384186","3","1","3","1","1,0.333,0.333,0.333,1,0.333,0.333,0.333,1","1,0.333,0.333,0.333,1,0.333,0.333,0.333,1","1",""
"","html-keyboard-response","65","28332","0.0-65.0","33L7PJKHCHKUCPJ5RL572IXYJ4FT8Q","AS0REDD6MMWQG","3P520RYKCHSO30HY2QJC6BDLS9Z5UE","","null","<img src=""img/flower4.png"" style=""width:200px; border:14px solid green;"">","null","","","","","","","","",""
"","image-keyboard-response","66","28344","0.0-66.0","33L7PJKHCHKUCPJ5RL572IXYJ4FT8Q","AS0REDD6MMWQG","3P520RYKCHSO30HY2QJC6BDLS9Z5UE","","10.5","img/flower1.png","74","11.399999976158142","1","1","1","1","1,0.333,0.333,0.333,1,0.333,0.333,0.333,1","1,0.333,0.333,0.333,1,0.333,0.333,0.333,1","1",""
"","html-keyboard-response","67","28645","0.0-67.0","33L7PJKHCHKUCPJ5RL572IXYJ4FT8Q","AS0REDD6MMWQG","3P520RYKCHSO30HY2QJC6BDLS9Z5UE","","null","<img src=""img/flower1.png"" style=""width:200px; border:14px solid green;"">","null","","","","","","","","",""
"","image-keyboard-response","68","28700","0.0-68.0","33L7PJKHCHKUCPJ5RL572IXYJ4FT8Q","AS0REDD6MMWQG","3P520RYKCHSO30HY2QJC6BDLS9Z5UE","","54.10000002384186","img/flower4.png","74","55.10000002384186","1","1","3","1","1,0.333,0.333,0.333,1,0.333,0.333,0.333,1","1,0.333,0.333,0.333,1,0.333,0.333,0.333,1","1",""
"","html-keyboard-response","69","29002","0.0-69.0","33L7PJKHCHKUCPJ5RL572IXYJ4FT8Q","AS0REDD6MMWQG","3P520RYKCHSO30HY2QJC6BDLS9Z5UE","","null","<img src=""img/flower4.png"" style=""width:200px; border:14px solid green;"">","null","","","","","","","","",""
"","image-keyboard-response","70","29012","0.0-70.0","33L7PJKHCHKUCPJ5RL572IXYJ4FT8Q","AS0REDD6MMWQG","3P520RYKCHSO30HY2QJC6BDLS9Z5UE","","9","img/flower3.png","75","10","2","1","2","1","1,0.333,0.333,0.333,1,0.333,0.333,0.333,1","1,0.333,0.333,0.333,1,0.333,0.333,0.333,1","1",""
"","html-keyboard-response","71","29315","0.0-71.0","33L7PJKHCHKUCPJ5RL572IXYJ4FT8Q","AS0REDD6MMWQG","3P520RYKCHSO30HY2QJC6BDLS9Z5UE","","null","<img src=""img/flower3.png"" style=""width:200px; border:14px solid green;"">","null","","","","","","","","",""
"","image-keyboard-response","72","29385","0.0-72.0","33L7PJKHCHKUCPJ5RL572IXYJ4FT8Q","AS0REDD6MMWQG","3P520RYKCHSO30HY2QJC6BDLS9Z5UE","","69.19999992847443","img/flower4.png","76","70.29999995231628","3","1","3","1","1,0.333,0.333,0.333,1,0.333,0.333,0.333,1","1,0.333,0.333,0.333,1,0.333,0.333,0.333,1","1",""
"","html-keyboard-response","73","29687","0.0-73.0","33L7PJKHCHKUCPJ5RL572IXYJ4FT8Q","AS0REDD6MMWQG","3P520RYKCHSO30HY2QJC6BDLS9Z5UE","","null","<img src=""img/flower4.png"" style=""width:200px; border:14px solid green;"">","null","","","","","","","","",""
"","image-keyboard-response","74","29734","0.0-74.0","33L7PJKHCHKUCPJ5RL572IXYJ4FT8Q","AS0REDD6MMWQG","3P520RYKCHSO30HY2QJC6BDLS9Z5UE","","45.5","img/flower1.png","76","46.5","3","0","1","1","1,0.333,0.333,0.333,1,0.333,0.333,0.333,1","1,0.333,0.333,0.333,1,0.333,0.333,0.333,1","1",""
"","html-keyboard-response","75","30036","0.0-75.0","33L7PJKHCHKUCPJ5RL572IXYJ4FT8Q","AS0REDD6MMWQG","3P520RYKCHSO30HY2QJC6BDLS9Z5UE","","null","<img src=""img/flower1.png"" style=""width:200px;border:14px solid red;"">","null","","","","","","","","",""
"","image-keyboard-response","76","30110","0.0-76.0","33L7PJKHCHKUCPJ5RL572IXYJ4FT8Q","AS0REDD6MMWQG","3P520RYKCHSO30HY2QJC6BDLS9Z5UE","","73.5","img/flower3.png","75","74.40000009536743","2","1","2","1","1,0.333,0.333,0.333,1,0.333,0.333,0.333,1","1,0.333,0.333,0.333,1,0.333,0.333,0.333,1","1",""
"","html-keyboard-response","77","30412","0.0-77.0","33L7PJKHCHKUCPJ5RL572IXYJ4FT8Q","AS0REDD6MMWQG","3P520RYKCHSO30HY2QJC6BDLS9Z5UE","","null","<img src=""img/flower3.png"" style=""width:200px; border:14px solid green;"">","null","","","","","","","","",""
"","image-keyboard-response","78","30506","0.0-78.0","33L7PJKHCHKUCPJ5RL572IXYJ4FT8Q","AS0REDD6MMWQG","3P520RYKCHSO30HY2QJC6BDLS9Z5UE","","92.79999995231628","img/flower3.png","76","93.5","3","1","2","1","1,0.333,0.333,0.333,1,0.333,0.333,0.333,1","1,0.333,0.333,0.333,1,0.333,0.333,0.333,1","1",""
"","html-keyboard-response","79","30807","0.0-79.0","33L7PJKHCHKUCPJ5RL572IXYJ4FT8Q","AS0REDD6MMWQG","3P520RYKCHSO30HY2QJC6BDLS9Z5UE","","null","<img src=""img/flower3.png"" style=""width:200px; border:14px solid green;"">","null","","","","","","","","",""
"","image-keyboard-response","80","30859","0.0-80.0","33L7PJKHCHKUCPJ5RL572IXYJ4FT8Q","AS0REDD6MMWQG","3P520RYKCHSO30HY2QJC6BDLS9Z5UE","","51.10000002384186","img/flower1.png","75","52","2","0","1","1","1,0.333,0.333,0.333,1,0.333,0.333,0.333,1","1,0.333,0.333,0.333,1,0.333,0.333,0.333,1","1",""
"","html-keyboard-response","81","31162","0.0-81.0","33L7PJKHCHKUCPJ5RL572IXYJ4FT8Q","AS0REDD6MMWQG","3P520RYKCHSO30HY2QJC6BDLS9Z5UE","","null","<img src=""img/flower1.png"" style=""width:200px;border:14px solid red;"">","null","","","","","","","","",""
"","image-keyboard-response","82","31175","0.0-82.0","33L7PJKHCHKUCPJ5RL572IXYJ4FT8Q","AS0REDD6MMWQG","3P520RYKCHSO30HY2QJC6BDLS9Z5UE","","12.5","img/flower3.png","74","13.399999976158142","1","1","2","1","1,0.333,0.333,0.333,1,0.333,0.333,0.333,1","1,0.333,0.333,0.333,1,0.333,0.333,0.333,1","1",""
"","html-keyboard-response","83","31477","0.0-83.0","33L7PJKHCHKUCPJ5RL572IXYJ4FT8Q","AS0REDD6MMWQG","3P520RYKCHSO30HY2QJC6BDLS9Z5UE","","null","<img src=""img/flower3.png"" style=""width:200px; border:14px solid green;"">","null","","","","","","","","",""
"","image-keyboard-response","84","31500","0.0-84.0","33L7PJKHCHKUCPJ5RL572IXYJ4FT8Q","AS0REDD6MMWQG","3P520RYKCHSO30HY2QJC6BDLS9Z5UE","","21.699999928474426","img/flower3.png","76","22.5","3","1","2","1","1,0.333,0.333,0.333,1,0.333,0.333,0.333,1","1,0.333,0.333,0.333,1,0.333,0.333,0.333,1","1",""
"","html-keyboard-response","85","31802","0.0-85.0","33L7PJKHCHKUCPJ5RL572IXYJ4FT8Q","AS0REDD6MMWQG","3P520RYKCHSO30HY2QJC6BDLS9Z5UE","","null","<img src=""img/flower3.png"" style=""width:200px; border:14px solid green;"">","null","","","","","","","","",""
"","image-keyboard-response","86","31870","0.0-86.0","33L7PJKHCHKUCPJ5RL572IXYJ4FT8Q","AS0REDD6MMWQG","3P520RYKCHSO30HY2QJC6BDLS9Z5UE","","67.60000002384186","img/flower3.png","76","68.30000007152557","3","0","2","1","1,0.333,0.333,0.333,1,0.333,0.333,0.333,1","1,0.333,0.333,0.333,1,0.333,0.333,0.333,1","1",""
"","html-keyboard-response","87","32173","0.0-87.0","33L7PJKHCHKUCPJ5RL572IXYJ4FT8Q","AS0REDD6MMWQG","3P520RYKCHSO30HY2QJC6BDLS9Z5UE","","null","<img src=""img/flower3.png"" style=""width:200px;border:14px solid red;"">","null","","","","","","","","",""
"","image-keyboard-response","88","32219","0.0-88.0","33L7PJKHCHKUCPJ5RL572IXYJ4FT8Q","AS0REDD6MMWQG","3P520RYKCHSO30HY2QJC6BDLS9Z5UE","","44.59999990463257","img/flower3.png","74","45.60000002384186","1","0","2","1","1,0.333,0.333,0.333,1,0.333,0.333,0.333,1","1,0.333,0.333,0.333,1,0.333,0.333,0.333,1","1",""
"","html-keyboard-response","89","32520","0.0-89.0","33L7PJKHCHKUCPJ5RL572IXYJ4FT8Q","AS0REDD6MMWQG","3P520RYKCHSO30HY2QJC6BDLS9Z5UE","","null","<img src=""img/flower3.png"" style=""width:200px;border:14px solid red;"">","null","","","","","","","","",""
"","image-keyboard-response","90","32574","0.0-90.0","33L7PJKHCHKUCPJ5RL572IXYJ4FT8Q","AS0REDD6MMWQG","3P520RYKCHSO30HY2QJC6BDLS9Z5UE","","52.299999952316284","img/flower4.png","74","53.199999928474426","1","0","3","1","1,0.333,0.333,0.333,1,0.333,0.333,0.333,1","1,0.333,0.333,0.333,1,0.333,0.333,0.333,1","1",""
"","html-keyboard-response","91","32876","0.0-91.0","33L7PJKHCHKUCPJ5RL572IXYJ4FT8Q","AS0REDD6MMWQG","3P520RYKCHSO30HY2QJC6BDLS9Z5UE","","null","<img src=""img/flower4.png"" style=""width:200px;border:14px solid red;"">","null","","","","","","","","",""
"","image-keyboard-response","92","32952","0.0-92.0","33L7PJKHCHKUCPJ5RL572IXYJ4FT8Q","AS0REDD6MMWQG","3P520RYKCHSO30HY2QJC6BDLS9Z5UE","","75.10000002384186","img/flower3.png","76","76.10000002384186","3","1","2","1","1,0.333,0.333,0.333,1,0.333,0.333,0.333,1","1,0.333,0.333,0.333,1,0.333,0.333,0.333,1","1",""
"","html-keyboard-response","93","33255","0.0-93.0","33L7PJKHCHKUCPJ5RL572IXYJ4FT8Q","AS0REDD6MMWQG","3P520RYKCHSO30HY2QJC6BDLS9Z5UE","","null","<img src=""img/flower3.png"" style=""width:200px; border:14px solid green;"">","null","","","","","","","","",""
"","image-keyboard-response","94","33262","0.0-94.0","33L7PJKHCHKUCPJ5RL572IXYJ4FT8Q","AS0REDD6MMWQG","3P520RYKCHSO30HY2QJC6BDLS9Z5UE","","6.399999976158142","img/flower4.png","74","7.100000023841858","1","0","3","1","1,0.333,0.333,0.333,1,0.333,0.333,0.333,1","1,0.333,0.333,0.333,1,0.333,0.333,0.333,1","1",""
"","html-keyboard-response","95","33564","0.0-95.0","33L7PJKHCHKUCPJ5RL572IXYJ4FT8Q","AS0REDD6MMWQG","3P520RYKCHSO30HY2QJC6BDLS9Z5UE","","null","<img src=""img/flower4.png"" style=""width:200px;border:14px solid red;"">","null","","","","","","","","",""
"","image-keyboard-response","96","33575","0.0-96.0","33L7PJKHCHKUCPJ5RL572IXYJ4FT8Q","AS0REDD6MMWQG","3P520RYKCHSO30HY2QJC6BDLS9Z5UE","","10","img/flower4.png","76","11","3","1","3","1","1,0.333,0.333,0.333,1,0.333,0.333,0.333,1","1,0.333,0.333,0.333,1,0.333,0.333,0.333,1","1",""
"","html-keyboard-response","97","33877","0.0-97.0","33L7PJKHCHKUCPJ5RL572IXYJ4FT8Q","AS0REDD6MMWQG","3P520RYKCHSO30HY2QJC6BDLS9Z5UE","","null","<img src=""img/flower4.png"" style=""width:200px; border:14px solid green;"">","null","","","","","","","","",""
"","image-keyboard-response","98","33950","0.0-98.0","33L7PJKHCHKUCPJ5RL572IXYJ4FT8Q","AS0REDD6MMWQG","3P520RYKCHSO30HY2QJC6BDLS9Z5UE","","71.39999997615814","img/flower1.png","76","72.39999997615814","3","0","1","1","1,0.333,0.333,0.333,1,0.333,0.333,0.333,1","1,0.333,0.333,0.333,1,0.333,0.333,0.333,1","1",""
"","html-keyboard-response","99","34252","0.0-99.0","33L7PJKHCHKUCPJ5RL572IXYJ4FT8Q","AS0REDD6MMWQG","3P520RYKCHSO30HY2QJC6BDLS9Z5UE","","null","<img src=""img/flower1.png"" style=""width:200px;border:14px solid red;"">","null","","","","","","","","",""
"","image-keyboard-response","100","34259","0.0-100.0","33L7PJKHCHKUCPJ5RL572IXYJ4FT8Q","AS0REDD6MMWQG","3P520RYKCHSO30HY2QJC6BDLS9Z5UE","","6.299999952316284","img/flower4.png","74","7","1","1","3","1","1,0.333,0.333,0.333,1,0.333,0.333,0.333,1","1,0.333,0.333,0.333,1,0.333,0.333,0.333,1","1",""
"","html-keyboard-response","101","34562","0.0-101.0","33L7PJKHCHKUCPJ5RL572IXYJ4FT8Q","AS0REDD6MMWQG","3P520RYKCHSO30HY2QJC6BDLS9Z5UE","","null","<img src=""img/flower4.png"" style=""width:200px; border:14px solid green;"">","null","","","","","","","","",""
"","image-keyboard-response","102","34649","0.0-102.0","33L7PJKHCHKUCPJ5RL572IXYJ4FT8Q","AS0REDD6MMWQG","3P520RYKCHSO30HY2QJC6BDLS9Z5UE","","85.79999995231628","img/flower4.png","74","86.89999997615814","1","0","3","1","1,0.333,0.333,0.333,1,0.333,0.333,0.333,1","1,0.333,0.333,0.333,1,0.333,0.333,0.333,1","1",""
"","html-keyboard-response","103","34953","0.0-103.0","33L7PJKHCHKUCPJ5RL572IXYJ4FT8Q","AS0REDD6MMWQG","3P520RYKCHSO30HY2QJC6BDLS9Z5UE","","null","<img src=""img/flower4.png"" style=""width:200px;border:14px solid red;"">","null","","","","","","","","",""
"","image-keyboard-response","104","34962","0.0-104.0","33L7PJKHCHKUCPJ5RL572IXYJ4FT8Q","AS0REDD6MMWQG","3P520RYKCHSO30HY2QJC6BDLS9Z5UE","","7.700000047683716","img/flower1.png","76","8.5","3","0","1","1","1,0.333,0.333,0.333,1,0.333,0.333,0.333,1","1,0.333,0.333,0.333,1,0.333,0.333,0.333,1","1",""
"","html-keyboard-response","105","35264","0.0-105.0","33L7PJKHCHKUCPJ5RL572IXYJ4FT8Q","AS0REDD6MMWQG","3P520RYKCHSO30HY2QJC6BDLS9Z5UE","","null","<img src=""img/flower1.png"" style=""width:200px;border:14px solid red;"">","null","","","","","","","","",""
"","image-keyboard-response","106","35292","0.0-106.0","33L7PJKHCHKUCPJ5RL572IXYJ4FT8Q","AS0REDD6MMWQG","3P520RYKCHSO30HY2QJC6BDLS9Z5UE","","27.399999976158142","img/flower3.png","74","28.5","1","1","2","1","1,0.333,0.333,0.333,1,0.333,0.333,0.333,1","1,0.333,0.333,0.333,1,0.333,0.333,0.333,1","1",""
"","html-keyboard-response","107","35595","0.0-107.0","33L7PJKHCHKUCPJ5RL572IXYJ4FT8Q","AS0REDD6MMWQG","3P520RYKCHSO30HY2QJC6BDLS9Z5UE","","null","<img src=""img/flower3.png"" style=""width:200px; border:14px solid green;"">","null","","","","","","","","",""
"","image-keyboard-response","108","35643","0.0-108.0","33L7PJKHCHKUCPJ5RL572IXYJ4FT8Q","AS0REDD6MMWQG","3P520RYKCHSO30HY2QJC6BDLS9Z5UE","","46.800000071525574","img/flower1.png","76","47.699999928474426","3","0","1","1","1,0.333,0.333,0.333,1,0.333,0.333,0.333,1","1,0.333,0.333,0.333,1,0.333,0.333,0.333,1","1",""
"","html-keyboard-response","109","35944","0.0-109.0","33L7PJKHCHKUCPJ5RL572IXYJ4FT8Q","AS0REDD6MMWQG","3P520RYKCHSO30HY2QJC6BDLS9Z5UE","","null","<img src=""img/flower1.png"" style=""width:200px;border:14px solid red;"">","null","","","","","","","","",""
"","image-keyboard-response","110","35992","0.0-110.0","33L7PJKHCHKUCPJ5RL572IXYJ4FT8Q","AS0REDD6MMWQG","3P520RYKCHSO30HY2QJC6BDLS9Z5UE","","47.200000047683716","img/flower1.png","74","48.10000002384186","1","1","1","1","1,0.333,0.333,0.333,1,0.333,0.333,0.333,1","1,0.333,0.333,0.333,1,0.333,0.333,0.333,1","1",""
"","html-keyboard-response","111","36294","0.0-111.0","33L7PJKHCHKUCPJ5RL572IXYJ4FT8Q","AS0REDD6MMWQG","3P520RYKCHSO30HY2QJC6BDLS9Z5UE","","null","<img src=""img/flower1.png"" style=""width:200px; border:14px solid green;"">","null","","","","","","","","",""
"","image-keyboard-response","112","36333","0.0-112.0","33L7PJKHCHKUCPJ5RL572IXYJ4FT8Q","AS0REDD6MMWQG","3P520RYKCHSO30HY2QJC6BDLS9Z5UE","","38.299999952316284","img/flower4.png","76","39.300000071525574","3","1","3","1","1,0.333,0.333,0.333,1,0.333,0.333,0.333,1","1,0.333,0.333,0.333,1,0.333,0.333,0.333,1","1",""
"","html-keyboard-response","113","36637","0.0-113.0","33L7PJKHCHKUCPJ5RL572IXYJ4FT8Q","AS0REDD6MMWQG","3P520RYKCHSO30HY2QJC6BDLS9Z5UE","","null","<img src=""img/flower4.png"" style=""width:200px; border:14px solid green;"">","null","","","","","","","","",""
"","image-keyboard-response","114","36696","0.0-114.0","33L7PJKHCHKUCPJ5RL572IXYJ4FT8Q","AS0REDD6MMWQG","3P520RYKCHSO30HY2QJC6BDLS9Z5UE","","57.800000071525574","img/flower3.png","74","59.09999990463257","1","0","2","1","1,0.333,0.333,0.333,1,0.333,0.333,0.333,1","1,0.333,0.333,0.333,1,0.333,0.333,0.333,1","1",""
"","html-keyboard-response","115","36998","0.0-115.0","33L7PJKHCHKUCPJ5RL572IXYJ4FT8Q","AS0REDD6MMWQG","3P520RYKCHSO30HY2QJC6BDLS9Z5UE","","null","<img src=""img/flower3.png"" style=""width:200px;border:14px solid red;"">","null","","","","","","","","",""
"","image-keyboard-response","116","37031","0.0-116.0","33L7PJKHCHKUCPJ5RL572IXYJ4FT8Q","AS0REDD6MMWQG","3P520RYKCHSO30HY2QJC6BDLS9Z5UE","","31.399999976158142","img/flower4.png","76","32.299999952316284","3","1","3","1","1,0.333,0.333,0.333,1,0.333,0.333,0.333,1","1,0.333,0.333,0.333,1,0.333,0.333,0.333,1","1",""
"","html-keyboard-response","117","37333","0.0-117.0","33L7PJKHCHKUCPJ5RL572IXYJ4FT8Q","AS0REDD6MMWQG","3P520RYKCHSO30HY2QJC6BDLS9Z5UE","","null","<img src=""img/flower4.png"" style=""width:200px; border:14px solid green;"">","null","","","","","","","","",""
"","image-keyboard-response","118","37344","0.0-118.0","33L7PJKHCHKUCPJ5RL572IXYJ4FT8Q","AS0REDD6MMWQG","3P520RYKCHSO30HY2QJC6BDLS9Z5UE","","10.399999976158142","img/flower4.png","74","11.299999952316284","1","0","3","1","1,0.333,0.333,0.333,1,0.333,0.333,0.333,1","1,0.333,0.333,0.333,1,0.333,0.333,0.333,1","1",""
"","html-keyboard-response","119","37646","0.0-119.0","33L7PJKHCHKUCPJ5RL572IXYJ4FT8Q","AS0REDD6MMWQG","3P520RYKCHSO30HY2QJC6BDLS9Z5UE","","null","<img src=""img/flower4.png"" style=""width:200px;border:14px solid red;"">","null","","","","","","","","",""
"","image-keyboard-response","120","37652","0.0-120.0","33L7PJKHCHKUCPJ5RL572IXYJ4FT8Q","AS0REDD6MMWQG","3P520RYKCHSO30HY2QJC6BDLS9Z5UE","","5.100000023841858","img/flower1.png","75","6","2","1","1","1","1,0.333,0.333,0.333,1,0.333,0.333,0.333,1","1,0.333,0.333,0.333,1,0.333,0.333,0.333,1","1",""
"","html-keyboard-response","121","37954","0.0-121.0","33L7PJKHCHKUCPJ5RL572IXYJ4FT8Q","AS0REDD6MMWQG","3P520RYKCHSO30HY2QJC6BDLS9Z5UE","","null","<img src=""img/flower1.png"" style=""width:200px; border:14px solid green;"">","null","","","","","","","","",""
"","image-keyboard-response","122","37970","0.0-122.0","33L7PJKHCHKUCPJ5RL572IXYJ4FT8Q","AS0REDD6MMWQG","3P520RYKCHSO30HY2QJC6BDLS9Z5UE","","14.799999952316284","img/flower3.png","74","15.700000047683716","1","1","2","1","1,0.333,0.333,0.333,1,0.333,0.333,0.333,1","1,0.333,0.333,0.333,1,0.333,0.333,0.333,1","1",""
"","html-keyboard-response","123","38273","0.0-123.0","33L7PJKHCHKUCPJ5RL572IXYJ4FT8Q","AS0REDD6MMWQG","3P520RYKCHSO30HY2QJC6BDLS9Z5UE","","null","<img src=""img/flower3.png"" style=""width:200px; border:14px solid green;"">","null","","","","","","","","",""
"","image-keyboard-response","124","38347","0.0-124.0","33L7PJKHCHKUCPJ5RL572IXYJ4FT8Q","AS0REDD6MMWQG","3P520RYKCHSO30HY2QJC6BDLS9Z5UE","","73.40000009536743","img/flower3.png","76","74.29999995231628","3","1","2","1","1,0.333,0.333,0.333,1,0.333,0.333,0.333,1","1,0.333,0.333,0.333,1,0.333,0.333,0.333,1","1",""
"","html-keyboard-response","125","38650","0.0-125.0","33L7PJKHCHKUCPJ5RL572IXYJ4FT8Q","AS0REDD6MMWQG","3P520RYKCHSO30HY2QJC6BDLS9Z5UE","","null","<img src=""img/flower3.png"" style=""width:200px; border:14px solid green;"">","null","","","","","","","","",""
"","image-keyboard-response","126","38674","0.0-126.0","33L7PJKHCHKUCPJ5RL572IXYJ4FT8Q","AS0REDD6MMWQG","3P520RYKCHSO30HY2QJC6BDLS9Z5UE","","22.700000047683716","img/flower3.png","74","23.5","1","1","2","1","1,0.333,0.333,0.333,1,0.333,0.333,0.333,1","1,0.333,0.333,0.333,1,0.333,0.333,0.333,1","1",""
"","html-keyboard-response","127","38976","0.0-127.0","33L7PJKHCHKUCPJ5RL572IXYJ4FT8Q","AS0REDD6MMWQG","3P520RYKCHSO30HY2QJC6BDLS9Z5UE","","null","<img src=""img/flower3.png"" style=""width:200px; border:14px solid green;"">","null","","","","","","","","",""
"","image-keyboard-response","128","39002","0.0-128.0","33L7PJKHCHKUCPJ5RL572IXYJ4FT8Q","AS0REDD6MMWQG","3P520RYKCHSO30HY2QJC6BDLS9Z5UE","","24.5","img/flower4.png","76","25.600000023841858","3","1","3","1","1,0.333,0.333,0.333,1,0.333,0.333,0.333,1","1,0.333,0.333,0.333,1,0.333,0.333,0.333,1","1",""
"","html-keyboard-response","129","39308","0.0-129.0","33L7PJKHCHKUCPJ5RL572IXYJ4FT8Q","AS0REDD6MMWQG","3P520RYKCHSO30HY2QJC6BDLS9Z5UE","","null","<img src=""img/flower4.png"" style=""width:200px; border:14px solid green;"">","null","","","","","","","","",""
"","image-keyboard-response","130","39349","0.0-130.0","33L7PJKHCHKUCPJ5RL572IXYJ4FT8Q","AS0REDD6MMWQG","3P520RYKCHSO30HY2QJC6BDLS9Z5UE","","39.299999952316284","img/flower1.png","74","40.09999990463257","1","1","1","1","1,0.333,0.333,0.333,1,0.333,0.333,0.333,1","1,0.333,0.333,0.333,1,0.333,0.333,0.333,1","1",""
"","html-keyboard-response","131","39653","0.0-131.0","33L7PJKHCHKUCPJ5RL572IXYJ4FT8Q","AS0REDD6MMWQG","3P520RYKCHSO30HY2QJC6BDLS9Z5UE","","null","<img src=""img/flower1.png"" style=""width:200px; border:14px solid green;"">","null","","","","","","","","",""
"","image-keyboard-response","132","39664","0.0-132.0","33L7PJKHCHKUCPJ5RL572IXYJ4FT8Q","AS0REDD6MMWQG","3P520RYKCHSO30HY2QJC6BDLS9Z5UE","","9.299999952316284","img/flower4.png","76","10.199999928474426","3","1","3","1","1,0.333,0.333,0.333,1,0.333,0.333,0.333,1","1,0.333,0.333,0.333,1,0.333,0.333,0.333,1","1",""
"","html-keyboard-response","133","39968","0.0-133.0","33L7PJKHCHKUCPJ5RL572IXYJ4FT8Q","AS0REDD6MMWQG","3P520RYKCHSO30HY2QJC6BDLS9Z5UE","","null","<img src=""img/flower4.png"" style=""width:200px; border:14px solid green;"">","null","","","","","","","","",""
"","image-keyboard-response","134","40077","0.0-134.0","33L7PJKHCHKUCPJ5RL572IXYJ4FT8Q","AS0REDD6MMWQG","3P520RYKCHSO30HY2QJC6BDLS9Z5UE","","108.20000004768372","img/flower4.png","76","109.20000004768372","3","1","3","1","1,0.333,0.333,0.333,1,0.333,0.333,0.333,1","1,0.333,0.333,0.333,1,0.333,0.333,0.333,1","1",""
"","html-keyboard-response","135","40381","0.0-135.0","33L7PJKHCHKUCPJ5RL572IXYJ4FT8Q","AS0REDD6MMWQG","3P520RYKCHSO30HY2QJC6BDLS9Z5UE","","null","<img src=""img/flower4.png"" style=""width:200px; border:14px solid green;"">","null","","","","","","","","",""
"","image-keyboard-response","136","40443","0.0-136.0","33L7PJKHCHKUCPJ5RL572IXYJ4FT8Q","AS0REDD6MMWQG","3P520RYKCHSO30HY2QJC6BDLS9Z5UE","","60.200000047683716","img/flower1.png","74","61.199999928474426","1","1","1","1","1,0.333,0.333,0.333,1,0.333,0.333,0.333,1","1,0.333,0.333,0.333,1,0.333,0.333,0.333,1","1",""
"","html-keyboard-response","137","40744","0.0-137.0","33L7PJKHCHKUCPJ5RL572IXYJ4FT8Q","AS0REDD6MMWQG","3P520RYKCHSO30HY2QJC6BDLS9Z5UE","","null","<img src=""img/flower1.png"" style=""width:200px; border:14px solid green;"">","null","","","","","","","","",""
"","image-keyboard-response","138","40763","0.0-138.0","33L7PJKHCHKUCPJ5RL572IXYJ4FT8Q","AS0REDD6MMWQG","3P520RYKCHSO30HY2QJC6BDLS9Z5UE","","17.300000071525574","img/flower1.png","76","18.100000023841858","3","1","1","1","1,0.333,0.333,0.333,1,0.333,0.333,0.333,1","1,0.333,0.333,0.333,1,0.333,0.333,0.333,1","1",""
"","html-keyboard-response","139","41064","0.0-139.0","33L7PJKHCHKUCPJ5RL572IXYJ4FT8Q","AS0REDD6MMWQG","3P520RYKCHSO30HY2QJC6BDLS9Z5UE","","null","<img src=""img/flower1.png"" style=""width:200px; border:14px solid green;"">","null","","","","","","","","",""
"","image-keyboard-response","140","41090","0.0-140.0","33L7PJKHCHKUCPJ5RL572IXYJ4FT8Q","AS0REDD6MMWQG","3P520RYKCHSO30HY2QJC6BDLS9Z5UE","","24.59999990463257","img/flower4.png","74","25.600000023841858","1","0","3","1","1,0.333,0.333,0.333,1,0.333,0.333,0.333,1","1,0.333,0.333,0.333,1,0.333,0.333,0.333,1","1",""
"","html-keyboard-response","141","41392","0.0-141.0","33L7PJKHCHKUCPJ5RL572IXYJ4FT8Q","AS0REDD6MMWQG","3P520RYKCHSO30HY2QJC6BDLS9Z5UE","","null","<img src=""img/flower4.png"" style=""width:200px;border:14px solid red;"">","null","","","","","","","","",""
"","image-keyboard-response","142","41407","0.0-142.0","33L7PJKHCHKUCPJ5RL572IXYJ4FT8Q","AS0REDD6MMWQG","3P520RYKCHSO30HY2QJC6BDLS9Z5UE","","13.899999976158142","img/flower3.png","75","14.600000023841858","2","1","2","1","1,0.333,0.333,0.333,1,0.333,0.333,0.333,1","1,0.333,0.333,0.333,1,0.333,0.333,0.333,1","1",""
"","html-keyboard-response","143","41709","0.0-143.0","33L7PJKHCHKUCPJ5RL572IXYJ4FT8Q","AS0REDD6MMWQG","3P520RYKCHSO30HY2QJC6BDLS9Z5UE","","null","<img src=""img/flower3.png"" style=""width:200px; border:14px solid green;"">","null","","","","","","","","",""
"","image-keyboard-response","144","41804","0.0-144.0","33L7PJKHCHKUCPJ5RL572IXYJ4FT8Q","AS0REDD6MMWQG","3P520RYKCHSO30HY2QJC6BDLS9Z5UE","","94.59999990463257","img/flower3.png","76","95.60000002384186","3","0","2","1","1,0.333,0.333,0.333,1,0.333,0.333,0.333,1","1,0.333,0.333,0.333,1,0.333,0.333,0.333,1","1",""
"","html-keyboard-response","145","42108","0.0-145.0","33L7PJKHCHKUCPJ5RL572IXYJ4FT8Q","AS0REDD6MMWQG","3P520RYKCHSO30HY2QJC6BDLS9Z5UE","","null","<img src=""img/flower3.png"" style=""width:200px;border:14px solid red;"">","null","","","","","","","","",""
"","image-keyboard-response","146","42145","0.0-146.0","33L7PJKHCHKUCPJ5RL572IXYJ4FT8Q","AS0REDD6MMWQG","3P520RYKCHSO30HY2QJC6BDLS9Z5UE","","36.60000002384186","img/flower4.png","74","37.700000047683716","1","1","3","1","1,0.333,0.333,0.333,1,0.333,0.333,0.333,1","1,0.333,0.333,0.333,1,0.333,0.333,0.333,1","1",""
"","html-keyboard-response","147","42448","0.0-147.0","33L7PJKHCHKUCPJ5RL572IXYJ4FT8Q","AS0REDD6MMWQG","3P520RYKCHSO30HY2QJC6BDLS9Z5UE","","null","<img src=""img/flower4.png"" style=""width:200px; border:14px solid green;"">","null","","","","","","","","",""
"","image-keyboard-response","148","42457","0.0-148.0","33L7PJKHCHKUCPJ5RL572IXYJ4FT8Q","AS0REDD6MMWQG","3P520RYKCHSO30HY2QJC6BDLS9Z5UE","","7.199999928474426","img/flower3.png","76","8.299999952316284","3","1","2","1","1,0.333,0.333,0.333,1,0.333,0.333,0.333,1","1,0.333,0.333,0.333,1,0.333,0.333,0.333,1","1",""
"","html-keyboard-response","149","42759","0.0-149.0","33L7PJKHCHKUCPJ5RL572IXYJ4FT8Q","AS0REDD6MMWQG","3P520RYKCHSO30HY2QJC6BDLS9Z5UE","","null","<img src=""img/flower3.png"" style=""width:200px; border:14px solid green;"">","null","","","","","","","","",""
"","image-keyboard-response","150","42814","0.0-150.0","33L7PJKHCHKUCPJ5RL572IXYJ4FT8Q","AS0REDD6MMWQG","3P520RYKCHSO30HY2QJC6BDLS9Z5UE","","54.10000002384186","img/flower1.png","74","55.299999952316284","1","1","1","1","1,0.333,0.333,0.333,1,0.333,0.333,0.333,1","1,0.333,0.333,0.333,1,0.333,0.333,0.333,1","1",""
"","html-keyboard-response","151","43127","0.0-151.0","33L7PJKHCHKUCPJ5RL572IXYJ4FT8Q","AS0REDD6MMWQG","3P520RYKCHSO30HY2QJC6BDLS9Z5UE","","null","<img src=""img/flower1.png"" style=""width:200px; border:14px solid green;"">","null","","","","","","","","",""
"","image-keyboard-response","152","43147","0.0-152.0","33L7PJKHCHKUCPJ5RL572IXYJ4FT8Q","AS0REDD6MMWQG","3P520RYKCHSO30HY2QJC6BDLS9Z5UE","","18.399999976158142","img/flower1.png","76","19","3","0","1","1","1,0.333,0.333,0.333,1,0.333,0.333,0.333,1","1,0.333,0.333,0.333,1,0.333,0.333,0.333,1","1",""
"","html-keyboard-response","153","43448","0.0-153.0","33L7PJKHCHKUCPJ5RL572IXYJ4FT8Q","AS0REDD6MMWQG","3P520RYKCHSO30HY2QJC6BDLS9Z5UE","","null","<img src=""img/flower1.png"" style=""width:200px;border:14px solid red;"">","null","","","","","","","","",""
"","image-keyboard-response","154","43467","0.0-154.0","33L7PJKHCHKUCPJ5RL572IXYJ4FT8Q","AS0REDD6MMWQG","3P520RYKCHSO30HY2QJC6BDLS9Z5UE","","18.399999976158142","img/flower1.png","74","19.399999976158142","1","1","1","1","1,0.333,0.333,0.333,1,0.333,0.333,0.333,1","1,0.333,0.333,0.333,1,0.333,0.333,0.333,1","1",""
"","html-keyboard-response","155","43771","0.0-155.0","33L7PJKHCHKUCPJ5RL572IXYJ4FT8Q","AS0REDD6MMWQG","3P520RYKCHSO30HY2QJC6BDLS9Z5UE","","null","<img src=""img/flower1.png"" style=""width:200px; border:14px solid green;"">","null","","","","","","","","",""
"","image-keyboard-response","156","43779","0.0-156.0","33L7PJKHCHKUCPJ5RL572IXYJ4FT8Q","AS0REDD6MMWQG","3P520RYKCHSO30HY2QJC6BDLS9Z5UE","","7.299999952316284","img/flower3.png","76","8.200000047683716","3","0","2","1","1,0.333,0.333,0.333,1,0.333,0.333,0.333,1","1,0.333,0.333,0.333,1,0.333,0.333,0.333,1","1",""
"","html-keyboard-response","157","44082","0.0-157.0","33L7PJKHCHKUCPJ5RL572IXYJ4FT8Q","AS0REDD6MMWQG","3P520RYKCHSO30HY2QJC6BDLS9Z5UE","","null","<img src=""img/flower3.png"" style=""width:200px;border:14px solid red;"">","null","","","","","","","","",""
"","image-keyboard-response","158","44156","0.0-158.0","33L7PJKHCHKUCPJ5RL572IXYJ4FT8Q","AS0REDD6MMWQG","3P520RYKCHSO30HY2QJC6BDLS9Z5UE","","72.79999995231628","img/flower1.png","74","73.5","1","1","1","1","1,0.333,0.333,0.333,1,0.333,0.333,0.333,1","1,0.333,0.333,0.333,1,0.333,0.333,0.333,1","1",""
"","html-keyboard-response","159","44460","0.0-159.0","33L7PJKHCHKUCPJ5RL572IXYJ4FT8Q","AS0REDD6MMWQG","3P520RYKCHSO30HY2QJC6BDLS9Z5UE","","null","<img src=""img/flower1.png"" style=""width:200px; border:14px solid green;"">","null","","","","","","","","",""
"","image-keyboard-response","160","44516","0.0-160.0","33L7PJKHCHKUCPJ5RL572IXYJ4FT8Q","AS0REDD6MMWQG","3P520RYKCHSO30HY2QJC6BDLS9Z5UE","","54.89999997615814","img/flower3.png","76","55.799999952316284","3","0","2","1","1,0.333,0.333,0.333,1,0.333,0.333,0.333,1","1,0.333,0.333,0.333,1,0.333,0.333,0.333,1","1",""
"","html-keyboard-response","161","44818","0.0-161.0","33L7PJKHCHKUCPJ5RL572IXYJ4FT8Q","AS0REDD6MMWQG","3P520RYKCHSO30HY2QJC6BDLS9Z5UE","","null","<img src=""img/flower3.png"" style=""width:200px;border:14px solid red;"">","null","","","","","","","","",""
"","image-keyboard-response","162","44933","0.0-162.0","33L7PJKHCHKUCPJ5RL572IXYJ4FT8Q","AS0REDD6MMWQG","3P520RYKCHSO30HY2QJC6BDLS9Z5UE","","113.40000009536743","img/flower4.png","74","114.29999995231628","1","0","3","1","1,0.333,0.333,0.333,1,0.333,0.333,0.333,1","1,0.333,0.333,0.333,1,0.333,0.333,0.333,1","1",""
"","html-keyboard-response","163","45234","0.0-163.0","33L7PJKHCHKUCPJ5RL572IXYJ4FT8Q","AS0REDD6MMWQG","3P520RYKCHSO30HY2QJC6BDLS9Z5UE","","null","<img src=""img/flower4.png"" style=""width:200px;border:14px solid red;"">","null","","","","","","","","",""
"","image-keyboard-response","164","45343","0.0-164.0","33L7PJKHCHKUCPJ5RL572IXYJ4FT8Q","AS0REDD6MMWQG","3P520RYKCHSO30HY2QJC6BDLS9Z5UE","","107.39999997615814","img/flower1.png","76","108.20000004768372","3","0","1","1","1,0.333,0.333,0.333,1,0.333,0.333,0.333,1","1,0.333,0.333,0.333,1,0.333,0.333,0.333,1","1",""
"","html-keyboard-response","165","45645","0.0-165.0","33L7PJKHCHKUCPJ5RL572IXYJ4FT8Q","AS0REDD6MMWQG","3P520RYKCHSO30HY2QJC6BDLS9Z5UE","","null","<img src=""img/flower1.png"" style=""width:200px;border:14px solid red;"">","null","","","","","","","","",""
"","image-keyboard-response","166","45693","0.0-166.0","33L7PJKHCHKUCPJ5RL572IXYJ4FT8Q","AS0REDD6MMWQG","3P520RYKCHSO30HY2QJC6BDLS9Z5UE","","46.800000071525574","img/flower3.png","76","47.59999990463257","3","0","2","1","1,0.333,0.333,0.333,1,0.333,0.333,0.333,1","1,0.333,0.333,0.333,1,0.333,0.333,0.333,1","1",""
"","html-keyboard-response","167","45996","0.0-167.0","33L7PJKHCHKUCPJ5RL572IXYJ4FT8Q","AS0REDD6MMWQG","3P520RYKCHSO30HY2QJC6BDLS9Z5UE","","null","<img src=""img/flower3.png"" style=""width:200px;border:14px solid red;"">","null","","","","","","","","",""
"","image-keyboard-response","168","46032","0.0-168.0","33L7PJKHCHKUCPJ5RL572IXYJ4FT8Q","AS0REDD6MMWQG","3P520RYKCHSO30HY2QJC6BDLS9Z5UE","","35.300000071525574","img/flower4.png","76","36.299999952316284","3","1","3","1","1,0.333,0.333,0.333,1,0.333,0.333,0.333,1","1,0.333,0.333,0.333,1,0.333,0.333,0.333,1","1",""
"","html-keyboard-response","169","46335","0.0-169.0","33L7PJKHCHKUCPJ5RL572IXYJ4FT8Q","AS0REDD6MMWQG","3P520RYKCHSO30HY2QJC6BDLS9Z5UE","","null","<img src=""img/flower4.png"" style=""width:200px; border:14px solid green;"">","null","","","","","","","","",""
"","image-keyboard-response","170","46451","0.0-170.0","33L7PJKHCHKUCPJ5RL572IXYJ4FT8Q","AS0REDD6MMWQG","3P520RYKCHSO30HY2QJC6BDLS9Z5UE","","114.89999997615814","img/flower4.png","75","115.89999997615814","2","0","3","1","1,0.333,0.333,0.333,1,0.333,0.333,0.333,1","1,0.333,0.333,0.333,1,0.333,0.333,0.333,1","1",""
"","html-keyboard-response","171","46753","0.0-171.0","33L7PJKHCHKUCPJ5RL572IXYJ4FT8Q","AS0REDD6MMWQG","3P520RYKCHSO30HY2QJC6BDLS9Z5UE","","null","<img src=""img/flower4.png"" style=""width:200px;border:14px solid red;"">","null","","","","","","","","",""
"","image-keyboard-response","172","46763","0.0-172.0","33L7PJKHCHKUCPJ5RL572IXYJ4FT8Q","AS0REDD6MMWQG","3P520RYKCHSO30HY2QJC6BDLS9Z5UE","","9.100000023841858","img/flower4.png","75","9.899999976158142","2","1","3","1","1,0.333,0.333,0.333,1,0.333,0.333,0.333,1","1,0.333,0.333,0.333,1,0.333,0.333,0.333,1","1",""
"","html-keyboard-response","173","47065","0.0-173.0","33L7PJKHCHKUCPJ5RL572IXYJ4FT8Q","AS0REDD6MMWQG","3P520RYKCHSO30HY2QJC6BDLS9Z5UE","","null","<img src=""img/flower4.png"" style=""width:200px; border:14px solid green;"">","null","","","","","","","","",""
"","image-keyboard-response","174","47090","0.0-174.0","33L7PJKHCHKUCPJ5RL572IXYJ4FT8Q","AS0REDD6MMWQG","3P520RYKCHSO30HY2QJC6BDLS9Z5UE","","23.5","img/flower4.png","75","24.399999976158142","2","1","3","1","1,0.333,0.333,0.333,1,0.333,0.333,0.333,1","1,0.333,0.333,0.333,1,0.333,0.333,0.333,1","1",""
"","html-keyboard-response","175","47392","0.0-175.0","33L7PJKHCHKUCPJ5RL572IXYJ4FT8Q","AS0REDD6MMWQG","3P520RYKCHSO30HY2QJC6BDLS9Z5UE","","null","<img src=""img/flower4.png"" style=""width:200px; border:14px solid green;"">","null","","","","","","","","",""
"","image-keyboard-response","176","47543","0.0-176.0","33L7PJKHCHKUCPJ5RL572IXYJ4FT8Q","AS0REDD6MMWQG","3P520RYKCHSO30HY2QJC6BDLS9Z5UE","","149.5","img/flower1.png","76","151.30000007152557","3","0","1","1","1,0.333,0.333,0.333,1,0.333,0.333,0.333,1","1,0.333,0.333,0.333,1,0.333,0.333,0.333,1","1",""
"","html-keyboard-response","177","47846","0.0-177.0","33L7PJKHCHKUCPJ5RL572IXYJ4FT8Q","AS0REDD6MMWQG","3P520RYKCHSO30HY2QJC6BDLS9Z5UE","","null","<img src=""img/flower1.png"" style=""width:200px;border:14px solid red;"">","null","","","","","","","","",""
"","image-keyboard-response","178","47928","0.0-178.0","33L7PJKHCHKUCPJ5RL572IXYJ4FT8Q","AS0REDD6MMWQG","3P520RYKCHSO30HY2QJC6BDLS9Z5UE","","81.19999992847443","img/flower3.png","74","82.20000004768372","1","0","2","1","1,0.333,0.333,0.333,1,0.333,0.333,0.333,1","1,0.333,0.333,0.333,1,0.333,0.333,0.333,1","1",""
"","html-keyboard-response","179","48229","0.0-179.0","33L7PJKHCHKUCPJ5RL572IXYJ4FT8Q","AS0REDD6MMWQG","3P520RYKCHSO30HY2QJC6BDLS9Z5UE","","null","<img src=""img/flower3.png"" style=""width:200px;border:14px solid red;"">","null","","","","","","","","",""
"","image-keyboard-response","180","48250","0.0-180.0","33L7PJKHCHKUCPJ5RL572IXYJ4FT8Q","AS0REDD6MMWQG","3P520RYKCHSO30HY2QJC6BDLS9Z5UE","","20","img/flower1.png","76","20.899999976158142","3","0","1","1","1,0.333,0.333,0.333,1,0.333,0.333,0.333,1","1,0.333,0.333,0.333,1,0.333,0.333,0.333,1","1",""
"","html-keyboard-response","181","48553","0.0-181.0","33L7PJKHCHKUCPJ5RL572IXYJ4FT8Q","AS0REDD6MMWQG","3P520RYKCHSO30HY2QJC6BDLS9Z5UE","","null","<img src=""img/flower1.png"" style=""width:200px;border:14px solid red;"">","null","","","","","","","","",""
"","html-keyboard-response","182","65131","0.0-182.0","33L7PJKHCHKUCPJ5RL572IXYJ4FT8Q","AS0REDD6MMWQG","3P520RYKCHSO30HY2QJC6BDLS9Z5UE","","","","","","","","","","","","",""
"","image-keyboard-response","183","66723","0.0-183.0","33L7PJKHCHKUCPJ5RL572IXYJ4FT8Q","AS0REDD6MMWQG","3P520RYKCHSO30HY2QJC6BDLS9Z5UE","","1589.7000000476837","img/flower2.png","76","1591.4000000953674","3","0","2","2","1,0,0,1,1,0,1,0,1","1,0,0,1,1,0,1,0,1","1",""
"","html-keyboard-response","184","67024","0.0-184.0","33L7PJKHCHKUCPJ5RL572IXYJ4FT8Q","AS0REDD6MMWQG","3P520RYKCHSO30HY2QJC6BDLS9Z5UE","","null","<img src=""img/flower2.png"" style=""width:200px;border:14px solid red;"">","null","","","","","","","","",""
"","image-keyboard-response","185","67138","0.0-185.0","33L7PJKHCHKUCPJ5RL572IXYJ4FT8Q","AS0REDD6MMWQG","3P520RYKCHSO30HY2QJC6BDLS9Z5UE","","112.29999995231628","img/flower6.png","75","113.39999997615814","2","0","3","2","1,0,0,1,1,0,1,0,1","1,0,0,1,1,0,1,0,1","1",""
"","html-keyboard-response","186","67440","0.0-186.0","33L7PJKHCHKUCPJ5RL572IXYJ4FT8Q","AS0REDD6MMWQG","3P520RYKCHSO30HY2QJC6BDLS9Z5UE","","null","<img src=""img/flower6.png"" style=""width:200px;border:14px solid red;"">","null","","","","","","","","",""
"","image-keyboard-response","187","67544","0.0-187.0","33L7PJKHCHKUCPJ5RL572IXYJ4FT8Q","AS0REDD6MMWQG","3P520RYKCHSO30HY2QJC6BDLS9Z5UE","","103.10000002384186","img/flower2.png","75","104.20000004768372","2","1","2","2","1,0,0,1,1,0,1,0,1","1,0,0,1,1,0,1,0,1","1",""
"","html-keyboard-response","188","67846","0.0-188.0","33L7PJKHCHKUCPJ5RL572IXYJ4FT8Q","AS0REDD6MMWQG","3P520RYKCHSO30HY2QJC6BDLS9Z5UE","","null","<img src=""img/flower2.png"" style=""width:200px; border:14px solid green;"">","null","","","","","","","","",""
"","image-keyboard-response","189","67949","0.0-189.0","33L7PJKHCHKUCPJ5RL572IXYJ4FT8Q","AS0REDD6MMWQG","3P520RYKCHSO30HY2QJC6BDLS9Z5UE","","101.59999990463257","img/flower6.png","74","102.5","1","1","3","2","1,0,0,1,1,0,1,0,1","1,0,0,1,1,0,1,0,1","1",""
"","html-keyboard-response","190","68252","0.0-190.0","33L7PJKHCHKUCPJ5RL572IXYJ4FT8Q","AS0REDD6MMWQG","3P520RYKCHSO30HY2QJC6BDLS9Z5UE","","null","<img src=""img/flower6.png"" style=""width:200px; border:14px solid green;"">","null","","","","","","","","",""
"","image-keyboard-response","191","68262","0.0-191.0","33L7PJKHCHKUCPJ5RL572IXYJ4FT8Q","AS0REDD6MMWQG","3P520RYKCHSO30HY2QJC6BDLS9Z5UE","","9.399999976158142","img/flower2.png","74","10.100000023841858","1","1","2","2","1,0,0,1,1,0,1,0,1","1,0,0,1,1,0,1,0,1","1",""
"","html-keyboard-response","192","68563","0.0-192.0","33L7PJKHCHKUCPJ5RL572IXYJ4FT8Q","AS0REDD6MMWQG","3P520RYKCHSO30HY2QJC6BDLS9Z5UE","","null","<img src=""img/flower2.png"" style=""width:200px; border:14px solid green;"">","null","","","","","","","","",""
"","image-keyboard-response","193","68662","0.0-193.0","33L7PJKHCHKUCPJ5RL572IXYJ4FT8Q","AS0REDD6MMWQG","3P520RYKCHSO30HY2QJC6BDLS9Z5UE","","97.19999992847443","img/flower6.png","75","98.29999995231628","2","0","3","2","1,0,0,1,1,0,1,0,1","1,0,0,1,1,0,1,0,1","1",""
"","html-keyboard-response","194","68964","0.0-194.0","33L7PJKHCHKUCPJ5RL572IXYJ4FT8Q","AS0REDD6MMWQG","3P520RYKCHSO30HY2QJC6BDLS9Z5UE","","null","<img src=""img/flower6.png"" style=""width:200px;border:14px solid red;"">","null","","","","","","","","",""
"","image-keyboard-response","195","68995","0.0-195.0","33L7PJKHCHKUCPJ5RL572IXYJ4FT8Q","AS0REDD6MMWQG","3P520RYKCHSO30HY2QJC6BDLS9Z5UE","","30.399999976158142","img/flower5.png","75","31.299999952316284","2","0","1","2","1,0,0,1,1,0,1,0,1","1,0,0,1,1,0,1,0,1","1",""
"","html-keyboard-response","196","69331","0.0-196.0","33L7PJKHCHKUCPJ5RL572IXYJ4FT8Q","AS0REDD6MMWQG","3P520RYKCHSO30HY2QJC6BDLS9Z5UE","","null","<img src=""img/flower5.png"" style=""width:200px;border:14px solid red;"">","null","","","","","","","","",""
"","image-keyboard-response","197","69358","0.0-197.0","33L7PJKHCHKUCPJ5RL572IXYJ4FT8Q","AS0REDD6MMWQG","3P520RYKCHSO30HY2QJC6BDLS9Z5UE","","26.200000047683716","img/flower2.png","76","26.90000009536743","3","0","2","2","1,0,0,1,1,0,1,0,1","1,0,0,1,1,0,1,0,1","1",""
"","html-keyboard-response","198","69660","0.0-198.0","33L7PJKHCHKUCPJ5RL572IXYJ4FT8Q","AS0REDD6MMWQG","3P520RYKCHSO30HY2QJC6BDLS9Z5UE","","null","<img src=""img/flower2.png"" style=""width:200px;border:14px solid red;"">","null","","","","","","","","",""
"","image-keyboard-response","199","69786","0.0-199.0","33L7PJKHCHKUCPJ5RL572IXYJ4FT8Q","AS0REDD6MMWQG","3P520RYKCHSO30HY2QJC6BDLS9Z5UE","","123.90000009536743","img/flower6.png","74","125","1","1","3","2","1,0,0,1,1,0,1,0,1","1,0,0,1,1,0,1,0,1","1",""
"","html-keyboard-response","200","70088","0.0-200.0","33L7PJKHCHKUCPJ5RL572IXYJ4FT8Q","AS0REDD6MMWQG","3P520RYKCHSO30HY2QJC6BDLS9Z5UE","","null","<img src=""img/flower6.png"" style=""width:200px; border:14px solid green;"">","null","","","","","","","","",""
"","image-keyboard-response","201","70237","0.0-201.0","33L7PJKHCHKUCPJ5RL572IXYJ4FT8Q","AS0REDD6MMWQG","3P520RYKCHSO30HY2QJC6BDLS9Z5UE","","147.60000002384186","img/flower5.png","76","148.69999992847443","3","0","1","2","1,0,0,1,1,0,1,0,1","1,0,0,1,1,0,1,0,1","1",""
"","html-keyboard-response","202","70539","0.0-202.0","33L7PJKHCHKUCPJ5RL572IXYJ4FT8Q","AS0REDD6MMWQG","3P520RYKCHSO30HY2QJC6BDLS9Z5UE","","null","<img src=""img/flower5.png"" style=""width:200px;border:14px solid red;"">","null","","","","","","","","",""
"","image-keyboard-response","203","70548","0.0-203.0","33L7PJKHCHKUCPJ5RL572IXYJ4FT8Q","AS0REDD6MMWQG","3P520RYKCHSO30HY2QJC6BDLS9Z5UE","","7.199999928474426","img/flower6.png","76","7.899999976158142","3","1","3","2","1,0,0,1,1,0,1,0,1","1,0,0,1,1,0,1,0,1","1",""
"","html-keyboard-response","204","70850","0.0-204.0","33L7PJKHCHKUCPJ5RL572IXYJ4FT8Q","AS0REDD6MMWQG","3P520RYKCHSO30HY2QJC6BDLS9Z5UE","","null","<img src=""img/flower6.png"" style=""width:200px; border:14px solid green;"">","null","","","","","","","","",""
"","image-keyboard-response","205","70932","0.0-205.0","33L7PJKHCHKUCPJ5RL572IXYJ4FT8Q","AS0REDD6MMWQG","3P520RYKCHSO30HY2QJC6BDLS9Z5UE","","81.09999990463257","img/flower6.png","74","81.79999995231628","1","1","3","2","1,0,0,1,1,0,1,0,1","1,0,0,1,1,0,1,0,1","1",""
"","html-keyboard-response","206","71237","0.0-206.0","33L7PJKHCHKUCPJ5RL572IXYJ4FT8Q","AS0REDD6MMWQG","3P520RYKCHSO30HY2QJC6BDLS9Z5UE","","null","<img src=""img/flower6.png"" style=""width:200px; border:14px solid green;"">","null","","","","","","","","",""
"","image-keyboard-response","207","71256","0.0-207.0","33L7PJKHCHKUCPJ5RL572IXYJ4FT8Q","AS0REDD6MMWQG","3P520RYKCHSO30HY2QJC6BDLS9Z5UE","","18","img/flower5.png","74","18.699999928474426","1","1","1","2","1,0,0,1,1,0,1,0,1","1,0,0,1,1,0,1,0,1","1",""
"","html-keyboard-response","208","71558","0.0-208.0","33L7PJKHCHKUCPJ5RL572IXYJ4FT8Q","AS0REDD6MMWQG","3P520RYKCHSO30HY2QJC6BDLS9Z5UE","","null","<img src=""img/flower5.png"" style=""width:200px; border:14px solid green;"">","null","","","","","","","","",""
"","image-keyboard-response","209","71633","0.0-209.0","33L7PJKHCHKUCPJ5RL572IXYJ4FT8Q","AS0REDD6MMWQG","3P520RYKCHSO30HY2QJC6BDLS9Z5UE","","73.20000004768372","img/flower5.png","76","74.20000004768372","3","0","1","2","1,0,0,1,1,0,1,0,1","1,0,0,1,1,0,1,0,1","1",""
"","html-keyboard-response","210","71934","0.0-210.0","33L7PJKHCHKUCPJ5RL572IXYJ4FT8Q","AS0REDD6MMWQG","3P520RYKCHSO30HY2QJC6BDLS9Z5UE","","null","<img src=""img/flower5.png"" style=""width:200px;border:14px solid red;"">","null","","","","","","","","",""
"","image-keyboard-response","211","72083","0.0-211.0","33L7PJKHCHKUCPJ5RL572IXYJ4FT8Q","AS0REDD6MMWQG","3P520RYKCHSO30HY2QJC6BDLS9Z5UE","","147","img/flower5.png","76","148.69999992847443","3","0","1","2","1,0,0,1,1,0,1,0,1","1,0,0,1,1,0,1,0,1","1",""
"","html-keyboard-response","212","72385","0.0-212.0","33L7PJKHCHKUCPJ5RL572IXYJ4FT8Q","AS0REDD6MMWQG","3P520RYKCHSO30HY2QJC6BDLS9Z5UE","","null","<img src=""img/flower5.png"" style=""width:200px;border:14px solid red;"">","null","","","","","","","","",""
"","image-keyboard-response","213","72453","0.0-213.0","33L7PJKHCHKUCPJ5RL572IXYJ4FT8Q","AS0REDD6MMWQG","3P520RYKCHSO30HY2QJC6BDLS9Z5UE","","67.10000002384186","img/flower6.png","76","68.20000004768372","3","1","3","2","1,0,0,1,1,0,1,0,1","1,0,0,1,1,0,1,0,1","1",""
"","html-keyboard-response","214","72755","0.0-214.0","33L7PJKHCHKUCPJ5RL572IXYJ4FT8Q","AS0REDD6MMWQG","3P520RYKCHSO30HY2QJC6BDLS9Z5UE","","null","<img src=""img/flower6.png"" style=""width:200px; border:14px solid green;"">","null","","","","","","","","",""
"","image-keyboard-response","215","72882","0.0-215.0","33L7PJKHCHKUCPJ5RL572IXYJ4FT8Q","AS0REDD6MMWQG","3P520RYKCHSO30HY2QJC6BDLS9Z5UE","","126.29999995231628","img/flower6.png","75","127.29999995231628","2","0","3","2","1,0,0,1,1,0,1,0,1","1,0,0,1,1,0,1,0,1","1",""
"","html-keyboard-response","216","73185","0.0-216.0","33L7PJKHCHKUCPJ5RL572IXYJ4FT8Q","AS0REDD6MMWQG","3P520RYKCHSO30HY2QJC6BDLS9Z5UE","","null","<img src=""img/flower6.png"" style=""width:200px;border:14px solid red;"">","null","","","","","","","","",""
"","image-keyboard-response","217","73191","0.0-217.0","33L7PJKHCHKUCPJ5RL572IXYJ4FT8Q","AS0REDD6MMWQG","3P520RYKCHSO30HY2QJC6BDLS9Z5UE","","4.899999976158142","img/flower2.png","75","5.700000047683716","2","1","2","2","1,0,0,1,1,0,1,0,1","1,0,0,1,1,0,1,0,1","1",""
"","html-keyboard-response","218","73493","0.0-218.0","33L7PJKHCHKUCPJ5RL572IXYJ4FT8Q","AS0REDD6MMWQG","3P520RYKCHSO30HY2QJC6BDLS9Z5UE","","null","<img src=""img/flower2.png"" style=""width:200px; border:14px solid green;"">","null","","","","","","","","",""
"","image-keyboard-response","219","73603","0.0-219.0","33L7PJKHCHKUCPJ5RL572IXYJ4FT8Q","AS0REDD6MMWQG","3P520RYKCHSO30HY2QJC6BDLS9Z5UE","","109.20000004768372","img/flower2.png","74","110.29999995231628","1","1","2","2","1,0,0,1,1,0,1,0,1","1,0,0,1,1,0,1,0,1","1",""
"","html-keyboard-response","220","73919","0.0-220.0","33L7PJKHCHKUCPJ5RL572IXYJ4FT8Q","AS0REDD6MMWQG","3P520RYKCHSO30HY2QJC6BDLS9Z5UE","","null","<img src=""img/flower2.png"" style=""width:200px; border:14px solid green;"">","null","","","","","","","","",""
"","image-keyboard-response","221","73962","0.0-221.0","33L7PJKHCHKUCPJ5RL572IXYJ4FT8Q","AS0REDD6MMWQG","3P520RYKCHSO30HY2QJC6BDLS9Z5UE","","41.60000002384186","img/flower6.png","75","43.299999952316284","2","0","3","2","1,0,0,1,1,0,1,0,1","1,0,0,1,1,0,1,0,1","1",""
"","html-keyboard-response","222","74264","0.0-222.0","33L7PJKHCHKUCPJ5RL572IXYJ4FT8Q","AS0REDD6MMWQG","3P520RYKCHSO30HY2QJC6BDLS9Z5UE","","null","<img src=""img/flower6.png"" style=""width:200px;border:14px solid red;"">","null","","","","","","","","",""
"","image-keyboard-response","223","74394","0.0-223.0","33L7PJKHCHKUCPJ5RL572IXYJ4FT8Q","AS0REDD6MMWQG","3P520RYKCHSO30HY2QJC6BDLS9Z5UE","","129","img/flower6.png","74","130","1","1","3","2","1,0,0,1,1,0,1,0,1","1,0,0,1,1,0,1,0,1","1",""
"","html-keyboard-response","224","74696","0.0-224.0","33L7PJKHCHKUCPJ5RL572IXYJ4FT8Q","AS0REDD6MMWQG","3P520RYKCHSO30HY2QJC6BDLS9Z5UE","","null","<img src=""img/flower6.png"" style=""width:200px; border:14px solid green;"">","null","","","","","","","","",""
"","image-keyboard-response","225","74745","0.0-225.0","33L7PJKHCHKUCPJ5RL572IXYJ4FT8Q","AS0REDD6MMWQG","3P520RYKCHSO30HY2QJC6BDLS9Z5UE","","47.199999928474426","img/flower2.png","76","48.299999952316284","3","0","2","2","1,0,0,1,1,0,1,0,1","1,0,0,1,1,0,1,0,1","1",""
"","html-keyboard-response","226","75047","0.0-226.0","33L7PJKHCHKUCPJ5RL572IXYJ4FT8Q","AS0REDD6MMWQG","3P520RYKCHSO30HY2QJC6BDLS9Z5UE","","null","<img src=""img/flower2.png"" style=""width:200px;border:14px solid red;"">","null","","","","","","","","",""
"","image-keyboard-response","227","75058","0.0-227.0","33L7PJKHCHKUCPJ5RL572IXYJ4FT8Q","AS0REDD6MMWQG","3P520RYKCHSO30HY2QJC6BDLS9Z5UE","","9.899999976158142","img/flower2.png","75","10.799999952316284","2","1","2","2","1,0,0,1,1,0,1,0,1","1,0,0,1,1,0,1,0,1","1",""
"","html-keyboard-response","228","75360","0.0-228.0","33L7PJKHCHKUCPJ5RL572IXYJ4FT8Q","AS0REDD6MMWQG","3P520RYKCHSO30HY2QJC6BDLS9Z5UE","","null","<img src=""img/flower2.png"" style=""width:200px; border:14px solid green;"">","null","","","","","","","","",""
"","image-keyboard-response","229","75456","0.0-229.0","33L7PJKHCHKUCPJ5RL572IXYJ4FT8Q","AS0REDD6MMWQG","3P520RYKCHSO30HY2QJC6BDLS9Z5UE","","94.5","img/flower2.png","74","95.69999992847443","1","1","2","2","1,0,0,1,1,0,1,0,1","1,0,0,1,1,0,1,0,1","1",""
"","html-keyboard-response","230","75769","0.0-230.0","33L7PJKHCHKUCPJ5RL572IXYJ4FT8Q","AS0REDD6MMWQG","3P520RYKCHSO30HY2QJC6BDLS9Z5UE","","null","<img src=""img/flower2.png"" style=""width:200px; border:14px solid green;"">","null","","","","","","","","",""
"","image-keyboard-response","231","75791","0.0-231.0","33L7PJKHCHKUCPJ5RL572IXYJ4FT8Q","AS0REDD6MMWQG","3P520RYKCHSO30HY2QJC6BDLS9Z5UE","","20.100000023841858","img/flower2.png","76","21.100000023841858","3","0","2","2","1,0,0,1,1,0,1,0,1","1,0,0,1,1,0,1,0,1","1",""
"","html-keyboard-response","232","76093","0.0-232.0","33L7PJKHCHKUCPJ5RL572IXYJ4FT8Q","AS0REDD6MMWQG","3P520RYKCHSO30HY2QJC6BDLS9Z5UE","","null","<img src=""img/flower2.png"" style=""width:200px;border:14px solid red;"">","null","","","","","","","","",""
"","image-keyboard-response","233","76258","0.0-233.0","33L7PJKHCHKUCPJ5RL572IXYJ4FT8Q","AS0REDD6MMWQG","3P520RYKCHSO30HY2QJC6BDLS9Z5UE","","163.5","img/flower6.png","76","164.29999995231628","3","1","3","2","1,0,0,1,1,0,1,0,1","1,0,0,1,1,0,1,0,1","1",""
"","html-keyboard-response","234","76560","0.0-234.0","33L7PJKHCHKUCPJ5RL572IXYJ4FT8Q","AS0REDD6MMWQG","3P520RYKCHSO30HY2QJC6BDLS9Z5UE","","null","<img src=""img/flower6.png"" style=""width:200px; border:14px solid green;"">","null","","","","","","","","",""
"","image-keyboard-response","235","76648","0.0-235.0","33L7PJKHCHKUCPJ5RL572IXYJ4FT8Q","AS0REDD6MMWQG","3P520RYKCHSO30HY2QJC6BDLS9Z5UE","","87.19999992847443","img/flower2.png","75","88","2","1","2","2","1,0,0,1,1,0,1,0,1","1,0,0,1,1,0,1,0,1","1",""
"","html-keyboard-response","236","76950","0.0-236.0","33L7PJKHCHKUCPJ5RL572IXYJ4FT8Q","AS0REDD6MMWQG","3P520RYKCHSO30HY2QJC6BDLS9Z5UE","","null","<img src=""img/flower2.png"" style=""width:200px; border:14px solid green;"">","null","","","","","","","","",""
"","image-keyboard-response","237","76976","0.0-237.0","33L7PJKHCHKUCPJ5RL572IXYJ4FT8Q","AS0REDD6MMWQG","3P520RYKCHSO30HY2QJC6BDLS9Z5UE","","24.299999952316284","img/flower2.png","76","25.40000009536743","3","0","2","2","1,0,0,1,1,0,1,0,1","1,0,0,1,1,0,1,0,1","1",""
"","html-keyboard-response","238","77278","0.0-238.0","33L7PJKHCHKUCPJ5RL572IXYJ4FT8Q","AS0REDD6MMWQG","3P520RYKCHSO30HY2QJC6BDLS9Z5UE","","null","<img src=""img/flower2.png"" style=""width:200px;border:14px solid red;"">","null","","","","","","","","",""
"","image-keyboard-response","239","77366","0.0-239.0","33L7PJKHCHKUCPJ5RL572IXYJ4FT8Q","AS0REDD6MMWQG","3P520RYKCHSO30HY2QJC6BDLS9Z5UE","","86.70000004768372","img/flower5.png","74","87.70000004768372","1","1","1","2","1,0,0,1,1,0,1,0,1","1,0,0,1,1,0,1,0,1","1",""
"","html-keyboard-response","240","77668","0.0-240.0","33L7PJKHCHKUCPJ5RL572IXYJ4FT8Q","AS0REDD6MMWQG","3P520RYKCHSO30HY2QJC6BDLS9Z5UE","","null","<img src=""img/flower5.png"" style=""width:200px; border:14px solid green;"">","null","","","","","","","","",""
"","image-keyboard-response","241","77713","0.0-241.0","33L7PJKHCHKUCPJ5RL572IXYJ4FT8Q","AS0REDD6MMWQG","3P520RYKCHSO30HY2QJC6BDLS9Z5UE","","43.700000047683716","img/flower2.png","76","44.60000002384186","3","0","2","2","1,0,0,1,1,0,1,0,1","1,0,0,1,1,0,1,0,1","1",""
"","html-keyboard-response","242","78015","0.0-242.0","33L7PJKHCHKUCPJ5RL572IXYJ4FT8Q","AS0REDD6MMWQG","3P520RYKCHSO30HY2QJC6BDLS9Z5UE","","null","<img src=""img/flower2.png"" style=""width:200px;border:14px solid red;"">","null","","","","","","","","",""
"","image-keyboard-response","243","78135","0.0-243.0","33L7PJKHCHKUCPJ5RL572IXYJ4FT8Q","AS0REDD6MMWQG","3P520RYKCHSO30HY2QJC6BDLS9Z5UE","","119","img/flower5.png","74","120","1","1","1","2","1,0,0,1,1,0,1,0,1","1,0,0,1,1,0,1,0,1","1",""
"","html-keyboard-response","244","78439","0.0-244.0","33L7PJKHCHKUCPJ5RL572IXYJ4FT8Q","AS0REDD6MMWQG","3P520RYKCHSO30HY2QJC6BDLS9Z5UE","","null","<img src=""img/flower5.png"" style=""width:200px; border:14px solid green;"">","null","","","","","","","","",""
"","image-keyboard-response","245","78485","0.0-245.0","33L7PJKHCHKUCPJ5RL572IXYJ4FT8Q","AS0REDD6MMWQG","3P520RYKCHSO30HY2QJC6BDLS9Z5UE","","45.60000002384186","img/flower2.png","74","46.5","1","1","2","2","1,0,0,1,1,0,1,0,1","1,0,0,1,1,0,1,0,1","1",""
"","html-keyboard-response","246","78787","0.0-246.0","33L7PJKHCHKUCPJ5RL572IXYJ4FT8Q","AS0REDD6MMWQG","3P520RYKCHSO30HY2QJC6BDLS9Z5UE","","null","<img src=""img/flower2.png"" style=""width:200px; border:14px solid green;"">","null","","","","","","","","",""
"","image-keyboard-response","247","78876","0.0-247.0","33L7PJKHCHKUCPJ5RL572IXYJ4FT8Q","AS0REDD6MMWQG","3P520RYKCHSO30HY2QJC6BDLS9Z5UE","","87.60000002384186","img/flower5.png","75","88.5","2","0","1","2","1,0,0,1,1,0,1,0,1","1,0,0,1,1,0,1,0,1","1",""
"","html-keyboard-response","248","79178","0.0-248.0","33L7PJKHCHKUCPJ5RL572IXYJ4FT8Q","AS0REDD6MMWQG","3P520RYKCHSO30HY2QJC6BDLS9Z5UE","","null","<img src=""img/flower5.png"" style=""width:200px;border:14px solid red;"">","null","","","","","","","","",""
"","image-keyboard-response","249","79234","0.0-249.0","33L7PJKHCHKUCPJ5RL572IXYJ4FT8Q","AS0REDD6MMWQG","3P520RYKCHSO30HY2QJC6BDLS9Z5UE","","55.10000002384186","img/flower5.png","76","55.90000009536743","3","0","1","2","1,0,0,1,1,0,1,0,1","1,0,0,1,1,0,1,0,1","1",""
"","html-keyboard-response","250","79537","0.0-250.0","33L7PJKHCHKUCPJ5RL572IXYJ4FT8Q","AS0REDD6MMWQG","3P520RYKCHSO30HY2QJC6BDLS9Z5UE","","null","<img src=""img/flower5.png"" style=""width:200px;border:14px solid red;"">","null","","","","","","","","",""
"","image-keyboard-response","251","79599","0.0-251.0","33L7PJKHCHKUCPJ5RL572IXYJ4FT8Q","AS0REDD6MMWQG","3P520RYKCHSO30HY2QJC6BDLS9Z5UE","","60.89999997615814","img/flower6.png","74","61.800000071525574","1","1","3","2","1,0,0,1,1,0,1,0,1","1,0,0,1,1,0,1,0,1","1",""
"","html-keyboard-response","252","79902","0.0-252.0","33L7PJKHCHKUCPJ5RL572IXYJ4FT8Q","AS0REDD6MMWQG","3P520RYKCHSO30HY2QJC6BDLS9Z5UE","","null","<img src=""img/flower6.png"" style=""width:200px; border:14px solid green;"">","null","","","","","","","","",""
"","image-keyboard-response","253","79926","0.0-253.0","33L7PJKHCHKUCPJ5RL572IXYJ4FT8Q","AS0REDD6MMWQG","3P520RYKCHSO30HY2QJC6BDLS9Z5UE","","23","img/flower6.png","75","24","2","0","3","2","1,0,0,1,1,0,1,0,1","1,0,0,1,1,0,1,0,1","1",""
"","html-keyboard-response","254","80228","0.0-254.0","33L7PJKHCHKUCPJ5RL572IXYJ4FT8Q","AS0REDD6MMWQG","3P520RYKCHSO30HY2QJC6BDLS9Z5UE","","null","<img src=""img/flower6.png"" style=""width:200px;border:14px solid red;"">","null","","","","","","","","",""
"","image-keyboard-response","255","80235","0.0-255.0","33L7PJKHCHKUCPJ5RL572IXYJ4FT8Q","AS0REDD6MMWQG","3P520RYKCHSO30HY2QJC6BDLS9Z5UE","","5.700000047683716","img/flower6.png","75","6.399999976158142","2","0","3","2","1,0,0,1,1,0,1,0,1","1,0,0,1,1,0,1,0,1","1",""
"","html-keyboard-response","256","80541","0.0-256.0","33L7PJKHCHKUCPJ5RL572IXYJ4FT8Q","AS0REDD6MMWQG","3P520RYKCHSO30HY2QJC6BDLS9Z5UE","","null","<img src=""img/flower6.png"" style=""width:200px;border:14px solid red;"">","null","","","","","","","","",""
"","image-keyboard-response","257","80677","0.0-257.0","33L7PJKHCHKUCPJ5RL572IXYJ4FT8Q","AS0REDD6MMWQG","3P520RYKCHSO30HY2QJC6BDLS9Z5UE","","134.60000002384186","img/flower2.png","74","135.79999995231628","1","1","2","2","1,0,0,1,1,0,1,0,1","1,0,0,1,1,0,1,0,1","1",""
"","html-keyboard-response","258","80979","0.0-258.0","33L7PJKHCHKUCPJ5RL572IXYJ4FT8Q","AS0REDD6MMWQG","3P520RYKCHSO30HY2QJC6BDLS9Z5UE","","null","<img src=""img/flower2.png"" style=""width:200px; border:14px solid green;"">","null","","","","","","","","",""
"","image-keyboard-response","259","80998","0.0-259.0","33L7PJKHCHKUCPJ5RL572IXYJ4FT8Q","AS0REDD6MMWQG","3P520RYKCHSO30HY2QJC6BDLS9Z5UE","","16.399999976158142","img/flower5.png","76","18.799999952316284","3","0","1","2","1,0,0,1,1,0,1,0,1","1,0,0,1,1,0,1,0,1","1",""
"","html-keyboard-response","260","81299","0.0-260.0","33L7PJKHCHKUCPJ5RL572IXYJ4FT8Q","AS0REDD6MMWQG","3P520RYKCHSO30HY2QJC6BDLS9Z5UE","","null","<img src=""img/flower5.png"" style=""width:200px;border:14px solid red;"">","null","","","","","","","","",""
"","image-keyboard-response","261","81432","0.0-261.0","33L7PJKHCHKUCPJ5RL572IXYJ4FT8Q","AS0REDD6MMWQG","3P520RYKCHSO30HY2QJC6BDLS9Z5UE","","131.89999997615814","img/flower2.png","75","133","2","1","2","2","1,0,0,1,1,0,1,0,1","1,0,0,1,1,0,1,0,1","1",""
"","html-keyboard-response","262","81734","0.0-262.0","33L7PJKHCHKUCPJ5RL572IXYJ4FT8Q","AS0REDD6MMWQG","3P520RYKCHSO30HY2QJC6BDLS9Z5UE","","null","<img src=""img/flower2.png"" style=""width:200px; border:14px solid green;"">","null","","","","","","","","",""
"","image-keyboard-response","263","81745","0.0-263.0","33L7PJKHCHKUCPJ5RL572IXYJ4FT8Q","AS0REDD6MMWQG","3P520RYKCHSO30HY2QJC6BDLS9Z5UE","","9.299999952316284","img/flower6.png","75","10.200000047683716","2","0","3","2","1,0,0,1,1,0,1,0,1","1,0,0,1,1,0,1,0,1","1",""
"","html-keyboard-response","264","82046","0.0-264.0","33L7PJKHCHKUCPJ5RL572IXYJ4FT8Q","AS0REDD6MMWQG","3P520RYKCHSO30HY2QJC6BDLS9Z5UE","","null","<img src=""img/flower6.png"" style=""width:200px;border:14px solid red;"">","null","","","","","","","","",""
"","image-keyboard-response","265","82058","0.0-265.0","33L7PJKHCHKUCPJ5RL572IXYJ4FT8Q","AS0REDD6MMWQG","3P520RYKCHSO30HY2QJC6BDLS9Z5UE","","10.5","img/flower5.png","75","11.5","2","0","1","2","1,0,0,1,1,0,1,0,1","1,0,0,1,1,0,1,0,1","1",""
"","html-keyboard-response","266","82360","0.0-266.0","33L7PJKHCHKUCPJ5RL572IXYJ4FT8Q","AS0REDD6MMWQG","3P520RYKCHSO30HY2QJC6BDLS9Z5UE","","null","<img src=""img/flower5.png"" style=""width:200px;border:14px solid red;"">","null","","","","","","","","",""
"","image-keyboard-response","267","82373","0.0-267.0","33L7PJKHCHKUCPJ5RL572IXYJ4FT8Q","AS0REDD6MMWQG","3P520RYKCHSO30HY2QJC6BDLS9Z5UE","","12.800000071525574","img/flower2.png","76","13.5","3","0","2","2","1,0,0,1,1,0,1,0,1","1,0,0,1,1,0,1,0,1","1",""
"","html-keyboard-response","268","82675","0.0-268.0","33L7PJKHCHKUCPJ5RL572IXYJ4FT8Q","AS0REDD6MMWQG","3P520RYKCHSO30HY2QJC6BDLS9Z5UE","","null","<img src=""img/flower2.png"" style=""width:200px;border:14px solid red;"">","null","","","","","","","","",""
"","image-keyboard-response","269","82693","0.0-269.0","33L7PJKHCHKUCPJ5RL572IXYJ4FT8Q","AS0REDD6MMWQG","3P520RYKCHSO30HY2QJC6BDLS9Z5UE","","16.700000047683716","img/flower5.png","75","17.700000047683716","2","0","1","2","1,0,0,1,1,0,1,0,1","1,0,0,1,1,0,1,0,1","1",""
"","html-keyboard-response","270","83008","0.0-270.0","33L7PJKHCHKUCPJ5RL572IXYJ4FT8Q","AS0REDD6MMWQG","3P520RYKCHSO30HY2QJC6BDLS9Z5UE","","null","<img src=""img/flower5.png"" style=""width:200px;border:14px solid red;"">","null","","","","","","","","",""
"","image-keyboard-response","271","83015","0.0-271.0","33L7PJKHCHKUCPJ5RL572IXYJ4FT8Q","AS0REDD6MMWQG","3P520RYKCHSO30HY2QJC6BDLS9Z5UE","","4.899999976158142","img/flower5.png","76","6.400000095367432","3","0","1","2","1,0,0,1,1,0,1,0,1","1,0,0,1,1,0,1,0,1","1",""
"","html-keyboard-response","272","83316","0.0-272.0","33L7PJKHCHKUCPJ5RL572IXYJ4FT8Q","AS0REDD6MMWQG","3P520RYKCHSO30HY2QJC6BDLS9Z5UE","","null","<img src=""img/flower5.png"" style=""width:200px;border:14px solid red;"">","null","","","","","","","","",""
"","image-keyboard-response","273","83352","0.0-273.0","33L7PJKHCHKUCPJ5RL572IXYJ4FT8Q","AS0REDD6MMWQG","3P520RYKCHSO30HY2QJC6BDLS9Z5UE","","34.299999952316284","img/flower2.png","75","35.39999997615814","2","1","2","2","1,0,0,1,1,0,1,0,1","1,0,0,1,1,0,1,0,1","1",""
"","html-keyboard-response","274","83655","0.0-274.0","33L7PJKHCHKUCPJ5RL572IXYJ4FT8Q","AS0REDD6MMWQG","3P520RYKCHSO30HY2QJC6BDLS9Z5UE","","null","<img src=""img/flower2.png"" style=""width:200px; border:14px solid green;"">","null","","","","","","","","",""
"","image-keyboard-response","275","83813","0.0-275.0","33L7PJKHCHKUCPJ5RL572IXYJ4FT8Q","AS0REDD6MMWQG","3P520RYKCHSO30HY2QJC6BDLS9Z5UE","","157.39999997615814","img/flower6.png","76","158.29999995231628","3","1","3","2","1,0,0,1,1,0,1,0,1","1,0,0,1,1,0,1,0,1","1",""
"","html-keyboard-response","276","84115","0.0-276.0","33L7PJKHCHKUCPJ5RL572IXYJ4FT8Q","AS0REDD6MMWQG","3P520RYKCHSO30HY2QJC6BDLS9Z5UE","","null","<img src=""img/flower6.png"" style=""width:200px; border:14px solid green;"">","null","","","","","","","","",""
"","image-keyboard-response","277","84163","0.0-277.0","33L7PJKHCHKUCPJ5RL572IXYJ4FT8Q","AS0REDD6MMWQG","3P520RYKCHSO30HY2QJC6BDLS9Z5UE","","46.299999952316284","img/flower2.png","74","47.200000047683716","1","1","2","2","1,0,0,1,1,0,1,0,1","1,0,0,1,1,0,1,0,1","1",""
"","html-keyboard-response","278","84465","0.0-278.0","33L7PJKHCHKUCPJ5RL572IXYJ4FT8Q","AS0REDD6MMWQG","3P520RYKCHSO30HY2QJC6BDLS9Z5UE","","null","<img src=""img/flower2.png"" style=""width:200px; border:14px solid green;"">","null","","","","","","","","",""
"","image-keyboard-response","279","84575","0.0-279.0","33L7PJKHCHKUCPJ5RL572IXYJ4FT8Q","AS0REDD6MMWQG","3P520RYKCHSO30HY2QJC6BDLS9Z5UE","","109.20000004768372","img/flower6.png","76","110.19999992847443","3","1","3","2","1,0,0,1,1,0,1,0,1","1,0,0,1,1,0,1,0,1","1",""
"","html-keyboard-response","280","84877","0.0-280.0","33L7PJKHCHKUCPJ5RL572IXYJ4FT8Q","AS0REDD6MMWQG","3P520RYKCHSO30HY2QJC6BDLS9Z5UE","","null","<img src=""img/flower6.png"" style=""width:200px; border:14px solid green;"">","null","","","","","","","","",""
"","image-keyboard-response","281","84997","0.0-281.0","33L7PJKHCHKUCPJ5RL572IXYJ4FT8Q","AS0REDD6MMWQG","3P520RYKCHSO30HY2QJC6BDLS9Z5UE","","118.69999992847443","img/flower6.png","74","119.60000002384186","1","1","3","2","1,0,0,1,1,0,1,0,1","1,0,0,1,1,0,1,0,1","1",""
"","html-keyboard-response","282","85299","0.0-282.0","33L7PJKHCHKUCPJ5RL572IXYJ4FT8Q","AS0REDD6MMWQG","3P520RYKCHSO30HY2QJC6BDLS9Z5UE","","null","<img src=""img/flower6.png"" style=""width:200px; border:14px solid green;"">","null","","","","","","","","",""
"","image-keyboard-response","283","85370","0.0-283.0","33L7PJKHCHKUCPJ5RL572IXYJ4FT8Q","AS0REDD6MMWQG","3P520RYKCHSO30HY2QJC6BDLS9Z5UE","","69.90000009536743","img/flower5.png","76","70.89999997615814","3","0","1","2","1,0,0,1,1,0,1,0,1","1,0,0,1,1,0,1,0,1","1",""
"","html-keyboard-response","284","85673","0.0-284.0","33L7PJKHCHKUCPJ5RL572IXYJ4FT8Q","AS0REDD6MMWQG","3P520RYKCHSO30HY2QJC6BDLS9Z5UE","","null","<img src=""img/flower5.png"" style=""width:200px;border:14px solid red;"">","null","","","","","","","","",""
"","image-keyboard-response","285","85811","0.0-285.0","33L7PJKHCHKUCPJ5RL572IXYJ4FT8Q","AS0REDD6MMWQG","3P520RYKCHSO30HY2QJC6BDLS9Z5UE","","136.80000007152557","img/flower6.png","74","137.80000007152557","1","1","3","2","1,0,0,1,1,0,1,0,1","1,0,0,1,1,0,1,0,1","1",""
"","html-keyboard-response","286","86120","0.0-286.0","33L7PJKHCHKUCPJ5RL572IXYJ4FT8Q","AS0REDD6MMWQG","3P520RYKCHSO30HY2QJC6BDLS9Z5UE","","null","<img src=""img/flower6.png"" style=""width:200px; border:14px solid green;"">","null","","","","","","","","",""
"","image-keyboard-response","287","86170","0.0-287.0","33L7PJKHCHKUCPJ5RL572IXYJ4FT8Q","AS0REDD6MMWQG","3P520RYKCHSO30HY2QJC6BDLS9Z5UE","","48.90000009536743","img/flower5.png","76","49.799999952316284","3","0","1","2","1,0,0,1,1,0,1,0,1","1,0,0,1,1,0,1,0,1","1",""
"","html-keyboard-response","288","86472","0.0-288.0","33L7PJKHCHKUCPJ5RL572IXYJ4FT8Q","AS0REDD6MMWQG","3P520RYKCHSO30HY2QJC6BDLS9Z5UE","","null","<img src=""img/flower5.png"" style=""width:200px;border:14px solid red;"">","null","","","","","","","","",""
"","image-keyboard-response","289","86515","0.0-289.0","33L7PJKHCHKUCPJ5RL572IXYJ4FT8Q","AS0REDD6MMWQG","3P520RYKCHSO30HY2QJC6BDLS9Z5UE","","41.200000047683716","img/flower2.png","75","42.199999928474426","2","1","2","2","1,0,0,1,1,0,1,0,1","1,0,0,1,1,0,1,0,1","1",""
"","html-keyboard-response","290","86817","0.0-290.0","33L7PJKHCHKUCPJ5RL572IXYJ4FT8Q","AS0REDD6MMWQG","3P520RYKCHSO30HY2QJC6BDLS9Z5UE","","null","<img src=""img/flower2.png"" style=""width:200px; border:14px solid green;"">","null","","","","","","","","",""
"","image-keyboard-response","291","86912","0.0-291.0","33L7PJKHCHKUCPJ5RL572IXYJ4FT8Q","AS0REDD6MMWQG","3P520RYKCHSO30HY2QJC6BDLS9Z5UE","","93.10000002384186","img/flower6.png","76","94.10000002384186","3","1","3","2","1,0,0,1,1,0,1,0,1","1,0,0,1,1,0,1,0,1","1",""
"","html-keyboard-response","292","87213","0.0-292.0","33L7PJKHCHKUCPJ5RL572IXYJ4FT8Q","AS0REDD6MMWQG","3P520RYKCHSO30HY2QJC6BDLS9Z5UE","","null","<img src=""img/flower6.png"" style=""width:200px; border:14px solid green;"">","null","","","","","","","","",""
"","image-keyboard-response","293","87276","0.0-293.0","33L7PJKHCHKUCPJ5RL572IXYJ4FT8Q","AS0REDD6MMWQG","3P520RYKCHSO30HY2QJC6BDLS9Z5UE","","60.89999997615814","img/flower6.png","74","62.39999997615814","1","1","3","2","1,0,0,1,1,0,1,0,1","1,0,0,1,1,0,1,0,1","1",""
"","html-keyboard-response","294","87579","0.0-294.0","33L7PJKHCHKUCPJ5RL572IXYJ4FT8Q","AS0REDD6MMWQG","3P520RYKCHSO30HY2QJC6BDLS9Z5UE","","null","<img src=""img/flower6.png"" style=""width:200px; border:14px solid green;"">","null","","","","","","","","",""
"","image-keyboard-response","295","87638","0.0-295.0","33L7PJKHCHKUCPJ5RL572IXYJ4FT8Q","AS0REDD6MMWQG","3P520RYKCHSO30HY2QJC6BDLS9Z5UE","","58","img/flower6.png","76","58.800000071525574","3","1","3","2","1,0,0,1,1,0,1,0,1","1,0,0,1,1,0,1,0,1","1",""
"","html-keyboard-response","296","87941","0.0-296.0","33L7PJKHCHKUCPJ5RL572IXYJ4FT8Q","AS0REDD6MMWQG","3P520RYKCHSO30HY2QJC6BDLS9Z5UE","","null","<img src=""img/flower6.png"" style=""width:200px; border:14px solid green;"">","null","","","","","","","","",""
"","image-keyboard-response","297","87979","0.0-297.0","33L7PJKHCHKUCPJ5RL572IXYJ4FT8Q","AS0REDD6MMWQG","3P520RYKCHSO30HY2QJC6BDLS9Z5UE","","36.200000047683716","img/flower2.png","75","37.200000047683716","2","1","2","2","1,0,0,1,1,0,1,0,1","1,0,0,1,1,0,1,0,1","1",""
"","html-keyboard-response","298","88281","0.0-298.0","33L7PJKHCHKUCPJ5RL572IXYJ4FT8Q","AS0REDD6MMWQG","3P520RYKCHSO30HY2QJC6BDLS9Z5UE","","null","<img src=""img/flower2.png"" style=""width:200px; border:14px solid green;"">","null","","","","","","","","",""
"","image-keyboard-response","299","88381","0.0-299.0","33L7PJKHCHKUCPJ5RL572IXYJ4FT8Q","AS0REDD6MMWQG","3P520RYKCHSO30HY2QJC6BDLS9Z5UE","","99.30000007152557","img/flower5.png","76","100.30000007152557","3","0","1","2","1,0,0,1,1,0,1,0,1","1,0,0,1,1,0,1,0,1","1",""
"","html-keyboard-response","300","88683","0.0-300.0","33L7PJKHCHKUCPJ5RL572IXYJ4FT8Q","AS0REDD6MMWQG","3P520RYKCHSO30HY2QJC6BDLS9Z5UE","","null","<img src=""img/flower5.png"" style=""width:200px;border:14px solid red;"">","null","","","","","","","","",""
"","image-keyboard-response","301","88750","0.0-301.0","33L7PJKHCHKUCPJ5RL572IXYJ4FT8Q","AS0REDD6MMWQG","3P520RYKCHSO30HY2QJC6BDLS9Z5UE","","65.29999995231628","img/flower5.png","75","66.10000002384186","2","0","1","2","1,0,0,1,1,0,1,0,1","1,0,0,1,1,0,1,0,1","1",""
"","html-keyboard-response","302","89070","0.0-302.0","33L7PJKHCHKUCPJ5RL572IXYJ4FT8Q","AS0REDD6MMWQG","3P520RYKCHSO30HY2QJC6BDLS9Z5UE","","null","<img src=""img/flower5.png"" style=""width:200px;border:14px solid red;"">","null","","","","","","","","",""
"","image-keyboard-response","303","89111","0.0-303.0","33L7PJKHCHKUCPJ5RL572IXYJ4FT8Q","AS0REDD6MMWQG","3P520RYKCHSO30HY2QJC6BDLS9Z5UE","","40.300000071525574","img/flower6.png","76","41.200000047683716","3","1","3","2","1,0,0,1,1,0,1,0,1","1,0,0,1,1,0,1,0,1","1",""
"","html-keyboard-response","304","89414","0.0-304.0","33L7PJKHCHKUCPJ5RL572IXYJ4FT8Q","AS0REDD6MMWQG","3P520RYKCHSO30HY2QJC6BDLS9Z5UE","","null","<img src=""img/flower6.png"" style=""width:200px; border:14px solid green;"">","null","","","","","","","","",""
"","image-keyboard-response","305","89481","0.0-305.0","33L7PJKHCHKUCPJ5RL572IXYJ4FT8Q","AS0REDD6MMWQG","3P520RYKCHSO30HY2QJC6BDLS9Z5UE","","65.40000009536743","img/flower6.png","74","66.39999997615814","1","1","3","2","1,0,0,1,1,0,1,0,1","1,0,0,1,1,0,1,0,1","1",""
"","html-keyboard-response","306","89784","0.0-306.0","33L7PJKHCHKUCPJ5RL572IXYJ4FT8Q","AS0REDD6MMWQG","3P520RYKCHSO30HY2QJC6BDLS9Z5UE","","null","<img src=""img/flower6.png"" style=""width:200px; border:14px solid green;"">","null","","","","","","","","",""
"","image-keyboard-response","307","89869","0.0-307.0","33L7PJKHCHKUCPJ5RL572IXYJ4FT8Q","AS0REDD6MMWQG","3P520RYKCHSO30HY2QJC6BDLS9Z5UE","","84","img/flower6.png","76","85.10000002384186","3","1","3","2","1,0,0,1,1,0,1,0,1","1,0,0,1,1,0,1,0,1","1",""
"","html-keyboard-response","308","90172","0.0-308.0","33L7PJKHCHKUCPJ5RL572IXYJ4FT8Q","AS0REDD6MMWQG","3P520RYKCHSO30HY2QJC6BDLS9Z5UE","","null","<img src=""img/flower6.png"" style=""width:200px; border:14px solid green;"">","null","","","","","","","","",""
"","image-keyboard-response","309","90243","0.0-309.0","33L7PJKHCHKUCPJ5RL572IXYJ4FT8Q","AS0REDD6MMWQG","3P520RYKCHSO30HY2QJC6BDLS9Z5UE","","70.29999995231628","img/flower6.png","74","71.70000004768372","1","1","3","2","1,0,0,1,1,0,1,0,1","1,0,0,1,1,0,1,0,1","1",""
"","html-keyboard-response","310","90546","0.0-310.0","33L7PJKHCHKUCPJ5RL572IXYJ4FT8Q","AS0REDD6MMWQG","3P520RYKCHSO30HY2QJC6BDLS9Z5UE","","null","<img src=""img/flower6.png"" style=""width:200px; border:14px solid green;"">","null","","","","","","","","",""
"","image-keyboard-response","311","90594","0.0-311.0","33L7PJKHCHKUCPJ5RL572IXYJ4FT8Q","AS0REDD6MMWQG","3P520RYKCHSO30HY2QJC6BDLS9Z5UE","","46.5","img/flower6.png","76","47.39999997615814","3","1","3","2","1,0,0,1,1,0,1,0,1","1,0,0,1,1,0,1,0,1","1",""
"","html-keyboard-response","312","90896","0.0-312.0","33L7PJKHCHKUCPJ5RL572IXYJ4FT8Q","AS0REDD6MMWQG","3P520RYKCHSO30HY2QJC6BDLS9Z5UE","","null","<img src=""img/flower6.png"" style=""width:200px; border:14px solid green;"">","null","","","","","","","","",""
"","image-keyboard-response","313","90962","0.0-313.0","33L7PJKHCHKUCPJ5RL572IXYJ4FT8Q","AS0REDD6MMWQG","3P520RYKCHSO30HY2QJC6BDLS9Z5UE","","64.60000002384186","img/flower2.png","74","65.60000002384186","1","1","2","2","1,0,0,1,1,0,1,0,1","1,0,0,1,1,0,1,0,1","1",""
"","html-keyboard-response","314","91264","0.0-314.0","33L7PJKHCHKUCPJ5RL572IXYJ4FT8Q","AS0REDD6MMWQG","3P520RYKCHSO30HY2QJC6BDLS9Z5UE","","null","<img src=""img/flower2.png"" style=""width:200px; border:14px solid green;"">","null","","","","","","","","",""
"","image-keyboard-response","315","91318","0.0-315.0","33L7PJKHCHKUCPJ5RL572IXYJ4FT8Q","AS0REDD6MMWQG","3P520RYKCHSO30HY2QJC6BDLS9Z5UE","","51.89999997615814","img/flower2.png","75","53.200000047683716","2","1","2","2","1,0,0,1,1,0,1,0,1","1,0,0,1,1,0,1,0,1","1",""
"","html-keyboard-response","316","91620","0.0-316.0","33L7PJKHCHKUCPJ5RL572IXYJ4FT8Q","AS0REDD6MMWQG","3P520RYKCHSO30HY2QJC6BDLS9Z5UE","","null","<img src=""img/flower2.png"" style=""width:200px; border:14px solid green;"">","null","","","","","","","","",""
"","image-keyboard-response","317","91718","0.0-317.0","33L7PJKHCHKUCPJ5RL572IXYJ4FT8Q","AS0REDD6MMWQG","3P520RYKCHSO30HY2QJC6BDLS9Z5UE","","96.60000002384186","img/flower5.png","74","97.69999992847443","1","1","1","2","1,0,0,1,1,0,1,0,1","1,0,0,1,1,0,1,0,1","1",""
"","html-keyboard-response","318","92027","0.0-318.0","33L7PJKHCHKUCPJ5RL572IXYJ4FT8Q","AS0REDD6MMWQG","3P520RYKCHSO30HY2QJC6BDLS9Z5UE","","null","<img src=""img/flower5.png"" style=""width:200px; border:14px solid green;"">","null","","","","","","","","",""
"","image-keyboard-response","319","92066","0.0-319.0","33L7PJKHCHKUCPJ5RL572IXYJ4FT8Q","AS0REDD6MMWQG","3P520RYKCHSO30HY2QJC6BDLS9Z5UE","","37.299999952316284","img/flower5.png","76","39.200000047683716","3","0","1","2","1,0,0,1,1,0,1,0,1","1,0,0,1,1,0,1,0,1","1",""
"","html-keyboard-response","320","92369","0.0-320.0","33L7PJKHCHKUCPJ5RL572IXYJ4FT8Q","AS0REDD6MMWQG","3P520RYKCHSO30HY2QJC6BDLS9Z5UE","","null","<img src=""img/flower5.png"" style=""width:200px;border:14px solid red;"">","null","","","","","","","","",""
"","image-keyboard-response","321","92541","0.0-321.0","33L7PJKHCHKUCPJ5RL572IXYJ4FT8Q","AS0REDD6MMWQG","3P520RYKCHSO30HY2QJC6BDLS9Z5UE","","171.20000004768372","img/flower5.png","74","172","1","1","1","2","1,0,0,1,1,0,1,0,1","1,0,0,1,1,0,1,0,1","1",""
"","html-keyboard-response","322","92845","0.0-322.0","33L7PJKHCHKUCPJ5RL572IXYJ4FT8Q","AS0REDD6MMWQG","3P520RYKCHSO30HY2QJC6BDLS9Z5UE","","null","<img src=""img/flower5.png"" style=""width:200px; border:14px solid green;"">","null","","","","","","","","",""
"","image-keyboard-response","323","93060","0.0-323.0","33L7PJKHCHKUCPJ5RL572IXYJ4FT8Q","AS0REDD6MMWQG","3P520RYKCHSO30HY2QJC6BDLS9Z5UE","","214.80000007152557","img/flower5.png","76","215.60000002384186","3","0","1","2","1,0,0,1,1,0,1,0,1","1,0,0,1,1,0,1,0,1","1",""
"","html-keyboard-response","324","93363","0.0-324.0","33L7PJKHCHKUCPJ5RL572IXYJ4FT8Q","AS0REDD6MMWQG","3P520RYKCHSO30HY2QJC6BDLS9Z5UE","","null","<img src=""img/flower5.png"" style=""width:200px;border:14px solid red;"">","null","","","","","","","","",""
"","image-keyboard-response","325","93379","0.0-325.0","33L7PJKHCHKUCPJ5RL572IXYJ4FT8Q","AS0REDD6MMWQG","3P520RYKCHSO30HY2QJC6BDLS9Z5UE","","15.399999976158142","img/flower5.png","75","16.5","2","0","1","2","1,0,0,1,1,0,1,0,1","1,0,0,1,1,0,1,0,1","1",""
"","html-keyboard-response","326","93682","0.0-326.0","33L7PJKHCHKUCPJ5RL572IXYJ4FT8Q","AS0REDD6MMWQG","3P520RYKCHSO30HY2QJC6BDLS9Z5UE","","null","<img src=""img/flower5.png"" style=""width:200px;border:14px solid red;"">","null","","","","","","","","",""
"","image-keyboard-response","327","93788","0.0-327.0","33L7PJKHCHKUCPJ5RL572IXYJ4FT8Q","AS0REDD6MMWQG","3P520RYKCHSO30HY2QJC6BDLS9Z5UE","","104.70000004768372","img/flower2.png","74","105.69999992847443","1","1","2","2","1,0,0,1,1,0,1,0,1","1,0,0,1,1,0,1,0,1","1",""
"","html-keyboard-response","328","94090","0.0-328.0","33L7PJKHCHKUCPJ5RL572IXYJ4FT8Q","AS0REDD6MMWQG","3P520RYKCHSO30HY2QJC6BDLS9Z5UE","","null","<img src=""img/flower2.png"" style=""width:200px; border:14px solid green;"">","null","","","","","","","","",""
"","image-keyboard-response","329","94151","0.0-329.0","33L7PJKHCHKUCPJ5RL572IXYJ4FT8Q","AS0REDD6MMWQG","3P520RYKCHSO30HY2QJC6BDLS9Z5UE","","59.299999952316284","img/flower5.png","76","60.39999997615814","3","0","1","2","1,0,0,1,1,0,1,0,1","1,0,0,1,1,0,1,0,1","1",""
"","html-keyboard-response","330","94454","0.0-330.0","33L7PJKHCHKUCPJ5RL572IXYJ4FT8Q","AS0REDD6MMWQG","3P520RYKCHSO30HY2QJC6BDLS9Z5UE","","null","<img src=""img/flower5.png"" style=""width:200px;border:14px solid red;"">","null","","","","","","","","",""
"","image-keyboard-response","331","94609","0.0-331.0","33L7PJKHCHKUCPJ5RL572IXYJ4FT8Q","AS0REDD6MMWQG","3P520RYKCHSO30HY2QJC6BDLS9Z5UE","","154.10000002384186","img/flower5.png","74","155.39999997615814","1","1","1","2","1,0,0,1,1,0,1,0,1","1,0,0,1,1,0,1,0,1","1",""
"","html-keyboard-response","332","94911","0.0-332.0","33L7PJKHCHKUCPJ5RL572IXYJ4FT8Q","AS0REDD6MMWQG","3P520RYKCHSO30HY2QJC6BDLS9Z5UE","","null","<img src=""img/flower5.png"" style=""width:200px; border:14px solid green;"">","null","","","","","","","","",""
"","image-keyboard-response","333","95075","0.0-333.0","33L7PJKHCHKUCPJ5RL572IXYJ4FT8Q","AS0REDD6MMWQG","3P520RYKCHSO30HY2QJC6BDLS9Z5UE","","163.39999997615814","img/flower6.png","76","164","3","1","3","2","1,0,0,1,1,0,1,0,1","1,0,0,1,1,0,1,0,1","1",""
"","html-keyboard-response","334","95377","0.0-334.0","33L7PJKHCHKUCPJ5RL572IXYJ4FT8Q","AS0REDD6MMWQG","3P520RYKCHSO30HY2QJC6BDLS9Z5UE","","null","<img src=""img/flower6.png"" style=""width:200px; border:14px solid green;"">","null","","","","","","","","",""
"","image-keyboard-response","335","95442","0.0-335.0","33L7PJKHCHKUCPJ5RL572IXYJ4FT8Q","AS0REDD6MMWQG","3P520RYKCHSO30HY2QJC6BDLS9Z5UE","","63.700000047683716","img/flower2.png","74","64.69999992847443","1","1","2","2","1,0,0,1,1,0,1,0,1","1,0,0,1,1,0,1,0,1","1",""
"","html-keyboard-response","336","95744","0.0-336.0","33L7PJKHCHKUCPJ5RL572IXYJ4FT8Q","AS0REDD6MMWQG","3P520RYKCHSO30HY2QJC6BDLS9Z5UE","","null","<img src=""img/flower2.png"" style=""width:200px; border:14px solid green;"">","null","","","","","","","","",""
"","image-keyboard-response","337","95851","0.0-337.0","33L7PJKHCHKUCPJ5RL572IXYJ4FT8Q","AS0REDD6MMWQG","3P520RYKCHSO30HY2QJC6BDLS9Z5UE","","105.60000002384186","img/flower5.png","76","106.70000004768372","3","0","1","2","1,0,0,1,1,0,1,0,1","1,0,0,1,1,0,1,0,1","1",""
"","html-keyboard-response","338","96154","0.0-338.0","33L7PJKHCHKUCPJ5RL572IXYJ4FT8Q","AS0REDD6MMWQG","3P520RYKCHSO30HY2QJC6BDLS9Z5UE","","null","<img src=""img/flower5.png"" style=""width:200px;border:14px solid red;"">","null","","","","","","","","",""
"","image-keyboard-response","339","96325","0.0-339.0","33L7PJKHCHKUCPJ5RL572IXYJ4FT8Q","AS0REDD6MMWQG","3P520RYKCHSO30HY2QJC6BDLS9Z5UE","","170.29999995231628","img/flower5.png","74","171.19999992847443","1","1","1","2","1,0,0,1,1,0,1,0,1","1,0,0,1,1,0,1,0,1","1",""
"","html-keyboard-response","340","96627","0.0-340.0","33L7PJKHCHKUCPJ5RL572IXYJ4FT8Q","AS0REDD6MMWQG","3P520RYKCHSO30HY2QJC6BDLS9Z5UE","","null","<img src=""img/flower5.png"" style=""width:200px; border:14px solid green;"">","null","","","","","","","","",""
"","image-keyboard-response","341","96734","0.0-341.0","33L7PJKHCHKUCPJ5RL572IXYJ4FT8Q","AS0REDD6MMWQG","3P520RYKCHSO30HY2QJC6BDLS9Z5UE","","106","img/flower2.png","76","107","3","0","2","2","1,0,0,1,1,0,1,0,1","1,0,0,1,1,0,1,0,1","1",""
"","html-keyboard-response","342","97036","0.0-342.0","33L7PJKHCHKUCPJ5RL572IXYJ4FT8Q","AS0REDD6MMWQG","3P520RYKCHSO30HY2QJC6BDLS9Z5UE","","null","<img src=""img/flower2.png"" style=""width:200px;border:14px solid red;"">","null","","","","","","","","",""
"","image-keyboard-response","343","97149","0.0-343.0","33L7PJKHCHKUCPJ5RL572IXYJ4FT8Q","AS0REDD6MMWQG","3P520RYKCHSO30HY2QJC6BDLS9Z5UE","","112.5","img/flower5.png","74","113.5","1","1","1","2","1,0,0,1,1,0,1,0,1","1,0,0,1,1,0,1,0,1","1",""
"","html-keyboard-response","344","97451","0.0-344.0","33L7PJKHCHKUCPJ5RL572IXYJ4FT8Q","AS0REDD6MMWQG","3P520RYKCHSO30HY2QJC6BDLS9Z5UE","","null","<img src=""img/flower5.png"" style=""width:200px; border:14px solid green;"">","null","","","","","","","","",""
"","image-keyboard-response","345","97530","0.0-345.0","33L7PJKHCHKUCPJ5RL572IXYJ4FT8Q","AS0REDD6MMWQG","3P520RYKCHSO30HY2QJC6BDLS9Z5UE","","77.5","img/flower2.png","76","78.39999997615814","3","0","2","2","1,0,0,1,1,0,1,0,1","1,0,0,1,1,0,1,0,1","1",""
"","html-keyboard-response","346","97835","0.0-346.0","33L7PJKHCHKUCPJ5RL572IXYJ4FT8Q","AS0REDD6MMWQG","3P520RYKCHSO30HY2QJC6BDLS9Z5UE","","null","<img src=""img/flower2.png"" style=""width:200px;border:14px solid red;"">","null","","","","","","","","",""
"","image-keyboard-response","347","97909","0.0-347.0","33L7PJKHCHKUCPJ5RL572IXYJ4FT8Q","AS0REDD6MMWQG","3P520RYKCHSO30HY2QJC6BDLS9Z5UE","","73","img/flower5.png","74","74.39999997615814","1","1","1","2","1,0,0,1,1,0,1,0,1","1,0,0,1,1,0,1,0,1","1",""
"","html-keyboard-response","348","98212","0.0-348.0","33L7PJKHCHKUCPJ5RL572IXYJ4FT8Q","AS0REDD6MMWQG","3P520RYKCHSO30HY2QJC6BDLS9Z5UE","","null","<img src=""img/flower5.png"" style=""width:200px; border:14px solid green;"">","null","","","","","","","","",""
"","image-keyboard-response","349","98250","0.0-349.0","33L7PJKHCHKUCPJ5RL572IXYJ4FT8Q","AS0REDD6MMWQG","3P520RYKCHSO30HY2QJC6BDLS9Z5UE","","36.5","img/flower6.png","76","37.300000071525574","3","1","3","2","1,0,0,1,1,0,1,0,1","1,0,0,1,1,0,1,0,1","1",""
"","html-keyboard-response","350","98552","0.0-350.0","33L7PJKHCHKUCPJ5RL572IXYJ4FT8Q","AS0REDD6MMWQG","3P520RYKCHSO30HY2QJC6BDLS9Z5UE","","null","<img src=""img/flower6.png"" style=""width:200px; border:14px solid green;"">","null","","","","","","","","",""
"","image-keyboard-response","351","98650","0.0-351.0","33L7PJKHCHKUCPJ5RL572IXYJ4FT8Q","AS0REDD6MMWQG","3P520RYKCHSO30HY2QJC6BDLS9Z5UE","","96.10000002384186","img/flower2.png","74","97.10000002384186","1","1","2","2","1,0,0,1,1,0,1,0,1","1,0,0,1,1,0,1,0,1","1",""
"","html-keyboard-response","352","98952","0.0-352.0","33L7PJKHCHKUCPJ5RL572IXYJ4FT8Q","AS0REDD6MMWQG","3P520RYKCHSO30HY2QJC6BDLS9Z5UE","","null","<img src=""img/flower2.png"" style=""width:200px; border:14px solid green;"">","null","","","","","","","","",""
"","image-keyboard-response","353","99044","0.0-353.0","33L7PJKHCHKUCPJ5RL572IXYJ4FT8Q","AS0REDD6MMWQG","3P520RYKCHSO30HY2QJC6BDLS9Z5UE","","91.10000002384186","img/flower2.png","76","92.10000002384186","3","0","2","2","1,0,0,1,1,0,1,0,1","1,0,0,1,1,0,1,0,1","1",""
"","html-keyboard-response","354","99347","0.0-354.0","33L7PJKHCHKUCPJ5RL572IXYJ4FT8Q","AS0REDD6MMWQG","3P520RYKCHSO30HY2QJC6BDLS9Z5UE","","null","<img src=""img/flower2.png"" style=""width:200px;border:14px solid red;"">","null","","","","","","","","",""
"","image-keyboard-response","355","99440","0.0-355.0","33L7PJKHCHKUCPJ5RL572IXYJ4FT8Q","AS0REDD6MMWQG","3P520RYKCHSO30HY2QJC6BDLS9Z5UE","","91.59999990463257","img/flower5.png","74","93.20000004768372","1","1","1","2","1,0,0,1,1,0,1,0,1","1,0,0,1,1,0,1,0,1","1",""
"","html-keyboard-response","356","99776","0.0-356.0","33L7PJKHCHKUCPJ5RL572IXYJ4FT8Q","AS0REDD6MMWQG","3P520RYKCHSO30HY2QJC6BDLS9Z5UE","","null","<img src=""img/flower5.png"" style=""width:200px; border:14px solid green;"">","null","","","","","","","","",""
"","image-keyboard-response","357","99796","0.0-357.0","33L7PJKHCHKUCPJ5RL572IXYJ4FT8Q","AS0REDD6MMWQG","3P520RYKCHSO30HY2QJC6BDLS9Z5UE","","18.5","img/flower2.png","75","19.799999952316284","2","1","2","2","1,0,0,1,1,0,1,0,1","1,0,0,1,1,0,1,0,1","1",""
"","html-keyboard-response","358","100098","0.0-358.0","33L7PJKHCHKUCPJ5RL572IXYJ4FT8Q","AS0REDD6MMWQG","3P520RYKCHSO30HY2QJC6BDLS9Z5UE","","null","<img src=""img/flower2.png"" style=""width:200px; border:14px solid green;"">","null","","","","","","","","",""
"","image-keyboard-response","359","100130","0.0-359.0","33L7PJKHCHKUCPJ5RL572IXYJ4FT8Q","AS0REDD6MMWQG","3P520RYKCHSO30HY2QJC6BDLS9Z5UE","","31.200000047683716","img/flower6.png","74","32.199999928474426","1","1","3","2","1,0,0,1,1,0,1,0,1","1,0,0,1,1,0,1,0,1","1",""
"","html-keyboard-response","360","100433","0.0-360.0","33L7PJKHCHKUCPJ5RL572IXYJ4FT8Q","AS0REDD6MMWQG","3P520RYKCHSO30HY2QJC6BDLS9Z5UE","","null","<img src=""img/flower6.png"" style=""width:200px; border:14px solid green;"">","null","","","","","","","","",""
"","image-keyboard-response","361","100442","0.0-361.0","33L7PJKHCHKUCPJ5RL572IXYJ4FT8Q","AS0REDD6MMWQG","3P520RYKCHSO30HY2QJC6BDLS9Z5UE","","7.600000023841858","img/flower5.png","76","8.699999928474426","3","0","1","2","1,0,0,1,1,0,1,0,1","1,0,0,1,1,0,1,0,1","1",""
"","html-keyboard-response","362","100745","0.0-362.0","33L7PJKHCHKUCPJ5RL572IXYJ4FT8Q","AS0REDD6MMWQG","3P520RYKCHSO30HY2QJC6BDLS9Z5UE","","null","<img src=""img/flower5.png"" style=""width:200px;border:14px solid red;"">","null","","","","","","","","",""
"","instructions","363","106194","0.0-363.0","33L7PJKHCHKUCPJ5RL572IXYJ4FT8Q","AS0REDD6MMWQG","3P520RYKCHSO30HY2QJC6BDLS9Z5UE","[{""page_index"":0,""viewing_time"":5448.5}]","5449.100000023842","","","","","","","","","","",""
"","survey-text","364","112829","0.0-364.0","33L7PJKHCHKUCPJ5RL572IXYJ4FT8Q","AS0REDD6MMWQG","3P520RYKCHSO30HY2QJC6BDLS9Z5UE","","6628.200000047684","","","","","","","","","","","{""Q0"":""AS0REDD6MMWQG""}"
