"success","trial_type","trial_index","time_elapsed","internal_node_id","assignmentID","mturkID","hitID","view_history","rt","stimulus","key_press","reactionTime","a","r","s","cond","reward_cond","reward_cond_actual","reward_matrix_idx","responses"
"true","fullscreen","0","3856","0.0-0.0","39KFRKBFIOHTE35F88H27LFDDBEYO0","AS2MFSWNC5CQI","30UZJB2POHY4464FN6NBJ2NLFWF354","","","","","","","","","","","","",""
"","instructions","1","11248","0.0-1.0","39KFRKBFIOHTE35F88H27LFDDBEYO0","AS2MFSWNC5CQI","30UZJB2POHY4464FN6NBJ2NLFWF354","[{""page_index"":0,""viewing_time"":1352.1000001430511},{""page_index"":1,""viewing_time"":803.7999999523163},{""page_index"":2,""viewing_time"":330},{""page_index"":3,""viewing_time"":214.5},{""page_index"":4,""viewing_time"":1963.7999999523163},{""page_index"":5,""viewing_time"":1259.7000000476837},{""page_index"":6,""viewing_time"":743.7999999523163},{""page_index"":7,""viewing_time"":720.2000000476837}]","7388.100000143051","","","","","","","","","","",""
"","image-keyboard-response","2","12746","0.0-2.0","39KFRKBFIOHTE35F88H27LFDDBEYO0","AS2MFSWNC5CQI","30UZJB2POHY4464FN6NBJ2NLFWF354","","1496.5","img/flower6.png","75","1497.5999999046326","2","0","1","2","1,0,0,1,1,0,1,0,1","0,0,1,1,0,1,0,1,1","2",""
"","html-keyboard-response","3","13062","0.0-3.0","39KFRKBFIOHTE35F88H27LFDDBEYO0","AS2MFSWNC5CQI","30UZJB2POHY4464FN6NBJ2NLFWF354","","null","<img src=""img/flower6.png"" style=""width:200px;border:14px solid red;"">","null","","","","","","","","",""
"","image-keyboard-response","4","13659","0.0-4.0","39KFRKBFIOHTE35F88H27LFDDBEYO0","AS2MFSWNC5CQI","30UZJB2POHY4464FN6NBJ2NLFWF354","","594.9000000953674","img/flower3.png","76","596.5999999046326","3","1","2","2","1,0,0,1,1,0,1,0,1","0,0,1,1,0,1,0,1,1","2",""
"","html-keyboard-response","5","13966","0.0-5.0","39KFRKBFIOHTE35F88H27LFDDBEYO0","AS2MFSWNC5CQI","30UZJB2POHY4464FN6NBJ2NLFWF354","","null","<img src=""img/flower3.png"" style=""width:200px; border:14px solid green;"">","null","","","","","","","","",""
"","image-keyboard-response","6","14714","0.0-6.0","39KFRKBFIOHTE35F88H27LFDDBEYO0","AS2MFSWNC5CQI","30UZJB2POHY4464FN6NBJ2NLFWF354","","745.7000000476837","img/flower3.png","76","747.4000000953674","3","1","2","2","1,0,0,1,1,0,1,0,1","0,0,1,1,0,1,0,1,1","2",""
"","html-keyboard-response","7","15020","0.0-7.0","39KFRKBFIOHTE35F88H27LFDDBEYO0","AS2MFSWNC5CQI","30UZJB2POHY4464FN6NBJ2NLFWF354","","null","<img src=""img/flower3.png"" style=""width:200px; border:14px solid green;"">","null","","","","","","","","",""
"","image-keyboard-response","8","16338","0.0-8.0","39KFRKBFIOHTE35F88H27LFDDBEYO0","AS2MFSWNC5CQI","30UZJB2POHY4464FN6NBJ2NLFWF354","","1316.7000000476837","img/flower6.png","75","1318.4000000953674","2","0","1","2","1,0,0,1,1,0,1,0,1","0,0,1,1,0,1,0,1,1","2",""
"","html-keyboard-response","9","16652","0.0-9.0","39KFRKBFIOHTE35F88H27LFDDBEYO0","AS2MFSWNC5CQI","30UZJB2POHY4464FN6NBJ2NLFWF354","","null","<img src=""img/flower6.png"" style=""width:200px;border:14px solid red;"">","null","","","","","","","","",""
"","image-keyboard-response","10","17427","0.0-10.0","39KFRKBFIOHTE35F88H27LFDDBEYO0","AS2MFSWNC5CQI","30UZJB2POHY4464FN6NBJ2NLFWF354","","773.1999998092651","img/flower6.png","76","774.7000000476837","3","1","1","2","1,0,0,1,1,0,1,0,1","0,0,1,1,0,1,0,1,1","2",""
"","html-keyboard-response","11","17737","0.0-11.0","39KFRKBFIOHTE35F88H27LFDDBEYO0","AS2MFSWNC5CQI","30UZJB2POHY4464FN6NBJ2NLFWF354","","null","<img src=""img/flower6.png"" style=""width:200px; border:14px solid green;"">","null","","","","","","","","",""
"","image-keyboard-response","12","19057","0.0-12.0","39KFRKBFIOHTE35F88H27LFDDBEYO0","AS2MFSWNC5CQI","30UZJB2POHY4464FN6NBJ2NLFWF354","","1318","img/flower3.png","76","1319.2000000476837","3","1","2","2","1,0,0,1,1,0,1,0,1","0,0,1,1,0,1,0,1,1","2",""
"","html-keyboard-response","13","19359","0.0-13.0","39KFRKBFIOHTE35F88H27LFDDBEYO0","AS2MFSWNC5CQI","30UZJB2POHY4464FN6NBJ2NLFWF354","","null","<img src=""img/flower3.png"" style=""width:200px; border:14px solid green;"">","null","","","","","","","","",""
"","image-keyboard-response","14","19810","0.0-14.0","39KFRKBFIOHTE35F88H27LFDDBEYO0","AS2MFSWNC5CQI","30UZJB2POHY4464FN6NBJ2NLFWF354","","450.59999990463257","img/flower3.png","76","451.40000009536743","3","1","2","2","1,0,0,1,1,0,1,0,1","0,0,1,1,0,1,0,1,1","2",""
"","html-keyboard-response","15","20121","0.0-15.0","39KFRKBFIOHTE35F88H27LFDDBEYO0","AS2MFSWNC5CQI","30UZJB2POHY4464FN6NBJ2NLFWF354","","null","<img src=""img/flower3.png"" style=""width:200px; border:14px solid green;"">","null","","","","","","","","",""
"","image-keyboard-response","16","20819","0.0-16.0","39KFRKBFIOHTE35F88H27LFDDBEYO0","AS2MFSWNC5CQI","30UZJB2POHY4464FN6NBJ2NLFWF354","","698.0999999046326","img/flower6.png","76","698.6000001430511","3","1","1","2","1,0,0,1,1,0,1,0,1","0,0,1,1,0,1,0,1,1","2",""
"","html-keyboard-response","17","21127","0.0-17.0","39KFRKBFIOHTE35F88H27LFDDBEYO0","AS2MFSWNC5CQI","30UZJB2POHY4464FN6NBJ2NLFWF354","","null","<img src=""img/flower6.png"" style=""width:200px; border:14px solid green;"">","null","","","","","","","","",""
"","image-keyboard-response","18","21625","0.0-18.0","39KFRKBFIOHTE35F88H27LFDDBEYO0","AS2MFSWNC5CQI","30UZJB2POHY4464FN6NBJ2NLFWF354","","496.2999999523163","img/flower6.png","76","497.59999990463257","3","1","1","2","1,0,0,1,1,0,1,0,1","0,0,1,1,0,1,0,1,1","2",""
"","html-keyboard-response","19","21933","0.0-19.0","39KFRKBFIOHTE35F88H27LFDDBEYO0","AS2MFSWNC5CQI","30UZJB2POHY4464FN6NBJ2NLFWF354","","null","<img src=""img/flower6.png"" style=""width:200px; border:14px solid green;"">","null","","","","","","","","",""
"","image-keyboard-response","20","22498","0.0-20.0","39KFRKBFIOHTE35F88H27LFDDBEYO0","AS2MFSWNC5CQI","30UZJB2POHY4464FN6NBJ2NLFWF354","","562.5","img/flower3.png","76","564","3","1","2","2","1,0,0,1,1,0,1,0,1","0,0,1,1,0,1,0,1,1","2",""
"","html-keyboard-response","21","22803","0.0-21.0","39KFRKBFIOHTE35F88H27LFDDBEYO0","AS2MFSWNC5CQI","30UZJB2POHY4464FN6NBJ2NLFWF354","","null","<img src=""img/flower3.png"" style=""width:200px; border:14px solid green;"">","null","","","","","","","","",""
"","image-keyboard-response","22","23219","0.0-22.0","39KFRKBFIOHTE35F88H27LFDDBEYO0","AS2MFSWNC5CQI","30UZJB2POHY4464FN6NBJ2NLFWF354","","413.90000009536743","img/flower6.png","76","415.39999985694885","3","1","1","2","1,0,0,1,1,0,1,0,1","0,0,1,1,0,1,0,1,1","2",""
"","html-keyboard-response","23","23534","0.0-23.0","39KFRKBFIOHTE35F88H27LFDDBEYO0","AS2MFSWNC5CQI","30UZJB2POHY4464FN6NBJ2NLFWF354","","null","<img src=""img/flower6.png"" style=""width:200px; border:14px solid green;"">","null","","","","","","","","",""
"","image-keyboard-response","24","23883","0.0-24.0","39KFRKBFIOHTE35F88H27LFDDBEYO0","AS2MFSWNC5CQI","30UZJB2POHY4464FN6NBJ2NLFWF354","","346.60000014305115","img/flower3.png","76","348.2000000476837","3","1","2","2","1,0,0,1,1,0,1,0,1","0,0,1,1,0,1,0,1,1","2",""
"","html-keyboard-response","25","24184","0.0-25.0","39KFRKBFIOHTE35F88H27LFDDBEYO0","AS2MFSWNC5CQI","30UZJB2POHY4464FN6NBJ2NLFWF354","","null","<img src=""img/flower3.png"" style=""width:200px; border:14px solid green;"">","null","","","","","","","","",""
"","image-keyboard-response","26","24473","0.0-26.0","39KFRKBFIOHTE35F88H27LFDDBEYO0","AS2MFSWNC5CQI","30UZJB2POHY4464FN6NBJ2NLFWF354","","288","img/flower3.png","76","288.59999990463257","3","1","2","2","1,0,0,1,1,0,1,0,1","0,0,1,1,0,1,0,1,1","2",""
"","html-keyboard-response","27","24775","0.0-27.0","39KFRKBFIOHTE35F88H27LFDDBEYO0","AS2MFSWNC5CQI","30UZJB2POHY4464FN6NBJ2NLFWF354","","null","<img src=""img/flower3.png"" style=""width:200px; border:14px solid green;"">","null","","","","","","","","",""
"","image-keyboard-response","28","24962","0.0-28.0","39KFRKBFIOHTE35F88H27LFDDBEYO0","AS2MFSWNC5CQI","30UZJB2POHY4464FN6NBJ2NLFWF354","","185.29999995231628","img/flower6.png","76","186.5","3","1","1","2","1,0,0,1,1,0,1,0,1","0,0,1,1,0,1,0,1,1","2",""
"","html-keyboard-response","29","25276","0.0-29.0","39KFRKBFIOHTE35F88H27LFDDBEYO0","AS2MFSWNC5CQI","30UZJB2POHY4464FN6NBJ2NLFWF354","","null","<img src=""img/flower6.png"" style=""width:200px; border:14px solid green;"">","null","","","","","","","","",""
"","image-keyboard-response","30","25579","0.0-30.0","39KFRKBFIOHTE35F88H27LFDDBEYO0","AS2MFSWNC5CQI","30UZJB2POHY4464FN6NBJ2NLFWF354","","302.5","img/flower6.png","76","303.30000019073486","3","1","1","2","1,0,0,1,1,0,1,0,1","0,0,1,1,0,1,0,1,1","2",""
"","html-keyboard-response","31","25882","0.0-31.0","39KFRKBFIOHTE35F88H27LFDDBEYO0","AS2MFSWNC5CQI","30UZJB2POHY4464FN6NBJ2NLFWF354","","null","<img src=""img/flower6.png"" style=""width:200px; border:14px solid green;"">","null","","","","","","","","",""
"","image-keyboard-response","32","26057","0.0-32.0","39KFRKBFIOHTE35F88H27LFDDBEYO0","AS2MFSWNC5CQI","30UZJB2POHY4464FN6NBJ2NLFWF354","","173.40000009536743","img/flower3.png","76","174.09999990463257","3","1","2","2","1,0,0,1,1,0,1,0,1","0,0,1,1,0,1,0,1,1","2",""
"","html-keyboard-response","33","26366","0.0-33.0","39KFRKBFIOHTE35F88H27LFDDBEYO0","AS2MFSWNC5CQI","30UZJB2POHY4464FN6NBJ2NLFWF354","","null","<img src=""img/flower3.png"" style=""width:200px; border:14px solid green;"">","null","","","","","","","","",""
"","image-keyboard-response","34","26778","0.0-34.0","39KFRKBFIOHTE35F88H27LFDDBEYO0","AS2MFSWNC5CQI","30UZJB2POHY4464FN6NBJ2NLFWF354","","410.40000009536743","img/flower6.png","76","411.69999980926514","3","1","1","2","1,0,0,1,1,0,1,0,1","0,0,1,1,0,1,0,1,1","2",""
"","html-keyboard-response","35","27094","0.0-35.0","39KFRKBFIOHTE35F88H27LFDDBEYO0","AS2MFSWNC5CQI","30UZJB2POHY4464FN6NBJ2NLFWF354","","null","<img src=""img/flower6.png"" style=""width:200px; border:14px solid green;"">","null","","","","","","","","",""
"","image-keyboard-response","36","27523","0.0-36.0","39KFRKBFIOHTE35F88H27LFDDBEYO0","AS2MFSWNC5CQI","30UZJB2POHY4464FN6NBJ2NLFWF354","","427.5","img/flower3.png","76","428.90000009536743","3","1","2","2","1,0,0,1,1,0,1,0,1","0,0,1,1,0,1,0,1,1","2",""
"","html-keyboard-response","37","27837","0.0-37.0","39KFRKBFIOHTE35F88H27LFDDBEYO0","AS2MFSWNC5CQI","30UZJB2POHY4464FN6NBJ2NLFWF354","","null","<img src=""img/flower3.png"" style=""width:200px; border:14px solid green;"">","null","","","","","","","","",""
"","image-keyboard-response","38","28105","0.0-38.0","39KFRKBFIOHTE35F88H27LFDDBEYO0","AS2MFSWNC5CQI","30UZJB2POHY4464FN6NBJ2NLFWF354","","265.90000009536743","img/flower3.png","76","267","3","1","2","2","1,0,0,1,1,0,1,0,1","0,0,1,1,0,1,0,1,1","2",""
"","html-keyboard-response","39","28412","0.0-39.0","39KFRKBFIOHTE35F88H27LFDDBEYO0","AS2MFSWNC5CQI","30UZJB2POHY4464FN6NBJ2NLFWF354","","null","<img src=""img/flower3.png"" style=""width:200px; border:14px solid green;"">","null","","","","","","","","",""
"","image-keyboard-response","40","28497","0.0-40.0","39KFRKBFIOHTE35F88H27LFDDBEYO0","AS2MFSWNC5CQI","30UZJB2POHY4464FN6NBJ2NLFWF354","","83.69999980926514","img/flower4.png","76","84.89999985694885","3","1","3","2","1,0,0,1,1,0,1,0,1","0,0,1,1,0,1,0,1,1","2",""
"","html-keyboard-response","41","28802","0.0-41.0","39KFRKBFIOHTE35F88H27LFDDBEYO0","AS2MFSWNC5CQI","30UZJB2POHY4464FN6NBJ2NLFWF354","","null","<img src=""img/flower4.png"" style=""width:200px; border:14px solid green;"">","null","","","","","","","","",""
"","image-keyboard-response","42","29122","0.0-42.0","39KFRKBFIOHTE35F88H27LFDDBEYO0","AS2MFSWNC5CQI","30UZJB2POHY4464FN6NBJ2NLFWF354","","318.7000000476837","img/flower4.png","76","320.10000014305115","3","1","3","2","1,0,0,1,1,0,1,0,1","0,0,1,1,0,1,0,1,1","2",""
"","html-keyboard-response","43","29425","0.0-43.0","39KFRKBFIOHTE35F88H27LFDDBEYO0","AS2MFSWNC5CQI","30UZJB2POHY4464FN6NBJ2NLFWF354","","null","<img src=""img/flower4.png"" style=""width:200px; border:14px solid green;"">","null","","","","","","","","",""
"","image-keyboard-response","44","29513","0.0-44.0","39KFRKBFIOHTE35F88H27LFDDBEYO0","AS2MFSWNC5CQI","30UZJB2POHY4464FN6NBJ2NLFWF354","","87.09999990463257","img/flower4.png","76","88.40000009536743","3","1","3","2","1,0,0,1,1,0,1,0,1","0,0,1,1,0,1,0,1,1","2",""
"","html-keyboard-response","45","29816","0.0-45.0","39KFRKBFIOHTE35F88H27LFDDBEYO0","AS2MFSWNC5CQI","30UZJB2POHY4464FN6NBJ2NLFWF354","","null","<img src=""img/flower4.png"" style=""width:200px; border:14px solid green;"">","null","","","","","","","","",""
"","image-keyboard-response","46","29897","0.0-46.0","39KFRKBFIOHTE35F88H27LFDDBEYO0","AS2MFSWNC5CQI","30UZJB2POHY4464FN6NBJ2NLFWF354","","80.19999980926514","img/flower4.png","76","81.10000014305115","3","1","3","2","1,0,0,1,1,0,1,0,1","0,0,1,1,0,1,0,1,1","2",""
"","html-keyboard-response","47","30199","0.0-47.0","39KFRKBFIOHTE35F88H27LFDDBEYO0","AS2MFSWNC5CQI","30UZJB2POHY4464FN6NBJ2NLFWF354","","null","<img src=""img/flower4.png"" style=""width:200px; border:14px solid green;"">","null","","","","","","","","",""
"","image-keyboard-response","48","30497","0.0-48.0","39KFRKBFIOHTE35F88H27LFDDBEYO0","AS2MFSWNC5CQI","30UZJB2POHY4464FN6NBJ2NLFWF354","","296.59999990463257","img/flower6.png","76","297.7000000476837","3","1","1","2","1,0,0,1,1,0,1,0,1","0,0,1,1,0,1,0,1,1","2",""
"","html-keyboard-response","49","30798","0.0-49.0","39KFRKBFIOHTE35F88H27LFDDBEYO0","AS2MFSWNC5CQI","30UZJB2POHY4464FN6NBJ2NLFWF354","","null","<img src=""img/flower6.png"" style=""width:200px; border:14px solid green;"">","null","","","","","","","","",""
"","image-keyboard-response","50","30890","0.0-50.0","39KFRKBFIOHTE35F88H27LFDDBEYO0","AS2MFSWNC5CQI","30UZJB2POHY4464FN6NBJ2NLFWF354","","91.5","img/flower6.png","76","91.89999985694885","3","1","1","2","1,0,0,1,1,0,1,0,1","0,0,1,1,0,1,0,1,1","2",""
"","html-keyboard-response","51","31192","0.0-51.0","39KFRKBFIOHTE35F88H27LFDDBEYO0","AS2MFSWNC5CQI","30UZJB2POHY4464FN6NBJ2NLFWF354","","null","<img src=""img/flower6.png"" style=""width:200px; border:14px solid green;"">","null","","","","","","","","",""
"","image-keyboard-response","52","31338","0.0-52.0","39KFRKBFIOHTE35F88H27LFDDBEYO0","AS2MFSWNC5CQI","30UZJB2POHY4464FN6NBJ2NLFWF354","","145.29999995231628","img/flower3.png","76","146.10000014305115","3","1","2","2","1,0,0,1,1,0,1,0,1","0,0,1,1,0,1,0,1,1","2",""
"","html-keyboard-response","53","31640","0.0-53.0","39KFRKBFIOHTE35F88H27LFDDBEYO0","AS2MFSWNC5CQI","30UZJB2POHY4464FN6NBJ2NLFWF354","","null","<img src=""img/flower3.png"" style=""width:200px; border:14px solid green;"">","null","","","","","","","","",""
"","image-keyboard-response","54","31698","0.0-54.0","39KFRKBFIOHTE35F88H27LFDDBEYO0","AS2MFSWNC5CQI","30UZJB2POHY4464FN6NBJ2NLFWF354","","56.799999952316284","img/flower6.png","76","58","3","1","1","2","1,0,0,1,1,0,1,0,1","0,0,1,1,0,1,0,1,1","2",""
"","html-keyboard-response","55","32001","0.0-55.0","39KFRKBFIOHTE35F88H27LFDDBEYO0","AS2MFSWNC5CQI","30UZJB2POHY4464FN6NBJ2NLFWF354","","null","<img src=""img/flower6.png"" style=""width:200px; border:14px solid green;"">","null","","","","","","","","",""
"","image-keyboard-response","56","32130","0.0-56.0","39KFRKBFIOHTE35F88H27LFDDBEYO0","AS2MFSWNC5CQI","30UZJB2POHY4464FN6NBJ2NLFWF354","","127.59999990463257","img/flower4.png","76","129","3","1","3","2","1,0,0,1,1,0,1,0,1","0,0,1,1,0,1,0,1,1","2",""
"","html-keyboard-response","57","32433","0.0-57.0","39KFRKBFIOHTE35F88H27LFDDBEYO0","AS2MFSWNC5CQI","30UZJB2POHY4464FN6NBJ2NLFWF354","","null","<img src=""img/flower4.png"" style=""width:200px; border:14px solid green;"">","null","","","","","","","","",""
"","image-keyboard-response","58","32456","0.0-58.0","39KFRKBFIOHTE35F88H27LFDDBEYO0","AS2MFSWNC5CQI","30UZJB2POHY4464FN6NBJ2NLFWF354","","23.300000190734863","img/flower4.png","76","23.799999952316284","3","1","3","2","1,0,0,1,1,0,1,0,1","0,0,1,1,0,1,0,1,1","2",""
"","html-keyboard-response","59","32758","0.0-59.0","39KFRKBFIOHTE35F88H27LFDDBEYO0","AS2MFSWNC5CQI","30UZJB2POHY4464FN6NBJ2NLFWF354","","null","<img src=""img/flower4.png"" style=""width:200px; border:14px solid green;"">","null","","","","","","","","",""
"","image-keyboard-response","60","32946","0.0-60.0","39KFRKBFIOHTE35F88H27LFDDBEYO0","AS2MFSWNC5CQI","30UZJB2POHY4464FN6NBJ2NLFWF354","","186.5","img/flower3.png","76","187.89999985694885","3","1","2","2","1,0,0,1,1,0,1,0,1","0,0,1,1,0,1,0,1,1","2",""
"","html-keyboard-response","61","33249","0.0-61.0","39KFRKBFIOHTE35F88H27LFDDBEYO0","AS2MFSWNC5CQI","30UZJB2POHY4464FN6NBJ2NLFWF354","","null","<img src=""img/flower3.png"" style=""width:200px; border:14px solid green;"">","null","","","","","","","","",""
"","image-keyboard-response","62","33410","0.0-62.0","39KFRKBFIOHTE35F88H27LFDDBEYO0","AS2MFSWNC5CQI","30UZJB2POHY4464FN6NBJ2NLFWF354","","159.79999995231628","img/flower6.png","76","161.19999980926514","3","1","1","2","1,0,0,1,1,0,1,0,1","0,0,1,1,0,1,0,1,1","2",""
"","html-keyboard-response","63","33712","0.0-63.0","39KFRKBFIOHTE35F88H27LFDDBEYO0","AS2MFSWNC5CQI","30UZJB2POHY4464FN6NBJ2NLFWF354","","null","<img src=""img/flower6.png"" style=""width:200px; border:14px solid green;"">","null","","","","","","","","",""
"","image-keyboard-response","64","33873","0.0-64.0","39KFRKBFIOHTE35F88H27LFDDBEYO0","AS2MFSWNC5CQI","30UZJB2POHY4464FN6NBJ2NLFWF354","","159.39999985694885","img/flower4.png","76","160.5","3","1","3","2","1,0,0,1,1,0,1,0,1","0,0,1,1,0,1,0,1,1","2",""
"","html-keyboard-response","65","34174","0.0-65.0","39KFRKBFIOHTE35F88H27LFDDBEYO0","AS2MFSWNC5CQI","30UZJB2POHY4464FN6NBJ2NLFWF354","","null","<img src=""img/flower4.png"" style=""width:200px; border:14px solid green;"">","null","","","","","","","","",""
"","image-keyboard-response","66","34339","0.0-66.0","39KFRKBFIOHTE35F88H27LFDDBEYO0","AS2MFSWNC5CQI","30UZJB2POHY4464FN6NBJ2NLFWF354","","164.40000009536743","img/flower3.png","76","165.09999990463257","3","1","2","2","1,0,0,1,1,0,1,0,1","0,0,1,1,0,1,0,1,1","2",""
"","html-keyboard-response","67","34641","0.0-67.0","39KFRKBFIOHTE35F88H27LFDDBEYO0","AS2MFSWNC5CQI","30UZJB2POHY4464FN6NBJ2NLFWF354","","null","<img src=""img/flower3.png"" style=""width:200px; border:14px solid green;"">","null","","","","","","","","",""
"","image-keyboard-response","68","34730","0.0-68.0","39KFRKBFIOHTE35F88H27LFDDBEYO0","AS2MFSWNC5CQI","30UZJB2POHY4464FN6NBJ2NLFWF354","","87.70000004768372","img/flower4.png","76","89.10000014305115","3","1","3","2","1,0,0,1,1,0,1,0,1","0,0,1,1,0,1,0,1,1","2",""
"","html-keyboard-response","69","35033","0.0-69.0","39KFRKBFIOHTE35F88H27LFDDBEYO0","AS2MFSWNC5CQI","30UZJB2POHY4464FN6NBJ2NLFWF354","","null","<img src=""img/flower4.png"" style=""width:200px; border:14px solid green;"">","null","","","","","","","","",""
"","image-keyboard-response","70","35090","0.0-70.0","39KFRKBFIOHTE35F88H27LFDDBEYO0","AS2MFSWNC5CQI","30UZJB2POHY4464FN6NBJ2NLFWF354","","55.700000047683716","img/flower4.png","76","57.09999990463257","3","1","3","2","1,0,0,1,1,0,1,0,1","0,0,1,1,0,1,0,1,1","2",""
"","html-keyboard-response","71","35393","0.0-71.0","39KFRKBFIOHTE35F88H27LFDDBEYO0","AS2MFSWNC5CQI","30UZJB2POHY4464FN6NBJ2NLFWF354","","null","<img src=""img/flower4.png"" style=""width:200px; border:14px solid green;"">","null","","","","","","","","",""
"","image-keyboard-response","72","35497","0.0-72.0","39KFRKBFIOHTE35F88H27LFDDBEYO0","AS2MFSWNC5CQI","30UZJB2POHY4464FN6NBJ2NLFWF354","","102.09999990463257","img/flower6.png","76","103.29999995231628","3","1","1","2","1,0,0,1,1,0,1,0,1","0,0,1,1,0,1,0,1,1","2",""
"","html-keyboard-response","73","35807","0.0-73.0","39KFRKBFIOHTE35F88H27LFDDBEYO0","AS2MFSWNC5CQI","30UZJB2POHY4464FN6NBJ2NLFWF354","","null","<img src=""img/flower6.png"" style=""width:200px; border:14px solid green;"">","null","","","","","","","","",""
"","image-keyboard-response","74","35881","0.0-74.0","39KFRKBFIOHTE35F88H27LFDDBEYO0","AS2MFSWNC5CQI","30UZJB2POHY4464FN6NBJ2NLFWF354","","72.20000004768372","img/flower4.png","76","73.09999990463257","3","1","3","2","1,0,0,1,1,0,1,0,1","0,0,1,1,0,1,0,1,1","2",""
"","html-keyboard-response","75","36182","0.0-75.0","39KFRKBFIOHTE35F88H27LFDDBEYO0","AS2MFSWNC5CQI","30UZJB2POHY4464FN6NBJ2NLFWF354","","null","<img src=""img/flower4.png"" style=""width:200px; border:14px solid green;"">","null","","","","","","","","",""
"","image-keyboard-response","76","36258","0.0-76.0","39KFRKBFIOHTE35F88H27LFDDBEYO0","AS2MFSWNC5CQI","30UZJB2POHY4464FN6NBJ2NLFWF354","","74.39999985694885","img/flower3.png","76","75.79999995231628","3","1","2","2","1,0,0,1,1,0,1,0,1","0,0,1,1,0,1,0,1,1","2",""
"","html-keyboard-response","77","36560","0.0-77.0","39KFRKBFIOHTE35F88H27LFDDBEYO0","AS2MFSWNC5CQI","30UZJB2POHY4464FN6NBJ2NLFWF354","","null","<img src=""img/flower3.png"" style=""width:200px; border:14px solid green;"">","null","","","","","","","","",""
"","image-keyboard-response","78","36659","0.0-78.0","39KFRKBFIOHTE35F88H27LFDDBEYO0","AS2MFSWNC5CQI","30UZJB2POHY4464FN6NBJ2NLFWF354","","97.40000009536743","img/flower3.png","76","98.80000019073486","3","1","2","2","1,0,0,1,1,0,1,0,1","0,0,1,1,0,1,0,1,1","2",""
"","html-keyboard-response","79","36961","0.0-79.0","39KFRKBFIOHTE35F88H27LFDDBEYO0","AS2MFSWNC5CQI","30UZJB2POHY4464FN6NBJ2NLFWF354","","null","<img src=""img/flower3.png"" style=""width:200px; border:14px solid green;"">","null","","","","","","","","",""
"","image-keyboard-response","80","37066","0.0-80.0","39KFRKBFIOHTE35F88H27LFDDBEYO0","AS2MFSWNC5CQI","30UZJB2POHY4464FN6NBJ2NLFWF354","","103","img/flower4.png","76","104.29999995231628","3","1","3","2","1,0,0,1,1,0,1,0,1","0,0,1,1,0,1,0,1,1","2",""
"","html-keyboard-response","81","37368","0.0-81.0","39KFRKBFIOHTE35F88H27LFDDBEYO0","AS2MFSWNC5CQI","30UZJB2POHY4464FN6NBJ2NLFWF354","","null","<img src=""img/flower4.png"" style=""width:200px; border:14px solid green;"">","null","","","","","","","","",""
"","image-keyboard-response","82","37449","0.0-82.0","39KFRKBFIOHTE35F88H27LFDDBEYO0","AS2MFSWNC5CQI","30UZJB2POHY4464FN6NBJ2NLFWF354","","79.59999990463257","img/flower6.png","76","80.70000004768372","3","1","1","2","1,0,0,1,1,0,1,0,1","0,0,1,1,0,1,0,1,1","2",""
"","html-keyboard-response","83","37750","0.0-83.0","39KFRKBFIOHTE35F88H27LFDDBEYO0","AS2MFSWNC5CQI","30UZJB2POHY4464FN6NBJ2NLFWF354","","null","<img src=""img/flower6.png"" style=""width:200px; border:14px solid green;"">","null","","","","","","","","",""
"","image-keyboard-response","84","37842","0.0-84.0","39KFRKBFIOHTE35F88H27LFDDBEYO0","AS2MFSWNC5CQI","30UZJB2POHY4464FN6NBJ2NLFWF354","","90.90000009536743","img/flower6.png","76","92.30000019073486","3","1","1","2","1,0,0,1,1,0,1,0,1","0,0,1,1,0,1,0,1,1","2",""
"","html-keyboard-response","85","38145","0.0-85.0","39KFRKBFIOHTE35F88H27LFDDBEYO0","AS2MFSWNC5CQI","30UZJB2POHY4464FN6NBJ2NLFWF354","","null","<img src=""img/flower6.png"" style=""width:200px; border:14px solid green;"">","null","","","","","","","","",""
"","image-keyboard-response","86","38202","0.0-86.0","39KFRKBFIOHTE35F88H27LFDDBEYO0","AS2MFSWNC5CQI","30UZJB2POHY4464FN6NBJ2NLFWF354","","55.59999990463257","img/flower4.png","76","57","3","1","3","2","1,0,0,1,1,0,1,0,1","0,0,1,1,0,1,0,1,1","2",""
"","html-keyboard-response","87","38504","0.0-87.0","39KFRKBFIOHTE35F88H27LFDDBEYO0","AS2MFSWNC5CQI","30UZJB2POHY4464FN6NBJ2NLFWF354","","null","<img src=""img/flower4.png"" style=""width:200px; border:14px solid green;"">","null","","","","","","","","",""
"","image-keyboard-response","88","38657","0.0-88.0","39KFRKBFIOHTE35F88H27LFDDBEYO0","AS2MFSWNC5CQI","30UZJB2POHY4464FN6NBJ2NLFWF354","","151.30000019073486","img/flower4.png","76","152.60000014305115","3","1","3","2","1,0,0,1,1,0,1,0,1","0,0,1,1,0,1,0,1,1","2",""
"","html-keyboard-response","89","38959","0.0-89.0","39KFRKBFIOHTE35F88H27LFDDBEYO0","AS2MFSWNC5CQI","30UZJB2POHY4464FN6NBJ2NLFWF354","","null","<img src=""img/flower4.png"" style=""width:200px; border:14px solid green;"">","null","","","","","","","","",""
"","image-keyboard-response","90","39083","0.0-90.0","39KFRKBFIOHTE35F88H27LFDDBEYO0","AS2MFSWNC5CQI","30UZJB2POHY4464FN6NBJ2NLFWF354","","123.20000004768372","img/flower3.png","76","123.89999985694885","3","1","2","2","1,0,0,1,1,0,1,0,1","0,0,1,1,0,1,0,1,1","2",""
"","html-keyboard-response","91","39385","0.0-91.0","39KFRKBFIOHTE35F88H27LFDDBEYO0","AS2MFSWNC5CQI","30UZJB2POHY4464FN6NBJ2NLFWF354","","null","<img src=""img/flower3.png"" style=""width:200px; border:14px solid green;"">","null","","","","","","","","",""
"","image-keyboard-response","92","39481","0.0-92.0","39KFRKBFIOHTE35F88H27LFDDBEYO0","AS2MFSWNC5CQI","30UZJB2POHY4464FN6NBJ2NLFWF354","","94.79999995231628","img/flower3.png","76","96","3","1","2","2","1,0,0,1,1,0,1,0,1","0,0,1,1,0,1,0,1,1","2",""
"","html-keyboard-response","93","39783","0.0-93.0","39KFRKBFIOHTE35F88H27LFDDBEYO0","AS2MFSWNC5CQI","30UZJB2POHY4464FN6NBJ2NLFWF354","","null","<img src=""img/flower3.png"" style=""width:200px; border:14px solid green;"">","null","","","","","","","","",""
"","image-keyboard-response","94","39857","0.0-94.0","39KFRKBFIOHTE35F88H27LFDDBEYO0","AS2MFSWNC5CQI","30UZJB2POHY4464FN6NBJ2NLFWF354","","73.20000004768372","img/flower3.png","76","74.29999995231628","3","1","2","2","1,0,0,1,1,0,1,0,1","0,0,1,1,0,1,0,1,1","2",""
"","html-keyboard-response","95","40160","0.0-95.0","39KFRKBFIOHTE35F88H27LFDDBEYO0","AS2MFSWNC5CQI","30UZJB2POHY4464FN6NBJ2NLFWF354","","null","<img src=""img/flower3.png"" style=""width:200px; border:14px solid green;"">","null","","","","","","","","",""
"","image-keyboard-response","96","40234","0.0-96.0","39KFRKBFIOHTE35F88H27LFDDBEYO0","AS2MFSWNC5CQI","30UZJB2POHY4464FN6NBJ2NLFWF354","","72.79999995231628","img/flower3.png","76","74.10000014305115","3","1","2","2","1,0,0,1,1,0,1,0,1","0,0,1,1,0,1,0,1,1","2",""
"","html-keyboard-response","97","40536","0.0-97.0","39KFRKBFIOHTE35F88H27LFDDBEYO0","AS2MFSWNC5CQI","30UZJB2POHY4464FN6NBJ2NLFWF354","","null","<img src=""img/flower3.png"" style=""width:200px; border:14px solid green;"">","null","","","","","","","","",""
"","image-keyboard-response","98","40569","0.0-98.0","39KFRKBFIOHTE35F88H27LFDDBEYO0","AS2MFSWNC5CQI","30UZJB2POHY4464FN6NBJ2NLFWF354","","32.60000014305115","img/flower6.png","76","33.09999990463257","3","1","1","2","1,0,0,1,1,0,1,0,1","0,0,1,1,0,1,0,1,1","2",""
"","html-keyboard-response","99","40883","0.0-99.0","39KFRKBFIOHTE35F88H27LFDDBEYO0","AS2MFSWNC5CQI","30UZJB2POHY4464FN6NBJ2NLFWF354","","null","<img src=""img/flower6.png"" style=""width:200px; border:14px solid green;"">","null","","","","","","","","",""
"","image-keyboard-response","100","40914","0.0-100.0","39KFRKBFIOHTE35F88H27LFDDBEYO0","AS2MFSWNC5CQI","30UZJB2POHY4464FN6NBJ2NLFWF354","","30","img/flower4.png","76","31.100000143051147","3","1","3","2","1,0,0,1,1,0,1,0,1","0,0,1,1,0,1,0,1,1","2",""
"","html-keyboard-response","101","41217","0.0-101.0","39KFRKBFIOHTE35F88H27LFDDBEYO0","AS2MFSWNC5CQI","30UZJB2POHY4464FN6NBJ2NLFWF354","","null","<img src=""img/flower4.png"" style=""width:200px; border:14px solid green;"">","null","","","","","","","","",""
"","image-keyboard-response","102","41355","0.0-102.0","39KFRKBFIOHTE35F88H27LFDDBEYO0","AS2MFSWNC5CQI","30UZJB2POHY4464FN6NBJ2NLFWF354","","136","img/flower6.png","76","137.29999995231628","3","1","1","2","1,0,0,1,1,0,1,0,1","0,0,1,1,0,1,0,1,1","2",""
"","html-keyboard-response","103","41661","0.0-103.0","39KFRKBFIOHTE35F88H27LFDDBEYO0","AS2MFSWNC5CQI","30UZJB2POHY4464FN6NBJ2NLFWF354","","null","<img src=""img/flower6.png"" style=""width:200px; border:14px solid green;"">","null","","","","","","","","",""
"","image-keyboard-response","104","41722","0.0-104.0","39KFRKBFIOHTE35F88H27LFDDBEYO0","AS2MFSWNC5CQI","30UZJB2POHY4464FN6NBJ2NLFWF354","","59.89999985694885","img/flower3.png","76","61.200000047683716","3","1","2","2","1,0,0,1,1,0,1,0,1","0,0,1,1,0,1,0,1,1","2",""
"","html-keyboard-response","105","42025","0.0-105.0","39KFRKBFIOHTE35F88H27LFDDBEYO0","AS2MFSWNC5CQI","30UZJB2POHY4464FN6NBJ2NLFWF354","","null","<img src=""img/flower3.png"" style=""width:200px; border:14px solid green;"">","null","","","","","","","","",""
"","image-keyboard-response","106","42162","0.0-106.0","39KFRKBFIOHTE35F88H27LFDDBEYO0","AS2MFSWNC5CQI","30UZJB2POHY4464FN6NBJ2NLFWF354","","136.39999985694885","img/flower6.png","76","137.20000004768372","3","1","1","2","1,0,0,1,1,0,1,0,1","0,0,1,1,0,1,0,1,1","2",""
"","html-keyboard-response","107","42465","0.0-107.0","39KFRKBFIOHTE35F88H27LFDDBEYO0","AS2MFSWNC5CQI","30UZJB2POHY4464FN6NBJ2NLFWF354","","null","<img src=""img/flower6.png"" style=""width:200px; border:14px solid green;"">","null","","","","","","","","",""
"","image-keyboard-response","108","42539","0.0-108.0","39KFRKBFIOHTE35F88H27LFDDBEYO0","AS2MFSWNC5CQI","30UZJB2POHY4464FN6NBJ2NLFWF354","","73.10000014305115","img/flower4.png","76","73.79999995231628","3","1","3","2","1,0,0,1,1,0,1,0,1","0,0,1,1,0,1,0,1,1","2",""
"","html-keyboard-response","109","42841","0.0-109.0","39KFRKBFIOHTE35F88H27LFDDBEYO0","AS2MFSWNC5CQI","30UZJB2POHY4464FN6NBJ2NLFWF354","","null","<img src=""img/flower4.png"" style=""width:200px; border:14px solid green;"">","null","","","","","","","","",""
"","image-keyboard-response","110","42921","0.0-110.0","39KFRKBFIOHTE35F88H27LFDDBEYO0","AS2MFSWNC5CQI","30UZJB2POHY4464FN6NBJ2NLFWF354","","78.19999980926514","img/flower4.png","76","79.20000004768372","3","1","3","2","1,0,0,1,1,0,1,0,1","0,0,1,1,0,1,0,1,1","2",""
"","html-keyboard-response","111","43222","0.0-111.0","39KFRKBFIOHTE35F88H27LFDDBEYO0","AS2MFSWNC5CQI","30UZJB2POHY4464FN6NBJ2NLFWF354","","null","<img src=""img/flower4.png"" style=""width:200px; border:14px solid green;"">","null","","","","","","","","",""
"","image-keyboard-response","112","43297","0.0-112.0","39KFRKBFIOHTE35F88H27LFDDBEYO0","AS2MFSWNC5CQI","30UZJB2POHY4464FN6NBJ2NLFWF354","","72.90000009536743","img/flower4.png","76","74","3","1","3","2","1,0,0,1,1,0,1,0,1","0,0,1,1,0,1,0,1,1","2",""
"","html-keyboard-response","113","43598","0.0-113.0","39KFRKBFIOHTE35F88H27LFDDBEYO0","AS2MFSWNC5CQI","30UZJB2POHY4464FN6NBJ2NLFWF354","","null","<img src=""img/flower4.png"" style=""width:200px; border:14px solid green;"">","null","","","","","","","","",""
"","image-keyboard-response","114","43739","0.0-114.0","39KFRKBFIOHTE35F88H27LFDDBEYO0","AS2MFSWNC5CQI","30UZJB2POHY4464FN6NBJ2NLFWF354","","139.5","img/flower3.png","76","140.80000019073486","3","1","2","2","1,0,0,1,1,0,1,0,1","0,0,1,1,0,1,0,1,1","2",""
"","html-keyboard-response","115","44041","0.0-115.0","39KFRKBFIOHTE35F88H27LFDDBEYO0","AS2MFSWNC5CQI","30UZJB2POHY4464FN6NBJ2NLFWF354","","null","<img src=""img/flower3.png"" style=""width:200px; border:14px solid green;"">","null","","","","","","","","",""
"","image-keyboard-response","116","44146","0.0-116.0","39KFRKBFIOHTE35F88H27LFDDBEYO0","AS2MFSWNC5CQI","30UZJB2POHY4464FN6NBJ2NLFWF354","","104.59999990463257","img/flower3.png","76","105.29999995231628","3","1","2","2","1,0,0,1,1,0,1,0,1","0,0,1,1,0,1,0,1,1","2",""
"","html-keyboard-response","117","44448","0.0-117.0","39KFRKBFIOHTE35F88H27LFDDBEYO0","AS2MFSWNC5CQI","30UZJB2POHY4464FN6NBJ2NLFWF354","","null","<img src=""img/flower3.png"" style=""width:200px; border:14px solid green;"">","null","","","","","","","","",""
"","image-keyboard-response","118","44547","0.0-118.0","39KFRKBFIOHTE35F88H27LFDDBEYO0","AS2MFSWNC5CQI","30UZJB2POHY4464FN6NBJ2NLFWF354","","98.20000004768372","img/flower6.png","76","99.09999990463257","3","1","1","2","1,0,0,1,1,0,1,0,1","0,0,1,1,0,1,0,1,1","2",""
"","html-keyboard-response","119","44850","0.0-119.0","39KFRKBFIOHTE35F88H27LFDDBEYO0","AS2MFSWNC5CQI","30UZJB2POHY4464FN6NBJ2NLFWF354","","null","<img src=""img/flower6.png"" style=""width:200px; border:14px solid green;"">","null","","","","","","","","",""
"","image-keyboard-response","120","44962","0.0-120.0","39KFRKBFIOHTE35F88H27LFDDBEYO0","AS2MFSWNC5CQI","30UZJB2POHY4464FN6NBJ2NLFWF354","","111.70000004768372","img/flower4.png","76","112.59999990463257","3","1","3","2","1,0,0,1,1,0,1,0,1","0,0,1,1,0,1,0,1,1","2",""
"","html-keyboard-response","121","45264","0.0-121.0","39KFRKBFIOHTE35F88H27LFDDBEYO0","AS2MFSWNC5CQI","30UZJB2POHY4464FN6NBJ2NLFWF354","","null","<img src=""img/flower4.png"" style=""width:200px; border:14px solid green;"">","null","","","","","","","","",""
"","image-keyboard-response","122","45378","0.0-122.0","39KFRKBFIOHTE35F88H27LFDDBEYO0","AS2MFSWNC5CQI","30UZJB2POHY4464FN6NBJ2NLFWF354","","112.39999985694885","img/flower4.png","76","113.79999995231628","3","1","3","2","1,0,0,1,1,0,1,0,1","0,0,1,1,0,1,0,1,1","2",""
"","html-keyboard-response","123","45680","0.0-123.0","39KFRKBFIOHTE35F88H27LFDDBEYO0","AS2MFSWNC5CQI","30UZJB2POHY4464FN6NBJ2NLFWF354","","null","<img src=""img/flower4.png"" style=""width:200px; border:14px solid green;"">","null","","","","","","","","",""
"","image-keyboard-response","124","45825","0.0-124.0","39KFRKBFIOHTE35F88H27LFDDBEYO0","AS2MFSWNC5CQI","30UZJB2POHY4464FN6NBJ2NLFWF354","","143.89999985694885","img/flower6.png","76","145","3","1","1","2","1,0,0,1,1,0,1,0,1","0,0,1,1,0,1,0,1,1","2",""
"","html-keyboard-response","125","46127","0.0-125.0","39KFRKBFIOHTE35F88H27LFDDBEYO0","AS2MFSWNC5CQI","30UZJB2POHY4464FN6NBJ2NLFWF354","","null","<img src=""img/flower6.png"" style=""width:200px; border:14px solid green;"">","null","","","","","","","","",""
"","image-keyboard-response","126","46211","0.0-126.0","39KFRKBFIOHTE35F88H27LFDDBEYO0","AS2MFSWNC5CQI","30UZJB2POHY4464FN6NBJ2NLFWF354","","82.20000004768372","img/flower4.png","76","83.70000004768372","3","1","3","2","1,0,0,1,1,0,1,0,1","0,0,1,1,0,1,0,1,1","2",""
"","html-keyboard-response","127","46513","0.0-127.0","39KFRKBFIOHTE35F88H27LFDDBEYO0","AS2MFSWNC5CQI","30UZJB2POHY4464FN6NBJ2NLFWF354","","null","<img src=""img/flower4.png"" style=""width:200px; border:14px solid green;"">","null","","","","","","","","",""
"","image-keyboard-response","128","46673","0.0-128.0","39KFRKBFIOHTE35F88H27LFDDBEYO0","AS2MFSWNC5CQI","30UZJB2POHY4464FN6NBJ2NLFWF354","","158.80000019073486","img/flower3.png","76","159.5","3","1","2","2","1,0,0,1,1,0,1,0,1","0,0,1,1,0,1,0,1,1","2",""
"","html-keyboard-response","129","46975","0.0-129.0","39KFRKBFIOHTE35F88H27LFDDBEYO0","AS2MFSWNC5CQI","30UZJB2POHY4464FN6NBJ2NLFWF354","","null","<img src=""img/flower3.png"" style=""width:200px; border:14px solid green;"">","null","","","","","","","","",""
"","image-keyboard-response","130","47129","0.0-130.0","39KFRKBFIOHTE35F88H27LFDDBEYO0","AS2MFSWNC5CQI","30UZJB2POHY4464FN6NBJ2NLFWF354","","152.39999985694885","img/flower4.png","76","153.40000009536743","3","1","3","2","1,0,0,1,1,0,1,0,1","0,0,1,1,0,1,0,1,1","2",""
"","html-keyboard-response","131","47431","0.0-131.0","39KFRKBFIOHTE35F88H27LFDDBEYO0","AS2MFSWNC5CQI","30UZJB2POHY4464FN6NBJ2NLFWF354","","null","<img src=""img/flower4.png"" style=""width:200px; border:14px solid green;"">","null","","","","","","","","",""
"","image-keyboard-response","132","47531","0.0-132.0","39KFRKBFIOHTE35F88H27LFDDBEYO0","AS2MFSWNC5CQI","30UZJB2POHY4464FN6NBJ2NLFWF354","","99.09999990463257","img/flower4.png","76","99.79999995231628","3","1","3","2","1,0,0,1,1,0,1,0,1","0,0,1,1,0,1,0,1,1","2",""
"","html-keyboard-response","133","47833","0.0-133.0","39KFRKBFIOHTE35F88H27LFDDBEYO0","AS2MFSWNC5CQI","30UZJB2POHY4464FN6NBJ2NLFWF354","","null","<img src=""img/flower4.png"" style=""width:200px; border:14px solid green;"">","null","","","","","","","","",""
"","image-keyboard-response","134","47979","0.0-134.0","39KFRKBFIOHTE35F88H27LFDDBEYO0","AS2MFSWNC5CQI","30UZJB2POHY4464FN6NBJ2NLFWF354","","144.40000009536743","img/flower4.png","76","145.70000004768372","3","1","3","2","1,0,0,1,1,0,1,0,1","0,0,1,1,0,1,0,1,1","2",""
"","html-keyboard-response","135","48281","0.0-135.0","39KFRKBFIOHTE35F88H27LFDDBEYO0","AS2MFSWNC5CQI","30UZJB2POHY4464FN6NBJ2NLFWF354","","null","<img src=""img/flower4.png"" style=""width:200px; border:14px solid green;"">","null","","","","","","","","",""
"","image-keyboard-response","136","48402","0.0-136.0","39KFRKBFIOHTE35F88H27LFDDBEYO0","AS2MFSWNC5CQI","30UZJB2POHY4464FN6NBJ2NLFWF354","","119.40000009536743","img/flower3.png","76","120.70000004768372","3","1","2","2","1,0,0,1,1,0,1,0,1","0,0,1,1,0,1,0,1,1","2",""
"","html-keyboard-response","137","48705","0.0-137.0","39KFRKBFIOHTE35F88H27LFDDBEYO0","AS2MFSWNC5CQI","30UZJB2POHY4464FN6NBJ2NLFWF354","","null","<img src=""img/flower3.png"" style=""width:200px; border:14px solid green;"">","null","","","","","","","","",""
"","image-keyboard-response","138","48826","0.0-138.0","39KFRKBFIOHTE35F88H27LFDDBEYO0","AS2MFSWNC5CQI","30UZJB2POHY4464FN6NBJ2NLFWF354","","119.40000009536743","img/flower6.png","76","120.79999995231628","3","1","1","2","1,0,0,1,1,0,1,0,1","0,0,1,1,0,1,0,1,1","2",""
"","html-keyboard-response","139","49128","0.0-139.0","39KFRKBFIOHTE35F88H27LFDDBEYO0","AS2MFSWNC5CQI","30UZJB2POHY4464FN6NBJ2NLFWF354","","null","<img src=""img/flower6.png"" style=""width:200px; border:14px solid green;"">","null","","","","","","","","",""
"","image-keyboard-response","140","49234","0.0-140.0","39KFRKBFIOHTE35F88H27LFDDBEYO0","AS2MFSWNC5CQI","30UZJB2POHY4464FN6NBJ2NLFWF354","","105.29999995231628","img/flower3.png","76","106.20000004768372","3","1","2","2","1,0,0,1,1,0,1,0,1","0,0,1,1,0,1,0,1,1","2",""
"","html-keyboard-response","141","49537","0.0-141.0","39KFRKBFIOHTE35F88H27LFDDBEYO0","AS2MFSWNC5CQI","30UZJB2POHY4464FN6NBJ2NLFWF354","","null","<img src=""img/flower3.png"" style=""width:200px; border:14px solid green;"">","null","","","","","","","","",""
"","image-keyboard-response","142","49650","0.0-142.0","39KFRKBFIOHTE35F88H27LFDDBEYO0","AS2MFSWNC5CQI","30UZJB2POHY4464FN6NBJ2NLFWF354","","111.40000009536743","img/flower6.png","76","112.80000019073486","3","1","1","2","1,0,0,1,1,0,1,0,1","0,0,1,1,0,1,0,1,1","2",""
"","html-keyboard-response","143","49953","0.0-143.0","39KFRKBFIOHTE35F88H27LFDDBEYO0","AS2MFSWNC5CQI","30UZJB2POHY4464FN6NBJ2NLFWF354","","null","<img src=""img/flower6.png"" style=""width:200px; border:14px solid green;"">","null","","","","","","","","",""
"","image-keyboard-response","144","50090","0.0-144.0","39KFRKBFIOHTE35F88H27LFDDBEYO0","AS2MFSWNC5CQI","30UZJB2POHY4464FN6NBJ2NLFWF354","","136.29999995231628","img/flower4.png","76","137.69999980926514","3","1","3","2","1,0,0,1,1,0,1,0,1","0,0,1,1,0,1,0,1,1","2",""
"","html-keyboard-response","145","50393","0.0-145.0","39KFRKBFIOHTE35F88H27LFDDBEYO0","AS2MFSWNC5CQI","30UZJB2POHY4464FN6NBJ2NLFWF354","","null","<img src=""img/flower4.png"" style=""width:200px; border:14px solid green;"">","null","","","","","","","","",""
"","image-keyboard-response","146","50490","0.0-146.0","39KFRKBFIOHTE35F88H27LFDDBEYO0","AS2MFSWNC5CQI","30UZJB2POHY4464FN6NBJ2NLFWF354","","96","img/flower6.png","76","96.90000009536743","3","1","1","2","1,0,0,1,1,0,1,0,1","0,0,1,1,0,1,0,1,1","2",""
"","html-keyboard-response","147","50791","0.0-147.0","39KFRKBFIOHTE35F88H27LFDDBEYO0","AS2MFSWNC5CQI","30UZJB2POHY4464FN6NBJ2NLFWF354","","null","<img src=""img/flower6.png"" style=""width:200px; border:14px solid green;"">","null","","","","","","","","",""
"","image-keyboard-response","148","50889","0.0-148.0","39KFRKBFIOHTE35F88H27LFDDBEYO0","AS2MFSWNC5CQI","30UZJB2POHY4464FN6NBJ2NLFWF354","","96.40000009536743","img/flower3.png","76","97.5","3","1","2","2","1,0,0,1,1,0,1,0,1","0,0,1,1,0,1,0,1,1","2",""
"","html-keyboard-response","149","51190","0.0-149.0","39KFRKBFIOHTE35F88H27LFDDBEYO0","AS2MFSWNC5CQI","30UZJB2POHY4464FN6NBJ2NLFWF354","","null","<img src=""img/flower3.png"" style=""width:200px; border:14px solid green;"">","null","","","","","","","","",""
"","image-keyboard-response","150","51330","0.0-150.0","39KFRKBFIOHTE35F88H27LFDDBEYO0","AS2MFSWNC5CQI","30UZJB2POHY4464FN6NBJ2NLFWF354","","138.59999990463257","img/flower4.png","76","139.30000019073486","3","1","3","2","1,0,0,1,1,0,1,0,1","0,0,1,1,0,1,0,1,1","2",""
"","html-keyboard-response","151","51632","0.0-151.0","39KFRKBFIOHTE35F88H27LFDDBEYO0","AS2MFSWNC5CQI","30UZJB2POHY4464FN6NBJ2NLFWF354","","null","<img src=""img/flower4.png"" style=""width:200px; border:14px solid green;"">","null","","","","","","","","",""
"","image-keyboard-response","152","51763","0.0-152.0","39KFRKBFIOHTE35F88H27LFDDBEYO0","AS2MFSWNC5CQI","30UZJB2POHY4464FN6NBJ2NLFWF354","","130.5","img/flower6.png","76","131.10000014305115","3","1","1","2","1,0,0,1,1,0,1,0,1","0,0,1,1,0,1,0,1,1","2",""
"","html-keyboard-response","153","52066","0.0-153.0","39KFRKBFIOHTE35F88H27LFDDBEYO0","AS2MFSWNC5CQI","30UZJB2POHY4464FN6NBJ2NLFWF354","","null","<img src=""img/flower6.png"" style=""width:200px; border:14px solid green;"">","null","","","","","","","","",""
"","image-keyboard-response","154","52170","0.0-154.0","39KFRKBFIOHTE35F88H27LFDDBEYO0","AS2MFSWNC5CQI","30UZJB2POHY4464FN6NBJ2NLFWF354","","102.40000009536743","img/flower4.png","76","103.60000014305115","3","1","3","2","1,0,0,1,1,0,1,0,1","0,0,1,1,0,1,0,1,1","2",""
"","html-keyboard-response","155","52471","0.0-155.0","39KFRKBFIOHTE35F88H27LFDDBEYO0","AS2MFSWNC5CQI","30UZJB2POHY4464FN6NBJ2NLFWF354","","null","<img src=""img/flower4.png"" style=""width:200px; border:14px solid green;"">","null","","","","","","","","",""
"","image-keyboard-response","156","52601","0.0-156.0","39KFRKBFIOHTE35F88H27LFDDBEYO0","AS2MFSWNC5CQI","30UZJB2POHY4464FN6NBJ2NLFWF354","","129.59999990463257","img/flower3.png","76","130","3","1","2","2","1,0,0,1,1,0,1,0,1","0,0,1,1,0,1,0,1,1","2",""
"","html-keyboard-response","157","52909","0.0-157.0","39KFRKBFIOHTE35F88H27LFDDBEYO0","AS2MFSWNC5CQI","30UZJB2POHY4464FN6NBJ2NLFWF354","","null","<img src=""img/flower3.png"" style=""width:200px; border:14px solid green;"">","null","","","","","","","","",""
"","image-keyboard-response","158","53017","0.0-158.0","39KFRKBFIOHTE35F88H27LFDDBEYO0","AS2MFSWNC5CQI","30UZJB2POHY4464FN6NBJ2NLFWF354","","105.70000004768372","img/flower6.png","76","106.90000009536743","3","1","1","2","1,0,0,1,1,0,1,0,1","0,0,1,1,0,1,0,1,1","2",""
"","html-keyboard-response","159","53319","0.0-159.0","39KFRKBFIOHTE35F88H27LFDDBEYO0","AS2MFSWNC5CQI","30UZJB2POHY4464FN6NBJ2NLFWF354","","null","<img src=""img/flower6.png"" style=""width:200px; border:14px solid green;"">","null","","","","","","","","",""
"","image-keyboard-response","160","53497","0.0-160.0","39KFRKBFIOHTE35F88H27LFDDBEYO0","AS2MFSWNC5CQI","30UZJB2POHY4464FN6NBJ2NLFWF354","","176.89999985694885","img/flower3.png","76","178.70000004768372","3","1","2","2","1,0,0,1,1,0,1,0,1","0,0,1,1,0,1,0,1,1","2",""
"","html-keyboard-response","161","53800","0.0-161.0","39KFRKBFIOHTE35F88H27LFDDBEYO0","AS2MFSWNC5CQI","30UZJB2POHY4464FN6NBJ2NLFWF354","","null","<img src=""img/flower3.png"" style=""width:200px; border:14px solid green;"">","null","","","","","","","","",""
"","image-keyboard-response","162","53899","0.0-162.0","39KFRKBFIOHTE35F88H27LFDDBEYO0","AS2MFSWNC5CQI","30UZJB2POHY4464FN6NBJ2NLFWF354","","97.89999985694885","img/flower6.png","76","99.20000004768372","3","1","1","2","1,0,0,1,1,0,1,0,1","0,0,1,1,0,1,0,1,1","2",""
"","html-keyboard-response","163","54201","0.0-163.0","39KFRKBFIOHTE35F88H27LFDDBEYO0","AS2MFSWNC5CQI","30UZJB2POHY4464FN6NBJ2NLFWF354","","null","<img src=""img/flower6.png"" style=""width:200px; border:14px solid green;"">","null","","","","","","","","",""
"","image-keyboard-response","164","54322","0.0-164.0","39KFRKBFIOHTE35F88H27LFDDBEYO0","AS2MFSWNC5CQI","30UZJB2POHY4464FN6NBJ2NLFWF354","","119.10000014305115","img/flower4.png","76","120.5","3","1","3","2","1,0,0,1,1,0,1,0,1","0,0,1,1,0,1,0,1,1","2",""
"","html-keyboard-response","165","54625","0.0-165.0","39KFRKBFIOHTE35F88H27LFDDBEYO0","AS2MFSWNC5CQI","30UZJB2POHY4464FN6NBJ2NLFWF354","","null","<img src=""img/flower4.png"" style=""width:200px; border:14px solid green;"">","null","","","","","","","","",""
"","image-keyboard-response","166","54722","0.0-166.0","39KFRKBFIOHTE35F88H27LFDDBEYO0","AS2MFSWNC5CQI","30UZJB2POHY4464FN6NBJ2NLFWF354","","96.20000004768372","img/flower6.png","76","96.90000009536743","3","1","1","2","1,0,0,1,1,0,1,0,1","0,0,1,1,0,1,0,1,1","2",""
"","html-keyboard-response","167","55031","0.0-167.0","39KFRKBFIOHTE35F88H27LFDDBEYO0","AS2MFSWNC5CQI","30UZJB2POHY4464FN6NBJ2NLFWF354","","null","<img src=""img/flower6.png"" style=""width:200px; border:14px solid green;"">","null","","","","","","","","",""
"","image-keyboard-response","168","55131","0.0-168.0","39KFRKBFIOHTE35F88H27LFDDBEYO0","AS2MFSWNC5CQI","30UZJB2POHY4464FN6NBJ2NLFWF354","","98.10000014305115","img/flower6.png","76","99.20000004768372","3","1","1","2","1,0,0,1,1,0,1,0,1","0,0,1,1,0,1,0,1,1","2",""
"","html-keyboard-response","169","55432","0.0-169.0","39KFRKBFIOHTE35F88H27LFDDBEYO0","AS2MFSWNC5CQI","30UZJB2POHY4464FN6NBJ2NLFWF354","","null","<img src=""img/flower6.png"" style=""width:200px; border:14px solid green;"">","null","","","","","","","","",""
"","image-keyboard-response","170","55602","0.0-170.0","39KFRKBFIOHTE35F88H27LFDDBEYO0","AS2MFSWNC5CQI","30UZJB2POHY4464FN6NBJ2NLFWF354","","169.60000014305115","img/flower6.png","76","170.20000004768372","3","1","1","2","1,0,0,1,1,0,1,0,1","0,0,1,1,0,1,0,1,1","2",""
"","html-keyboard-response","171","55906","0.0-171.0","39KFRKBFIOHTE35F88H27LFDDBEYO0","AS2MFSWNC5CQI","30UZJB2POHY4464FN6NBJ2NLFWF354","","null","<img src=""img/flower6.png"" style=""width:200px; border:14px solid green;"">","null","","","","","","","","",""
"","image-keyboard-response","172","56010","0.0-172.0","39KFRKBFIOHTE35F88H27LFDDBEYO0","AS2MFSWNC5CQI","30UZJB2POHY4464FN6NBJ2NLFWF354","","102.59999990463257","img/flower3.png","76","103.90000009536743","3","1","2","2","1,0,0,1,1,0,1,0,1","0,0,1,1,0,1,0,1,1","2",""
"","html-keyboard-response","173","56312","0.0-173.0","39KFRKBFIOHTE35F88H27LFDDBEYO0","AS2MFSWNC5CQI","30UZJB2POHY4464FN6NBJ2NLFWF354","","null","<img src=""img/flower3.png"" style=""width:200px; border:14px solid green;"">","null","","","","","","","","",""
"","image-keyboard-response","174","56436","0.0-174.0","39KFRKBFIOHTE35F88H27LFDDBEYO0","AS2MFSWNC5CQI","30UZJB2POHY4464FN6NBJ2NLFWF354","","123.09999990463257","img/flower4.png","76","123.70000004768372","3","1","3","2","1,0,0,1,1,0,1,0,1","0,0,1,1,0,1,0,1,1","2",""
"","html-keyboard-response","175","56738","0.0-175.0","39KFRKBFIOHTE35F88H27LFDDBEYO0","AS2MFSWNC5CQI","30UZJB2POHY4464FN6NBJ2NLFWF354","","null","<img src=""img/flower4.png"" style=""width:200px; border:14px solid green;"">","null","","","","","","","","",""
"","image-keyboard-response","176","56843","0.0-176.0","39KFRKBFIOHTE35F88H27LFDDBEYO0","AS2MFSWNC5CQI","30UZJB2POHY4464FN6NBJ2NLFWF354","","104.29999995231628","img/flower3.png","76","104.59999990463257","3","1","2","2","1,0,0,1,1,0,1,0,1","0,0,1,1,0,1,0,1,1","2",""
"","html-keyboard-response","177","57145","0.0-177.0","39KFRKBFIOHTE35F88H27LFDDBEYO0","AS2MFSWNC5CQI","30UZJB2POHY4464FN6NBJ2NLFWF354","","null","<img src=""img/flower3.png"" style=""width:200px; border:14px solid green;"">","null","","","","","","","","",""
"","image-keyboard-response","178","57276","0.0-178.0","39KFRKBFIOHTE35F88H27LFDDBEYO0","AS2MFSWNC5CQI","30UZJB2POHY4464FN6NBJ2NLFWF354","","129","img/flower4.png","76","130.40000009536743","3","1","3","2","1,0,0,1,1,0,1,0,1","0,0,1,1,0,1,0,1,1","2",""
"","html-keyboard-response","179","57578","0.0-179.0","39KFRKBFIOHTE35F88H27LFDDBEYO0","AS2MFSWNC5CQI","30UZJB2POHY4464FN6NBJ2NLFWF354","","null","<img src=""img/flower4.png"" style=""width:200px; border:14px solid green;"">","null","","","","","","","","",""
"","image-keyboard-response","180","57707","0.0-180.0","39KFRKBFIOHTE35F88H27LFDDBEYO0","AS2MFSWNC5CQI","30UZJB2POHY4464FN6NBJ2NLFWF354","","127.70000004768372","img/flower4.png","76","128.5","3","1","3","2","1,0,0,1,1,0,1,0,1","0,0,1,1,0,1,0,1,1","2",""
"","html-keyboard-response","181","58009","0.0-181.0","39KFRKBFIOHTE35F88H27LFDDBEYO0","AS2MFSWNC5CQI","30UZJB2POHY4464FN6NBJ2NLFWF354","","null","<img src=""img/flower4.png"" style=""width:200px; border:14px solid green;"">","null","","","","","","","","",""
"","image-keyboard-response","182","58113","0.0-182.0","39KFRKBFIOHTE35F88H27LFDDBEYO0","AS2MFSWNC5CQI","30UZJB2POHY4464FN6NBJ2NLFWF354","","102","img/flower5.png","76","103.29999995231628","3","1","3","1","1,0.333,0.333,0.333,1,0.333,0.333,0.333,1","1,0.333,0.333,0.333,1,0.333,0.333,0.333,1","1",""
"","html-keyboard-response","183","58414","0.0-183.0","39KFRKBFIOHTE35F88H27LFDDBEYO0","AS2MFSWNC5CQI","30UZJB2POHY4464FN6NBJ2NLFWF354","","null","<img src=""img/flower5.png"" style=""width:200px; border:14px solid green;"">","null","","","","","","","","",""
"","image-keyboard-response","184","58513","0.0-184.0","39KFRKBFIOHTE35F88H27LFDDBEYO0","AS2MFSWNC5CQI","30UZJB2POHY4464FN6NBJ2NLFWF354","","97.80000019073486","img/flower1.png","76","99","3","0","1","1","1,0.333,0.333,0.333,1,0.333,0.333,0.333,1","1,0.333,0.333,0.333,1,0.333,0.333,0.333,1","1",""
"","html-keyboard-response","185","58814","0.0-185.0","39KFRKBFIOHTE35F88H27LFDDBEYO0","AS2MFSWNC5CQI","30UZJB2POHY4464FN6NBJ2NLFWF354","","null","<img src=""img/flower1.png"" style=""width:200px;border:14px solid red;"">","null","","","","","","","","",""
"","image-keyboard-response","186","58971","0.0-186.0","39KFRKBFIOHTE35F88H27LFDDBEYO0","AS2MFSWNC5CQI","30UZJB2POHY4464FN6NBJ2NLFWF354","","154.40000009536743","img/flower1.png","76","156","3","1","1","1","1,0.333,0.333,0.333,1,0.333,0.333,0.333,1","1,0.333,0.333,0.333,1,0.333,0.333,0.333,1","1",""
"","html-keyboard-response","187","59273","0.0-187.0","39KFRKBFIOHTE35F88H27LFDDBEYO0","AS2MFSWNC5CQI","30UZJB2POHY4464FN6NBJ2NLFWF354","","null","<img src=""img/flower1.png"" style=""width:200px; border:14px solid green;"">","null","","","","","","","","",""
"","image-keyboard-response","188","59465","0.0-188.0","39KFRKBFIOHTE35F88H27LFDDBEYO0","AS2MFSWNC5CQI","30UZJB2POHY4464FN6NBJ2NLFWF354","","189.90000009536743","img/flower1.png","76","191.10000014305115","3","0","1","1","1,0.333,0.333,0.333,1,0.333,0.333,0.333,1","1,0.333,0.333,0.333,1,0.333,0.333,0.333,1","1",""
"","html-keyboard-response","189","59766","0.0-189.0","39KFRKBFIOHTE35F88H27LFDDBEYO0","AS2MFSWNC5CQI","30UZJB2POHY4464FN6NBJ2NLFWF354","","null","<img src=""img/flower1.png"" style=""width:200px;border:14px solid red;"">","null","","","","","","","","",""
"","image-keyboard-response","190","60580","0.0-190.0","39KFRKBFIOHTE35F88H27LFDDBEYO0","AS2MFSWNC5CQI","30UZJB2POHY4464FN6NBJ2NLFWF354","","811.7999999523163","img/flower5.png","75","813.2000000476837","2","1","3","1","1,0.333,0.333,0.333,1,0.333,0.333,0.333,1","1,0.333,0.333,0.333,1,0.333,0.333,0.333,1","1",""
"","html-keyboard-response","191","60882","0.0-191.0","39KFRKBFIOHTE35F88H27LFDDBEYO0","AS2MFSWNC5CQI","30UZJB2POHY4464FN6NBJ2NLFWF354","","null","<img src=""img/flower5.png"" style=""width:200px; border:14px solid green;"">","null","","","","","","","","",""
"","image-keyboard-response","192","61099","0.0-192.0","39KFRKBFIOHTE35F88H27LFDDBEYO0","AS2MFSWNC5CQI","30UZJB2POHY4464FN6NBJ2NLFWF354","","215.40000009536743","img/flower2.png","76","216.79999995231628","3","0","2","1","1,0.333,0.333,0.333,1,0.333,0.333,0.333,1","1,0.333,0.333,0.333,1,0.333,0.333,0.333,1","1",""
"","html-keyboard-response","193","61401","0.0-193.0","39KFRKBFIOHTE35F88H27LFDDBEYO0","AS2MFSWNC5CQI","30UZJB2POHY4464FN6NBJ2NLFWF354","","null","<img src=""img/flower2.png"" style=""width:200px;border:14px solid red;"">","null","","","","","","","","",""
"","image-keyboard-response","194","62018","0.0-194.0","39KFRKBFIOHTE35F88H27LFDDBEYO0","AS2MFSWNC5CQI","30UZJB2POHY4464FN6NBJ2NLFWF354","","616.0999999046326","img/flower1.png","75","617","2","0","1","1","1,0.333,0.333,0.333,1,0.333,0.333,0.333,1","1,0.333,0.333,0.333,1,0.333,0.333,0.333,1","1",""
"","html-keyboard-response","195","62320","0.0-195.0","39KFRKBFIOHTE35F88H27LFDDBEYO0","AS2MFSWNC5CQI","30UZJB2POHY4464FN6NBJ2NLFWF354","","null","<img src=""img/flower1.png"" style=""width:200px;border:14px solid red;"">","null","","","","","","","","",""
"","image-keyboard-response","196","62796","0.0-196.0","39KFRKBFIOHTE35F88H27LFDDBEYO0","AS2MFSWNC5CQI","30UZJB2POHY4464FN6NBJ2NLFWF354","","473.59999990463257","img/flower1.png","76","475.09999990463257","3","1","1","1","1,0.333,0.333,0.333,1,0.333,0.333,0.333,1","1,0.333,0.333,0.333,1,0.333,0.333,0.333,1","1",""
"","html-keyboard-response","197","63099","0.0-197.0","39KFRKBFIOHTE35F88H27LFDDBEYO0","AS2MFSWNC5CQI","30UZJB2POHY4464FN6NBJ2NLFWF354","","null","<img src=""img/flower1.png"" style=""width:200px; border:14px solid green;"">","null","","","","","","","","",""
"","image-keyboard-response","198","63322","0.0-198.0","39KFRKBFIOHTE35F88H27LFDDBEYO0","AS2MFSWNC5CQI","30UZJB2POHY4464FN6NBJ2NLFWF354","","222","img/flower2.png","76","223.40000009536743","3","0","2","1","1,0.333,0.333,0.333,1,0.333,0.333,0.333,1","1,0.333,0.333,0.333,1,0.333,0.333,0.333,1","1",""
"","html-keyboard-response","199","63624","0.0-199.0","39KFRKBFIOHTE35F88H27LFDDBEYO0","AS2MFSWNC5CQI","30UZJB2POHY4464FN6NBJ2NLFWF354","","null","<img src=""img/flower2.png"" style=""width:200px;border:14px solid red;"">","null","","","","","","","","",""
"","image-keyboard-response","200","64923","0.0-200.0","39KFRKBFIOHTE35F88H27LFDDBEYO0","AS2MFSWNC5CQI","30UZJB2POHY4464FN6NBJ2NLFWF354","","1297.7000000476837","img/flower2.png","75","1298.7000000476837","2","1","2","1","1,0.333,0.333,0.333,1,0.333,0.333,0.333,1","1,0.333,0.333,0.333,1,0.333,0.333,0.333,1","1",""
"","html-keyboard-response","201","65226","0.0-201.0","39KFRKBFIOHTE35F88H27LFDDBEYO0","AS2MFSWNC5CQI","30UZJB2POHY4464FN6NBJ2NLFWF354","","null","<img src=""img/flower2.png"" style=""width:200px; border:14px solid green;"">","null","","","","","","","","",""
"","image-keyboard-response","202","65987","0.0-202.0","39KFRKBFIOHTE35F88H27LFDDBEYO0","AS2MFSWNC5CQI","30UZJB2POHY4464FN6NBJ2NLFWF354","","760.9000000953674","img/flower5.png","76","761.9000000953674","3","1","3","1","1,0.333,0.333,0.333,1,0.333,0.333,0.333,1","1,0.333,0.333,0.333,1,0.333,0.333,0.333,1","1",""
"","html-keyboard-response","203","66290","0.0-203.0","39KFRKBFIOHTE35F88H27LFDDBEYO0","AS2MFSWNC5CQI","30UZJB2POHY4464FN6NBJ2NLFWF354","","null","<img src=""img/flower5.png"" style=""width:200px; border:14px solid green;"">","null","","","","","","","","",""
"","image-keyboard-response","204","66914","0.0-204.0","39KFRKBFIOHTE35F88H27LFDDBEYO0","AS2MFSWNC5CQI","30UZJB2POHY4464FN6NBJ2NLFWF354","","623.6000001430511","img/flower2.png","75","624.2999999523163","2","1","2","1","1,0.333,0.333,0.333,1,0.333,0.333,0.333,1","1,0.333,0.333,0.333,1,0.333,0.333,0.333,1","1",""
"","html-keyboard-response","205","67217","0.0-205.0","39KFRKBFIOHTE35F88H27LFDDBEYO0","AS2MFSWNC5CQI","30UZJB2POHY4464FN6NBJ2NLFWF354","","null","<img src=""img/flower2.png"" style=""width:200px; border:14px solid green;"">","null","","","","","","","","",""
"","image-keyboard-response","206","67626","0.0-206.0","39KFRKBFIOHTE35F88H27LFDDBEYO0","AS2MFSWNC5CQI","30UZJB2POHY4464FN6NBJ2NLFWF354","","407.39999985694885","img/flower5.png","76","408.69999980926514","3","1","3","1","1,0.333,0.333,0.333,1,0.333,0.333,0.333,1","1,0.333,0.333,0.333,1,0.333,0.333,0.333,1","1",""
"","html-keyboard-response","207","67928","0.0-207.0","39KFRKBFIOHTE35F88H27LFDDBEYO0","AS2MFSWNC5CQI","30UZJB2POHY4464FN6NBJ2NLFWF354","","null","<img src=""img/flower5.png"" style=""width:200px; border:14px solid green;"">","null","","","","","","","","",""
"","image-keyboard-response","208","68610","0.0-208.0","39KFRKBFIOHTE35F88H27LFDDBEYO0","AS2MFSWNC5CQI","30UZJB2POHY4464FN6NBJ2NLFWF354","","680.5","img/flower5.png","76","681.7999999523163","3","1","3","1","1,0.333,0.333,0.333,1,0.333,0.333,0.333,1","1,0.333,0.333,0.333,1,0.333,0.333,0.333,1","1",""
"","html-keyboard-response","209","68913","0.0-209.0","39KFRKBFIOHTE35F88H27LFDDBEYO0","AS2MFSWNC5CQI","30UZJB2POHY4464FN6NBJ2NLFWF354","","null","<img src=""img/flower5.png"" style=""width:200px; border:14px solid green;"">","null","","","","","","","","",""
"","image-keyboard-response","210","69643","0.0-210.0","39KFRKBFIOHTE35F88H27LFDDBEYO0","AS2MFSWNC5CQI","30UZJB2POHY4464FN6NBJ2NLFWF354","","728.1000001430511","img/flower1.png","76","729.7000000476837","3","0","1","1","1,0.333,0.333,0.333,1,0.333,0.333,0.333,1","1,0.333,0.333,0.333,1,0.333,0.333,0.333,1","1",""
"","html-keyboard-response","211","69946","0.0-211.0","39KFRKBFIOHTE35F88H27LFDDBEYO0","AS2MFSWNC5CQI","30UZJB2POHY4464FN6NBJ2NLFWF354","","null","<img src=""img/flower1.png"" style=""width:200px;border:14px solid red;"">","null","","","","","","","","",""
"","image-keyboard-response","212","71489","0.0-212.0","39KFRKBFIOHTE35F88H27LFDDBEYO0","AS2MFSWNC5CQI","30UZJB2POHY4464FN6NBJ2NLFWF354","","1542.2999999523163","img/flower1.png","75","1543.5999999046326","2","0","1","1","1,0.333,0.333,0.333,1,0.333,0.333,0.333,1","1,0.333,0.333,0.333,1,0.333,0.333,0.333,1","1",""
"","html-keyboard-response","213","71791","0.0-213.0","39KFRKBFIOHTE35F88H27LFDDBEYO0","AS2MFSWNC5CQI","30UZJB2POHY4464FN6NBJ2NLFWF354","","null","<img src=""img/flower1.png"" style=""width:200px;border:14px solid red;"">","null","","","","","","","","",""
"","image-keyboard-response","214","72923","0.0-214.0","39KFRKBFIOHTE35F88H27LFDDBEYO0","AS2MFSWNC5CQI","30UZJB2POHY4464FN6NBJ2NLFWF354","","1130.2000000476837","img/flower5.png","76","1131.6000001430511","3","1","3","1","1,0.333,0.333,0.333,1,0.333,0.333,0.333,1","1,0.333,0.333,0.333,1,0.333,0.333,0.333,1","1",""
"","html-keyboard-response","215","73225","0.0-215.0","39KFRKBFIOHTE35F88H27LFDDBEYO0","AS2MFSWNC5CQI","30UZJB2POHY4464FN6NBJ2NLFWF354","","null","<img src=""img/flower5.png"" style=""width:200px; border:14px solid green;"">","null","","","","","","","","",""
"","image-keyboard-response","216","74188","0.0-216.0","39KFRKBFIOHTE35F88H27LFDDBEYO0","AS2MFSWNC5CQI","30UZJB2POHY4464FN6NBJ2NLFWF354","","961.2000000476837","img/flower2.png","75","962.5","2","1","2","1","1,0.333,0.333,0.333,1,0.333,0.333,0.333,1","1,0.333,0.333,0.333,1,0.333,0.333,0.333,1","1",""
"","html-keyboard-response","217","74491","0.0-217.0","39KFRKBFIOHTE35F88H27LFDDBEYO0","AS2MFSWNC5CQI","30UZJB2POHY4464FN6NBJ2NLFWF354","","null","<img src=""img/flower2.png"" style=""width:200px; border:14px solid green;"">","null","","","","","","","","",""
"","image-keyboard-response","218","75179","0.0-218.0","39KFRKBFIOHTE35F88H27LFDDBEYO0","AS2MFSWNC5CQI","30UZJB2POHY4464FN6NBJ2NLFWF354","","686.7000000476837","img/flower1.png","76","687.7000000476837","3","0","1","1","1,0.333,0.333,0.333,1,0.333,0.333,0.333,1","1,0.333,0.333,0.333,1,0.333,0.333,0.333,1","1",""
"","html-keyboard-response","219","75482","0.0-219.0","39KFRKBFIOHTE35F88H27LFDDBEYO0","AS2MFSWNC5CQI","30UZJB2POHY4464FN6NBJ2NLFWF354","","null","<img src=""img/flower1.png"" style=""width:200px;border:14px solid red;"">","null","","","","","","","","",""
"","image-keyboard-response","220","76339","0.0-220.0","39KFRKBFIOHTE35F88H27LFDDBEYO0","AS2MFSWNC5CQI","30UZJB2POHY4464FN6NBJ2NLFWF354","","855.9000000953674","img/flower1.png","75","856.6999998092651","2","0","1","1","1,0.333,0.333,0.333,1,0.333,0.333,0.333,1","1,0.333,0.333,0.333,1,0.333,0.333,0.333,1","1",""
"","html-keyboard-response","221","76642","0.0-221.0","39KFRKBFIOHTE35F88H27LFDDBEYO0","AS2MFSWNC5CQI","30UZJB2POHY4464FN6NBJ2NLFWF354","","null","<img src=""img/flower1.png"" style=""width:200px;border:14px solid red;"">","null","","","","","","","","",""
"","image-keyboard-response","222","77322","0.0-222.0","39KFRKBFIOHTE35F88H27LFDDBEYO0","AS2MFSWNC5CQI","30UZJB2POHY4464FN6NBJ2NLFWF354","","678.7000000476837","img/flower1.png","76","680.1000001430511","3","1","1","1","1,0.333,0.333,0.333,1,0.333,0.333,0.333,1","1,0.333,0.333,0.333,1,0.333,0.333,0.333,1","1",""
"","html-keyboard-response","223","77624","0.0-223.0","39KFRKBFIOHTE35F88H27LFDDBEYO0","AS2MFSWNC5CQI","30UZJB2POHY4464FN6NBJ2NLFWF354","","null","<img src=""img/flower1.png"" style=""width:200px; border:14px solid green;"">","null","","","","","","","","",""
"","image-keyboard-response","224","78642","0.0-224.0","39KFRKBFIOHTE35F88H27LFDDBEYO0","AS2MFSWNC5CQI","30UZJB2POHY4464FN6NBJ2NLFWF354","","1016.1000001430511","img/flower1.png","76","1017.5","3","1","1","1","1,0.333,0.333,0.333,1,0.333,0.333,0.333,1","1,0.333,0.333,0.333,1,0.333,0.333,0.333,1","1",""
"","html-keyboard-response","225","78958","0.0-225.0","39KFRKBFIOHTE35F88H27LFDDBEYO0","AS2MFSWNC5CQI","30UZJB2POHY4464FN6NBJ2NLFWF354","","null","<img src=""img/flower1.png"" style=""width:200px; border:14px solid green;"">","null","","","","","","","","",""
"","image-keyboard-response","226","79635","0.0-226.0","39KFRKBFIOHTE35F88H27LFDDBEYO0","AS2MFSWNC5CQI","30UZJB2POHY4464FN6NBJ2NLFWF354","","675.2000000476837","img/flower1.png","76","676.7000000476837","3","0","1","1","1,0.333,0.333,0.333,1,0.333,0.333,0.333,1","1,0.333,0.333,0.333,1,0.333,0.333,0.333,1","1",""
"","html-keyboard-response","227","79937","0.0-227.0","39KFRKBFIOHTE35F88H27LFDDBEYO0","AS2MFSWNC5CQI","30UZJB2POHY4464FN6NBJ2NLFWF354","","null","<img src=""img/flower1.png"" style=""width:200px;border:14px solid red;"">","null","","","","","","","","",""
"","image-keyboard-response","228","80793","0.0-228.0","39KFRKBFIOHTE35F88H27LFDDBEYO0","AS2MFSWNC5CQI","30UZJB2POHY4464FN6NBJ2NLFWF354","","854.4000000953674","img/flower2.png","75","855.5","2","1","2","1","1,0.333,0.333,0.333,1,0.333,0.333,0.333,1","1,0.333,0.333,0.333,1,0.333,0.333,0.333,1","1",""
"","html-keyboard-response","229","81095","0.0-229.0","39KFRKBFIOHTE35F88H27LFDDBEYO0","AS2MFSWNC5CQI","30UZJB2POHY4464FN6NBJ2NLFWF354","","null","<img src=""img/flower2.png"" style=""width:200px; border:14px solid green;"">","null","","","","","","","","",""
"","image-keyboard-response","230","81810","0.0-230.0","39KFRKBFIOHTE35F88H27LFDDBEYO0","AS2MFSWNC5CQI","30UZJB2POHY4464FN6NBJ2NLFWF354","","713.5","img/flower2.png","75","714.6000001430511","2","1","2","1","1,0.333,0.333,0.333,1,0.333,0.333,0.333,1","1,0.333,0.333,0.333,1,0.333,0.333,0.333,1","1",""
"","html-keyboard-response","231","82112","0.0-231.0","39KFRKBFIOHTE35F88H27LFDDBEYO0","AS2MFSWNC5CQI","30UZJB2POHY4464FN6NBJ2NLFWF354","","null","<img src=""img/flower2.png"" style=""width:200px; border:14px solid green;"">","null","","","","","","","","",""
"","image-keyboard-response","232","82937","0.0-232.0","39KFRKBFIOHTE35F88H27LFDDBEYO0","AS2MFSWNC5CQI","30UZJB2POHY4464FN6NBJ2NLFWF354","","824.1000001430511","img/flower1.png","76","825.0999999046326","3","1","1","1","1,0.333,0.333,0.333,1,0.333,0.333,0.333,1","1,0.333,0.333,0.333,1,0.333,0.333,0.333,1","1",""
"","html-keyboard-response","233","83239","0.0-233.0","39KFRKBFIOHTE35F88H27LFDDBEYO0","AS2MFSWNC5CQI","30UZJB2POHY4464FN6NBJ2NLFWF354","","null","<img src=""img/flower1.png"" style=""width:200px; border:14px solid green;"">","null","","","","","","","","",""
"","image-keyboard-response","234","83970","0.0-234.0","39KFRKBFIOHTE35F88H27LFDDBEYO0","AS2MFSWNC5CQI","30UZJB2POHY4464FN6NBJ2NLFWF354","","730","img/flower2.png","75","731.4000000953674","2","1","2","1","1,0.333,0.333,0.333,1,0.333,0.333,0.333,1","1,0.333,0.333,0.333,1,0.333,0.333,0.333,1","1",""
"","html-keyboard-response","235","84272","0.0-235.0","39KFRKBFIOHTE35F88H27LFDDBEYO0","AS2MFSWNC5CQI","30UZJB2POHY4464FN6NBJ2NLFWF354","","null","<img src=""img/flower2.png"" style=""width:200px; border:14px solid green;"">","null","","","","","","","","",""
"","image-keyboard-response","236","84801","0.0-236.0","39KFRKBFIOHTE35F88H27LFDDBEYO0","AS2MFSWNC5CQI","30UZJB2POHY4464FN6NBJ2NLFWF354","","527.5","img/flower2.png","75","528.5999999046326","2","1","2","1","1,0.333,0.333,0.333,1,0.333,0.333,0.333,1","1,0.333,0.333,0.333,1,0.333,0.333,0.333,1","1",""
"","html-keyboard-response","237","85103","0.0-237.0","39KFRKBFIOHTE35F88H27LFDDBEYO0","AS2MFSWNC5CQI","30UZJB2POHY4464FN6NBJ2NLFWF354","","null","<img src=""img/flower2.png"" style=""width:200px; border:14px solid green;"">","null","","","","","","","","",""
"","image-keyboard-response","238","85705","0.0-238.0","39KFRKBFIOHTE35F88H27LFDDBEYO0","AS2MFSWNC5CQI","30UZJB2POHY4464FN6NBJ2NLFWF354","","601","img/flower2.png","75","602.2000000476837","2","1","2","1","1,0.333,0.333,0.333,1,0.333,0.333,0.333,1","1,0.333,0.333,0.333,1,0.333,0.333,0.333,1","1",""
"","html-keyboard-response","239","86007","0.0-239.0","39KFRKBFIOHTE35F88H27LFDDBEYO0","AS2MFSWNC5CQI","30UZJB2POHY4464FN6NBJ2NLFWF354","","null","<img src=""img/flower2.png"" style=""width:200px; border:14px solid green;"">","null","","","","","","","","",""
"","image-keyboard-response","240","86497","0.0-240.0","39KFRKBFIOHTE35F88H27LFDDBEYO0","AS2MFSWNC5CQI","30UZJB2POHY4464FN6NBJ2NLFWF354","","489","img/flower2.png","75","490.2000000476837","2","1","2","1","1,0.333,0.333,0.333,1,0.333,0.333,0.333,1","1,0.333,0.333,0.333,1,0.333,0.333,0.333,1","1",""
"","html-keyboard-response","241","86800","0.0-241.0","39KFRKBFIOHTE35F88H27LFDDBEYO0","AS2MFSWNC5CQI","30UZJB2POHY4464FN6NBJ2NLFWF354","","null","<img src=""img/flower2.png"" style=""width:200px; border:14px solid green;"">","null","","","","","","","","",""
"","image-keyboard-response","242","87426","0.0-242.0","39KFRKBFIOHTE35F88H27LFDDBEYO0","AS2MFSWNC5CQI","30UZJB2POHY4464FN6NBJ2NLFWF354","","624.4000000953674","img/flower5.png","76","625.5999999046326","3","1","3","1","1,0.333,0.333,0.333,1,0.333,0.333,0.333,1","1,0.333,0.333,0.333,1,0.333,0.333,0.333,1","1",""
"","html-keyboard-response","243","87728","0.0-243.0","39KFRKBFIOHTE35F88H27LFDDBEYO0","AS2MFSWNC5CQI","30UZJB2POHY4464FN6NBJ2NLFWF354","","null","<img src=""img/flower5.png"" style=""width:200px; border:14px solid green;"">","null","","","","","","","","",""
"","image-keyboard-response","244","88497","0.0-244.0","39KFRKBFIOHTE35F88H27LFDDBEYO0","AS2MFSWNC5CQI","30UZJB2POHY4464FN6NBJ2NLFWF354","","767.9000000953674","img/flower1.png","76","769","3","0","1","1","1,0.333,0.333,0.333,1,0.333,0.333,0.333,1","1,0.333,0.333,0.333,1,0.333,0.333,0.333,1","1",""
"","html-keyboard-response","245","88800","0.0-245.0","39KFRKBFIOHTE35F88H27LFDDBEYO0","AS2MFSWNC5CQI","30UZJB2POHY4464FN6NBJ2NLFWF354","","null","<img src=""img/flower1.png"" style=""width:200px;border:14px solid red;"">","null","","","","","","","","",""
"","image-keyboard-response","246","89514","0.0-246.0","39KFRKBFIOHTE35F88H27LFDDBEYO0","AS2MFSWNC5CQI","30UZJB2POHY4464FN6NBJ2NLFWF354","","713.5999999046326","img/flower5.png","76","714.2999999523163","3","1","3","1","1,0.333,0.333,0.333,1,0.333,0.333,0.333,1","1,0.333,0.333,0.333,1,0.333,0.333,0.333,1","1",""
"","html-keyboard-response","247","89817","0.0-247.0","39KFRKBFIOHTE35F88H27LFDDBEYO0","AS2MFSWNC5CQI","30UZJB2POHY4464FN6NBJ2NLFWF354","","null","<img src=""img/flower5.png"" style=""width:200px; border:14px solid green;"">","null","","","","","","","","",""
"","image-keyboard-response","248","90633","0.0-248.0","39KFRKBFIOHTE35F88H27LFDDBEYO0","AS2MFSWNC5CQI","30UZJB2POHY4464FN6NBJ2NLFWF354","","814.6000001430511","img/flower5.png","76","815.5999999046326","3","1","3","1","1,0.333,0.333,0.333,1,0.333,0.333,0.333,1","1,0.333,0.333,0.333,1,0.333,0.333,0.333,1","1",""
"","html-keyboard-response","249","90934","0.0-249.0","39KFRKBFIOHTE35F88H27LFDDBEYO0","AS2MFSWNC5CQI","30UZJB2POHY4464FN6NBJ2NLFWF354","","null","<img src=""img/flower5.png"" style=""width:200px; border:14px solid green;"">","null","","","","","","","","",""
"","image-keyboard-response","250","91803","0.0-250.0","39KFRKBFIOHTE35F88H27LFDDBEYO0","AS2MFSWNC5CQI","30UZJB2POHY4464FN6NBJ2NLFWF354","","868","img/flower1.png","76","868.9000000953674","3","0","1","1","1,0.333,0.333,0.333,1,0.333,0.333,0.333,1","1,0.333,0.333,0.333,1,0.333,0.333,0.333,1","1",""
"","html-keyboard-response","251","92105","0.0-251.0","39KFRKBFIOHTE35F88H27LFDDBEYO0","AS2MFSWNC5CQI","30UZJB2POHY4464FN6NBJ2NLFWF354","","null","<img src=""img/flower1.png"" style=""width:200px;border:14px solid red;"">","null","","","","","","","","",""
"","image-keyboard-response","252","93185","0.0-252.0","39KFRKBFIOHTE35F88H27LFDDBEYO0","AS2MFSWNC5CQI","30UZJB2POHY4464FN6NBJ2NLFWF354","","1078.4000000953674","img/flower1.png","75","1079.5","2","0","1","1","1,0.333,0.333,0.333,1,0.333,0.333,0.333,1","1,0.333,0.333,0.333,1,0.333,0.333,0.333,1","1",""
"","html-keyboard-response","253","93489","0.0-253.0","39KFRKBFIOHTE35F88H27LFDDBEYO0","AS2MFSWNC5CQI","30UZJB2POHY4464FN6NBJ2NLFWF354","","null","<img src=""img/flower1.png"" style=""width:200px;border:14px solid red;"">","null","","","","","","","","",""
"","image-keyboard-response","254","94371","0.0-254.0","39KFRKBFIOHTE35F88H27LFDDBEYO0","AS2MFSWNC5CQI","30UZJB2POHY4464FN6NBJ2NLFWF354","","880.2000000476837","img/flower5.png","76","881.8000001907349","3","1","3","1","1,0.333,0.333,0.333,1,0.333,0.333,0.333,1","1,0.333,0.333,0.333,1,0.333,0.333,0.333,1","1",""
"","html-keyboard-response","255","94673","0.0-255.0","39KFRKBFIOHTE35F88H27LFDDBEYO0","AS2MFSWNC5CQI","30UZJB2POHY4464FN6NBJ2NLFWF354","","null","<img src=""img/flower5.png"" style=""width:200px; border:14px solid green;"">","null","","","","","","","","",""
"","image-keyboard-response","256","95803","0.0-256.0","39KFRKBFIOHTE35F88H27LFDDBEYO0","AS2MFSWNC5CQI","30UZJB2POHY4464FN6NBJ2NLFWF354","","1127.5999999046326","img/flower1.png","76","1129","3","1","1","1","1,0.333,0.333,0.333,1,0.333,0.333,0.333,1","1,0.333,0.333,0.333,1,0.333,0.333,0.333,1","1",""
"","html-keyboard-response","257","96105","0.0-257.0","39KFRKBFIOHTE35F88H27LFDDBEYO0","AS2MFSWNC5CQI","30UZJB2POHY4464FN6NBJ2NLFWF354","","null","<img src=""img/flower1.png"" style=""width:200px; border:14px solid green;"">","null","","","","","","","","",""
"","image-keyboard-response","258","96826","0.0-258.0","39KFRKBFIOHTE35F88H27LFDDBEYO0","AS2MFSWNC5CQI","30UZJB2POHY4464FN6NBJ2NLFWF354","","719.2000000476837","img/flower2.png","75","720.5999999046326","2","1","2","1","1,0.333,0.333,0.333,1,0.333,0.333,0.333,1","1,0.333,0.333,0.333,1,0.333,0.333,0.333,1","1",""
"","html-keyboard-response","259","97129","0.0-259.0","39KFRKBFIOHTE35F88H27LFDDBEYO0","AS2MFSWNC5CQI","30UZJB2POHY4464FN6NBJ2NLFWF354","","null","<img src=""img/flower2.png"" style=""width:200px; border:14px solid green;"">","null","","","","","","","","",""
"","image-keyboard-response","260","97769","0.0-260.0","39KFRKBFIOHTE35F88H27LFDDBEYO0","AS2MFSWNC5CQI","30UZJB2POHY4464FN6NBJ2NLFWF354","","638.7000000476837","img/flower5.png","76","639.8999998569489","3","1","3","1","1,0.333,0.333,0.333,1,0.333,0.333,0.333,1","1,0.333,0.333,0.333,1,0.333,0.333,0.333,1","1",""
"","html-keyboard-response","261","98072","0.0-261.0","39KFRKBFIOHTE35F88H27LFDDBEYO0","AS2MFSWNC5CQI","30UZJB2POHY4464FN6NBJ2NLFWF354","","null","<img src=""img/flower5.png"" style=""width:200px; border:14px solid green;"">","null","","","","","","","","",""
"","image-keyboard-response","262","98698","0.0-262.0","39KFRKBFIOHTE35F88H27LFDDBEYO0","AS2MFSWNC5CQI","30UZJB2POHY4464FN6NBJ2NLFWF354","","625.2000000476837","img/flower5.png","76","625.7999999523163","3","1","3","1","1,0.333,0.333,0.333,1,0.333,0.333,0.333,1","1,0.333,0.333,0.333,1,0.333,0.333,0.333,1","1",""
"","html-keyboard-response","263","99013","0.0-263.0","39KFRKBFIOHTE35F88H27LFDDBEYO0","AS2MFSWNC5CQI","30UZJB2POHY4464FN6NBJ2NLFWF354","","null","<img src=""img/flower5.png"" style=""width:200px; border:14px solid green;"">","null","","","","","","","","",""
"","image-keyboard-response","264","99449","0.0-264.0","39KFRKBFIOHTE35F88H27LFDDBEYO0","AS2MFSWNC5CQI","30UZJB2POHY4464FN6NBJ2NLFWF354","","434.40000009536743","img/flower5.png","76","435.59999990463257","3","1","3","1","1,0.333,0.333,0.333,1,0.333,0.333,0.333,1","1,0.333,0.333,0.333,1,0.333,0.333,0.333,1","1",""
"","html-keyboard-response","265","99750","0.0-265.0","39KFRKBFIOHTE35F88H27LFDDBEYO0","AS2MFSWNC5CQI","30UZJB2POHY4464FN6NBJ2NLFWF354","","null","<img src=""img/flower5.png"" style=""width:200px; border:14px solid green;"">","null","","","","","","","","",""
"","image-keyboard-response","266","100298","0.0-266.0","39KFRKBFIOHTE35F88H27LFDDBEYO0","AS2MFSWNC5CQI","30UZJB2POHY4464FN6NBJ2NLFWF354","","546.2999999523163","img/flower2.png","75","547.7999999523163","2","1","2","1","1,0.333,0.333,0.333,1,0.333,0.333,0.333,1","1,0.333,0.333,0.333,1,0.333,0.333,0.333,1","1",""
"","html-keyboard-response","267","100601","0.0-267.0","39KFRKBFIOHTE35F88H27LFDDBEYO0","AS2MFSWNC5CQI","30UZJB2POHY4464FN6NBJ2NLFWF354","","null","<img src=""img/flower2.png"" style=""width:200px; border:14px solid green;"">","null","","","","","","","","",""
"","image-keyboard-response","268","101145","0.0-268.0","39KFRKBFIOHTE35F88H27LFDDBEYO0","AS2MFSWNC5CQI","30UZJB2POHY4464FN6NBJ2NLFWF354","","542.3999998569489","img/flower2.png","75","543.5","2","1","2","1","1,0.333,0.333,0.333,1,0.333,0.333,0.333,1","1,0.333,0.333,0.333,1,0.333,0.333,0.333,1","1",""
"","html-keyboard-response","269","101447","0.0-269.0","39KFRKBFIOHTE35F88H27LFDDBEYO0","AS2MFSWNC5CQI","30UZJB2POHY4464FN6NBJ2NLFWF354","","null","<img src=""img/flower2.png"" style=""width:200px; border:14px solid green;"">","null","","","","","","","","",""
"","image-keyboard-response","270","101987","0.0-270.0","39KFRKBFIOHTE35F88H27LFDDBEYO0","AS2MFSWNC5CQI","30UZJB2POHY4464FN6NBJ2NLFWF354","","539","img/flower1.png","76","540.1000001430511","3","0","1","1","1,0.333,0.333,0.333,1,0.333,0.333,0.333,1","1,0.333,0.333,0.333,1,0.333,0.333,0.333,1","1",""
"","html-keyboard-response","271","102289","0.0-271.0","39KFRKBFIOHTE35F88H27LFDDBEYO0","AS2MFSWNC5CQI","30UZJB2POHY4464FN6NBJ2NLFWF354","","null","<img src=""img/flower1.png"" style=""width:200px;border:14px solid red;"">","null","","","","","","","","",""
"","image-keyboard-response","272","103177","0.0-272.0","39KFRKBFIOHTE35F88H27LFDDBEYO0","AS2MFSWNC5CQI","30UZJB2POHY4464FN6NBJ2NLFWF354","","886","img/flower5.png","76","887.1000001430511","3","1","3","1","1,0.333,0.333,0.333,1,0.333,0.333,0.333,1","1,0.333,0.333,0.333,1,0.333,0.333,0.333,1","1",""
"","html-keyboard-response","273","103478","0.0-273.0","39KFRKBFIOHTE35F88H27LFDDBEYO0","AS2MFSWNC5CQI","30UZJB2POHY4464FN6NBJ2NLFWF354","","null","<img src=""img/flower5.png"" style=""width:200px; border:14px solid green;"">","null","","","","","","","","",""
"","image-keyboard-response","274","104058","0.0-274.0","39KFRKBFIOHTE35F88H27LFDDBEYO0","AS2MFSWNC5CQI","30UZJB2POHY4464FN6NBJ2NLFWF354","","579.7999999523163","img/flower5.png","76","580.5","3","1","3","1","1,0.333,0.333,0.333,1,0.333,0.333,0.333,1","1,0.333,0.333,0.333,1,0.333,0.333,0.333,1","1",""
"","html-keyboard-response","275","104360","0.0-275.0","39KFRKBFIOHTE35F88H27LFDDBEYO0","AS2MFSWNC5CQI","30UZJB2POHY4464FN6NBJ2NLFWF354","","null","<img src=""img/flower5.png"" style=""width:200px; border:14px solid green;"">","null","","","","","","","","",""
"","image-keyboard-response","276","105122","0.0-276.0","39KFRKBFIOHTE35F88H27LFDDBEYO0","AS2MFSWNC5CQI","30UZJB2POHY4464FN6NBJ2NLFWF354","","760.3999998569489","img/flower1.png","75","761.7999999523163","2","1","1","1","1,0.333,0.333,0.333,1,0.333,0.333,0.333,1","1,0.333,0.333,0.333,1,0.333,0.333,0.333,1","1",""
"","html-keyboard-response","277","105425","0.0-277.0","39KFRKBFIOHTE35F88H27LFDDBEYO0","AS2MFSWNC5CQI","30UZJB2POHY4464FN6NBJ2NLFWF354","","null","<img src=""img/flower1.png"" style=""width:200px; border:14px solid green;"">","null","","","","","","","","",""
"","image-keyboard-response","278","106387","0.0-278.0","39KFRKBFIOHTE35F88H27LFDDBEYO0","AS2MFSWNC5CQI","30UZJB2POHY4464FN6NBJ2NLFWF354","","960.9000000953674","img/flower2.png","75","961.5999999046326","2","1","2","1","1,0.333,0.333,0.333,1,0.333,0.333,0.333,1","1,0.333,0.333,0.333,1,0.333,0.333,0.333,1","1",""
"","html-keyboard-response","279","106689","0.0-279.0","39KFRKBFIOHTE35F88H27LFDDBEYO0","AS2MFSWNC5CQI","30UZJB2POHY4464FN6NBJ2NLFWF354","","null","<img src=""img/flower2.png"" style=""width:200px; border:14px solid green;"">","null","","","","","","","","",""
"","image-keyboard-response","280","107346","0.0-280.0","39KFRKBFIOHTE35F88H27LFDDBEYO0","AS2MFSWNC5CQI","30UZJB2POHY4464FN6NBJ2NLFWF354","","655.7999999523163","img/flower2.png","75","656.7999999523163","2","1","2","1","1,0.333,0.333,0.333,1,0.333,0.333,0.333,1","1,0.333,0.333,0.333,1,0.333,0.333,0.333,1","1",""
"","html-keyboard-response","281","107650","0.0-281.0","39KFRKBFIOHTE35F88H27LFDDBEYO0","AS2MFSWNC5CQI","30UZJB2POHY4464FN6NBJ2NLFWF354","","null","<img src=""img/flower2.png"" style=""width:200px; border:14px solid green;"">","null","","","","","","","","",""
"","image-keyboard-response","282","108185","0.0-282.0","39KFRKBFIOHTE35F88H27LFDDBEYO0","AS2MFSWNC5CQI","30UZJB2POHY4464FN6NBJ2NLFWF354","","534","img/flower2.png","75","535","2","1","2","1","1,0.333,0.333,0.333,1,0.333,0.333,0.333,1","1,0.333,0.333,0.333,1,0.333,0.333,0.333,1","1",""
"","html-keyboard-response","283","108488","0.0-283.0","39KFRKBFIOHTE35F88H27LFDDBEYO0","AS2MFSWNC5CQI","30UZJB2POHY4464FN6NBJ2NLFWF354","","null","<img src=""img/flower2.png"" style=""width:200px; border:14px solid green;"">","null","","","","","","","","",""
"","image-keyboard-response","284","109355","0.0-284.0","39KFRKBFIOHTE35F88H27LFDDBEYO0","AS2MFSWNC5CQI","30UZJB2POHY4464FN6NBJ2NLFWF354","","866","img/flower5.png","76","867","3","1","3","1","1,0.333,0.333,0.333,1,0.333,0.333,0.333,1","1,0.333,0.333,0.333,1,0.333,0.333,0.333,1","1",""
"","html-keyboard-response","285","109658","0.0-285.0","39KFRKBFIOHTE35F88H27LFDDBEYO0","AS2MFSWNC5CQI","30UZJB2POHY4464FN6NBJ2NLFWF354","","null","<img src=""img/flower5.png"" style=""width:200px; border:14px solid green;"">","null","","","","","","","","",""
"","image-keyboard-response","286","110186","0.0-286.0","39KFRKBFIOHTE35F88H27LFDDBEYO0","AS2MFSWNC5CQI","30UZJB2POHY4464FN6NBJ2NLFWF354","","527.1000001430511","img/flower5.png","76","528.6000001430511","3","1","3","1","1,0.333,0.333,0.333,1,0.333,0.333,0.333,1","1,0.333,0.333,0.333,1,0.333,0.333,0.333,1","1",""
"","html-keyboard-response","287","110489","0.0-287.0","39KFRKBFIOHTE35F88H27LFDDBEYO0","AS2MFSWNC5CQI","30UZJB2POHY4464FN6NBJ2NLFWF354","","null","<img src=""img/flower5.png"" style=""width:200px; border:14px solid green;"">","null","","","","","","","","",""
"","image-keyboard-response","288","111085","0.0-288.0","39KFRKBFIOHTE35F88H27LFDDBEYO0","AS2MFSWNC5CQI","30UZJB2POHY4464FN6NBJ2NLFWF354","","595.5","img/flower2.png","75","596.3000001907349","2","1","2","1","1,0.333,0.333,0.333,1,0.333,0.333,0.333,1","1,0.333,0.333,0.333,1,0.333,0.333,0.333,1","1",""
"","html-keyboard-response","289","111388","0.0-289.0","39KFRKBFIOHTE35F88H27LFDDBEYO0","AS2MFSWNC5CQI","30UZJB2POHY4464FN6NBJ2NLFWF354","","null","<img src=""img/flower2.png"" style=""width:200px; border:14px solid green;"">","null","","","","","","","","",""
"","image-keyboard-response","290","112091","0.0-290.0","39KFRKBFIOHTE35F88H27LFDDBEYO0","AS2MFSWNC5CQI","30UZJB2POHY4464FN6NBJ2NLFWF354","","701.5","img/flower2.png","75","702.9000000953674","2","1","2","1","1,0.333,0.333,0.333,1,0.333,0.333,0.333,1","1,0.333,0.333,0.333,1,0.333,0.333,0.333,1","1",""
"","html-keyboard-response","291","112403","0.0-291.0","39KFRKBFIOHTE35F88H27LFDDBEYO0","AS2MFSWNC5CQI","30UZJB2POHY4464FN6NBJ2NLFWF354","","null","<img src=""img/flower2.png"" style=""width:200px; border:14px solid green;"">","null","","","","","","","","",""
"","image-keyboard-response","292","112921","0.0-292.0","39KFRKBFIOHTE35F88H27LFDDBEYO0","AS2MFSWNC5CQI","30UZJB2POHY4464FN6NBJ2NLFWF354","","516.2999999523163","img/flower5.png","76","517.5","3","1","3","1","1,0.333,0.333,0.333,1,0.333,0.333,0.333,1","1,0.333,0.333,0.333,1,0.333,0.333,0.333,1","1",""
"","html-keyboard-response","293","113222","0.0-293.0","39KFRKBFIOHTE35F88H27LFDDBEYO0","AS2MFSWNC5CQI","30UZJB2POHY4464FN6NBJ2NLFWF354","","null","<img src=""img/flower5.png"" style=""width:200px; border:14px solid green;"">","null","","","","","","","","",""
"","image-keyboard-response","294","113857","0.0-294.0","39KFRKBFIOHTE35F88H27LFDDBEYO0","AS2MFSWNC5CQI","30UZJB2POHY4464FN6NBJ2NLFWF354","","633.9000000953674","img/flower2.png","75","634.3999998569489","2","1","2","1","1,0.333,0.333,0.333,1,0.333,0.333,0.333,1","1,0.333,0.333,0.333,1,0.333,0.333,0.333,1","1",""
"","html-keyboard-response","295","114159","0.0-295.0","39KFRKBFIOHTE35F88H27LFDDBEYO0","AS2MFSWNC5CQI","30UZJB2POHY4464FN6NBJ2NLFWF354","","null","<img src=""img/flower2.png"" style=""width:200px; border:14px solid green;"">","null","","","","","","","","",""
"","image-keyboard-response","296","114801","0.0-296.0","39KFRKBFIOHTE35F88H27LFDDBEYO0","AS2MFSWNC5CQI","30UZJB2POHY4464FN6NBJ2NLFWF354","","640.7999999523163","img/flower2.png","75","641.9000000953674","2","1","2","1","1,0.333,0.333,0.333,1,0.333,0.333,0.333,1","1,0.333,0.333,0.333,1,0.333,0.333,0.333,1","1",""
"","html-keyboard-response","297","115103","0.0-297.0","39KFRKBFIOHTE35F88H27LFDDBEYO0","AS2MFSWNC5CQI","30UZJB2POHY4464FN6NBJ2NLFWF354","","null","<img src=""img/flower2.png"" style=""width:200px; border:14px solid green;"">","null","","","","","","","","",""
"","image-keyboard-response","298","115586","0.0-298.0","39KFRKBFIOHTE35F88H27LFDDBEYO0","AS2MFSWNC5CQI","30UZJB2POHY4464FN6NBJ2NLFWF354","","482","img/flower1.png","76","483.40000009536743","3","1","1","1","1,0.333,0.333,0.333,1,0.333,0.333,0.333,1","1,0.333,0.333,0.333,1,0.333,0.333,0.333,1","1",""
"","html-keyboard-response","299","115889","0.0-299.0","39KFRKBFIOHTE35F88H27LFDDBEYO0","AS2MFSWNC5CQI","30UZJB2POHY4464FN6NBJ2NLFWF354","","null","<img src=""img/flower1.png"" style=""width:200px; border:14px solid green;"">","null","","","","","","","","",""
"","image-keyboard-response","300","116804","0.0-300.0","39KFRKBFIOHTE35F88H27LFDDBEYO0","AS2MFSWNC5CQI","30UZJB2POHY4464FN6NBJ2NLFWF354","","913.2000000476837","img/flower2.png","75","914.3999998569489","2","1","2","1","1,0.333,0.333,0.333,1,0.333,0.333,0.333,1","1,0.333,0.333,0.333,1,0.333,0.333,0.333,1","1",""
"","html-keyboard-response","301","117107","0.0-301.0","39KFRKBFIOHTE35F88H27LFDDBEYO0","AS2MFSWNC5CQI","30UZJB2POHY4464FN6NBJ2NLFWF354","","null","<img src=""img/flower2.png"" style=""width:200px; border:14px solid green;"">","null","","","","","","","","",""
"","image-keyboard-response","302","117714","0.0-302.0","39KFRKBFIOHTE35F88H27LFDDBEYO0","AS2MFSWNC5CQI","30UZJB2POHY4464FN6NBJ2NLFWF354","","605.8999998569489","img/flower5.png","76","607.2000000476837","3","1","3","1","1,0.333,0.333,0.333,1,0.333,0.333,0.333,1","1,0.333,0.333,0.333,1,0.333,0.333,0.333,1","1",""
"","html-keyboard-response","303","118016","0.0-303.0","39KFRKBFIOHTE35F88H27LFDDBEYO0","AS2MFSWNC5CQI","30UZJB2POHY4464FN6NBJ2NLFWF354","","null","<img src=""img/flower5.png"" style=""width:200px; border:14px solid green;"">","null","","","","","","","","",""
"","image-keyboard-response","304","118618","0.0-304.0","39KFRKBFIOHTE35F88H27LFDDBEYO0","AS2MFSWNC5CQI","30UZJB2POHY4464FN6NBJ2NLFWF354","","600.4000000953674","img/flower2.png","75","601.7000000476837","2","1","2","1","1,0.333,0.333,0.333,1,0.333,0.333,0.333,1","1,0.333,0.333,0.333,1,0.333,0.333,0.333,1","1",""
"","html-keyboard-response","305","118923","0.0-305.0","39KFRKBFIOHTE35F88H27LFDDBEYO0","AS2MFSWNC5CQI","30UZJB2POHY4464FN6NBJ2NLFWF354","","null","<img src=""img/flower2.png"" style=""width:200px; border:14px solid green;"">","null","","","","","","","","",""
"","image-keyboard-response","306","119449","0.0-306.0","39KFRKBFIOHTE35F88H27LFDDBEYO0","AS2MFSWNC5CQI","30UZJB2POHY4464FN6NBJ2NLFWF354","","525.0999999046326","img/flower2.png","76","526.2000000476837","3","1","2","1","1,0.333,0.333,0.333,1,0.333,0.333,0.333,1","1,0.333,0.333,0.333,1,0.333,0.333,0.333,1","1",""
"","html-keyboard-response","307","119763","0.0-307.0","39KFRKBFIOHTE35F88H27LFDDBEYO0","AS2MFSWNC5CQI","30UZJB2POHY4464FN6NBJ2NLFWF354","","null","<img src=""img/flower2.png"" style=""width:200px; border:14px solid green;"">","null","","","","","","","","",""
"","image-keyboard-response","308","121098","0.0-308.0","39KFRKBFIOHTE35F88H27LFDDBEYO0","AS2MFSWNC5CQI","30UZJB2POHY4464FN6NBJ2NLFWF354","","1334","img/flower5.png","76","1335.5999999046326","3","1","3","1","1,0.333,0.333,0.333,1,0.333,0.333,0.333,1","1,0.333,0.333,0.333,1,0.333,0.333,0.333,1","1",""
"","html-keyboard-response","309","121401","0.0-309.0","39KFRKBFIOHTE35F88H27LFDDBEYO0","AS2MFSWNC5CQI","30UZJB2POHY4464FN6NBJ2NLFWF354","","null","<img src=""img/flower5.png"" style=""width:200px; border:14px solid green;"">","null","","","","","","","","",""
"","image-keyboard-response","310","122379","0.0-310.0","39KFRKBFIOHTE35F88H27LFDDBEYO0","AS2MFSWNC5CQI","30UZJB2POHY4464FN6NBJ2NLFWF354","","976.6000001430511","img/flower1.png","75","977.8999998569489","2","0","1","1","1,0.333,0.333,0.333,1,0.333,0.333,0.333,1","1,0.333,0.333,0.333,1,0.333,0.333,0.333,1","1",""
"","html-keyboard-response","311","122694","0.0-311.0","39KFRKBFIOHTE35F88H27LFDDBEYO0","AS2MFSWNC5CQI","30UZJB2POHY4464FN6NBJ2NLFWF354","","null","<img src=""img/flower1.png"" style=""width:200px;border:14px solid red;"">","null","","","","","","","","",""
"","image-keyboard-response","312","123490","0.0-312.0","39KFRKBFIOHTE35F88H27LFDDBEYO0","AS2MFSWNC5CQI","30UZJB2POHY4464FN6NBJ2NLFWF354","","794.1000001430511","img/flower1.png","76","795.3000001907349","3","0","1","1","1,0.333,0.333,0.333,1,0.333,0.333,0.333,1","1,0.333,0.333,0.333,1,0.333,0.333,0.333,1","1",""
"","html-keyboard-response","313","123791","0.0-313.0","39KFRKBFIOHTE35F88H27LFDDBEYO0","AS2MFSWNC5CQI","30UZJB2POHY4464FN6NBJ2NLFWF354","","null","<img src=""img/flower1.png"" style=""width:200px;border:14px solid red;"">","null","","","","","","","","",""
"","image-keyboard-response","314","124522","0.0-314.0","39KFRKBFIOHTE35F88H27LFDDBEYO0","AS2MFSWNC5CQI","30UZJB2POHY4464FN6NBJ2NLFWF354","","729.9000000953674","img/flower2.png","75","731.1999998092651","2","1","2","1","1,0.333,0.333,0.333,1,0.333,0.333,0.333,1","1,0.333,0.333,0.333,1,0.333,0.333,0.333,1","1",""
"","html-keyboard-response","315","124825","0.0-315.0","39KFRKBFIOHTE35F88H27LFDDBEYO0","AS2MFSWNC5CQI","30UZJB2POHY4464FN6NBJ2NLFWF354","","null","<img src=""img/flower2.png"" style=""width:200px; border:14px solid green;"">","null","","","","","","","","",""
"","image-keyboard-response","316","125602","0.0-316.0","39KFRKBFIOHTE35F88H27LFDDBEYO0","AS2MFSWNC5CQI","30UZJB2POHY4464FN6NBJ2NLFWF354","","776.0999999046326","img/flower5.png","76","777.5","3","1","3","1","1,0.333,0.333,0.333,1,0.333,0.333,0.333,1","1,0.333,0.333,0.333,1,0.333,0.333,0.333,1","1",""
"","html-keyboard-response","317","125917","0.0-317.0","39KFRKBFIOHTE35F88H27LFDDBEYO0","AS2MFSWNC5CQI","30UZJB2POHY4464FN6NBJ2NLFWF354","","null","<img src=""img/flower5.png"" style=""width:200px; border:14px solid green;"">","null","","","","","","","","",""
"","image-keyboard-response","318","126426","0.0-318.0","39KFRKBFIOHTE35F88H27LFDDBEYO0","AS2MFSWNC5CQI","30UZJB2POHY4464FN6NBJ2NLFWF354","","507.09999990463257","img/flower2.png","75","508.5","2","1","2","1","1,0.333,0.333,0.333,1,0.333,0.333,0.333,1","1,0.333,0.333,0.333,1,0.333,0.333,0.333,1","1",""
"","html-keyboard-response","319","126729","0.0-319.0","39KFRKBFIOHTE35F88H27LFDDBEYO0","AS2MFSWNC5CQI","30UZJB2POHY4464FN6NBJ2NLFWF354","","null","<img src=""img/flower2.png"" style=""width:200px; border:14px solid green;"">","null","","","","","","","","",""
"","image-keyboard-response","320","127170","0.0-320.0","39KFRKBFIOHTE35F88H27LFDDBEYO0","AS2MFSWNC5CQI","30UZJB2POHY4464FN6NBJ2NLFWF354","","440.2000000476837","img/flower5.png","76","440.89999985694885","3","1","3","1","1,0.333,0.333,0.333,1,0.333,0.333,0.333,1","1,0.333,0.333,0.333,1,0.333,0.333,0.333,1","1",""
"","html-keyboard-response","321","127481","0.0-321.0","39KFRKBFIOHTE35F88H27LFDDBEYO0","AS2MFSWNC5CQI","30UZJB2POHY4464FN6NBJ2NLFWF354","","null","<img src=""img/flower5.png"" style=""width:200px; border:14px solid green;"">","null","","","","","","","","",""
"","image-keyboard-response","322","128497","0.0-322.0","39KFRKBFIOHTE35F88H27LFDDBEYO0","AS2MFSWNC5CQI","30UZJB2POHY4464FN6NBJ2NLFWF354","","1015.7000000476837","img/flower1.png","75","1016.5","2","1","1","1","1,0.333,0.333,0.333,1,0.333,0.333,0.333,1","1,0.333,0.333,0.333,1,0.333,0.333,0.333,1","1",""
"","html-keyboard-response","323","128800","0.0-323.0","39KFRKBFIOHTE35F88H27LFDDBEYO0","AS2MFSWNC5CQI","30UZJB2POHY4464FN6NBJ2NLFWF354","","null","<img src=""img/flower1.png"" style=""width:200px; border:14px solid green;"">","null","","","","","","","","",""
"","image-keyboard-response","324","129522","0.0-324.0","39KFRKBFIOHTE35F88H27LFDDBEYO0","AS2MFSWNC5CQI","30UZJB2POHY4464FN6NBJ2NLFWF354","","720.7999999523163","img/flower5.png","76","722.2999999523163","3","1","3","1","1,0.333,0.333,0.333,1,0.333,0.333,0.333,1","1,0.333,0.333,0.333,1,0.333,0.333,0.333,1","1",""
"","html-keyboard-response","325","129824","0.0-325.0","39KFRKBFIOHTE35F88H27LFDDBEYO0","AS2MFSWNC5CQI","30UZJB2POHY4464FN6NBJ2NLFWF354","","null","<img src=""img/flower5.png"" style=""width:200px; border:14px solid green;"">","null","","","","","","","","",""
"","image-keyboard-response","326","130297","0.0-326.0","39KFRKBFIOHTE35F88H27LFDDBEYO0","AS2MFSWNC5CQI","30UZJB2POHY4464FN6NBJ2NLFWF354","","471","img/flower5.png","76","472.09999990463257","3","1","3","1","1,0.333,0.333,0.333,1,0.333,0.333,0.333,1","1,0.333,0.333,0.333,1,0.333,0.333,0.333,1","1",""
"","html-keyboard-response","327","130599","0.0-327.0","39KFRKBFIOHTE35F88H27LFDDBEYO0","AS2MFSWNC5CQI","30UZJB2POHY4464FN6NBJ2NLFWF354","","null","<img src=""img/flower5.png"" style=""width:200px; border:14px solid green;"">","null","","","","","","","","",""
"","image-keyboard-response","328","131489","0.0-328.0","39KFRKBFIOHTE35F88H27LFDDBEYO0","AS2MFSWNC5CQI","30UZJB2POHY4464FN6NBJ2NLFWF354","","890.0999999046326","img/flower1.png","75","890.6000001430511","2","0","1","1","1,0.333,0.333,0.333,1,0.333,0.333,0.333,1","1,0.333,0.333,0.333,1,0.333,0.333,0.333,1","1",""
"","html-keyboard-response","329","131791","0.0-329.0","39KFRKBFIOHTE35F88H27LFDDBEYO0","AS2MFSWNC5CQI","30UZJB2POHY4464FN6NBJ2NLFWF354","","null","<img src=""img/flower1.png"" style=""width:200px;border:14px solid red;"">","null","","","","","","","","",""
"","image-keyboard-response","330","132659","0.0-330.0","39KFRKBFIOHTE35F88H27LFDDBEYO0","AS2MFSWNC5CQI","30UZJB2POHY4464FN6NBJ2NLFWF354","","867.4000000953674","img/flower5.png","76","868","3","1","3","1","1,0.333,0.333,0.333,1,0.333,0.333,0.333,1","1,0.333,0.333,0.333,1,0.333,0.333,0.333,1","1",""
"","html-keyboard-response","331","132962","0.0-331.0","39KFRKBFIOHTE35F88H27LFDDBEYO0","AS2MFSWNC5CQI","30UZJB2POHY4464FN6NBJ2NLFWF354","","null","<img src=""img/flower5.png"" style=""width:200px; border:14px solid green;"">","null","","","","","","","","",""
"","image-keyboard-response","332","133465","0.0-332.0","39KFRKBFIOHTE35F88H27LFDDBEYO0","AS2MFSWNC5CQI","30UZJB2POHY4464FN6NBJ2NLFWF354","","501.7000000476837","img/flower5.png","76","502.7999999523163","3","1","3","1","1,0.333,0.333,0.333,1,0.333,0.333,0.333,1","1,0.333,0.333,0.333,1,0.333,0.333,0.333,1","1",""
"","html-keyboard-response","333","133766","0.0-333.0","39KFRKBFIOHTE35F88H27LFDDBEYO0","AS2MFSWNC5CQI","30UZJB2POHY4464FN6NBJ2NLFWF354","","null","<img src=""img/flower5.png"" style=""width:200px; border:14px solid green;"">","null","","","","","","","","",""
"","image-keyboard-response","334","134594","0.0-334.0","39KFRKBFIOHTE35F88H27LFDDBEYO0","AS2MFSWNC5CQI","30UZJB2POHY4464FN6NBJ2NLFWF354","","827.5999999046326","img/flower1.png","76","828.2999999523163","3","0","1","1","1,0.333,0.333,0.333,1,0.333,0.333,0.333,1","1,0.333,0.333,0.333,1,0.333,0.333,0.333,1","1",""
"","html-keyboard-response","335","134897","0.0-335.0","39KFRKBFIOHTE35F88H27LFDDBEYO0","AS2MFSWNC5CQI","30UZJB2POHY4464FN6NBJ2NLFWF354","","null","<img src=""img/flower1.png"" style=""width:200px;border:14px solid red;"">","null","","","","","","","","",""
"","image-keyboard-response","336","135449","0.0-336.0","39KFRKBFIOHTE35F88H27LFDDBEYO0","AS2MFSWNC5CQI","30UZJB2POHY4464FN6NBJ2NLFWF354","","550.7000000476837","img/flower2.png","75","551.5","2","1","2","1","1,0.333,0.333,0.333,1,0.333,0.333,0.333,1","1,0.333,0.333,0.333,1,0.333,0.333,0.333,1","1",""
"","html-keyboard-response","337","135754","0.0-337.0","39KFRKBFIOHTE35F88H27LFDDBEYO0","AS2MFSWNC5CQI","30UZJB2POHY4464FN6NBJ2NLFWF354","","null","<img src=""img/flower2.png"" style=""width:200px; border:14px solid green;"">","null","","","","","","","","",""
"","image-keyboard-response","338","136667","0.0-338.0","39KFRKBFIOHTE35F88H27LFDDBEYO0","AS2MFSWNC5CQI","30UZJB2POHY4464FN6NBJ2NLFWF354","","911.3999998569489","img/flower1.png","75","912.7000000476837","2","0","1","1","1,0.333,0.333,0.333,1,0.333,0.333,0.333,1","1,0.333,0.333,0.333,1,0.333,0.333,0.333,1","1",""
"","html-keyboard-response","339","136969","0.0-339.0","39KFRKBFIOHTE35F88H27LFDDBEYO0","AS2MFSWNC5CQI","30UZJB2POHY4464FN6NBJ2NLFWF354","","null","<img src=""img/flower1.png"" style=""width:200px;border:14px solid red;"">","null","","","","","","","","",""
"","image-keyboard-response","340","137658","0.0-340.0","39KFRKBFIOHTE35F88H27LFDDBEYO0","AS2MFSWNC5CQI","30UZJB2POHY4464FN6NBJ2NLFWF354","","686.5999999046326","img/flower5.png","76","687.9000000953674","3","1","3","1","1,0.333,0.333,0.333,1,0.333,0.333,0.333,1","1,0.333,0.333,0.333,1,0.333,0.333,0.333,1","1",""
"","html-keyboard-response","341","137960","0.0-341.0","39KFRKBFIOHTE35F88H27LFDDBEYO0","AS2MFSWNC5CQI","30UZJB2POHY4464FN6NBJ2NLFWF354","","null","<img src=""img/flower5.png"" style=""width:200px; border:14px solid green;"">","null","","","","","","","","",""
"","image-keyboard-response","342","138793","0.0-342.0","39KFRKBFIOHTE35F88H27LFDDBEYO0","AS2MFSWNC5CQI","30UZJB2POHY4464FN6NBJ2NLFWF354","","831.3999998569489","img/flower1.png","75","832.5999999046326","2","0","1","1","1,0.333,0.333,0.333,1,0.333,0.333,0.333,1","1,0.333,0.333,0.333,1,0.333,0.333,0.333,1","1",""
"","html-keyboard-response","343","139094","0.0-343.0","39KFRKBFIOHTE35F88H27LFDDBEYO0","AS2MFSWNC5CQI","30UZJB2POHY4464FN6NBJ2NLFWF354","","null","<img src=""img/flower1.png"" style=""width:200px;border:14px solid red;"">","null","","","","","","","","",""
"","image-keyboard-response","344","139995","0.0-344.0","39KFRKBFIOHTE35F88H27LFDDBEYO0","AS2MFSWNC5CQI","30UZJB2POHY4464FN6NBJ2NLFWF354","","899","img/flower1.png","76","900.6000001430511","3","0","1","1","1,0.333,0.333,0.333,1,0.333,0.333,0.333,1","1,0.333,0.333,0.333,1,0.333,0.333,0.333,1","1",""
"","html-keyboard-response","345","140298","0.0-345.0","39KFRKBFIOHTE35F88H27LFDDBEYO0","AS2MFSWNC5CQI","30UZJB2POHY4464FN6NBJ2NLFWF354","","null","<img src=""img/flower1.png"" style=""width:200px;border:14px solid red;"">","null","","","","","","","","",""
"","image-keyboard-response","346","140906","0.0-346.0","39KFRKBFIOHTE35F88H27LFDDBEYO0","AS2MFSWNC5CQI","30UZJB2POHY4464FN6NBJ2NLFWF354","","607","img/flower2.png","75","608.2999999523163","2","1","2","1","1,0.333,0.333,0.333,1,0.333,0.333,0.333,1","1,0.333,0.333,0.333,1,0.333,0.333,0.333,1","1",""
"","html-keyboard-response","347","141209","0.0-347.0","39KFRKBFIOHTE35F88H27LFDDBEYO0","AS2MFSWNC5CQI","30UZJB2POHY4464FN6NBJ2NLFWF354","","null","<img src=""img/flower2.png"" style=""width:200px; border:14px solid green;"">","null","","","","","","","","",""
"","image-keyboard-response","348","141691","0.0-348.0","39KFRKBFIOHTE35F88H27LFDDBEYO0","AS2MFSWNC5CQI","30UZJB2POHY4464FN6NBJ2NLFWF354","","480.40000009536743","img/flower2.png","75","481.90000009536743","2","1","2","1","1,0.333,0.333,0.333,1,0.333,0.333,0.333,1","1,0.333,0.333,0.333,1,0.333,0.333,0.333,1","1",""
"","html-keyboard-response","349","141994","0.0-349.0","39KFRKBFIOHTE35F88H27LFDDBEYO0","AS2MFSWNC5CQI","30UZJB2POHY4464FN6NBJ2NLFWF354","","null","<img src=""img/flower2.png"" style=""width:200px; border:14px solid green;"">","null","","","","","","","","",""
"","image-keyboard-response","350","142676","0.0-350.0","39KFRKBFIOHTE35F88H27LFDDBEYO0","AS2MFSWNC5CQI","30UZJB2POHY4464FN6NBJ2NLFWF354","","679.9000000953674","img/flower5.png","76","681.1999998092651","3","1","3","1","1,0.333,0.333,0.333,1,0.333,0.333,0.333,1","1,0.333,0.333,0.333,1,0.333,0.333,0.333,1","1",""
"","html-keyboard-response","351","142978","0.0-351.0","39KFRKBFIOHTE35F88H27LFDDBEYO0","AS2MFSWNC5CQI","30UZJB2POHY4464FN6NBJ2NLFWF354","","null","<img src=""img/flower5.png"" style=""width:200px; border:14px solid green;"">","null","","","","","","","","",""
"","image-keyboard-response","352","144036","0.0-352.0","39KFRKBFIOHTE35F88H27LFDDBEYO0","AS2MFSWNC5CQI","30UZJB2POHY4464FN6NBJ2NLFWF354","","1055.7999999523163","img/flower5.png","76","1057.2000000476837","3","1","3","1","1,0.333,0.333,0.333,1,0.333,0.333,0.333,1","1,0.333,0.333,0.333,1,0.333,0.333,0.333,1","1",""
"","html-keyboard-response","353","144338","0.0-353.0","39KFRKBFIOHTE35F88H27LFDDBEYO0","AS2MFSWNC5CQI","30UZJB2POHY4464FN6NBJ2NLFWF354","","null","<img src=""img/flower5.png"" style=""width:200px; border:14px solid green;"">","null","","","","","","","","",""
"","image-keyboard-response","354","145084","0.0-354.0","39KFRKBFIOHTE35F88H27LFDDBEYO0","AS2MFSWNC5CQI","30UZJB2POHY4464FN6NBJ2NLFWF354","","744.6000001430511","img/flower2.png","75","745.7999999523163","2","1","2","1","1,0.333,0.333,0.333,1,0.333,0.333,0.333,1","1,0.333,0.333,0.333,1,0.333,0.333,0.333,1","1",""
"","html-keyboard-response","355","145386","0.0-355.0","39KFRKBFIOHTE35F88H27LFDDBEYO0","AS2MFSWNC5CQI","30UZJB2POHY4464FN6NBJ2NLFWF354","","null","<img src=""img/flower2.png"" style=""width:200px; border:14px solid green;"">","null","","","","","","","","",""
"","image-keyboard-response","356","145962","0.0-356.0","39KFRKBFIOHTE35F88H27LFDDBEYO0","AS2MFSWNC5CQI","30UZJB2POHY4464FN6NBJ2NLFWF354","","573.7999999523163","img/flower5.png","76","575","3","1","3","1","1,0.333,0.333,0.333,1,0.333,0.333,0.333,1","1,0.333,0.333,0.333,1,0.333,0.333,0.333,1","1",""
"","html-keyboard-response","357","146263","0.0-357.0","39KFRKBFIOHTE35F88H27LFDDBEYO0","AS2MFSWNC5CQI","30UZJB2POHY4464FN6NBJ2NLFWF354","","null","<img src=""img/flower5.png"" style=""width:200px; border:14px solid green;"">","null","","","","","","","","",""
"","image-keyboard-response","358","147251","0.0-358.0","39KFRKBFIOHTE35F88H27LFDDBEYO0","AS2MFSWNC5CQI","30UZJB2POHY4464FN6NBJ2NLFWF354","","986.5","img/flower1.png","75","987.8999998569489","2","1","1","1","1,0.333,0.333,0.333,1,0.333,0.333,0.333,1","1,0.333,0.333,0.333,1,0.333,0.333,0.333,1","1",""
"","html-keyboard-response","359","147564","0.0-359.0","39KFRKBFIOHTE35F88H27LFDDBEYO0","AS2MFSWNC5CQI","30UZJB2POHY4464FN6NBJ2NLFWF354","","null","<img src=""img/flower1.png"" style=""width:200px; border:14px solid green;"">","null","","","","","","","","",""
"","image-keyboard-response","360","148370","0.0-360.0","39KFRKBFIOHTE35F88H27LFDDBEYO0","AS2MFSWNC5CQI","30UZJB2POHY4464FN6NBJ2NLFWF354","","805","img/flower1.png","75","806.6000001430511","2","0","1","1","1,0.333,0.333,0.333,1,0.333,0.333,0.333,1","1,0.333,0.333,0.333,1,0.333,0.333,0.333,1","1",""
"","html-keyboard-response","361","148673","0.0-361.0","39KFRKBFIOHTE35F88H27LFDDBEYO0","AS2MFSWNC5CQI","30UZJB2POHY4464FN6NBJ2NLFWF354","","null","<img src=""img/flower1.png"" style=""width:200px;border:14px solid red;"">","null","","","","","","","","",""
"","html-keyboard-response","362","151202","0.0-362.0","39KFRKBFIOHTE35F88H27LFDDBEYO0","AS2MFSWNC5CQI","30UZJB2POHY4464FN6NBJ2NLFWF354","","","","","","","","","","","","",""
"","instructions","363","152651","0.0-363.0","39KFRKBFIOHTE35F88H27LFDDBEYO0","AS2MFSWNC5CQI","30UZJB2POHY4464FN6NBJ2NLFWF354","[{""page_index"":0,""viewing_time"":1447.7000000476837}]","1447.9000000953674","","","","","","","","","","",""
"","survey-text","364","159655","0.0-364.0","39KFRKBFIOHTE35F88H27LFDDBEYO0","AS2MFSWNC5CQI","30UZJB2POHY4464FN6NBJ2NLFWF354","","7001.299999952316","","","","","","","","","","","{""Q0"":""AS2MFSWNC5CQI""}"
