"success","trial_type","trial_index","time_elapsed","internal_node_id","assignmentID","mturkID","hitID","view_history","rt","stimulus","key_press","reactionTime","a","r","s","cond","reward_cond","reward_cond_actual","reward_matrix_idx","responses"
"true","fullscreen","0","2811","0.0-0.0","3OXV7EAXLFC29U2NJR2I0RX9J6Q363","AS7R0KA3QNVKE","3EHVO81VN57KAWAV14A1K6BEMLH1HG","","","","","","","","","","","","",""
"","instructions","1","52801","0.0-1.0","3OXV7EAXLFC29U2NJR2I0RX9J6Q363","AS7R0KA3QNVKE","3EHVO81VN57KAWAV14A1K6BEMLH1HG","[{""page_index"":0,""viewing_time"":2996},{""page_index"":1,""viewing_time"":2629},{""page_index"":2,""viewing_time"":2762},{""page_index"":3,""viewing_time"":5263},{""page_index"":4,""viewing_time"":31783},{""page_index"":5,""viewing_time"":1727},{""page_index"":6,""viewing_time"":1649},{""page_index"":7,""viewing_time"":1176}]","49987","","","","","","","","","","",""
"","image-keyboard-response","2","53854","0.0-2.0","3OXV7EAXLFC29U2NJR2I0RX9J6Q363","AS7R0KA3QNVKE","3EHVO81VN57KAWAV14A1K6BEMLH1HG","","1044","img/flower4.png","76","1051","3","1","3","1","1,0.333,0.333,0.333,1,0.333,0.333,0.333,1","1,0.333,0.333,0.333,1,0.333,0.333,0.333,1","1",""
"","html-keyboard-response","3","54161","0.0-3.0","3OXV7EAXLFC29U2NJR2I0RX9J6Q363","AS7R0KA3QNVKE","3EHVO81VN57KAWAV14A1K6BEMLH1HG","","null","<img src=""img/flower4.png"" style=""width:200px; border:14px solid green;"">","null","","","","","","","","",""
"","image-keyboard-response","4","54702","0.0-4.0","3OXV7EAXLFC29U2NJR2I0RX9J6Q363","AS7R0KA3QNVKE","3EHVO81VN57KAWAV14A1K6BEMLH1HG","","537","img/flower5.png","76","539","3","0","1","1","1,0.333,0.333,0.333,1,0.333,0.333,0.333,1","1,0.333,0.333,0.333,1,0.333,0.333,0.333,1","1",""
"","html-keyboard-response","5","55005","0.0-5.0","3OXV7EAXLFC29U2NJR2I0RX9J6Q363","AS7R0KA3QNVKE","3EHVO81VN57KAWAV14A1K6BEMLH1HG","","null","<img src=""img/flower5.png"" style=""width:200px;border:14px solid red;"">","null","","","","","","","","",""
"","image-keyboard-response","6","56227","0.0-6.0","3OXV7EAXLFC29U2NJR2I0RX9J6Q363","AS7R0KA3QNVKE","3EHVO81VN57KAWAV14A1K6BEMLH1HG","","1219","img/flower6.png","74","1221","1","0","2","1","1,0.333,0.333,0.333,1,0.333,0.333,0.333,1","1,0.333,0.333,0.333,1,0.333,0.333,0.333,1","1",""
"","html-keyboard-response","7","56528","0.0-7.0","3OXV7EAXLFC29U2NJR2I0RX9J6Q363","AS7R0KA3QNVKE","3EHVO81VN57KAWAV14A1K6BEMLH1HG","","null","<img src=""img/flower6.png"" style=""width:200px;border:14px solid red;"">","null","","","","","","","","",""
"","image-keyboard-response","8","57416","0.0-8.0","3OXV7EAXLFC29U2NJR2I0RX9J6Q363","AS7R0KA3QNVKE","3EHVO81VN57KAWAV14A1K6BEMLH1HG","","885","img/flower6.png","75","887","2","1","2","1","1,0.333,0.333,0.333,1,0.333,0.333,0.333,1","1,0.333,0.333,0.333,1,0.333,0.333,0.333,1","1",""
"","html-keyboard-response","9","57718","0.0-9.0","3OXV7EAXLFC29U2NJR2I0RX9J6Q363","AS7R0KA3QNVKE","3EHVO81VN57KAWAV14A1K6BEMLH1HG","","null","<img src=""img/flower6.png"" style=""width:200px; border:14px solid green;"">","null","","","","","","","","",""
"","image-keyboard-response","10","58682","0.0-10.0","3OXV7EAXLFC29U2NJR2I0RX9J6Q363","AS7R0KA3QNVKE","3EHVO81VN57KAWAV14A1K6BEMLH1HG","","960","img/flower4.png","75","963","2","1","3","1","1,0.333,0.333,0.333,1,0.333,0.333,0.333,1","1,0.333,0.333,0.333,1,0.333,0.333,0.333,1","1",""
"","html-keyboard-response","11","58985","0.0-11.0","3OXV7EAXLFC29U2NJR2I0RX9J6Q363","AS7R0KA3QNVKE","3EHVO81VN57KAWAV14A1K6BEMLH1HG","","null","<img src=""img/flower4.png"" style=""width:200px; border:14px solid green;"">","null","","","","","","","","",""
"","image-keyboard-response","12","59601","0.0-12.0","3OXV7EAXLFC29U2NJR2I0RX9J6Q363","AS7R0KA3QNVKE","3EHVO81VN57KAWAV14A1K6BEMLH1HG","","613","img/flower4.png","75","615","2","0","3","1","1,0.333,0.333,0.333,1,0.333,0.333,0.333,1","1,0.333,0.333,0.333,1,0.333,0.333,0.333,1","1",""
"","html-keyboard-response","13","59905","0.0-13.0","3OXV7EAXLFC29U2NJR2I0RX9J6Q363","AS7R0KA3QNVKE","3EHVO81VN57KAWAV14A1K6BEMLH1HG","","null","<img src=""img/flower4.png"" style=""width:200px;border:14px solid red;"">","null","","","","","","","","",""
"","image-keyboard-response","14","60702","0.0-14.0","3OXV7EAXLFC29U2NJR2I0RX9J6Q363","AS7R0KA3QNVKE","3EHVO81VN57KAWAV14A1K6BEMLH1HG","","794","img/flower5.png","76","797","3","1","1","1","1,0.333,0.333,0.333,1,0.333,0.333,0.333,1","1,0.333,0.333,0.333,1,0.333,0.333,0.333,1","1",""
"","html-keyboard-response","15","61006","0.0-15.0","3OXV7EAXLFC29U2NJR2I0RX9J6Q363","AS7R0KA3QNVKE","3EHVO81VN57KAWAV14A1K6BEMLH1HG","","null","<img src=""img/flower5.png"" style=""width:200px; border:14px solid green;"">","null","","","","","","","","",""
"","image-keyboard-response","16","61533","0.0-16.0","3OXV7EAXLFC29U2NJR2I0RX9J6Q363","AS7R0KA3QNVKE","3EHVO81VN57KAWAV14A1K6BEMLH1HG","","524","img/flower4.png","76","526","3","1","3","1","1,0.333,0.333,0.333,1,0.333,0.333,0.333,1","1,0.333,0.333,0.333,1,0.333,0.333,0.333,1","1",""
"","html-keyboard-response","17","61835","0.0-17.0","3OXV7EAXLFC29U2NJR2I0RX9J6Q363","AS7R0KA3QNVKE","3EHVO81VN57KAWAV14A1K6BEMLH1HG","","null","<img src=""img/flower4.png"" style=""width:200px; border:14px solid green;"">","null","","","","","","","","",""
"","image-keyboard-response","18","62414","0.0-18.0","3OXV7EAXLFC29U2NJR2I0RX9J6Q363","AS7R0KA3QNVKE","3EHVO81VN57KAWAV14A1K6BEMLH1HG","","577","img/flower4.png","76","579","3","1","3","1","1,0.333,0.333,0.333,1,0.333,0.333,0.333,1","1,0.333,0.333,0.333,1,0.333,0.333,0.333,1","1",""
"","html-keyboard-response","19","62716","0.0-19.0","3OXV7EAXLFC29U2NJR2I0RX9J6Q363","AS7R0KA3QNVKE","3EHVO81VN57KAWAV14A1K6BEMLH1HG","","null","<img src=""img/flower4.png"" style=""width:200px; border:14px solid green;"">","null","","","","","","","","",""
"","image-keyboard-response","20","63262","0.0-20.0","3OXV7EAXLFC29U2NJR2I0RX9J6Q363","AS7R0KA3QNVKE","3EHVO81VN57KAWAV14A1K6BEMLH1HG","","543","img/flower4.png","76","544","3","1","3","1","1,0.333,0.333,0.333,1,0.333,0.333,0.333,1","1,0.333,0.333,0.333,1,0.333,0.333,0.333,1","1",""
"","html-keyboard-response","21","63567","0.0-21.0","3OXV7EAXLFC29U2NJR2I0RX9J6Q363","AS7R0KA3QNVKE","3EHVO81VN57KAWAV14A1K6BEMLH1HG","","null","<img src=""img/flower4.png"" style=""width:200px; border:14px solid green;"">","null","","","","","","","","",""
"","image-keyboard-response","22","64047","0.0-22.0","3OXV7EAXLFC29U2NJR2I0RX9J6Q363","AS7R0KA3QNVKE","3EHVO81VN57KAWAV14A1K6BEMLH1HG","","476","img/flower6.png","76","478","3","0","2","1","1,0.333,0.333,0.333,1,0.333,0.333,0.333,1","1,0.333,0.333,0.333,1,0.333,0.333,0.333,1","1",""
"","html-keyboard-response","23","64350","0.0-23.0","3OXV7EAXLFC29U2NJR2I0RX9J6Q363","AS7R0KA3QNVKE","3EHVO81VN57KAWAV14A1K6BEMLH1HG","","null","<img src=""img/flower6.png"" style=""width:200px;border:14px solid red;"">","null","","","","","","","","",""
"","image-keyboard-response","24","64876","0.0-24.0","3OXV7EAXLFC29U2NJR2I0RX9J6Q363","AS7R0KA3QNVKE","3EHVO81VN57KAWAV14A1K6BEMLH1HG","","524","img/flower5.png","74","525","1","1","1","1","1,0.333,0.333,0.333,1,0.333,0.333,0.333,1","1,0.333,0.333,0.333,1,0.333,0.333,0.333,1","1",""
"","html-keyboard-response","25","65181","0.0-25.0","3OXV7EAXLFC29U2NJR2I0RX9J6Q363","AS7R0KA3QNVKE","3EHVO81VN57KAWAV14A1K6BEMLH1HG","","null","<img src=""img/flower5.png"" style=""width:200px; border:14px solid green;"">","null","","","","","","","","",""
"","image-keyboard-response","26","65677","0.0-26.0","3OXV7EAXLFC29U2NJR2I0RX9J6Q363","AS7R0KA3QNVKE","3EHVO81VN57KAWAV14A1K6BEMLH1HG","","493","img/flower6.png","74","495","1","1","2","1","1,0.333,0.333,0.333,1,0.333,0.333,0.333,1","1,0.333,0.333,0.333,1,0.333,0.333,0.333,1","1",""
"","html-keyboard-response","27","65979","0.0-27.0","3OXV7EAXLFC29U2NJR2I0RX9J6Q363","AS7R0KA3QNVKE","3EHVO81VN57KAWAV14A1K6BEMLH1HG","","null","<img src=""img/flower6.png"" style=""width:200px; border:14px solid green;"">","null","","","","","","","","",""
"","image-keyboard-response","28","66462","0.0-28.0","3OXV7EAXLFC29U2NJR2I0RX9J6Q363","AS7R0KA3QNVKE","3EHVO81VN57KAWAV14A1K6BEMLH1HG","","479","img/flower4.png","74","481","1","0","3","1","1,0.333,0.333,0.333,1,0.333,0.333,0.333,1","1,0.333,0.333,0.333,1,0.333,0.333,0.333,1","1",""
"","html-keyboard-response","29","66767","0.0-29.0","3OXV7EAXLFC29U2NJR2I0RX9J6Q363","AS7R0KA3QNVKE","3EHVO81VN57KAWAV14A1K6BEMLH1HG","","null","<img src=""img/flower4.png"" style=""width:200px;border:14px solid red;"">","null","","","","","","","","",""
"","image-keyboard-response","30","67261","0.0-30.0","3OXV7EAXLFC29U2NJR2I0RX9J6Q363","AS7R0KA3QNVKE","3EHVO81VN57KAWAV14A1K6BEMLH1HG","","492","img/flower5.png","76","493","3","1","1","1","1,0.333,0.333,0.333,1,0.333,0.333,0.333,1","1,0.333,0.333,0.333,1,0.333,0.333,0.333,1","1",""
"","html-keyboard-response","31","67564","0.0-31.0","3OXV7EAXLFC29U2NJR2I0RX9J6Q363","AS7R0KA3QNVKE","3EHVO81VN57KAWAV14A1K6BEMLH1HG","","null","<img src=""img/flower5.png"" style=""width:200px; border:14px solid green;"">","null","","","","","","","","",""
"","image-keyboard-response","32","68126","0.0-32.0","3OXV7EAXLFC29U2NJR2I0RX9J6Q363","AS7R0KA3QNVKE","3EHVO81VN57KAWAV14A1K6BEMLH1HG","","558","img/flower6.png","76","561","3","1","2","1","1,0.333,0.333,0.333,1,0.333,0.333,0.333,1","1,0.333,0.333,0.333,1,0.333,0.333,0.333,1","1",""
"","html-keyboard-response","33","68429","0.0-33.0","3OXV7EAXLFC29U2NJR2I0RX9J6Q363","AS7R0KA3QNVKE","3EHVO81VN57KAWAV14A1K6BEMLH1HG","","null","<img src=""img/flower6.png"" style=""width:200px; border:14px solid green;"">","null","","","","","","","","",""
"","image-keyboard-response","34","68884","0.0-34.0","3OXV7EAXLFC29U2NJR2I0RX9J6Q363","AS7R0KA3QNVKE","3EHVO81VN57KAWAV14A1K6BEMLH1HG","","453","img/flower5.png","76","454","3","0","1","1","1,0.333,0.333,0.333,1,0.333,0.333,0.333,1","1,0.333,0.333,0.333,1,0.333,0.333,0.333,1","1",""
"","html-keyboard-response","35","69186","0.0-35.0","3OXV7EAXLFC29U2NJR2I0RX9J6Q363","AS7R0KA3QNVKE","3EHVO81VN57KAWAV14A1K6BEMLH1HG","","null","<img src=""img/flower5.png"" style=""width:200px;border:14px solid red;"">","null","","","","","","","","",""
"","image-keyboard-response","36","69692","0.0-36.0","3OXV7EAXLFC29U2NJR2I0RX9J6Q363","AS7R0KA3QNVKE","3EHVO81VN57KAWAV14A1K6BEMLH1HG","","503","img/flower5.png","74","505","1","1","1","1","1,0.333,0.333,0.333,1,0.333,0.333,0.333,1","1,0.333,0.333,0.333,1,0.333,0.333,0.333,1","1",""
"","html-keyboard-response","37","69994","0.0-37.0","3OXV7EAXLFC29U2NJR2I0RX9J6Q363","AS7R0KA3QNVKE","3EHVO81VN57KAWAV14A1K6BEMLH1HG","","null","<img src=""img/flower5.png"" style=""width:200px; border:14px solid green;"">","null","","","","","","","","",""
"","image-keyboard-response","38","70621","0.0-38.0","3OXV7EAXLFC29U2NJR2I0RX9J6Q363","AS7R0KA3QNVKE","3EHVO81VN57KAWAV14A1K6BEMLH1HG","","623","img/flower5.png","74","625","1","1","1","1","1,0.333,0.333,0.333,1,0.333,0.333,0.333,1","1,0.333,0.333,0.333,1,0.333,0.333,0.333,1","1",""
"","html-keyboard-response","39","70923","0.0-39.0","3OXV7EAXLFC29U2NJR2I0RX9J6Q363","AS7R0KA3QNVKE","3EHVO81VN57KAWAV14A1K6BEMLH1HG","","null","<img src=""img/flower5.png"" style=""width:200px; border:14px solid green;"">","null","","","","","","","","",""
"","image-keyboard-response","40","71788","0.0-40.0","3OXV7EAXLFC29U2NJR2I0RX9J6Q363","AS7R0KA3QNVKE","3EHVO81VN57KAWAV14A1K6BEMLH1HG","","863","img/flower4.png","76","864","3","1","3","1","1,0.333,0.333,0.333,1,0.333,0.333,0.333,1","1,0.333,0.333,0.333,1,0.333,0.333,0.333,1","1",""
"","html-keyboard-response","41","72089","0.0-41.0","3OXV7EAXLFC29U2NJR2I0RX9J6Q363","AS7R0KA3QNVKE","3EHVO81VN57KAWAV14A1K6BEMLH1HG","","null","<img src=""img/flower4.png"" style=""width:200px; border:14px solid green;"">","null","","","","","","","","",""
"","image-keyboard-response","42","72661","0.0-42.0","3OXV7EAXLFC29U2NJR2I0RX9J6Q363","AS7R0KA3QNVKE","3EHVO81VN57KAWAV14A1K6BEMLH1HG","","570","img/flower6.png","76","571","3","0","2","1","1,0.333,0.333,0.333,1,0.333,0.333,0.333,1","1,0.333,0.333,0.333,1,0.333,0.333,0.333,1","1",""
"","html-keyboard-response","43","72963","0.0-43.0","3OXV7EAXLFC29U2NJR2I0RX9J6Q363","AS7R0KA3QNVKE","3EHVO81VN57KAWAV14A1K6BEMLH1HG","","null","<img src=""img/flower6.png"" style=""width:200px;border:14px solid red;"">","null","","","","","","","","",""
"","image-keyboard-response","44","73392","0.0-44.0","3OXV7EAXLFC29U2NJR2I0RX9J6Q363","AS7R0KA3QNVKE","3EHVO81VN57KAWAV14A1K6BEMLH1HG","","426","img/flower5.png","74","428","1","1","1","1","1,0.333,0.333,0.333,1,0.333,0.333,0.333,1","1,0.333,0.333,0.333,1,0.333,0.333,0.333,1","1",""
"","html-keyboard-response","45","73696","0.0-45.0","3OXV7EAXLFC29U2NJR2I0RX9J6Q363","AS7R0KA3QNVKE","3EHVO81VN57KAWAV14A1K6BEMLH1HG","","null","<img src=""img/flower5.png"" style=""width:200px; border:14px solid green;"">","null","","","","","","","","",""
"","image-keyboard-response","46","74172","0.0-46.0","3OXV7EAXLFC29U2NJR2I0RX9J6Q363","AS7R0KA3QNVKE","3EHVO81VN57KAWAV14A1K6BEMLH1HG","","471","img/flower4.png","74","473","1","0","3","1","1,0.333,0.333,0.333,1,0.333,0.333,0.333,1","1,0.333,0.333,0.333,1,0.333,0.333,0.333,1","1",""
"","html-keyboard-response","47","74474","0.0-47.0","3OXV7EAXLFC29U2NJR2I0RX9J6Q363","AS7R0KA3QNVKE","3EHVO81VN57KAWAV14A1K6BEMLH1HG","","null","<img src=""img/flower4.png"" style=""width:200px;border:14px solid red;"">","null","","","","","","","","",""
"","image-keyboard-response","48","74950","0.0-48.0","3OXV7EAXLFC29U2NJR2I0RX9J6Q363","AS7R0KA3QNVKE","3EHVO81VN57KAWAV14A1K6BEMLH1HG","","473","img/flower4.png","76","474","3","1","3","1","1,0.333,0.333,0.333,1,0.333,0.333,0.333,1","1,0.333,0.333,0.333,1,0.333,0.333,0.333,1","1",""
"","html-keyboard-response","49","75252","0.0-49.0","3OXV7EAXLFC29U2NJR2I0RX9J6Q363","AS7R0KA3QNVKE","3EHVO81VN57KAWAV14A1K6BEMLH1HG","","null","<img src=""img/flower4.png"" style=""width:200px; border:14px solid green;"">","null","","","","","","","","",""
"","image-keyboard-response","50","75830","0.0-50.0","3OXV7EAXLFC29U2NJR2I0RX9J6Q363","AS7R0KA3QNVKE","3EHVO81VN57KAWAV14A1K6BEMLH1HG","","575","img/flower4.png","76","576","3","1","3","1","1,0.333,0.333,0.333,1,0.333,0.333,0.333,1","1,0.333,0.333,0.333,1,0.333,0.333,0.333,1","1",""
"","html-keyboard-response","51","76133","0.0-51.0","3OXV7EAXLFC29U2NJR2I0RX9J6Q363","AS7R0KA3QNVKE","3EHVO81VN57KAWAV14A1K6BEMLH1HG","","null","<img src=""img/flower4.png"" style=""width:200px; border:14px solid green;"">","null","","","","","","","","",""
"","image-keyboard-response","52","77007","0.0-52.0","3OXV7EAXLFC29U2NJR2I0RX9J6Q363","AS7R0KA3QNVKE","3EHVO81VN57KAWAV14A1K6BEMLH1HG","","870","img/flower6.png","74","872","1","0","2","1","1,0.333,0.333,0.333,1,0.333,0.333,0.333,1","1,0.333,0.333,0.333,1,0.333,0.333,0.333,1","1",""
"","html-keyboard-response","53","77312","0.0-53.0","3OXV7EAXLFC29U2NJR2I0RX9J6Q363","AS7R0KA3QNVKE","3EHVO81VN57KAWAV14A1K6BEMLH1HG","","null","<img src=""img/flower6.png"" style=""width:200px;border:14px solid red;"">","null","","","","","","","","",""
"","image-keyboard-response","54","78987","0.0-54.0","3OXV7EAXLFC29U2NJR2I0RX9J6Q363","AS7R0KA3QNVKE","3EHVO81VN57KAWAV14A1K6BEMLH1HG","","1672","img/flower6.png","76","1675","3","0","2","1","1,0.333,0.333,0.333,1,0.333,0.333,0.333,1","1,0.333,0.333,0.333,1,0.333,0.333,0.333,1","1",""
"","html-keyboard-response","55","79292","0.0-55.0","3OXV7EAXLFC29U2NJR2I0RX9J6Q363","AS7R0KA3QNVKE","3EHVO81VN57KAWAV14A1K6BEMLH1HG","","null","<img src=""img/flower6.png"" style=""width:200px;border:14px solid red;"">","null","","","","","","","","",""
"","image-keyboard-response","56","79845","0.0-56.0","3OXV7EAXLFC29U2NJR2I0RX9J6Q363","AS7R0KA3QNVKE","3EHVO81VN57KAWAV14A1K6BEMLH1HG","","548","img/flower5.png","75","552","2","1","1","1","1,0.333,0.333,0.333,1,0.333,0.333,0.333,1","1,0.333,0.333,0.333,1,0.333,0.333,0.333,1","1",""
"","html-keyboard-response","57","80147","0.0-57.0","3OXV7EAXLFC29U2NJR2I0RX9J6Q363","AS7R0KA3QNVKE","3EHVO81VN57KAWAV14A1K6BEMLH1HG","","null","<img src=""img/flower5.png"" style=""width:200px; border:14px solid green;"">","null","","","","","","","","",""
"","image-keyboard-response","58","80556","0.0-58.0","3OXV7EAXLFC29U2NJR2I0RX9J6Q363","AS7R0KA3QNVKE","3EHVO81VN57KAWAV14A1K6BEMLH1HG","","407","img/flower6.png","75","409","2","1","2","1","1,0.333,0.333,0.333,1,0.333,0.333,0.333,1","1,0.333,0.333,0.333,1,0.333,0.333,0.333,1","1",""
"","html-keyboard-response","59","80862","0.0-59.0","3OXV7EAXLFC29U2NJR2I0RX9J6Q363","AS7R0KA3QNVKE","3EHVO81VN57KAWAV14A1K6BEMLH1HG","","null","<img src=""img/flower6.png"" style=""width:200px; border:14px solid green;"">","null","","","","","","","","",""
"","image-keyboard-response","60","81357","0.0-60.0","3OXV7EAXLFC29U2NJR2I0RX9J6Q363","AS7R0KA3QNVKE","3EHVO81VN57KAWAV14A1K6BEMLH1HG","","489","img/flower4.png","75","491","2","0","3","1","1,0.333,0.333,0.333,1,0.333,0.333,0.333,1","1,0.333,0.333,0.333,1,0.333,0.333,0.333,1","1",""
"","html-keyboard-response","61","81659","0.0-61.0","3OXV7EAXLFC29U2NJR2I0RX9J6Q363","AS7R0KA3QNVKE","3EHVO81VN57KAWAV14A1K6BEMLH1HG","","null","<img src=""img/flower4.png"" style=""width:200px;border:14px solid red;"">","null","","","","","","","","",""
"","image-keyboard-response","62","82134","0.0-62.0","3OXV7EAXLFC29U2NJR2I0RX9J6Q363","AS7R0KA3QNVKE","3EHVO81VN57KAWAV14A1K6BEMLH1HG","","473","img/flower4.png","74","474","1","1","3","1","1,0.333,0.333,0.333,1,0.333,0.333,0.333,1","1,0.333,0.333,0.333,1,0.333,0.333,0.333,1","1",""
"","html-keyboard-response","63","82437","0.0-63.0","3OXV7EAXLFC29U2NJR2I0RX9J6Q363","AS7R0KA3QNVKE","3EHVO81VN57KAWAV14A1K6BEMLH1HG","","null","<img src=""img/flower4.png"" style=""width:200px; border:14px solid green;"">","null","","","","","","","","",""
"","image-keyboard-response","64","82928","0.0-64.0","3OXV7EAXLFC29U2NJR2I0RX9J6Q363","AS7R0KA3QNVKE","3EHVO81VN57KAWAV14A1K6BEMLH1HG","","488","img/flower5.png","76","490","3","0","1","1","1,0.333,0.333,0.333,1,0.333,0.333,0.333,1","1,0.333,0.333,0.333,1,0.333,0.333,0.333,1","1",""
"","html-keyboard-response","65","83231","0.0-65.0","3OXV7EAXLFC29U2NJR2I0RX9J6Q363","AS7R0KA3QNVKE","3EHVO81VN57KAWAV14A1K6BEMLH1HG","","null","<img src=""img/flower5.png"" style=""width:200px;border:14px solid red;"">","null","","","","","","","","",""
"","image-keyboard-response","66","83760","0.0-66.0","3OXV7EAXLFC29U2NJR2I0RX9J6Q363","AS7R0KA3QNVKE","3EHVO81VN57KAWAV14A1K6BEMLH1HG","","525","img/flower5.png","74","527","1","1","1","1","1,0.333,0.333,0.333,1,0.333,0.333,0.333,1","1,0.333,0.333,0.333,1,0.333,0.333,0.333,1","1",""
"","html-keyboard-response","67","84065","0.0-67.0","3OXV7EAXLFC29U2NJR2I0RX9J6Q363","AS7R0KA3QNVKE","3EHVO81VN57KAWAV14A1K6BEMLH1HG","","null","<img src=""img/flower5.png"" style=""width:200px; border:14px solid green;"">","null","","","","","","","","",""
"","image-keyboard-response","68","84590","0.0-68.0","3OXV7EAXLFC29U2NJR2I0RX9J6Q363","AS7R0KA3QNVKE","3EHVO81VN57KAWAV14A1K6BEMLH1HG","","519","img/flower6.png","74","523","1","1","2","1","1,0.333,0.333,0.333,1,0.333,0.333,0.333,1","1,0.333,0.333,0.333,1,0.333,0.333,0.333,1","1",""
"","html-keyboard-response","69","84892","0.0-69.0","3OXV7EAXLFC29U2NJR2I0RX9J6Q363","AS7R0KA3QNVKE","3EHVO81VN57KAWAV14A1K6BEMLH1HG","","null","<img src=""img/flower6.png"" style=""width:200px; border:14px solid green;"">","null","","","","","","","","",""
"","image-keyboard-response","70","85788","0.0-70.0","3OXV7EAXLFC29U2NJR2I0RX9J6Q363","AS7R0KA3QNVKE","3EHVO81VN57KAWAV14A1K6BEMLH1HG","","894","img/flower6.png","74","895","1","0","2","1","1,0.333,0.333,0.333,1,0.333,0.333,0.333,1","1,0.333,0.333,0.333,1,0.333,0.333,0.333,1","1",""
"","html-keyboard-response","71","86090","0.0-71.0","3OXV7EAXLFC29U2NJR2I0RX9J6Q363","AS7R0KA3QNVKE","3EHVO81VN57KAWAV14A1K6BEMLH1HG","","null","<img src=""img/flower6.png"" style=""width:200px;border:14px solid red;"">","null","","","","","","","","",""
"","image-keyboard-response","72","86686","0.0-72.0","3OXV7EAXLFC29U2NJR2I0RX9J6Q363","AS7R0KA3QNVKE","3EHVO81VN57KAWAV14A1K6BEMLH1HG","","594","img/flower5.png","75","596","2","1","1","1","1,0.333,0.333,0.333,1,0.333,0.333,0.333,1","1,0.333,0.333,0.333,1,0.333,0.333,0.333,1","1",""
"","html-keyboard-response","73","86987","0.0-73.0","3OXV7EAXLFC29U2NJR2I0RX9J6Q363","AS7R0KA3QNVKE","3EHVO81VN57KAWAV14A1K6BEMLH1HG","","null","<img src=""img/flower5.png"" style=""width:200px; border:14px solid green;"">","null","","","","","","","","",""
"","image-keyboard-response","74","87501","0.0-74.0","3OXV7EAXLFC29U2NJR2I0RX9J6Q363","AS7R0KA3QNVKE","3EHVO81VN57KAWAV14A1K6BEMLH1HG","","513","img/flower6.png","75","513","2","1","2","1","1,0.333,0.333,0.333,1,0.333,0.333,0.333,1","1,0.333,0.333,0.333,1,0.333,0.333,0.333,1","1",""
"","html-keyboard-response","75","87805","0.0-75.0","3OXV7EAXLFC29U2NJR2I0RX9J6Q363","AS7R0KA3QNVKE","3EHVO81VN57KAWAV14A1K6BEMLH1HG","","null","<img src=""img/flower6.png"" style=""width:200px; border:14px solid green;"">","null","","","","","","","","",""
"","image-keyboard-response","76","88287","0.0-76.0","3OXV7EAXLFC29U2NJR2I0RX9J6Q363","AS7R0KA3QNVKE","3EHVO81VN57KAWAV14A1K6BEMLH1HG","","479","img/flower4.png","75","481","2","1","3","1","1,0.333,0.333,0.333,1,0.333,0.333,0.333,1","1,0.333,0.333,0.333,1,0.333,0.333,0.333,1","1",""
"","html-keyboard-response","77","88590","0.0-77.0","3OXV7EAXLFC29U2NJR2I0RX9J6Q363","AS7R0KA3QNVKE","3EHVO81VN57KAWAV14A1K6BEMLH1HG","","null","<img src=""img/flower4.png"" style=""width:200px; border:14px solid green;"">","null","","","","","","","","",""
"","image-keyboard-response","78","89158","0.0-78.0","3OXV7EAXLFC29U2NJR2I0RX9J6Q363","AS7R0KA3QNVKE","3EHVO81VN57KAWAV14A1K6BEMLH1HG","","567","img/flower6.png","76","567","3","1","2","1","1,0.333,0.333,0.333,1,0.333,0.333,0.333,1","1,0.333,0.333,0.333,1,0.333,0.333,0.333,1","1",""
"","html-keyboard-response","79","89461","0.0-79.0","3OXV7EAXLFC29U2NJR2I0RX9J6Q363","AS7R0KA3QNVKE","3EHVO81VN57KAWAV14A1K6BEMLH1HG","","null","<img src=""img/flower6.png"" style=""width:200px; border:14px solid green;"">","null","","","","","","","","",""
"","image-keyboard-response","80","89965","0.0-80.0","3OXV7EAXLFC29U2NJR2I0RX9J6Q363","AS7R0KA3QNVKE","3EHVO81VN57KAWAV14A1K6BEMLH1HG","","502","img/flower5.png","76","504","3","1","1","1","1,0.333,0.333,0.333,1,0.333,0.333,0.333,1","1,0.333,0.333,0.333,1,0.333,0.333,0.333,1","1",""
"","html-keyboard-response","81","90268","0.0-81.0","3OXV7EAXLFC29U2NJR2I0RX9J6Q363","AS7R0KA3QNVKE","3EHVO81VN57KAWAV14A1K6BEMLH1HG","","null","<img src=""img/flower5.png"" style=""width:200px; border:14px solid green;"">","null","","","","","","","","",""
"","image-keyboard-response","82","90764","0.0-82.0","3OXV7EAXLFC29U2NJR2I0RX9J6Q363","AS7R0KA3QNVKE","3EHVO81VN57KAWAV14A1K6BEMLH1HG","","493","img/flower4.png","76","495","3","1","3","1","1,0.333,0.333,0.333,1,0.333,0.333,0.333,1","1,0.333,0.333,0.333,1,0.333,0.333,0.333,1","1",""
"","html-keyboard-response","83","91065","0.0-83.0","3OXV7EAXLFC29U2NJR2I0RX9J6Q363","AS7R0KA3QNVKE","3EHVO81VN57KAWAV14A1K6BEMLH1HG","","null","<img src=""img/flower4.png"" style=""width:200px; border:14px solid green;"">","null","","","","","","","","",""
"","image-keyboard-response","84","91533","0.0-84.0","3OXV7EAXLFC29U2NJR2I0RX9J6Q363","AS7R0KA3QNVKE","3EHVO81VN57KAWAV14A1K6BEMLH1HG","","463","img/flower4.png","74","466","1","0","3","1","1,0.333,0.333,0.333,1,0.333,0.333,0.333,1","1,0.333,0.333,0.333,1,0.333,0.333,0.333,1","1",""
"","html-keyboard-response","85","91834","0.0-85.0","3OXV7EAXLFC29U2NJR2I0RX9J6Q363","AS7R0KA3QNVKE","3EHVO81VN57KAWAV14A1K6BEMLH1HG","","null","<img src=""img/flower4.png"" style=""width:200px;border:14px solid red;"">","null","","","","","","","","",""
"","image-keyboard-response","86","92375","0.0-86.0","3OXV7EAXLFC29U2NJR2I0RX9J6Q363","AS7R0KA3QNVKE","3EHVO81VN57KAWAV14A1K6BEMLH1HG","","538","img/flower5.png","75","540","2","0","1","1","1,0.333,0.333,0.333,1,0.333,0.333,0.333,1","1,0.333,0.333,0.333,1,0.333,0.333,0.333,1","1",""
"","html-keyboard-response","87","92677","0.0-87.0","3OXV7EAXLFC29U2NJR2I0RX9J6Q363","AS7R0KA3QNVKE","3EHVO81VN57KAWAV14A1K6BEMLH1HG","","null","<img src=""img/flower5.png"" style=""width:200px;border:14px solid red;"">","null","","","","","","","","",""
"","image-keyboard-response","88","93078","0.0-88.0","3OXV7EAXLFC29U2NJR2I0RX9J6Q363","AS7R0KA3QNVKE","3EHVO81VN57KAWAV14A1K6BEMLH1HG","","396","img/flower6.png","76","399","3","0","2","1","1,0.333,0.333,0.333,1,0.333,0.333,0.333,1","1,0.333,0.333,0.333,1,0.333,0.333,0.333,1","1",""
"","html-keyboard-response","89","93382","0.0-89.0","3OXV7EAXLFC29U2NJR2I0RX9J6Q363","AS7R0KA3QNVKE","3EHVO81VN57KAWAV14A1K6BEMLH1HG","","null","<img src=""img/flower6.png"" style=""width:200px;border:14px solid red;"">","null","","","","","","","","",""
"","image-keyboard-response","90","93853","0.0-90.0","3OXV7EAXLFC29U2NJR2I0RX9J6Q363","AS7R0KA3QNVKE","3EHVO81VN57KAWAV14A1K6BEMLH1HG","","470","img/flower4.png","74","471","1","0","3","1","1,0.333,0.333,0.333,1,0.333,0.333,0.333,1","1,0.333,0.333,0.333,1,0.333,0.333,0.333,1","1",""
"","html-keyboard-response","91","94154","0.0-91.0","3OXV7EAXLFC29U2NJR2I0RX9J6Q363","AS7R0KA3QNVKE","3EHVO81VN57KAWAV14A1K6BEMLH1HG","","null","<img src=""img/flower4.png"" style=""width:200px;border:14px solid red;"">","null","","","","","","","","",""
"","image-keyboard-response","92","94973","0.0-92.0","3OXV7EAXLFC29U2NJR2I0RX9J6Q363","AS7R0KA3QNVKE","3EHVO81VN57KAWAV14A1K6BEMLH1HG","","815","img/flower6.png","76","817","3","1","2","1","1,0.333,0.333,0.333,1,0.333,0.333,0.333,1","1,0.333,0.333,0.333,1,0.333,0.333,0.333,1","1",""
"","html-keyboard-response","93","95274","0.0-93.0","3OXV7EAXLFC29U2NJR2I0RX9J6Q363","AS7R0KA3QNVKE","3EHVO81VN57KAWAV14A1K6BEMLH1HG","","null","<img src=""img/flower6.png"" style=""width:200px; border:14px solid green;"">","null","","","","","","","","",""
"","image-keyboard-response","94","95755","0.0-94.0","3OXV7EAXLFC29U2NJR2I0RX9J6Q363","AS7R0KA3QNVKE","3EHVO81VN57KAWAV14A1K6BEMLH1HG","","478","img/flower4.png","76","480","3","1","3","1","1,0.333,0.333,0.333,1,0.333,0.333,0.333,1","1,0.333,0.333,0.333,1,0.333,0.333,0.333,1","1",""
"","html-keyboard-response","95","96057","0.0-95.0","3OXV7EAXLFC29U2NJR2I0RX9J6Q363","AS7R0KA3QNVKE","3EHVO81VN57KAWAV14A1K6BEMLH1HG","","null","<img src=""img/flower4.png"" style=""width:200px; border:14px solid green;"">","null","","","","","","","","",""
"","image-keyboard-response","96","96501","0.0-96.0","3OXV7EAXLFC29U2NJR2I0RX9J6Q363","AS7R0KA3QNVKE","3EHVO81VN57KAWAV14A1K6BEMLH1HG","","441","img/flower6.png","76","443","3","0","2","1","1,0.333,0.333,0.333,1,0.333,0.333,0.333,1","1,0.333,0.333,0.333,1,0.333,0.333,0.333,1","1",""
"","html-keyboard-response","97","96802","0.0-97.0","3OXV7EAXLFC29U2NJR2I0RX9J6Q363","AS7R0KA3QNVKE","3EHVO81VN57KAWAV14A1K6BEMLH1HG","","null","<img src=""img/flower6.png"" style=""width:200px;border:14px solid red;"">","null","","","","","","","","",""
"","image-keyboard-response","98","97429","0.0-98.0","3OXV7EAXLFC29U2NJR2I0RX9J6Q363","AS7R0KA3QNVKE","3EHVO81VN57KAWAV14A1K6BEMLH1HG","","625","img/flower5.png","76","627","3","1","1","1","1,0.333,0.333,0.333,1,0.333,0.333,0.333,1","1,0.333,0.333,0.333,1,0.333,0.333,0.333,1","1",""
"","html-keyboard-response","99","97731","0.0-99.0","3OXV7EAXLFC29U2NJR2I0RX9J6Q363","AS7R0KA3QNVKE","3EHVO81VN57KAWAV14A1K6BEMLH1HG","","null","<img src=""img/flower5.png"" style=""width:200px; border:14px solid green;"">","null","","","","","","","","",""
"","image-keyboard-response","100","98187","0.0-100.0","3OXV7EAXLFC29U2NJR2I0RX9J6Q363","AS7R0KA3QNVKE","3EHVO81VN57KAWAV14A1K6BEMLH1HG","","455","img/flower4.png","76","456","3","1","3","1","1,0.333,0.333,0.333,1,0.333,0.333,0.333,1","1,0.333,0.333,0.333,1,0.333,0.333,0.333,1","1",""
"","html-keyboard-response","101","98493","0.0-101.0","3OXV7EAXLFC29U2NJR2I0RX9J6Q363","AS7R0KA3QNVKE","3EHVO81VN57KAWAV14A1K6BEMLH1HG","","null","<img src=""img/flower4.png"" style=""width:200px; border:14px solid green;"">","null","","","","","","","","",""
"","image-keyboard-response","102","98934","0.0-102.0","3OXV7EAXLFC29U2NJR2I0RX9J6Q363","AS7R0KA3QNVKE","3EHVO81VN57KAWAV14A1K6BEMLH1HG","","438","img/flower6.png","76","440","3","1","2","1","1,0.333,0.333,0.333,1,0.333,0.333,0.333,1","1,0.333,0.333,0.333,1,0.333,0.333,0.333,1","1",""
"","html-keyboard-response","103","99236","0.0-103.0","3OXV7EAXLFC29U2NJR2I0RX9J6Q363","AS7R0KA3QNVKE","3EHVO81VN57KAWAV14A1K6BEMLH1HG","","null","<img src=""img/flower6.png"" style=""width:200px; border:14px solid green;"">","null","","","","","","","","",""
"","image-keyboard-response","104","99588","0.0-104.0","3OXV7EAXLFC29U2NJR2I0RX9J6Q363","AS7R0KA3QNVKE","3EHVO81VN57KAWAV14A1K6BEMLH1HG","","350","img/flower4.png","76","351","3","1","3","1","1,0.333,0.333,0.333,1,0.333,0.333,0.333,1","1,0.333,0.333,0.333,1,0.333,0.333,0.333,1","1",""
"","html-keyboard-response","105","99889","0.0-105.0","3OXV7EAXLFC29U2NJR2I0RX9J6Q363","AS7R0KA3QNVKE","3EHVO81VN57KAWAV14A1K6BEMLH1HG","","null","<img src=""img/flower4.png"" style=""width:200px; border:14px solid green;"">","null","","","","","","","","",""
"","image-keyboard-response","106","100356","0.0-106.0","3OXV7EAXLFC29U2NJR2I0RX9J6Q363","AS7R0KA3QNVKE","3EHVO81VN57KAWAV14A1K6BEMLH1HG","","466","img/flower6.png","76","467","3","0","2","1","1,0.333,0.333,0.333,1,0.333,0.333,0.333,1","1,0.333,0.333,0.333,1,0.333,0.333,0.333,1","1",""
"","html-keyboard-response","107","100659","0.0-107.0","3OXV7EAXLFC29U2NJR2I0RX9J6Q363","AS7R0KA3QNVKE","3EHVO81VN57KAWAV14A1K6BEMLH1HG","","null","<img src=""img/flower6.png"" style=""width:200px;border:14px solid red;"">","null","","","","","","","","",""
"","image-keyboard-response","108","101068","0.0-108.0","3OXV7EAXLFC29U2NJR2I0RX9J6Q363","AS7R0KA3QNVKE","3EHVO81VN57KAWAV14A1K6BEMLH1HG","","404","img/flower6.png","74","409","1","1","2","1","1,0.333,0.333,0.333,1,0.333,0.333,0.333,1","1,0.333,0.333,0.333,1,0.333,0.333,0.333,1","1",""
"","html-keyboard-response","109","101372","0.0-109.0","3OXV7EAXLFC29U2NJR2I0RX9J6Q363","AS7R0KA3QNVKE","3EHVO81VN57KAWAV14A1K6BEMLH1HG","","null","<img src=""img/flower6.png"" style=""width:200px; border:14px solid green;"">","null","","","","","","","","",""
"","image-keyboard-response","110","101739","0.0-110.0","3OXV7EAXLFC29U2NJR2I0RX9J6Q363","AS7R0KA3QNVKE","3EHVO81VN57KAWAV14A1K6BEMLH1HG","","365","img/flower5.png","74","366","1","1","1","1","1,0.333,0.333,0.333,1,0.333,0.333,0.333,1","1,0.333,0.333,0.333,1,0.333,0.333,0.333,1","1",""
"","html-keyboard-response","111","102042","0.0-111.0","3OXV7EAXLFC29U2NJR2I0RX9J6Q363","AS7R0KA3QNVKE","3EHVO81VN57KAWAV14A1K6BEMLH1HG","","null","<img src=""img/flower5.png"" style=""width:200px; border:14px solid green;"">","null","","","","","","","","",""
"","image-keyboard-response","112","102413","0.0-112.0","3OXV7EAXLFC29U2NJR2I0RX9J6Q363","AS7R0KA3QNVKE","3EHVO81VN57KAWAV14A1K6BEMLH1HG","","367","img/flower4.png","74","369","1","0","3","1","1,0.333,0.333,0.333,1,0.333,0.333,0.333,1","1,0.333,0.333,0.333,1,0.333,0.333,0.333,1","1",""
"","html-keyboard-response","113","102713","0.0-113.0","3OXV7EAXLFC29U2NJR2I0RX9J6Q363","AS7R0KA3QNVKE","3EHVO81VN57KAWAV14A1K6BEMLH1HG","","null","<img src=""img/flower4.png"" style=""width:200px;border:14px solid red;"">","null","","","","","","","","",""
"","image-keyboard-response","114","103197","0.0-114.0","3OXV7EAXLFC29U2NJR2I0RX9J6Q363","AS7R0KA3QNVKE","3EHVO81VN57KAWAV14A1K6BEMLH1HG","","481","img/flower5.png","75","482","2","0","1","1","1,0.333,0.333,0.333,1,0.333,0.333,0.333,1","1,0.333,0.333,0.333,1,0.333,0.333,0.333,1","1",""
"","html-keyboard-response","115","103499","0.0-115.0","3OXV7EAXLFC29U2NJR2I0RX9J6Q363","AS7R0KA3QNVKE","3EHVO81VN57KAWAV14A1K6BEMLH1HG","","null","<img src=""img/flower5.png"" style=""width:200px;border:14px solid red;"">","null","","","","","","","","",""
"","image-keyboard-response","116","104061","0.0-116.0","3OXV7EAXLFC29U2NJR2I0RX9J6Q363","AS7R0KA3QNVKE","3EHVO81VN57KAWAV14A1K6BEMLH1HG","","559","img/flower5.png","76","560","3","0","1","1","1,0.333,0.333,0.333,1,0.333,0.333,0.333,1","1,0.333,0.333,0.333,1,0.333,0.333,0.333,1","1",""
"","html-keyboard-response","117","104364","0.0-117.0","3OXV7EAXLFC29U2NJR2I0RX9J6Q363","AS7R0KA3QNVKE","3EHVO81VN57KAWAV14A1K6BEMLH1HG","","null","<img src=""img/flower5.png"" style=""width:200px;border:14px solid red;"">","null","","","","","","","","",""
"","image-keyboard-response","118","104862","0.0-118.0","3OXV7EAXLFC29U2NJR2I0RX9J6Q363","AS7R0KA3QNVKE","3EHVO81VN57KAWAV14A1K6BEMLH1HG","","494","img/flower4.png","76","496","3","1","3","1","1,0.333,0.333,0.333,1,0.333,0.333,0.333,1","1,0.333,0.333,0.333,1,0.333,0.333,0.333,1","1",""
"","html-keyboard-response","119","105165","0.0-119.0","3OXV7EAXLFC29U2NJR2I0RX9J6Q363","AS7R0KA3QNVKE","3EHVO81VN57KAWAV14A1K6BEMLH1HG","","null","<img src=""img/flower4.png"" style=""width:200px; border:14px solid green;"">","null","","","","","","","","",""
"","image-keyboard-response","120","105580","0.0-120.0","3OXV7EAXLFC29U2NJR2I0RX9J6Q363","AS7R0KA3QNVKE","3EHVO81VN57KAWAV14A1K6BEMLH1HG","","413","img/flower5.png","76","414","3","0","1","1","1,0.333,0.333,0.333,1,0.333,0.333,0.333,1","1,0.333,0.333,0.333,1,0.333,0.333,0.333,1","1",""
"","html-keyboard-response","121","105882","0.0-121.0","3OXV7EAXLFC29U2NJR2I0RX9J6Q363","AS7R0KA3QNVKE","3EHVO81VN57KAWAV14A1K6BEMLH1HG","","null","<img src=""img/flower5.png"" style=""width:200px;border:14px solid red;"">","null","","","","","","","","",""
"","image-keyboard-response","122","106268","0.0-122.0","3OXV7EAXLFC29U2NJR2I0RX9J6Q363","AS7R0KA3QNVKE","3EHVO81VN57KAWAV14A1K6BEMLH1HG","","385","img/flower6.png","74","386","1","0","2","1","1,0.333,0.333,0.333,1,0.333,0.333,0.333,1","1,0.333,0.333,0.333,1,0.333,0.333,0.333,1","1",""
"","html-keyboard-response","123","106569","0.0-123.0","3OXV7EAXLFC29U2NJR2I0RX9J6Q363","AS7R0KA3QNVKE","3EHVO81VN57KAWAV14A1K6BEMLH1HG","","null","<img src=""img/flower6.png"" style=""width:200px;border:14px solid red;"">","null","","","","","","","","",""
"","image-keyboard-response","124","106892","0.0-124.0","3OXV7EAXLFC29U2NJR2I0RX9J6Q363","AS7R0KA3QNVKE","3EHVO81VN57KAWAV14A1K6BEMLH1HG","","322","img/flower4.png","76","322","3","1","3","1","1,0.333,0.333,0.333,1,0.333,0.333,0.333,1","1,0.333,0.333,0.333,1,0.333,0.333,0.333,1","1",""
"","html-keyboard-response","125","107194","0.0-125.0","3OXV7EAXLFC29U2NJR2I0RX9J6Q363","AS7R0KA3QNVKE","3EHVO81VN57KAWAV14A1K6BEMLH1HG","","null","<img src=""img/flower4.png"" style=""width:200px; border:14px solid green;"">","null","","","","","","","","",""
"","image-keyboard-response","126","107541","0.0-126.0","3OXV7EAXLFC29U2NJR2I0RX9J6Q363","AS7R0KA3QNVKE","3EHVO81VN57KAWAV14A1K6BEMLH1HG","","345","img/flower6.png","76","346","3","0","2","1","1,0.333,0.333,0.333,1,0.333,0.333,0.333,1","1,0.333,0.333,0.333,1,0.333,0.333,0.333,1","1",""
"","html-keyboard-response","127","107844","0.0-127.0","3OXV7EAXLFC29U2NJR2I0RX9J6Q363","AS7R0KA3QNVKE","3EHVO81VN57KAWAV14A1K6BEMLH1HG","","null","<img src=""img/flower6.png"" style=""width:200px;border:14px solid red;"">","null","","","","","","","","",""
"","image-keyboard-response","128","108445","0.0-128.0","3OXV7EAXLFC29U2NJR2I0RX9J6Q363","AS7R0KA3QNVKE","3EHVO81VN57KAWAV14A1K6BEMLH1HG","","598","img/flower6.png","74","600","1","0","2","1","1,0.333,0.333,0.333,1,0.333,0.333,0.333,1","1,0.333,0.333,0.333,1,0.333,0.333,0.333,1","1",""
"","html-keyboard-response","129","108746","0.0-129.0","3OXV7EAXLFC29U2NJR2I0RX9J6Q363","AS7R0KA3QNVKE","3EHVO81VN57KAWAV14A1K6BEMLH1HG","","null","<img src=""img/flower6.png"" style=""width:200px;border:14px solid red;"">","null","","","","","","","","",""
"","image-keyboard-response","130","109124","0.0-130.0","3OXV7EAXLFC29U2NJR2I0RX9J6Q363","AS7R0KA3QNVKE","3EHVO81VN57KAWAV14A1K6BEMLH1HG","","376","img/flower5.png","76","378","3","1","1","1","1,0.333,0.333,0.333,1,0.333,0.333,0.333,1","1,0.333,0.333,0.333,1,0.333,0.333,0.333,1","1",""
"","html-keyboard-response","131","109426","0.0-131.0","3OXV7EAXLFC29U2NJR2I0RX9J6Q363","AS7R0KA3QNVKE","3EHVO81VN57KAWAV14A1K6BEMLH1HG","","null","<img src=""img/flower5.png"" style=""width:200px; border:14px solid green;"">","null","","","","","","","","",""
"","image-keyboard-response","132","109668","0.0-132.0","3OXV7EAXLFC29U2NJR2I0RX9J6Q363","AS7R0KA3QNVKE","3EHVO81VN57KAWAV14A1K6BEMLH1HG","","241","img/flower6.png","75","242","2","1","2","1","1,0.333,0.333,0.333,1,0.333,0.333,0.333,1","1,0.333,0.333,0.333,1,0.333,0.333,0.333,1","1",""
"","html-keyboard-response","133","109971","0.0-133.0","3OXV7EAXLFC29U2NJR2I0RX9J6Q363","AS7R0KA3QNVKE","3EHVO81VN57KAWAV14A1K6BEMLH1HG","","null","<img src=""img/flower6.png"" style=""width:200px; border:14px solid green;"">","null","","","","","","","","",""
"","image-keyboard-response","134","110355","0.0-134.0","3OXV7EAXLFC29U2NJR2I0RX9J6Q363","AS7R0KA3QNVKE","3EHVO81VN57KAWAV14A1K6BEMLH1HG","","382","img/flower6.png","75","382","2","1","2","1","1,0.333,0.333,0.333,1,0.333,0.333,0.333,1","1,0.333,0.333,0.333,1,0.333,0.333,0.333,1","1",""
"","html-keyboard-response","135","110658","0.0-135.0","3OXV7EAXLFC29U2NJR2I0RX9J6Q363","AS7R0KA3QNVKE","3EHVO81VN57KAWAV14A1K6BEMLH1HG","","null","<img src=""img/flower6.png"" style=""width:200px; border:14px solid green;"">","null","","","","","","","","",""
"","image-keyboard-response","136","110920","0.0-136.0","3OXV7EAXLFC29U2NJR2I0RX9J6Q363","AS7R0KA3QNVKE","3EHVO81VN57KAWAV14A1K6BEMLH1HG","","261","img/flower5.png","75","261","2","0","1","1","1,0.333,0.333,0.333,1,0.333,0.333,0.333,1","1,0.333,0.333,0.333,1,0.333,0.333,0.333,1","1",""
"","html-keyboard-response","137","111223","0.0-137.0","3OXV7EAXLFC29U2NJR2I0RX9J6Q363","AS7R0KA3QNVKE","3EHVO81VN57KAWAV14A1K6BEMLH1HG","","null","<img src=""img/flower5.png"" style=""width:200px;border:14px solid red;"">","null","","","","","","","","",""
"","image-keyboard-response","138","111535","0.0-138.0","3OXV7EAXLFC29U2NJR2I0RX9J6Q363","AS7R0KA3QNVKE","3EHVO81VN57KAWAV14A1K6BEMLH1HG","","309","img/flower4.png","76","311","3","1","3","1","1,0.333,0.333,0.333,1,0.333,0.333,0.333,1","1,0.333,0.333,0.333,1,0.333,0.333,0.333,1","1",""
"","html-keyboard-response","139","111839","0.0-139.0","3OXV7EAXLFC29U2NJR2I0RX9J6Q363","AS7R0KA3QNVKE","3EHVO81VN57KAWAV14A1K6BEMLH1HG","","null","<img src=""img/flower4.png"" style=""width:200px; border:14px solid green;"">","null","","","","","","","","",""
"","image-keyboard-response","140","112158","0.0-140.0","3OXV7EAXLFC29U2NJR2I0RX9J6Q363","AS7R0KA3QNVKE","3EHVO81VN57KAWAV14A1K6BEMLH1HG","","316","img/flower5.png","76","318","3","1","1","1","1,0.333,0.333,0.333,1,0.333,0.333,0.333,1","1,0.333,0.333,0.333,1,0.333,0.333,0.333,1","1",""
"","html-keyboard-response","141","112459","0.0-141.0","3OXV7EAXLFC29U2NJR2I0RX9J6Q363","AS7R0KA3QNVKE","3EHVO81VN57KAWAV14A1K6BEMLH1HG","","null","<img src=""img/flower5.png"" style=""width:200px; border:14px solid green;"">","null","","","","","","","","",""
"","image-keyboard-response","142","112748","0.0-142.0","3OXV7EAXLFC29U2NJR2I0RX9J6Q363","AS7R0KA3QNVKE","3EHVO81VN57KAWAV14A1K6BEMLH1HG","","285","img/flower6.png","76","287","3","0","2","1","1,0.333,0.333,0.333,1,0.333,0.333,0.333,1","1,0.333,0.333,0.333,1,0.333,0.333,0.333,1","1",""
"","html-keyboard-response","143","113051","0.0-143.0","3OXV7EAXLFC29U2NJR2I0RX9J6Q363","AS7R0KA3QNVKE","3EHVO81VN57KAWAV14A1K6BEMLH1HG","","null","<img src=""img/flower6.png"" style=""width:200px;border:14px solid red;"">","null","","","","","","","","",""
"","image-keyboard-response","144","113532","0.0-144.0","3OXV7EAXLFC29U2NJR2I0RX9J6Q363","AS7R0KA3QNVKE","3EHVO81VN57KAWAV14A1K6BEMLH1HG","","479","img/flower5.png","74","481","1","1","1","1","1,0.333,0.333,0.333,1,0.333,0.333,0.333,1","1,0.333,0.333,0.333,1,0.333,0.333,0.333,1","1",""
"","html-keyboard-response","145","113833","0.0-145.0","3OXV7EAXLFC29U2NJR2I0RX9J6Q363","AS7R0KA3QNVKE","3EHVO81VN57KAWAV14A1K6BEMLH1HG","","null","<img src=""img/flower5.png"" style=""width:200px; border:14px solid green;"">","null","","","","","","","","",""
"","image-keyboard-response","146","114041","0.0-146.0","3OXV7EAXLFC29U2NJR2I0RX9J6Q363","AS7R0KA3QNVKE","3EHVO81VN57KAWAV14A1K6BEMLH1HG","","205","img/flower6.png","74","207","1","0","2","1","1,0.333,0.333,0.333,1,0.333,0.333,0.333,1","1,0.333,0.333,0.333,1,0.333,0.333,0.333,1","1",""
"","html-keyboard-response","147","114347","0.0-147.0","3OXV7EAXLFC29U2NJR2I0RX9J6Q363","AS7R0KA3QNVKE","3EHVO81VN57KAWAV14A1K6BEMLH1HG","","null","<img src=""img/flower6.png"" style=""width:200px;border:14px solid red;"">","null","","","","","","","","",""
"","image-keyboard-response","148","114965","0.0-148.0","3OXV7EAXLFC29U2NJR2I0RX9J6Q363","AS7R0KA3QNVKE","3EHVO81VN57KAWAV14A1K6BEMLH1HG","","617","img/flower4.png","75","617","2","0","3","1","1,0.333,0.333,0.333,1,0.333,0.333,0.333,1","1,0.333,0.333,0.333,1,0.333,0.333,0.333,1","1",""
"","html-keyboard-response","149","115267","0.0-149.0","3OXV7EAXLFC29U2NJR2I0RX9J6Q363","AS7R0KA3QNVKE","3EHVO81VN57KAWAV14A1K6BEMLH1HG","","null","<img src=""img/flower4.png"" style=""width:200px;border:14px solid red;"">","null","","","","","","","","",""
"","image-keyboard-response","150","115547","0.0-150.0","3OXV7EAXLFC29U2NJR2I0RX9J6Q363","AS7R0KA3QNVKE","3EHVO81VN57KAWAV14A1K6BEMLH1HG","","278","img/flower4.png","76","279","3","1","3","1","1,0.333,0.333,0.333,1,0.333,0.333,0.333,1","1,0.333,0.333,0.333,1,0.333,0.333,0.333,1","1",""
"","html-keyboard-response","151","115851","0.0-151.0","3OXV7EAXLFC29U2NJR2I0RX9J6Q363","AS7R0KA3QNVKE","3EHVO81VN57KAWAV14A1K6BEMLH1HG","","null","<img src=""img/flower4.png"" style=""width:200px; border:14px solid green;"">","null","","","","","","","","",""
"","image-keyboard-response","152","116173","0.0-152.0","3OXV7EAXLFC29U2NJR2I0RX9J6Q363","AS7R0KA3QNVKE","3EHVO81VN57KAWAV14A1K6BEMLH1HG","","320","img/flower4.png","76","324","3","1","3","1","1,0.333,0.333,0.333,1,0.333,0.333,0.333,1","1,0.333,0.333,0.333,1,0.333,0.333,0.333,1","1",""
"","html-keyboard-response","153","116478","0.0-153.0","3OXV7EAXLFC29U2NJR2I0RX9J6Q363","AS7R0KA3QNVKE","3EHVO81VN57KAWAV14A1K6BEMLH1HG","","null","<img src=""img/flower4.png"" style=""width:200px; border:14px solid green;"">","null","","","","","","","","",""
"","image-keyboard-response","154","116765","0.0-154.0","3OXV7EAXLFC29U2NJR2I0RX9J6Q363","AS7R0KA3QNVKE","3EHVO81VN57KAWAV14A1K6BEMLH1HG","","285","img/flower5.png","76","286","3","1","1","1","1,0.333,0.333,0.333,1,0.333,0.333,0.333,1","1,0.333,0.333,0.333,1,0.333,0.333,0.333,1","1",""
"","html-keyboard-response","155","117067","0.0-155.0","3OXV7EAXLFC29U2NJR2I0RX9J6Q363","AS7R0KA3QNVKE","3EHVO81VN57KAWAV14A1K6BEMLH1HG","","null","<img src=""img/flower5.png"" style=""width:200px; border:14px solid green;"">","null","","","","","","","","",""
"","image-keyboard-response","156","117501","0.0-156.0","3OXV7EAXLFC29U2NJR2I0RX9J6Q363","AS7R0KA3QNVKE","3EHVO81VN57KAWAV14A1K6BEMLH1HG","","432","img/flower6.png","76","433","3","0","2","1","1,0.333,0.333,0.333,1,0.333,0.333,0.333,1","1,0.333,0.333,0.333,1,0.333,0.333,0.333,1","1",""
"","html-keyboard-response","157","117804","0.0-157.0","3OXV7EAXLFC29U2NJR2I0RX9J6Q363","AS7R0KA3QNVKE","3EHVO81VN57KAWAV14A1K6BEMLH1HG","","null","<img src=""img/flower6.png"" style=""width:200px;border:14px solid red;"">","null","","","","","","","","",""
"","image-keyboard-response","158","118276","0.0-158.0","3OXV7EAXLFC29U2NJR2I0RX9J6Q363","AS7R0KA3QNVKE","3EHVO81VN57KAWAV14A1K6BEMLH1HG","","470","img/flower6.png","74","471","1","1","2","1","1,0.333,0.333,0.333,1,0.333,0.333,0.333,1","1,0.333,0.333,0.333,1,0.333,0.333,0.333,1","1",""
"","html-keyboard-response","159","118578","0.0-159.0","3OXV7EAXLFC29U2NJR2I0RX9J6Q363","AS7R0KA3QNVKE","3EHVO81VN57KAWAV14A1K6BEMLH1HG","","null","<img src=""img/flower6.png"" style=""width:200px; border:14px solid green;"">","null","","","","","","","","",""
"","image-keyboard-response","160","119006","0.0-160.0","3OXV7EAXLFC29U2NJR2I0RX9J6Q363","AS7R0KA3QNVKE","3EHVO81VN57KAWAV14A1K6BEMLH1HG","","424","img/flower5.png","74","426","1","1","1","1","1,0.333,0.333,0.333,1,0.333,0.333,0.333,1","1,0.333,0.333,0.333,1,0.333,0.333,0.333,1","1",""
"","html-keyboard-response","161","119309","0.0-161.0","3OXV7EAXLFC29U2NJR2I0RX9J6Q363","AS7R0KA3QNVKE","3EHVO81VN57KAWAV14A1K6BEMLH1HG","","null","<img src=""img/flower5.png"" style=""width:200px; border:14px solid green;"">","null","","","","","","","","",""
"","image-keyboard-response","162","119635","0.0-162.0","3OXV7EAXLFC29U2NJR2I0RX9J6Q363","AS7R0KA3QNVKE","3EHVO81VN57KAWAV14A1K6BEMLH1HG","","324","img/flower4.png","74","326","1","0","3","1","1,0.333,0.333,0.333,1,0.333,0.333,0.333,1","1,0.333,0.333,0.333,1,0.333,0.333,0.333,1","1",""
"","html-keyboard-response","163","119937","0.0-163.0","3OXV7EAXLFC29U2NJR2I0RX9J6Q363","AS7R0KA3QNVKE","3EHVO81VN57KAWAV14A1K6BEMLH1HG","","null","<img src=""img/flower4.png"" style=""width:200px;border:14px solid red;"">","null","","","","","","","","",""
"","image-keyboard-response","164","120340","0.0-164.0","3OXV7EAXLFC29U2NJR2I0RX9J6Q363","AS7R0KA3QNVKE","3EHVO81VN57KAWAV14A1K6BEMLH1HG","","401","img/flower6.png","76","404","3","0","2","1","1,0.333,0.333,0.333,1,0.333,0.333,0.333,1","1,0.333,0.333,0.333,1,0.333,0.333,0.333,1","1",""
"","html-keyboard-response","165","120642","0.0-165.0","3OXV7EAXLFC29U2NJR2I0RX9J6Q363","AS7R0KA3QNVKE","3EHVO81VN57KAWAV14A1K6BEMLH1HG","","null","<img src=""img/flower6.png"" style=""width:200px;border:14px solid red;"">","null","","","","","","","","",""
"","image-keyboard-response","166","120868","0.0-166.0","3OXV7EAXLFC29U2NJR2I0RX9J6Q363","AS7R0KA3QNVKE","3EHVO81VN57KAWAV14A1K6BEMLH1HG","","225","img/flower4.png","76","225","3","1","3","1","1,0.333,0.333,0.333,1,0.333,0.333,0.333,1","1,0.333,0.333,0.333,1,0.333,0.333,0.333,1","1",""
"","html-keyboard-response","167","121170","0.0-167.0","3OXV7EAXLFC29U2NJR2I0RX9J6Q363","AS7R0KA3QNVKE","3EHVO81VN57KAWAV14A1K6BEMLH1HG","","null","<img src=""img/flower4.png"" style=""width:200px; border:14px solid green;"">","null","","","","","","","","",""
"","image-keyboard-response","168","121477","0.0-168.0","3OXV7EAXLFC29U2NJR2I0RX9J6Q363","AS7R0KA3QNVKE","3EHVO81VN57KAWAV14A1K6BEMLH1HG","","306","img/flower5.png","76","306","3","0","1","1","1,0.333,0.333,0.333,1,0.333,0.333,0.333,1","1,0.333,0.333,0.333,1,0.333,0.333,0.333,1","1",""
"","html-keyboard-response","169","121779","0.0-169.0","3OXV7EAXLFC29U2NJR2I0RX9J6Q363","AS7R0KA3QNVKE","3EHVO81VN57KAWAV14A1K6BEMLH1HG","","null","<img src=""img/flower5.png"" style=""width:200px;border:14px solid red;"">","null","","","","","","","","",""
"","image-keyboard-response","170","122101","0.0-170.0","3OXV7EAXLFC29U2NJR2I0RX9J6Q363","AS7R0KA3QNVKE","3EHVO81VN57KAWAV14A1K6BEMLH1HG","","320","img/flower4.png","76","321","3","1","3","1","1,0.333,0.333,0.333,1,0.333,0.333,0.333,1","1,0.333,0.333,0.333,1,0.333,0.333,0.333,1","1",""
"","html-keyboard-response","171","122403","0.0-171.0","3OXV7EAXLFC29U2NJR2I0RX9J6Q363","AS7R0KA3QNVKE","3EHVO81VN57KAWAV14A1K6BEMLH1HG","","null","<img src=""img/flower4.png"" style=""width:200px; border:14px solid green;"">","null","","","","","","","","",""
"","image-keyboard-response","172","122781","0.0-172.0","3OXV7EAXLFC29U2NJR2I0RX9J6Q363","AS7R0KA3QNVKE","3EHVO81VN57KAWAV14A1K6BEMLH1HG","","377","img/flower5.png","76","377","3","0","1","1","1,0.333,0.333,0.333,1,0.333,0.333,0.333,1","1,0.333,0.333,0.333,1,0.333,0.333,0.333,1","1",""
"","html-keyboard-response","173","123084","0.0-173.0","3OXV7EAXLFC29U2NJR2I0RX9J6Q363","AS7R0KA3QNVKE","3EHVO81VN57KAWAV14A1K6BEMLH1HG","","null","<img src=""img/flower5.png"" style=""width:200px;border:14px solid red;"">","null","","","","","","","","",""
"","image-keyboard-response","174","123319","0.0-174.0","3OXV7EAXLFC29U2NJR2I0RX9J6Q363","AS7R0KA3QNVKE","3EHVO81VN57KAWAV14A1K6BEMLH1HG","","232","img/flower6.png","76","234","3","0","2","1","1,0.333,0.333,0.333,1,0.333,0.333,0.333,1","1,0.333,0.333,0.333,1,0.333,0.333,0.333,1","1",""
"","html-keyboard-response","175","123621","0.0-175.0","3OXV7EAXLFC29U2NJR2I0RX9J6Q363","AS7R0KA3QNVKE","3EHVO81VN57KAWAV14A1K6BEMLH1HG","","null","<img src=""img/flower6.png"" style=""width:200px;border:14px solid red;"">","null","","","","","","","","",""
"","image-keyboard-response","176","124301","0.0-176.0","3OXV7EAXLFC29U2NJR2I0RX9J6Q363","AS7R0KA3QNVKE","3EHVO81VN57KAWAV14A1K6BEMLH1HG","","679","img/flower5.png","75","679","2","1","1","1","1,0.333,0.333,0.333,1,0.333,0.333,0.333,1","1,0.333,0.333,0.333,1,0.333,0.333,0.333,1","1",""
"","html-keyboard-response","177","124604","0.0-177.0","3OXV7EAXLFC29U2NJR2I0RX9J6Q363","AS7R0KA3QNVKE","3EHVO81VN57KAWAV14A1K6BEMLH1HG","","null","<img src=""img/flower5.png"" style=""width:200px; border:14px solid green;"">","null","","","","","","","","",""
"","image-keyboard-response","178","125072","0.0-178.0","3OXV7EAXLFC29U2NJR2I0RX9J6Q363","AS7R0KA3QNVKE","3EHVO81VN57KAWAV14A1K6BEMLH1HG","","466","img/flower5.png","75","467","2","0","1","1","1,0.333,0.333,0.333,1,0.333,0.333,0.333,1","1,0.333,0.333,0.333,1,0.333,0.333,0.333,1","1",""
"","html-keyboard-response","179","125376","0.0-179.0","3OXV7EAXLFC29U2NJR2I0RX9J6Q363","AS7R0KA3QNVKE","3EHVO81VN57KAWAV14A1K6BEMLH1HG","","null","<img src=""img/flower5.png"" style=""width:200px;border:14px solid red;"">","null","","","","","","","","",""
"","image-keyboard-response","180","125911","0.0-180.0","3OXV7EAXLFC29U2NJR2I0RX9J6Q363","AS7R0KA3QNVKE","3EHVO81VN57KAWAV14A1K6BEMLH1HG","","531","img/flower5.png","75","534","2","0","1","1","1,0.333,0.333,0.333,1,0.333,0.333,0.333,1","1,0.333,0.333,0.333,1,0.333,0.333,0.333,1","1",""
"","html-keyboard-response","181","126214","0.0-181.0","3OXV7EAXLFC29U2NJR2I0RX9J6Q363","AS7R0KA3QNVKE","3EHVO81VN57KAWAV14A1K6BEMLH1HG","","null","<img src=""img/flower5.png"" style=""width:200px;border:14px solid red;"">","null","","","","","","","","",""
"","html-keyboard-response","182","129232","0.0-182.0","3OXV7EAXLFC29U2NJR2I0RX9J6Q363","AS7R0KA3QNVKE","3EHVO81VN57KAWAV14A1K6BEMLH1HG","","","","","","","","","","","","",""
"","image-keyboard-response","183","130238","0.0-183.0","3OXV7EAXLFC29U2NJR2I0RX9J6Q363","AS7R0KA3QNVKE","3EHVO81VN57KAWAV14A1K6BEMLH1HG","","1002","img/flower3.png","75","1006","2","1","2","2","1,0,0,1,1,0,1,0,1","0,1,0,0,1,1,1,1,0","3",""
"","html-keyboard-response","184","130542","0.0-184.0","3OXV7EAXLFC29U2NJR2I0RX9J6Q363","AS7R0KA3QNVKE","3EHVO81VN57KAWAV14A1K6BEMLH1HG","","null","<img src=""img/flower3.png"" style=""width:200px; border:14px solid green;"">","null","","","","","","","","",""
"","image-keyboard-response","185","131017","0.0-185.0","3OXV7EAXLFC29U2NJR2I0RX9J6Q363","AS7R0KA3QNVKE","3EHVO81VN57KAWAV14A1K6BEMLH1HG","","472","img/flower2.png","75","475","2","1","3","2","1,0,0,1,1,0,1,0,1","0,1,0,0,1,1,1,1,0","3",""
"","html-keyboard-response","186","131319","0.0-186.0","3OXV7EAXLFC29U2NJR2I0RX9J6Q363","AS7R0KA3QNVKE","3EHVO81VN57KAWAV14A1K6BEMLH1HG","","null","<img src=""img/flower2.png"" style=""width:200px; border:14px solid green;"">","null","","","","","","","","",""
"","image-keyboard-response","187","131681","0.0-187.0","3OXV7EAXLFC29U2NJR2I0RX9J6Q363","AS7R0KA3QNVKE","3EHVO81VN57KAWAV14A1K6BEMLH1HG","","358","img/flower3.png","75","361","2","1","2","2","1,0,0,1,1,0,1,0,1","0,1,0,0,1,1,1,1,0","3",""
"","html-keyboard-response","188","131985","0.0-188.0","3OXV7EAXLFC29U2NJR2I0RX9J6Q363","AS7R0KA3QNVKE","3EHVO81VN57KAWAV14A1K6BEMLH1HG","","null","<img src=""img/flower3.png"" style=""width:200px; border:14px solid green;"">","null","","","","","","","","",""
"","image-keyboard-response","189","132301","0.0-189.0","3OXV7EAXLFC29U2NJR2I0RX9J6Q363","AS7R0KA3QNVKE","3EHVO81VN57KAWAV14A1K6BEMLH1HG","","312","img/flower2.png","75","315","2","1","3","2","1,0,0,1,1,0,1,0,1","0,1,0,0,1,1,1,1,0","3",""
"","html-keyboard-response","190","132605","0.0-190.0","3OXV7EAXLFC29U2NJR2I0RX9J6Q363","AS7R0KA3QNVKE","3EHVO81VN57KAWAV14A1K6BEMLH1HG","","null","<img src=""img/flower2.png"" style=""width:200px; border:14px solid green;"">","null","","","","","","","","",""
"","image-keyboard-response","191","132863","0.0-191.0","3OXV7EAXLFC29U2NJR2I0RX9J6Q363","AS7R0KA3QNVKE","3EHVO81VN57KAWAV14A1K6BEMLH1HG","","256","img/flower1.png","75","258","2","1","1","2","1,0,0,1,1,0,1,0,1","0,1,0,0,1,1,1,1,0","3",""
"","html-keyboard-response","192","133166","0.0-192.0","3OXV7EAXLFC29U2NJR2I0RX9J6Q363","AS7R0KA3QNVKE","3EHVO81VN57KAWAV14A1K6BEMLH1HG","","null","<img src=""img/flower1.png"" style=""width:200px; border:14px solid green;"">","null","","","","","","","","",""
"","image-keyboard-response","193","133438","0.0-193.0","3OXV7EAXLFC29U2NJR2I0RX9J6Q363","AS7R0KA3QNVKE","3EHVO81VN57KAWAV14A1K6BEMLH1HG","","265","img/flower1.png","75","267","2","1","1","2","1,0,0,1,1,0,1,0,1","0,1,0,0,1,1,1,1,0","3",""
"","html-keyboard-response","194","133742","0.0-194.0","3OXV7EAXLFC29U2NJR2I0RX9J6Q363","AS7R0KA3QNVKE","3EHVO81VN57KAWAV14A1K6BEMLH1HG","","null","<img src=""img/flower1.png"" style=""width:200px; border:14px solid green;"">","null","","","","","","","","",""
"","image-keyboard-response","195","133990","0.0-195.0","3OXV7EAXLFC29U2NJR2I0RX9J6Q363","AS7R0KA3QNVKE","3EHVO81VN57KAWAV14A1K6BEMLH1HG","","244","img/flower1.png","75","247","2","1","1","2","1,0,0,1,1,0,1,0,1","0,1,0,0,1,1,1,1,0","3",""
"","html-keyboard-response","196","134293","0.0-196.0","3OXV7EAXLFC29U2NJR2I0RX9J6Q363","AS7R0KA3QNVKE","3EHVO81VN57KAWAV14A1K6BEMLH1HG","","null","<img src=""img/flower1.png"" style=""width:200px; border:14px solid green;"">","null","","","","","","","","",""
"","image-keyboard-response","197","134560","0.0-197.0","3OXV7EAXLFC29U2NJR2I0RX9J6Q363","AS7R0KA3QNVKE","3EHVO81VN57KAWAV14A1K6BEMLH1HG","","263","img/flower3.png","75","265","2","1","2","2","1,0,0,1,1,0,1,0,1","0,1,0,0,1,1,1,1,0","3",""
"","html-keyboard-response","198","134862","0.0-198.0","3OXV7EAXLFC29U2NJR2I0RX9J6Q363","AS7R0KA3QNVKE","3EHVO81VN57KAWAV14A1K6BEMLH1HG","","null","<img src=""img/flower3.png"" style=""width:200px; border:14px solid green;"">","null","","","","","","","","",""
"","image-keyboard-response","199","135141","0.0-199.0","3OXV7EAXLFC29U2NJR2I0RX9J6Q363","AS7R0KA3QNVKE","3EHVO81VN57KAWAV14A1K6BEMLH1HG","","277","img/flower2.png","75","278","2","1","3","2","1,0,0,1,1,0,1,0,1","0,1,0,0,1,1,1,1,0","3",""
"","html-keyboard-response","200","135443","0.0-200.0","3OXV7EAXLFC29U2NJR2I0RX9J6Q363","AS7R0KA3QNVKE","3EHVO81VN57KAWAV14A1K6BEMLH1HG","","null","<img src=""img/flower2.png"" style=""width:200px; border:14px solid green;"">","null","","","","","","","","",""
"","image-keyboard-response","201","135629","0.0-201.0","3OXV7EAXLFC29U2NJR2I0RX9J6Q363","AS7R0KA3QNVKE","3EHVO81VN57KAWAV14A1K6BEMLH1HG","","182","img/flower3.png","75","184","2","1","2","2","1,0,0,1,1,0,1,0,1","0,1,0,0,1,1,1,1,0","3",""
"","html-keyboard-response","202","135931","0.0-202.0","3OXV7EAXLFC29U2NJR2I0RX9J6Q363","AS7R0KA3QNVKE","3EHVO81VN57KAWAV14A1K6BEMLH1HG","","null","<img src=""img/flower3.png"" style=""width:200px; border:14px solid green;"">","null","","","","","","","","",""
"","image-keyboard-response","203","136144","0.0-203.0","3OXV7EAXLFC29U2NJR2I0RX9J6Q363","AS7R0KA3QNVKE","3EHVO81VN57KAWAV14A1K6BEMLH1HG","","210","img/flower3.png","75","213","2","1","2","2","1,0,0,1,1,0,1,0,1","0,1,0,0,1,1,1,1,0","3",""
"","html-keyboard-response","204","136448","0.0-204.0","3OXV7EAXLFC29U2NJR2I0RX9J6Q363","AS7R0KA3QNVKE","3EHVO81VN57KAWAV14A1K6BEMLH1HG","","null","<img src=""img/flower3.png"" style=""width:200px; border:14px solid green;"">","null","","","","","","","","",""
"","image-keyboard-response","205","136673","0.0-205.0","3OXV7EAXLFC29U2NJR2I0RX9J6Q363","AS7R0KA3QNVKE","3EHVO81VN57KAWAV14A1K6BEMLH1HG","","218","img/flower2.png","75","221","2","1","3","2","1,0,0,1,1,0,1,0,1","0,1,0,0,1,1,1,1,0","3",""
"","html-keyboard-response","206","136980","0.0-206.0","3OXV7EAXLFC29U2NJR2I0RX9J6Q363","AS7R0KA3QNVKE","3EHVO81VN57KAWAV14A1K6BEMLH1HG","","null","<img src=""img/flower2.png"" style=""width:200px; border:14px solid green;"">","null","","","","","","","","",""
"","image-keyboard-response","207","137197","0.0-207.0","3OXV7EAXLFC29U2NJR2I0RX9J6Q363","AS7R0KA3QNVKE","3EHVO81VN57KAWAV14A1K6BEMLH1HG","","215","img/flower2.png","75","216","2","1","3","2","1,0,0,1,1,0,1,0,1","0,1,0,0,1,1,1,1,0","3",""
"","html-keyboard-response","208","137500","0.0-208.0","3OXV7EAXLFC29U2NJR2I0RX9J6Q363","AS7R0KA3QNVKE","3EHVO81VN57KAWAV14A1K6BEMLH1HG","","null","<img src=""img/flower2.png"" style=""width:200px; border:14px solid green;"">","null","","","","","","","","",""
"","image-keyboard-response","209","137684","0.0-209.0","3OXV7EAXLFC29U2NJR2I0RX9J6Q363","AS7R0KA3QNVKE","3EHVO81VN57KAWAV14A1K6BEMLH1HG","","182","img/flower2.png","75","184","2","1","3","2","1,0,0,1,1,0,1,0,1","0,1,0,0,1,1,1,1,0","3",""
"","html-keyboard-response","210","137986","0.0-210.0","3OXV7EAXLFC29U2NJR2I0RX9J6Q363","AS7R0KA3QNVKE","3EHVO81VN57KAWAV14A1K6BEMLH1HG","","null","<img src=""img/flower2.png"" style=""width:200px; border:14px solid green;"">","null","","","","","","","","",""
"","image-keyboard-response","211","138086","0.0-211.0","3OXV7EAXLFC29U2NJR2I0RX9J6Q363","AS7R0KA3QNVKE","3EHVO81VN57KAWAV14A1K6BEMLH1HG","","97","img/flower2.png","75","99","2","1","3","2","1,0,0,1,1,0,1,0,1","0,1,0,0,1,1,1,1,0","3",""
"","html-keyboard-response","212","138389","0.0-212.0","3OXV7EAXLFC29U2NJR2I0RX9J6Q363","AS7R0KA3QNVKE","3EHVO81VN57KAWAV14A1K6BEMLH1HG","","null","<img src=""img/flower2.png"" style=""width:200px; border:14px solid green;"">","null","","","","","","","","",""
"","image-keyboard-response","213","138525","0.0-213.0","3OXV7EAXLFC29U2NJR2I0RX9J6Q363","AS7R0KA3QNVKE","3EHVO81VN57KAWAV14A1K6BEMLH1HG","","134","img/flower3.png","75","136","2","1","2","2","1,0,0,1,1,0,1,0,1","0,1,0,0,1,1,1,1,0","3",""
"","html-keyboard-response","214","138828","0.0-214.0","3OXV7EAXLFC29U2NJR2I0RX9J6Q363","AS7R0KA3QNVKE","3EHVO81VN57KAWAV14A1K6BEMLH1HG","","null","<img src=""img/flower3.png"" style=""width:200px; border:14px solid green;"">","null","","","","","","","","",""
"","image-keyboard-response","215","138917","0.0-215.0","3OXV7EAXLFC29U2NJR2I0RX9J6Q363","AS7R0KA3QNVKE","3EHVO81VN57KAWAV14A1K6BEMLH1HG","","86","img/flower3.png","75","88","2","1","2","2","1,0,0,1,1,0,1,0,1","0,1,0,0,1,1,1,1,0","3",""
"","html-keyboard-response","216","139219","0.0-216.0","3OXV7EAXLFC29U2NJR2I0RX9J6Q363","AS7R0KA3QNVKE","3EHVO81VN57KAWAV14A1K6BEMLH1HG","","null","<img src=""img/flower3.png"" style=""width:200px; border:14px solid green;"">","null","","","","","","","","",""
"","image-keyboard-response","217","139285","0.0-217.0","3OXV7EAXLFC29U2NJR2I0RX9J6Q363","AS7R0KA3QNVKE","3EHVO81VN57KAWAV14A1K6BEMLH1HG","","65","img/flower2.png","75","66","2","1","3","2","1,0,0,1,1,0,1,0,1","0,1,0,0,1,1,1,1,0","3",""
"","html-keyboard-response","218","139588","0.0-218.0","3OXV7EAXLFC29U2NJR2I0RX9J6Q363","AS7R0KA3QNVKE","3EHVO81VN57KAWAV14A1K6BEMLH1HG","","null","<img src=""img/flower2.png"" style=""width:200px; border:14px solid green;"">","null","","","","","","","","",""
"","image-keyboard-response","219","139694","0.0-219.0","3OXV7EAXLFC29U2NJR2I0RX9J6Q363","AS7R0KA3QNVKE","3EHVO81VN57KAWAV14A1K6BEMLH1HG","","102","img/flower2.png","75","105","2","1","3","2","1,0,0,1,1,0,1,0,1","0,1,0,0,1,1,1,1,0","3",""
"","html-keyboard-response","220","139998","0.0-220.0","3OXV7EAXLFC29U2NJR2I0RX9J6Q363","AS7R0KA3QNVKE","3EHVO81VN57KAWAV14A1K6BEMLH1HG","","null","<img src=""img/flower2.png"" style=""width:200px; border:14px solid green;"">","null","","","","","","","","",""
"","image-keyboard-response","221","140030","0.0-221.0","3OXV7EAXLFC29U2NJR2I0RX9J6Q363","AS7R0KA3QNVKE","3EHVO81VN57KAWAV14A1K6BEMLH1HG","","29","img/flower1.png","75","30","2","1","1","2","1,0,0,1,1,0,1,0,1","0,1,0,0,1,1,1,1,0","3",""
"","html-keyboard-response","222","140332","0.0-222.0","3OXV7EAXLFC29U2NJR2I0RX9J6Q363","AS7R0KA3QNVKE","3EHVO81VN57KAWAV14A1K6BEMLH1HG","","null","<img src=""img/flower1.png"" style=""width:200px; border:14px solid green;"">","null","","","","","","","","",""
"","image-keyboard-response","223","140341","0.0-223.0","3OXV7EAXLFC29U2NJR2I0RX9J6Q363","AS7R0KA3QNVKE","3EHVO81VN57KAWAV14A1K6BEMLH1HG","","7","img/flower3.png","75","8","2","1","2","2","1,0,0,1,1,0,1,0,1","0,1,0,0,1,1,1,1,0","3",""
"","html-keyboard-response","224","140644","0.0-224.0","3OXV7EAXLFC29U2NJR2I0RX9J6Q363","AS7R0KA3QNVKE","3EHVO81VN57KAWAV14A1K6BEMLH1HG","","null","<img src=""img/flower3.png"" style=""width:200px; border:14px solid green;"">","null","","","","","","","","",""
"","image-keyboard-response","225","140749","0.0-225.0","3OXV7EAXLFC29U2NJR2I0RX9J6Q363","AS7R0KA3QNVKE","3EHVO81VN57KAWAV14A1K6BEMLH1HG","","102","img/flower2.png","75","104","2","1","3","2","1,0,0,1,1,0,1,0,1","0,1,0,0,1,1,1,1,0","3",""
"","html-keyboard-response","226","141052","0.0-226.0","3OXV7EAXLFC29U2NJR2I0RX9J6Q363","AS7R0KA3QNVKE","3EHVO81VN57KAWAV14A1K6BEMLH1HG","","null","<img src=""img/flower2.png"" style=""width:200px; border:14px solid green;"">","null","","","","","","","","",""
"","image-keyboard-response","227","141246","0.0-227.0","3OXV7EAXLFC29U2NJR2I0RX9J6Q363","AS7R0KA3QNVKE","3EHVO81VN57KAWAV14A1K6BEMLH1HG","","192","img/flower1.png","75","194","2","1","1","2","1,0,0,1,1,0,1,0,1","0,1,0,0,1,1,1,1,0","3",""
"","html-keyboard-response","228","141547","0.0-228.0","3OXV7EAXLFC29U2NJR2I0RX9J6Q363","AS7R0KA3QNVKE","3EHVO81VN57KAWAV14A1K6BEMLH1HG","","null","<img src=""img/flower1.png"" style=""width:200px; border:14px solid green;"">","null","","","","","","","","",""
"","image-keyboard-response","229","141718","0.0-229.0","3OXV7EAXLFC29U2NJR2I0RX9J6Q363","AS7R0KA3QNVKE","3EHVO81VN57KAWAV14A1K6BEMLH1HG","","166","img/flower1.png","75","168","2","1","1","2","1,0,0,1,1,0,1,0,1","0,1,0,0,1,1,1,1,0","3",""
"","html-keyboard-response","230","142022","0.0-230.0","3OXV7EAXLFC29U2NJR2I0RX9J6Q363","AS7R0KA3QNVKE","3EHVO81VN57KAWAV14A1K6BEMLH1HG","","null","<img src=""img/flower1.png"" style=""width:200px; border:14px solid green;"">","null","","","","","","","","",""
"","image-keyboard-response","231","142302","0.0-231.0","3OXV7EAXLFC29U2NJR2I0RX9J6Q363","AS7R0KA3QNVKE","3EHVO81VN57KAWAV14A1K6BEMLH1HG","","279","img/flower2.png","74","280","1","1","3","2","1,0,0,1,1,0,1,0,1","0,1,0,0,1,1,1,1,0","3",""
"","html-keyboard-response","232","142605","0.0-232.0","3OXV7EAXLFC29U2NJR2I0RX9J6Q363","AS7R0KA3QNVKE","3EHVO81VN57KAWAV14A1K6BEMLH1HG","","null","<img src=""img/flower2.png"" style=""width:200px; border:14px solid green;"">","null","","","","","","","","",""
"","image-keyboard-response","233","142998","0.0-233.0","3OXV7EAXLFC29U2NJR2I0RX9J6Q363","AS7R0KA3QNVKE","3EHVO81VN57KAWAV14A1K6BEMLH1HG","","390","img/flower3.png","74","392","1","0","2","2","1,0,0,1,1,0,1,0,1","0,1,0,0,1,1,1,1,0","3",""
"","html-keyboard-response","234","143299","0.0-234.0","3OXV7EAXLFC29U2NJR2I0RX9J6Q363","AS7R0KA3QNVKE","3EHVO81VN57KAWAV14A1K6BEMLH1HG","","null","<img src=""img/flower3.png"" style=""width:200px;border:14px solid red;"">","null","","","","","","","","",""
"","image-keyboard-response","235","143559","0.0-235.0","3OXV7EAXLFC29U2NJR2I0RX9J6Q363","AS7R0KA3QNVKE","3EHVO81VN57KAWAV14A1K6BEMLH1HG","","254","img/flower2.png","76","256","3","0","3","2","1,0,0,1,1,0,1,0,1","0,1,0,0,1,1,1,1,0","3",""
"","html-keyboard-response","236","143862","0.0-236.0","3OXV7EAXLFC29U2NJR2I0RX9J6Q363","AS7R0KA3QNVKE","3EHVO81VN57KAWAV14A1K6BEMLH1HG","","null","<img src=""img/flower2.png"" style=""width:200px;border:14px solid red;"">","null","","","","","","","","",""
"","image-keyboard-response","237","144205","0.0-237.0","3OXV7EAXLFC29U2NJR2I0RX9J6Q363","AS7R0KA3QNVKE","3EHVO81VN57KAWAV14A1K6BEMLH1HG","","340","img/flower1.png","75","342","2","1","1","2","1,0,0,1,1,0,1,0,1","0,1,0,0,1,1,1,1,0","3",""
"","html-keyboard-response","238","144507","0.0-238.0","3OXV7EAXLFC29U2NJR2I0RX9J6Q363","AS7R0KA3QNVKE","3EHVO81VN57KAWAV14A1K6BEMLH1HG","","null","<img src=""img/flower1.png"" style=""width:200px; border:14px solid green;"">","null","","","","","","","","",""
"","image-keyboard-response","239","144692","0.0-239.0","3OXV7EAXLFC29U2NJR2I0RX9J6Q363","AS7R0KA3QNVKE","3EHVO81VN57KAWAV14A1K6BEMLH1HG","","182","img/flower1.png","75","184","2","1","1","2","1,0,0,1,1,0,1,0,1","0,1,0,0,1,1,1,1,0","3",""
"","html-keyboard-response","240","144997","0.0-240.0","3OXV7EAXLFC29U2NJR2I0RX9J6Q363","AS7R0KA3QNVKE","3EHVO81VN57KAWAV14A1K6BEMLH1HG","","null","<img src=""img/flower1.png"" style=""width:200px; border:14px solid green;"">","null","","","","","","","","",""
"","image-keyboard-response","241","145270","0.0-241.0","3OXV7EAXLFC29U2NJR2I0RX9J6Q363","AS7R0KA3QNVKE","3EHVO81VN57KAWAV14A1K6BEMLH1HG","","271","img/flower1.png","75","272","2","1","1","2","1,0,0,1,1,0,1,0,1","0,1,0,0,1,1,1,1,0","3",""
"","html-keyboard-response","242","145573","0.0-242.0","3OXV7EAXLFC29U2NJR2I0RX9J6Q363","AS7R0KA3QNVKE","3EHVO81VN57KAWAV14A1K6BEMLH1HG","","null","<img src=""img/flower1.png"" style=""width:200px; border:14px solid green;"">","null","","","","","","","","",""
"","image-keyboard-response","243","145765","0.0-243.0","3OXV7EAXLFC29U2NJR2I0RX9J6Q363","AS7R0KA3QNVKE","3EHVO81VN57KAWAV14A1K6BEMLH1HG","","189","img/flower2.png","75","190","2","1","3","2","1,0,0,1,1,0,1,0,1","0,1,0,0,1,1,1,1,0","3",""
"","html-keyboard-response","244","146067","0.0-244.0","3OXV7EAXLFC29U2NJR2I0RX9J6Q363","AS7R0KA3QNVKE","3EHVO81VN57KAWAV14A1K6BEMLH1HG","","null","<img src=""img/flower2.png"" style=""width:200px; border:14px solid green;"">","null","","","","","","","","",""
"","image-keyboard-response","245","146295","0.0-245.0","3OXV7EAXLFC29U2NJR2I0RX9J6Q363","AS7R0KA3QNVKE","3EHVO81VN57KAWAV14A1K6BEMLH1HG","","223","img/flower1.png","75","227","2","1","1","2","1,0,0,1,1,0,1,0,1","0,1,0,0,1,1,1,1,0","3",""
"","html-keyboard-response","246","146598","0.0-246.0","3OXV7EAXLFC29U2NJR2I0RX9J6Q363","AS7R0KA3QNVKE","3EHVO81VN57KAWAV14A1K6BEMLH1HG","","null","<img src=""img/flower1.png"" style=""width:200px; border:14px solid green;"">","null","","","","","","","","",""
"","image-keyboard-response","247","146845","0.0-247.0","3OXV7EAXLFC29U2NJR2I0RX9J6Q363","AS7R0KA3QNVKE","3EHVO81VN57KAWAV14A1K6BEMLH1HG","","244","img/flower1.png","75","246","2","1","1","2","1,0,0,1,1,0,1,0,1","0,1,0,0,1,1,1,1,0","3",""
"","html-keyboard-response","248","147148","0.0-248.0","3OXV7EAXLFC29U2NJR2I0RX9J6Q363","AS7R0KA3QNVKE","3EHVO81VN57KAWAV14A1K6BEMLH1HG","","null","<img src=""img/flower1.png"" style=""width:200px; border:14px solid green;"">","null","","","","","","","","",""
"","image-keyboard-response","249","147456","0.0-249.0","3OXV7EAXLFC29U2NJR2I0RX9J6Q363","AS7R0KA3QNVKE","3EHVO81VN57KAWAV14A1K6BEMLH1HG","","303","img/flower2.png","75","307","2","1","3","2","1,0,0,1,1,0,1,0,1","0,1,0,0,1,1,1,1,0","3",""
"","html-keyboard-response","250","147759","0.0-250.0","3OXV7EAXLFC29U2NJR2I0RX9J6Q363","AS7R0KA3QNVKE","3EHVO81VN57KAWAV14A1K6BEMLH1HG","","null","<img src=""img/flower2.png"" style=""width:200px; border:14px solid green;"">","null","","","","","","","","",""
"","image-keyboard-response","251","148010","0.0-251.0","3OXV7EAXLFC29U2NJR2I0RX9J6Q363","AS7R0KA3QNVKE","3EHVO81VN57KAWAV14A1K6BEMLH1HG","","249","img/flower1.png","76","251","3","0","1","2","1,0,0,1,1,0,1,0,1","0,1,0,0,1,1,1,1,0","3",""
"","html-keyboard-response","252","148315","0.0-252.0","3OXV7EAXLFC29U2NJR2I0RX9J6Q363","AS7R0KA3QNVKE","3EHVO81VN57KAWAV14A1K6BEMLH1HG","","null","<img src=""img/flower1.png"" style=""width:200px;border:14px solid red;"">","null","","","","","","","","",""
"","image-keyboard-response","253","148703","0.0-253.0","3OXV7EAXLFC29U2NJR2I0RX9J6Q363","AS7R0KA3QNVKE","3EHVO81VN57KAWAV14A1K6BEMLH1HG","","386","img/flower1.png","74","387","1","0","1","2","1,0,0,1,1,0,1,0,1","0,1,0,0,1,1,1,1,0","3",""
"","html-keyboard-response","254","149005","0.0-254.0","3OXV7EAXLFC29U2NJR2I0RX9J6Q363","AS7R0KA3QNVKE","3EHVO81VN57KAWAV14A1K6BEMLH1HG","","null","<img src=""img/flower1.png"" style=""width:200px;border:14px solid red;"">","null","","","","","","","","",""
"","image-keyboard-response","255","149391","0.0-255.0","3OXV7EAXLFC29U2NJR2I0RX9J6Q363","AS7R0KA3QNVKE","3EHVO81VN57KAWAV14A1K6BEMLH1HG","","382","img/flower1.png","75","384","2","1","1","2","1,0,0,1,1,0,1,0,1","0,1,0,0,1,1,1,1,0","3",""
"","html-keyboard-response","256","149693","0.0-256.0","3OXV7EAXLFC29U2NJR2I0RX9J6Q363","AS7R0KA3QNVKE","3EHVO81VN57KAWAV14A1K6BEMLH1HG","","null","<img src=""img/flower1.png"" style=""width:200px; border:14px solid green;"">","null","","","","","","","","",""
"","image-keyboard-response","257","149916","0.0-257.0","3OXV7EAXLFC29U2NJR2I0RX9J6Q363","AS7R0KA3QNVKE","3EHVO81VN57KAWAV14A1K6BEMLH1HG","","221","img/flower3.png","75","223","2","1","2","2","1,0,0,1,1,0,1,0,1","0,1,0,0,1,1,1,1,0","3",""
"","html-keyboard-response","258","150218","0.0-258.0","3OXV7EAXLFC29U2NJR2I0RX9J6Q363","AS7R0KA3QNVKE","3EHVO81VN57KAWAV14A1K6BEMLH1HG","","null","<img src=""img/flower3.png"" style=""width:200px; border:14px solid green;"">","null","","","","","","","","",""
"","image-keyboard-response","259","150525","0.0-259.0","3OXV7EAXLFC29U2NJR2I0RX9J6Q363","AS7R0KA3QNVKE","3EHVO81VN57KAWAV14A1K6BEMLH1HG","","305","img/flower1.png","75","307","2","1","1","2","1,0,0,1,1,0,1,0,1","0,1,0,0,1,1,1,1,0","3",""
"","html-keyboard-response","260","150829","0.0-260.0","3OXV7EAXLFC29U2NJR2I0RX9J6Q363","AS7R0KA3QNVKE","3EHVO81VN57KAWAV14A1K6BEMLH1HG","","null","<img src=""img/flower1.png"" style=""width:200px; border:14px solid green;"">","null","","","","","","","","",""
"","image-keyboard-response","261","151047","0.0-261.0","3OXV7EAXLFC29U2NJR2I0RX9J6Q363","AS7R0KA3QNVKE","3EHVO81VN57KAWAV14A1K6BEMLH1HG","","213","img/flower1.png","75","214","2","1","1","2","1,0,0,1,1,0,1,0,1","0,1,0,0,1,1,1,1,0","3",""
"","html-keyboard-response","262","151351","0.0-262.0","3OXV7EAXLFC29U2NJR2I0RX9J6Q363","AS7R0KA3QNVKE","3EHVO81VN57KAWAV14A1K6BEMLH1HG","","null","<img src=""img/flower1.png"" style=""width:200px; border:14px solid green;"">","null","","","","","","","","",""
"","image-keyboard-response","263","151653","0.0-263.0","3OXV7EAXLFC29U2NJR2I0RX9J6Q363","AS7R0KA3QNVKE","3EHVO81VN57KAWAV14A1K6BEMLH1HG","","300","img/flower1.png","75","302","2","1","1","2","1,0,0,1,1,0,1,0,1","0,1,0,0,1,1,1,1,0","3",""
"","html-keyboard-response","264","151955","0.0-264.0","3OXV7EAXLFC29U2NJR2I0RX9J6Q363","AS7R0KA3QNVKE","3EHVO81VN57KAWAV14A1K6BEMLH1HG","","null","<img src=""img/flower1.png"" style=""width:200px; border:14px solid green;"">","null","","","","","","","","",""
"","image-keyboard-response","265","152286","0.0-265.0","3OXV7EAXLFC29U2NJR2I0RX9J6Q363","AS7R0KA3QNVKE","3EHVO81VN57KAWAV14A1K6BEMLH1HG","","328","img/flower3.png","75","329","2","1","2","2","1,0,0,1,1,0,1,0,1","0,1,0,0,1,1,1,1,0","3",""
"","html-keyboard-response","266","152589","0.0-266.0","3OXV7EAXLFC29U2NJR2I0RX9J6Q363","AS7R0KA3QNVKE","3EHVO81VN57KAWAV14A1K6BEMLH1HG","","null","<img src=""img/flower3.png"" style=""width:200px; border:14px solid green;"">","null","","","","","","","","",""
"","image-keyboard-response","267","152774","0.0-267.0","3OXV7EAXLFC29U2NJR2I0RX9J6Q363","AS7R0KA3QNVKE","3EHVO81VN57KAWAV14A1K6BEMLH1HG","","184","img/flower3.png","75","185","2","1","2","2","1,0,0,1,1,0,1,0,1","0,1,0,0,1,1,1,1,0","3",""
"","html-keyboard-response","268","153076","0.0-268.0","3OXV7EAXLFC29U2NJR2I0RX9J6Q363","AS7R0KA3QNVKE","3EHVO81VN57KAWAV14A1K6BEMLH1HG","","null","<img src=""img/flower3.png"" style=""width:200px; border:14px solid green;"">","null","","","","","","","","",""
"","image-keyboard-response","269","153293","0.0-269.0","3OXV7EAXLFC29U2NJR2I0RX9J6Q363","AS7R0KA3QNVKE","3EHVO81VN57KAWAV14A1K6BEMLH1HG","","213","img/flower3.png","75","215","2","1","2","2","1,0,0,1,1,0,1,0,1","0,1,0,0,1,1,1,1,0","3",""
"","html-keyboard-response","270","153596","0.0-270.0","3OXV7EAXLFC29U2NJR2I0RX9J6Q363","AS7R0KA3QNVKE","3EHVO81VN57KAWAV14A1K6BEMLH1HG","","null","<img src=""img/flower3.png"" style=""width:200px; border:14px solid green;"">","null","","","","","","","","",""
"","image-keyboard-response","271","153854","0.0-271.0","3OXV7EAXLFC29U2NJR2I0RX9J6Q363","AS7R0KA3QNVKE","3EHVO81VN57KAWAV14A1K6BEMLH1HG","","255","img/flower1.png","75","256","2","1","1","2","1,0,0,1,1,0,1,0,1","0,1,0,0,1,1,1,1,0","3",""
"","html-keyboard-response","272","154157","0.0-272.0","3OXV7EAXLFC29U2NJR2I0RX9J6Q363","AS7R0KA3QNVKE","3EHVO81VN57KAWAV14A1K6BEMLH1HG","","null","<img src=""img/flower1.png"" style=""width:200px; border:14px solid green;"">","null","","","","","","","","",""
"","image-keyboard-response","273","154381","0.0-273.0","3OXV7EAXLFC29U2NJR2I0RX9J6Q363","AS7R0KA3QNVKE","3EHVO81VN57KAWAV14A1K6BEMLH1HG","","221","img/flower3.png","75","222","2","1","2","2","1,0,0,1,1,0,1,0,1","0,1,0,0,1,1,1,1,0","3",""
"","html-keyboard-response","274","154683","0.0-274.0","3OXV7EAXLFC29U2NJR2I0RX9J6Q363","AS7R0KA3QNVKE","3EHVO81VN57KAWAV14A1K6BEMLH1HG","","null","<img src=""img/flower3.png"" style=""width:200px; border:14px solid green;"">","null","","","","","","","","",""
"","image-keyboard-response","275","154957","0.0-275.0","3OXV7EAXLFC29U2NJR2I0RX9J6Q363","AS7R0KA3QNVKE","3EHVO81VN57KAWAV14A1K6BEMLH1HG","","273","img/flower1.png","75","273","2","1","1","2","1,0,0,1,1,0,1,0,1","0,1,0,0,1,1,1,1,0","3",""
"","html-keyboard-response","276","155260","0.0-276.0","3OXV7EAXLFC29U2NJR2I0RX9J6Q363","AS7R0KA3QNVKE","3EHVO81VN57KAWAV14A1K6BEMLH1HG","","null","<img src=""img/flower1.png"" style=""width:200px; border:14px solid green;"">","null","","","","","","","","",""
"","image-keyboard-response","277","155525","0.0-277.0","3OXV7EAXLFC29U2NJR2I0RX9J6Q363","AS7R0KA3QNVKE","3EHVO81VN57KAWAV14A1K6BEMLH1HG","","264","img/flower1.png","75","265","2","1","1","2","1,0,0,1,1,0,1,0,1","0,1,0,0,1,1,1,1,0","3",""
"","html-keyboard-response","278","155829","0.0-278.0","3OXV7EAXLFC29U2NJR2I0RX9J6Q363","AS7R0KA3QNVKE","3EHVO81VN57KAWAV14A1K6BEMLH1HG","","null","<img src=""img/flower1.png"" style=""width:200px; border:14px solid green;"">","null","","","","","","","","",""
"","image-keyboard-response","279","156117","0.0-279.0","3OXV7EAXLFC29U2NJR2I0RX9J6Q363","AS7R0KA3QNVKE","3EHVO81VN57KAWAV14A1K6BEMLH1HG","","287","img/flower3.png","75","288","2","1","2","2","1,0,0,1,1,0,1,0,1","0,1,0,0,1,1,1,1,0","3",""
"","html-keyboard-response","280","156419","0.0-280.0","3OXV7EAXLFC29U2NJR2I0RX9J6Q363","AS7R0KA3QNVKE","3EHVO81VN57KAWAV14A1K6BEMLH1HG","","null","<img src=""img/flower3.png"" style=""width:200px; border:14px solid green;"">","null","","","","","","","","",""
"","image-keyboard-response","281","156709","0.0-281.0","3OXV7EAXLFC29U2NJR2I0RX9J6Q363","AS7R0KA3QNVKE","3EHVO81VN57KAWAV14A1K6BEMLH1HG","","288","img/flower2.png","75","289","2","1","3","2","1,0,0,1,1,0,1,0,1","0,1,0,0,1,1,1,1,0","3",""
"","html-keyboard-response","282","157012","0.0-282.0","3OXV7EAXLFC29U2NJR2I0RX9J6Q363","AS7R0KA3QNVKE","3EHVO81VN57KAWAV14A1K6BEMLH1HG","","null","<img src=""img/flower2.png"" style=""width:200px; border:14px solid green;"">","null","","","","","","","","",""
"","image-keyboard-response","283","157262","0.0-283.0","3OXV7EAXLFC29U2NJR2I0RX9J6Q363","AS7R0KA3QNVKE","3EHVO81VN57KAWAV14A1K6BEMLH1HG","","248","img/flower3.png","75","249","2","1","2","2","1,0,0,1,1,0,1,0,1","0,1,0,0,1,1,1,1,0","3",""
"","html-keyboard-response","284","157563","0.0-284.0","3OXV7EAXLFC29U2NJR2I0RX9J6Q363","AS7R0KA3QNVKE","3EHVO81VN57KAWAV14A1K6BEMLH1HG","","null","<img src=""img/flower3.png"" style=""width:200px; border:14px solid green;"">","null","","","","","","","","",""
"","image-keyboard-response","285","157813","0.0-285.0","3OXV7EAXLFC29U2NJR2I0RX9J6Q363","AS7R0KA3QNVKE","3EHVO81VN57KAWAV14A1K6BEMLH1HG","","247","img/flower3.png","75","249","2","1","2","2","1,0,0,1,1,0,1,0,1","0,1,0,0,1,1,1,1,0","3",""
"","html-keyboard-response","286","158114","0.0-286.0","3OXV7EAXLFC29U2NJR2I0RX9J6Q363","AS7R0KA3QNVKE","3EHVO81VN57KAWAV14A1K6BEMLH1HG","","null","<img src=""img/flower3.png"" style=""width:200px; border:14px solid green;"">","null","","","","","","","","",""
"","image-keyboard-response","287","158412","0.0-287.0","3OXV7EAXLFC29U2NJR2I0RX9J6Q363","AS7R0KA3QNVKE","3EHVO81VN57KAWAV14A1K6BEMLH1HG","","295","img/flower2.png","75","297","2","1","3","2","1,0,0,1,1,0,1,0,1","0,1,0,0,1,1,1,1,0","3",""
"","html-keyboard-response","288","158717","0.0-288.0","3OXV7EAXLFC29U2NJR2I0RX9J6Q363","AS7R0KA3QNVKE","3EHVO81VN57KAWAV14A1K6BEMLH1HG","","null","<img src=""img/flower2.png"" style=""width:200px; border:14px solid green;"">","null","","","","","","","","",""
"","image-keyboard-response","289","158877","0.0-289.0","3OXV7EAXLFC29U2NJR2I0RX9J6Q363","AS7R0KA3QNVKE","3EHVO81VN57KAWAV14A1K6BEMLH1HG","","158","img/flower3.png","75","159","2","1","2","2","1,0,0,1,1,0,1,0,1","0,1,0,0,1,1,1,1,0","3",""
"","html-keyboard-response","290","159179","0.0-290.0","3OXV7EAXLFC29U2NJR2I0RX9J6Q363","AS7R0KA3QNVKE","3EHVO81VN57KAWAV14A1K6BEMLH1HG","","null","<img src=""img/flower3.png"" style=""width:200px; border:14px solid green;"">","null","","","","","","","","",""
"","image-keyboard-response","291","159414","0.0-291.0","3OXV7EAXLFC29U2NJR2I0RX9J6Q363","AS7R0KA3QNVKE","3EHVO81VN57KAWAV14A1K6BEMLH1HG","","231","img/flower2.png","75","233","2","1","3","2","1,0,0,1,1,0,1,0,1","0,1,0,0,1,1,1,1,0","3",""
"","html-keyboard-response","292","159717","0.0-292.0","3OXV7EAXLFC29U2NJR2I0RX9J6Q363","AS7R0KA3QNVKE","3EHVO81VN57KAWAV14A1K6BEMLH1HG","","null","<img src=""img/flower2.png"" style=""width:200px; border:14px solid green;"">","null","","","","","","","","",""
"","image-keyboard-response","293","159967","0.0-293.0","3OXV7EAXLFC29U2NJR2I0RX9J6Q363","AS7R0KA3QNVKE","3EHVO81VN57KAWAV14A1K6BEMLH1HG","","247","img/flower2.png","75","248","2","1","3","2","1,0,0,1,1,0,1,0,1","0,1,0,0,1,1,1,1,0","3",""
"","html-keyboard-response","294","160269","0.0-294.0","3OXV7EAXLFC29U2NJR2I0RX9J6Q363","AS7R0KA3QNVKE","3EHVO81VN57KAWAV14A1K6BEMLH1HG","","null","<img src=""img/flower2.png"" style=""width:200px; border:14px solid green;"">","null","","","","","","","","",""
"","image-keyboard-response","295","160509","0.0-295.0","3OXV7EAXLFC29U2NJR2I0RX9J6Q363","AS7R0KA3QNVKE","3EHVO81VN57KAWAV14A1K6BEMLH1HG","","235","img/flower3.png","75","238","2","1","2","2","1,0,0,1,1,0,1,0,1","0,1,0,0,1,1,1,1,0","3",""
"","html-keyboard-response","296","160810","0.0-296.0","3OXV7EAXLFC29U2NJR2I0RX9J6Q363","AS7R0KA3QNVKE","3EHVO81VN57KAWAV14A1K6BEMLH1HG","","null","<img src=""img/flower3.png"" style=""width:200px; border:14px solid green;"">","null","","","","","","","","",""
"","image-keyboard-response","297","161063","0.0-297.0","3OXV7EAXLFC29U2NJR2I0RX9J6Q363","AS7R0KA3QNVKE","3EHVO81VN57KAWAV14A1K6BEMLH1HG","","252","img/flower3.png","75","253","2","1","2","2","1,0,0,1,1,0,1,0,1","0,1,0,0,1,1,1,1,0","3",""
"","html-keyboard-response","298","161368","0.0-298.0","3OXV7EAXLFC29U2NJR2I0RX9J6Q363","AS7R0KA3QNVKE","3EHVO81VN57KAWAV14A1K6BEMLH1HG","","null","<img src=""img/flower3.png"" style=""width:200px; border:14px solid green;"">","null","","","","","","","","",""
"","image-keyboard-response","299","161640","0.0-299.0","3OXV7EAXLFC29U2NJR2I0RX9J6Q363","AS7R0KA3QNVKE","3EHVO81VN57KAWAV14A1K6BEMLH1HG","","270","img/flower1.png","75","272","2","1","1","2","1,0,0,1,1,0,1,0,1","0,1,0,0,1,1,1,1,0","3",""
"","html-keyboard-response","300","161941","0.0-300.0","3OXV7EAXLFC29U2NJR2I0RX9J6Q363","AS7R0KA3QNVKE","3EHVO81VN57KAWAV14A1K6BEMLH1HG","","null","<img src=""img/flower1.png"" style=""width:200px; border:14px solid green;"">","null","","","","","","","","",""
"","image-keyboard-response","301","162240","0.0-301.0","3OXV7EAXLFC29U2NJR2I0RX9J6Q363","AS7R0KA3QNVKE","3EHVO81VN57KAWAV14A1K6BEMLH1HG","","296","img/flower2.png","75","298","2","1","3","2","1,0,0,1,1,0,1,0,1","0,1,0,0,1,1,1,1,0","3",""
"","html-keyboard-response","302","162544","0.0-302.0","3OXV7EAXLFC29U2NJR2I0RX9J6Q363","AS7R0KA3QNVKE","3EHVO81VN57KAWAV14A1K6BEMLH1HG","","null","<img src=""img/flower2.png"" style=""width:200px; border:14px solid green;"">","null","","","","","","","","",""
"","image-keyboard-response","303","162800","0.0-303.0","3OXV7EAXLFC29U2NJR2I0RX9J6Q363","AS7R0KA3QNVKE","3EHVO81VN57KAWAV14A1K6BEMLH1HG","","253","img/flower3.png","75","255","2","1","2","2","1,0,0,1,1,0,1,0,1","0,1,0,0,1,1,1,1,0","3",""
"","html-keyboard-response","304","163104","0.0-304.0","3OXV7EAXLFC29U2NJR2I0RX9J6Q363","AS7R0KA3QNVKE","3EHVO81VN57KAWAV14A1K6BEMLH1HG","","null","<img src=""img/flower3.png"" style=""width:200px; border:14px solid green;"">","null","","","","","","","","",""
"","image-keyboard-response","305","163268","0.0-305.0","3OXV7EAXLFC29U2NJR2I0RX9J6Q363","AS7R0KA3QNVKE","3EHVO81VN57KAWAV14A1K6BEMLH1HG","","161","img/flower3.png","75","163","2","1","2","2","1,0,0,1,1,0,1,0,1","0,1,0,0,1,1,1,1,0","3",""
"","html-keyboard-response","306","163570","0.0-306.0","3OXV7EAXLFC29U2NJR2I0RX9J6Q363","AS7R0KA3QNVKE","3EHVO81VN57KAWAV14A1K6BEMLH1HG","","null","<img src=""img/flower3.png"" style=""width:200px; border:14px solid green;"">","null","","","","","","","","",""
"","image-keyboard-response","307","163799","0.0-307.0","3OXV7EAXLFC29U2NJR2I0RX9J6Q363","AS7R0KA3QNVKE","3EHVO81VN57KAWAV14A1K6BEMLH1HG","","226","img/flower2.png","75","228","2","1","3","2","1,0,0,1,1,0,1,0,1","0,1,0,0,1,1,1,1,0","3",""
"","html-keyboard-response","308","164102","0.0-308.0","3OXV7EAXLFC29U2NJR2I0RX9J6Q363","AS7R0KA3QNVKE","3EHVO81VN57KAWAV14A1K6BEMLH1HG","","null","<img src=""img/flower2.png"" style=""width:200px; border:14px solid green;"">","null","","","","","","","","",""
"","image-keyboard-response","309","164334","0.0-309.0","3OXV7EAXLFC29U2NJR2I0RX9J6Q363","AS7R0KA3QNVKE","3EHVO81VN57KAWAV14A1K6BEMLH1HG","","229","img/flower2.png","75","231","2","1","3","2","1,0,0,1,1,0,1,0,1","0,1,0,0,1,1,1,1,0","3",""
"","html-keyboard-response","310","164637","0.0-310.0","3OXV7EAXLFC29U2NJR2I0RX9J6Q363","AS7R0KA3QNVKE","3EHVO81VN57KAWAV14A1K6BEMLH1HG","","null","<img src=""img/flower2.png"" style=""width:200px; border:14px solid green;"">","null","","","","","","","","",""
"","image-keyboard-response","311","164936","0.0-311.0","3OXV7EAXLFC29U2NJR2I0RX9J6Q363","AS7R0KA3QNVKE","3EHVO81VN57KAWAV14A1K6BEMLH1HG","","296","img/flower3.png","75","298","2","1","2","2","1,0,0,1,1,0,1,0,1","0,1,0,0,1,1,1,1,0","3",""
"","html-keyboard-response","312","165239","0.0-312.0","3OXV7EAXLFC29U2NJR2I0RX9J6Q363","AS7R0KA3QNVKE","3EHVO81VN57KAWAV14A1K6BEMLH1HG","","null","<img src=""img/flower3.png"" style=""width:200px; border:14px solid green;"">","null","","","","","","","","",""
"","image-keyboard-response","313","165470","0.0-313.0","3OXV7EAXLFC29U2NJR2I0RX9J6Q363","AS7R0KA3QNVKE","3EHVO81VN57KAWAV14A1K6BEMLH1HG","","229","img/flower1.png","75","230","2","1","1","2","1,0,0,1,1,0,1,0,1","0,1,0,0,1,1,1,1,0","3",""
"","html-keyboard-response","314","165771","0.0-314.0","3OXV7EAXLFC29U2NJR2I0RX9J6Q363","AS7R0KA3QNVKE","3EHVO81VN57KAWAV14A1K6BEMLH1HG","","null","<img src=""img/flower1.png"" style=""width:200px; border:14px solid green;"">","null","","","","","","","","",""
"","image-keyboard-response","315","166054","0.0-315.0","3OXV7EAXLFC29U2NJR2I0RX9J6Q363","AS7R0KA3QNVKE","3EHVO81VN57KAWAV14A1K6BEMLH1HG","","281","img/flower3.png","75","282","2","1","2","2","1,0,0,1,1,0,1,0,1","0,1,0,0,1,1,1,1,0","3",""
"","html-keyboard-response","316","166356","0.0-316.0","3OXV7EAXLFC29U2NJR2I0RX9J6Q363","AS7R0KA3QNVKE","3EHVO81VN57KAWAV14A1K6BEMLH1HG","","null","<img src=""img/flower3.png"" style=""width:200px; border:14px solid green;"">","null","","","","","","","","",""
"","image-keyboard-response","317","166624","0.0-317.0","3OXV7EAXLFC29U2NJR2I0RX9J6Q363","AS7R0KA3QNVKE","3EHVO81VN57KAWAV14A1K6BEMLH1HG","","267","img/flower3.png","75","267","2","1","2","2","1,0,0,1,1,0,1,0,1","0,1,0,0,1,1,1,1,0","3",""
"","html-keyboard-response","318","166926","0.0-318.0","3OXV7EAXLFC29U2NJR2I0RX9J6Q363","AS7R0KA3QNVKE","3EHVO81VN57KAWAV14A1K6BEMLH1HG","","null","<img src=""img/flower3.png"" style=""width:200px; border:14px solid green;"">","null","","","","","","","","",""
"","image-keyboard-response","319","167190","0.0-319.0","3OXV7EAXLFC29U2NJR2I0RX9J6Q363","AS7R0KA3QNVKE","3EHVO81VN57KAWAV14A1K6BEMLH1HG","","262","img/flower2.png","75","263","2","1","3","2","1,0,0,1,1,0,1,0,1","0,1,0,0,1,1,1,1,0","3",""
"","html-keyboard-response","320","167493","0.0-320.0","3OXV7EAXLFC29U2NJR2I0RX9J6Q363","AS7R0KA3QNVKE","3EHVO81VN57KAWAV14A1K6BEMLH1HG","","null","<img src=""img/flower2.png"" style=""width:200px; border:14px solid green;"">","null","","","","","","","","",""
"","image-keyboard-response","321","167641","0.0-321.0","3OXV7EAXLFC29U2NJR2I0RX9J6Q363","AS7R0KA3QNVKE","3EHVO81VN57KAWAV14A1K6BEMLH1HG","","146","img/flower3.png","74","147","1","0","2","2","1,0,0,1,1,0,1,0,1","0,1,0,0,1,1,1,1,0","3",""
"","html-keyboard-response","322","167945","0.0-322.0","3OXV7EAXLFC29U2NJR2I0RX9J6Q363","AS7R0KA3QNVKE","3EHVO81VN57KAWAV14A1K6BEMLH1HG","","null","<img src=""img/flower3.png"" style=""width:200px;border:14px solid red;"">","null","","","","","","","","",""
"","image-keyboard-response","323","168259","0.0-323.0","3OXV7EAXLFC29U2NJR2I0RX9J6Q363","AS7R0KA3QNVKE","3EHVO81VN57KAWAV14A1K6BEMLH1HG","","311","img/flower3.png","74","312","1","0","2","2","1,0,0,1,1,0,1,0,1","0,1,0,0,1,1,1,1,0","3",""
"","html-keyboard-response","324","168562","0.0-324.0","3OXV7EAXLFC29U2NJR2I0RX9J6Q363","AS7R0KA3QNVKE","3EHVO81VN57KAWAV14A1K6BEMLH1HG","","null","<img src=""img/flower3.png"" style=""width:200px;border:14px solid red;"">","null","","","","","","","","",""
"","image-keyboard-response","325","168847","0.0-325.0","3OXV7EAXLFC29U2NJR2I0RX9J6Q363","AS7R0KA3QNVKE","3EHVO81VN57KAWAV14A1K6BEMLH1HG","","283","img/flower1.png","76","285","3","0","1","2","1,0,0,1,1,0,1,0,1","0,1,0,0,1,1,1,1,0","3",""
"","html-keyboard-response","326","169152","0.0-326.0","3OXV7EAXLFC29U2NJR2I0RX9J6Q363","AS7R0KA3QNVKE","3EHVO81VN57KAWAV14A1K6BEMLH1HG","","null","<img src=""img/flower1.png"" style=""width:200px;border:14px solid red;"">","null","","","","","","","","",""
"","image-keyboard-response","327","169390","0.0-327.0","3OXV7EAXLFC29U2NJR2I0RX9J6Q363","AS7R0KA3QNVKE","3EHVO81VN57KAWAV14A1K6BEMLH1HG","","233","img/flower3.png","75","237","2","1","2","2","1,0,0,1,1,0,1,0,1","0,1,0,0,1,1,1,1,0","3",""
"","html-keyboard-response","328","169693","0.0-328.0","3OXV7EAXLFC29U2NJR2I0RX9J6Q363","AS7R0KA3QNVKE","3EHVO81VN57KAWAV14A1K6BEMLH1HG","","null","<img src=""img/flower3.png"" style=""width:200px; border:14px solid green;"">","null","","","","","","","","",""
"","image-keyboard-response","329","169919","0.0-329.0","3OXV7EAXLFC29U2NJR2I0RX9J6Q363","AS7R0KA3QNVKE","3EHVO81VN57KAWAV14A1K6BEMLH1HG","","223","img/flower2.png","75","224","2","1","3","2","1,0,0,1,1,0,1,0,1","0,1,0,0,1,1,1,1,0","3",""
"","html-keyboard-response","330","170221","0.0-330.0","3OXV7EAXLFC29U2NJR2I0RX9J6Q363","AS7R0KA3QNVKE","3EHVO81VN57KAWAV14A1K6BEMLH1HG","","null","<img src=""img/flower2.png"" style=""width:200px; border:14px solid green;"">","null","","","","","","","","",""
"","image-keyboard-response","331","170501","0.0-331.0","3OXV7EAXLFC29U2NJR2I0RX9J6Q363","AS7R0KA3QNVKE","3EHVO81VN57KAWAV14A1K6BEMLH1HG","","273","img/flower1.png","75","277","2","1","1","2","1,0,0,1,1,0,1,0,1","0,1,0,0,1,1,1,1,0","3",""
"","html-keyboard-response","332","170804","0.0-332.0","3OXV7EAXLFC29U2NJR2I0RX9J6Q363","AS7R0KA3QNVKE","3EHVO81VN57KAWAV14A1K6BEMLH1HG","","null","<img src=""img/flower1.png"" style=""width:200px; border:14px solid green;"">","null","","","","","","","","",""
"","image-keyboard-response","333","171041","0.0-333.0","3OXV7EAXLFC29U2NJR2I0RX9J6Q363","AS7R0KA3QNVKE","3EHVO81VN57KAWAV14A1K6BEMLH1HG","","234","img/flower1.png","75","235","2","1","1","2","1,0,0,1,1,0,1,0,1","0,1,0,0,1,1,1,1,0","3",""
"","html-keyboard-response","334","171343","0.0-334.0","3OXV7EAXLFC29U2NJR2I0RX9J6Q363","AS7R0KA3QNVKE","3EHVO81VN57KAWAV14A1K6BEMLH1HG","","null","<img src=""img/flower1.png"" style=""width:200px; border:14px solid green;"">","null","","","","","","","","",""
"","image-keyboard-response","335","171590","0.0-335.0","3OXV7EAXLFC29U2NJR2I0RX9J6Q363","AS7R0KA3QNVKE","3EHVO81VN57KAWAV14A1K6BEMLH1HG","","244","img/flower1.png","75","246","2","1","1","2","1,0,0,1,1,0,1,0,1","0,1,0,0,1,1,1,1,0","3",""
"","html-keyboard-response","336","171891","0.0-336.0","3OXV7EAXLFC29U2NJR2I0RX9J6Q363","AS7R0KA3QNVKE","3EHVO81VN57KAWAV14A1K6BEMLH1HG","","null","<img src=""img/flower1.png"" style=""width:200px; border:14px solid green;"">","null","","","","","","","","",""
"","image-keyboard-response","337","172089","0.0-337.0","3OXV7EAXLFC29U2NJR2I0RX9J6Q363","AS7R0KA3QNVKE","3EHVO81VN57KAWAV14A1K6BEMLH1HG","","196","img/flower2.png","75","197","2","1","3","2","1,0,0,1,1,0,1,0,1","0,1,0,0,1,1,1,1,0","3",""
"","html-keyboard-response","338","172392","0.0-338.0","3OXV7EAXLFC29U2NJR2I0RX9J6Q363","AS7R0KA3QNVKE","3EHVO81VN57KAWAV14A1K6BEMLH1HG","","null","<img src=""img/flower2.png"" style=""width:200px; border:14px solid green;"">","null","","","","","","","","",""
"","image-keyboard-response","339","172624","0.0-339.0","3OXV7EAXLFC29U2NJR2I0RX9J6Q363","AS7R0KA3QNVKE","3EHVO81VN57KAWAV14A1K6BEMLH1HG","","231","img/flower2.png","75","232","2","1","3","2","1,0,0,1,1,0,1,0,1","0,1,0,0,1,1,1,1,0","3",""
"","html-keyboard-response","340","172929","0.0-340.0","3OXV7EAXLFC29U2NJR2I0RX9J6Q363","AS7R0KA3QNVKE","3EHVO81VN57KAWAV14A1K6BEMLH1HG","","null","<img src=""img/flower2.png"" style=""width:200px; border:14px solid green;"">","null","","","","","","","","",""
"","image-keyboard-response","341","173161","0.0-341.0","3OXV7EAXLFC29U2NJR2I0RX9J6Q363","AS7R0KA3QNVKE","3EHVO81VN57KAWAV14A1K6BEMLH1HG","","227","img/flower2.png","75","230","2","1","3","2","1,0,0,1,1,0,1,0,1","0,1,0,0,1,1,1,1,0","3",""
"","html-keyboard-response","342","173464","0.0-342.0","3OXV7EAXLFC29U2NJR2I0RX9J6Q363","AS7R0KA3QNVKE","3EHVO81VN57KAWAV14A1K6BEMLH1HG","","null","<img src=""img/flower2.png"" style=""width:200px; border:14px solid green;"">","null","","","","","","","","",""
"","image-keyboard-response","343","173662","0.0-343.0","3OXV7EAXLFC29U2NJR2I0RX9J6Q363","AS7R0KA3QNVKE","3EHVO81VN57KAWAV14A1K6BEMLH1HG","","195","img/flower2.png","75","197","2","1","3","2","1,0,0,1,1,0,1,0,1","0,1,0,0,1,1,1,1,0","3",""
"","html-keyboard-response","344","173964","0.0-344.0","3OXV7EAXLFC29U2NJR2I0RX9J6Q363","AS7R0KA3QNVKE","3EHVO81VN57KAWAV14A1K6BEMLH1HG","","null","<img src=""img/flower2.png"" style=""width:200px; border:14px solid green;"">","null","","","","","","","","",""
"","image-keyboard-response","345","174197","0.0-345.0","3OXV7EAXLFC29U2NJR2I0RX9J6Q363","AS7R0KA3QNVKE","3EHVO81VN57KAWAV14A1K6BEMLH1HG","","230","img/flower1.png","75","232","2","1","1","2","1,0,0,1,1,0,1,0,1","0,1,0,0,1,1,1,1,0","3",""
"","html-keyboard-response","346","174499","0.0-346.0","3OXV7EAXLFC29U2NJR2I0RX9J6Q363","AS7R0KA3QNVKE","3EHVO81VN57KAWAV14A1K6BEMLH1HG","","null","<img src=""img/flower1.png"" style=""width:200px; border:14px solid green;"">","null","","","","","","","","",""
"","image-keyboard-response","347","174712","0.0-347.0","3OXV7EAXLFC29U2NJR2I0RX9J6Q363","AS7R0KA3QNVKE","3EHVO81VN57KAWAV14A1K6BEMLH1HG","","208","img/flower2.png","75","212","2","1","3","2","1,0,0,1,1,0,1,0,1","0,1,0,0,1,1,1,1,0","3",""
"","html-keyboard-response","348","175016","0.0-348.0","3OXV7EAXLFC29U2NJR2I0RX9J6Q363","AS7R0KA3QNVKE","3EHVO81VN57KAWAV14A1K6BEMLH1HG","","null","<img src=""img/flower2.png"" style=""width:200px; border:14px solid green;"">","null","","","","","","","","",""
"","image-keyboard-response","349","175269","0.0-349.0","3OXV7EAXLFC29U2NJR2I0RX9J6Q363","AS7R0KA3QNVKE","3EHVO81VN57KAWAV14A1K6BEMLH1HG","","251","img/flower2.png","75","253","2","1","3","2","1,0,0,1,1,0,1,0,1","0,1,0,0,1,1,1,1,0","3",""
"","html-keyboard-response","350","175575","0.0-350.0","3OXV7EAXLFC29U2NJR2I0RX9J6Q363","AS7R0KA3QNVKE","3EHVO81VN57KAWAV14A1K6BEMLH1HG","","null","<img src=""img/flower2.png"" style=""width:200px; border:14px solid green;"">","null","","","","","","","","",""
"","image-keyboard-response","351","175846","0.0-351.0","3OXV7EAXLFC29U2NJR2I0RX9J6Q363","AS7R0KA3QNVKE","3EHVO81VN57KAWAV14A1K6BEMLH1HG","","268","img/flower2.png","75","269","2","1","3","2","1,0,0,1,1,0,1,0,1","0,1,0,0,1,1,1,1,0","3",""
"","html-keyboard-response","352","176149","0.0-352.0","3OXV7EAXLFC29U2NJR2I0RX9J6Q363","AS7R0KA3QNVKE","3EHVO81VN57KAWAV14A1K6BEMLH1HG","","null","<img src=""img/flower2.png"" style=""width:200px; border:14px solid green;"">","null","","","","","","","","",""
"","image-keyboard-response","353","176391","0.0-353.0","3OXV7EAXLFC29U2NJR2I0RX9J6Q363","AS7R0KA3QNVKE","3EHVO81VN57KAWAV14A1K6BEMLH1HG","","239","img/flower1.png","75","241","2","1","1","2","1,0,0,1,1,0,1,0,1","0,1,0,0,1,1,1,1,0","3",""
"","html-keyboard-response","354","176696","0.0-354.0","3OXV7EAXLFC29U2NJR2I0RX9J6Q363","AS7R0KA3QNVKE","3EHVO81VN57KAWAV14A1K6BEMLH1HG","","null","<img src=""img/flower1.png"" style=""width:200px; border:14px solid green;"">","null","","","","","","","","",""
"","image-keyboard-response","355","176944","0.0-355.0","3OXV7EAXLFC29U2NJR2I0RX9J6Q363","AS7R0KA3QNVKE","3EHVO81VN57KAWAV14A1K6BEMLH1HG","","242","img/flower3.png","75","246","2","1","2","2","1,0,0,1,1,0,1,0,1","0,1,0,0,1,1,1,1,0","3",""
"","html-keyboard-response","356","177245","0.0-356.0","3OXV7EAXLFC29U2NJR2I0RX9J6Q363","AS7R0KA3QNVKE","3EHVO81VN57KAWAV14A1K6BEMLH1HG","","null","<img src=""img/flower3.png"" style=""width:200px; border:14px solid green;"">","null","","","","","","","","",""
"","image-keyboard-response","357","177504","0.0-357.0","3OXV7EAXLFC29U2NJR2I0RX9J6Q363","AS7R0KA3QNVKE","3EHVO81VN57KAWAV14A1K6BEMLH1HG","","255","img/flower3.png","75","257","2","1","2","2","1,0,0,1,1,0,1,0,1","0,1,0,0,1,1,1,1,0","3",""
"","html-keyboard-response","358","177806","0.0-358.0","3OXV7EAXLFC29U2NJR2I0RX9J6Q363","AS7R0KA3QNVKE","3EHVO81VN57KAWAV14A1K6BEMLH1HG","","null","<img src=""img/flower3.png"" style=""width:200px; border:14px solid green;"">","null","","","","","","","","",""
"","image-keyboard-response","359","178064","0.0-359.0","3OXV7EAXLFC29U2NJR2I0RX9J6Q363","AS7R0KA3QNVKE","3EHVO81VN57KAWAV14A1K6BEMLH1HG","","253","img/flower1.png","75","256","2","1","1","2","1,0,0,1,1,0,1,0,1","0,1,0,0,1,1,1,1,0","3",""
"","html-keyboard-response","360","178367","0.0-360.0","3OXV7EAXLFC29U2NJR2I0RX9J6Q363","AS7R0KA3QNVKE","3EHVO81VN57KAWAV14A1K6BEMLH1HG","","null","<img src=""img/flower1.png"" style=""width:200px; border:14px solid green;"">","null","","","","","","","","",""
"","image-keyboard-response","361","178639","0.0-361.0","3OXV7EAXLFC29U2NJR2I0RX9J6Q363","AS7R0KA3QNVKE","3EHVO81VN57KAWAV14A1K6BEMLH1HG","","271","img/flower1.png","75","272","2","1","1","2","1,0,0,1,1,0,1,0,1","0,1,0,0,1,1,1,1,0","3",""
"","html-keyboard-response","362","178943","0.0-362.0","3OXV7EAXLFC29U2NJR2I0RX9J6Q363","AS7R0KA3QNVKE","3EHVO81VN57KAWAV14A1K6BEMLH1HG","","null","<img src=""img/flower1.png"" style=""width:200px; border:14px solid green;"">","null","","","","","","","","",""
"","instructions","363","186684","0.0-363.0","3OXV7EAXLFC29U2NJR2I0RX9J6Q363","AS7R0KA3QNVKE","3EHVO81VN57KAWAV14A1K6BEMLH1HG","[{""page_index"":0,""viewing_time"":7738}]","7739","","","","","","","","","","",""
"","survey-text","364","197363","0.0-364.0","3OXV7EAXLFC29U2NJR2I0RX9J6Q363","AS7R0KA3QNVKE","3EHVO81VN57KAWAV14A1K6BEMLH1HG","","10657","","","","","","","","","","","{""Q0"":""AS7R0KA3QNVKE""}"
