"success","trial_type","trial_index","time_elapsed","internal_node_id","assignmentID","mturkID","hitID","view_history","rt","stimulus","key_press","reactionTime","a","r","s","cond","reward_cond","reward_cond_actual","reward_matrix_idx","responses"
"true","fullscreen","0","2701","0.0-0.0","3PJUZCGDJ72BSAARTF0QBIWMPQL890","AU34T9OMHN4Z4","3PIOQ99R7Y8STPN46QFY0SD7JTFNU0","","","","","","","","","","","","",""
"","instructions","1","103126","0.0-1.0","3PJUZCGDJ72BSAARTF0QBIWMPQL890","AU34T9OMHN4Z4","3PIOQ99R7Y8STPN46QFY0SD7JTFNU0","[{""page_index"":0,""viewing_time"":21158.69999998808},{""page_index"":1,""viewing_time"":64295.60000002384},{""page_index"":2,""viewing_time"":2768.599999964237},{""page_index"":3,""viewing_time"":2599.5},{""page_index"":4,""viewing_time"":3128},{""page_index"":5,""viewing_time"":1783.800000011921},{""page_index"":6,""viewing_time"":2712},{""page_index"":7,""viewing_time"":1976.300000011921}]","100423.30000001192","","","","","","","","","","",""
"","image-keyboard-response","2","103984","0.0-2.0","3PJUZCGDJ72BSAARTF0QBIWMPQL890","AU34T9OMHN4Z4","3PIOQ99R7Y8STPN46QFY0SD7JTFNU0","","856.5","img/flower5.png","74","857.5","1","0","3","1","1,0.333,0.333,0.333,1,0.333,0.333,0.333,1","1,0.333,0.333,0.333,1,0.333,0.333,0.333,1","1",""
"","html-keyboard-response","3","104286","0.0-3.0","3PJUZCGDJ72BSAARTF0QBIWMPQL890","AU34T9OMHN4Z4","3PIOQ99R7Y8STPN46QFY0SD7JTFNU0","","null","<img src=""img/flower5.png"" style=""width:200px;border:14px solid red;"">","null","","","","","","","","",""
"","image-keyboard-response","4","105032","0.0-4.0","3PJUZCGDJ72BSAARTF0QBIWMPQL890","AU34T9OMHN4Z4","3PIOQ99R7Y8STPN46QFY0SD7JTFNU0","","745.7000000476837","img/flower4.png","75","746.5999999642372","2","1","2","1","1,0.333,0.333,0.333,1,0.333,0.333,0.333,1","1,0.333,0.333,0.333,1,0.333,0.333,0.333,1","1",""
"","html-keyboard-response","5","105335","0.0-5.0","3PJUZCGDJ72BSAARTF0QBIWMPQL890","AU34T9OMHN4Z4","3PIOQ99R7Y8STPN46QFY0SD7JTFNU0","","null","<img src=""img/flower4.png"" style=""width:200px; border:14px solid green;"">","null","","","","","","","","",""
"","image-keyboard-response","6","106128","0.0-6.0","3PJUZCGDJ72BSAARTF0QBIWMPQL890","AU34T9OMHN4Z4","3PIOQ99R7Y8STPN46QFY0SD7JTFNU0","","791.5999999642372","img/flower2.png","76","792.5","3","0","1","1","1,0.333,0.333,0.333,1,0.333,0.333,0.333,1","1,0.333,0.333,0.333,1,0.333,0.333,0.333,1","1",""
"","html-keyboard-response","7","106429","0.0-7.0","3PJUZCGDJ72BSAARTF0QBIWMPQL890","AU34T9OMHN4Z4","3PIOQ99R7Y8STPN46QFY0SD7JTFNU0","","null","<img src=""img/flower2.png"" style=""width:200px;border:14px solid red;"">","null","","","","","","","","",""
"","image-keyboard-response","8","107288","0.0-8.0","3PJUZCGDJ72BSAARTF0QBIWMPQL890","AU34T9OMHN4Z4","3PIOQ99R7Y8STPN46QFY0SD7JTFNU0","","858.1999999880791","img/flower5.png","74","859.1999999880791","1","0","3","1","1,0.333,0.333,0.333,1,0.333,0.333,0.333,1","1,0.333,0.333,0.333,1,0.333,0.333,0.333,1","1",""
"","html-keyboard-response","9","107591","0.0-9.0","3PJUZCGDJ72BSAARTF0QBIWMPQL890","AU34T9OMHN4Z4","3PIOQ99R7Y8STPN46QFY0SD7JTFNU0","","null","<img src=""img/flower5.png"" style=""width:200px;border:14px solid red;"">","null","","","","","","","","",""
"","image-keyboard-response","10","108512","0.0-10.0","3PJUZCGDJ72BSAARTF0QBIWMPQL890","AU34T9OMHN4Z4","3PIOQ99R7Y8STPN46QFY0SD7JTFNU0","","920.1000000238419","img/flower5.png","76","920.8999999761581","3","1","3","1","1,0.333,0.333,0.333,1,0.333,0.333,0.333,1","1,0.333,0.333,0.333,1,0.333,0.333,0.333,1","1",""
"","html-keyboard-response","11","108813","0.0-11.0","3PJUZCGDJ72BSAARTF0QBIWMPQL890","AU34T9OMHN4Z4","3PIOQ99R7Y8STPN46QFY0SD7JTFNU0","","null","<img src=""img/flower5.png"" style=""width:200px; border:14px solid green;"">","null","","","","","","","","",""
"","image-keyboard-response","12","109840","0.0-12.0","3PJUZCGDJ72BSAARTF0QBIWMPQL890","AU34T9OMHN4Z4","3PIOQ99R7Y8STPN46QFY0SD7JTFNU0","","1025.800000011921","img/flower2.png","75","1026.6000000238419","2","0","1","1","1,0.333,0.333,0.333,1,0.333,0.333,0.333,1","1,0.333,0.333,0.333,1,0.333,0.333,0.333,1","1",""
"","html-keyboard-response","13","110142","0.0-13.0","3PJUZCGDJ72BSAARTF0QBIWMPQL890","AU34T9OMHN4Z4","3PIOQ99R7Y8STPN46QFY0SD7JTFNU0","","null","<img src=""img/flower2.png"" style=""width:200px;border:14px solid red;"">","null","","","","","","","","",""
"","image-keyboard-response","14","110952","0.0-14.0","3PJUZCGDJ72BSAARTF0QBIWMPQL890","AU34T9OMHN4Z4","3PIOQ99R7Y8STPN46QFY0SD7JTFNU0","","808.7000000476837","img/flower4.png","74","809.6000000238419","1","1","2","1","1,0.333,0.333,0.333,1,0.333,0.333,0.333,1","1,0.333,0.333,0.333,1,0.333,0.333,0.333,1","1",""
"","html-keyboard-response","15","111254","0.0-15.0","3PJUZCGDJ72BSAARTF0QBIWMPQL890","AU34T9OMHN4Z4","3PIOQ99R7Y8STPN46QFY0SD7JTFNU0","","null","<img src=""img/flower4.png"" style=""width:200px; border:14px solid green;"">","null","","","","","","","","",""
"","image-keyboard-response","16","112224","0.0-16.0","3PJUZCGDJ72BSAARTF0QBIWMPQL890","AU34T9OMHN4Z4","3PIOQ99R7Y8STPN46QFY0SD7JTFNU0","","968.6000000238419","img/flower5.png","76","969.8000000119209","3","1","3","1","1,0.333,0.333,0.333,1,0.333,0.333,0.333,1","1,0.333,0.333,0.333,1,0.333,0.333,0.333,1","1",""
"","html-keyboard-response","17","112527","0.0-17.0","3PJUZCGDJ72BSAARTF0QBIWMPQL890","AU34T9OMHN4Z4","3PIOQ99R7Y8STPN46QFY0SD7JTFNU0","","null","<img src=""img/flower5.png"" style=""width:200px; border:14px solid green;"">","null","","","","","","","","",""
"","image-keyboard-response","18","113184","0.0-18.0","3PJUZCGDJ72BSAARTF0QBIWMPQL890","AU34T9OMHN4Z4","3PIOQ99R7Y8STPN46QFY0SD7JTFNU0","","656","img/flower2.png","75","656.5999999642372","2","0","1","1","1,0.333,0.333,0.333,1,0.333,0.333,0.333,1","1,0.333,0.333,0.333,1,0.333,0.333,0.333,1","1",""
"","html-keyboard-response","19","113486","0.0-19.0","3PJUZCGDJ72BSAARTF0QBIWMPQL890","AU34T9OMHN4Z4","3PIOQ99R7Y8STPN46QFY0SD7JTFNU0","","null","<img src=""img/flower2.png"" style=""width:200px;border:14px solid red;"">","null","","","","","","","","",""
"","image-keyboard-response","20","114208","0.0-20.0","3PJUZCGDJ72BSAARTF0QBIWMPQL890","AU34T9OMHN4Z4","3PIOQ99R7Y8STPN46QFY0SD7JTFNU0","","719.9000000357628","img/flower4.png","74","721.5","1","0","2","1","1,0.333,0.333,0.333,1,0.333,0.333,0.333,1","1,0.333,0.333,0.333,1,0.333,0.333,0.333,1","1",""
"","html-keyboard-response","21","114510","0.0-21.0","3PJUZCGDJ72BSAARTF0QBIWMPQL890","AU34T9OMHN4Z4","3PIOQ99R7Y8STPN46QFY0SD7JTFNU0","","null","<img src=""img/flower4.png"" style=""width:200px;border:14px solid red;"">","null","","","","","","","","",""
"","image-keyboard-response","22","115248","0.0-22.0","3PJUZCGDJ72BSAARTF0QBIWMPQL890","AU34T9OMHN4Z4","3PIOQ99R7Y8STPN46QFY0SD7JTFNU0","","737.4000000357628","img/flower2.png","75","738.1000000238419","2","0","1","1","1,0.333,0.333,0.333,1,0.333,0.333,0.333,1","1,0.333,0.333,0.333,1,0.333,0.333,0.333,1","1",""
"","html-keyboard-response","23","115550","0.0-23.0","3PJUZCGDJ72BSAARTF0QBIWMPQL890","AU34T9OMHN4Z4","3PIOQ99R7Y8STPN46QFY0SD7JTFNU0","","null","<img src=""img/flower2.png"" style=""width:200px;border:14px solid red;"">","null","","","","","","","","",""
"","image-keyboard-response","24","115959","0.0-24.0","3PJUZCGDJ72BSAARTF0QBIWMPQL890","AU34T9OMHN4Z4","3PIOQ99R7Y8STPN46QFY0SD7JTFNU0","","408.10000002384186","img/flower2.png","75","409","2","0","1","1","1,0.333,0.333,0.333,1,0.333,0.333,0.333,1","1,0.333,0.333,0.333,1,0.333,0.333,0.333,1","1",""
"","html-keyboard-response","25","116262","0.0-25.0","3PJUZCGDJ72BSAARTF0QBIWMPQL890","AU34T9OMHN4Z4","3PIOQ99R7Y8STPN46QFY0SD7JTFNU0","","null","<img src=""img/flower2.png"" style=""width:200px;border:14px solid red;"">","null","","","","","","","","",""
"","image-keyboard-response","26","116960","0.0-26.0","3PJUZCGDJ72BSAARTF0QBIWMPQL890","AU34T9OMHN4Z4","3PIOQ99R7Y8STPN46QFY0SD7JTFNU0","","696.8000000119209","img/flower4.png","74","698.0999999642372","1","0","2","1","1,0.333,0.333,0.333,1,0.333,0.333,0.333,1","1,0.333,0.333,0.333,1,0.333,0.333,0.333,1","1",""
"","html-keyboard-response","27","117263","0.0-27.0","3PJUZCGDJ72BSAARTF0QBIWMPQL890","AU34T9OMHN4Z4","3PIOQ99R7Y8STPN46QFY0SD7JTFNU0","","null","<img src=""img/flower4.png"" style=""width:200px;border:14px solid red;"">","null","","","","","","","","",""
"","image-keyboard-response","28","118104","0.0-28.0","3PJUZCGDJ72BSAARTF0QBIWMPQL890","AU34T9OMHN4Z4","3PIOQ99R7Y8STPN46QFY0SD7JTFNU0","","839.8000000119209","img/flower5.png","76","840.6999999880791","3","1","3","1","1,0.333,0.333,0.333,1,0.333,0.333,0.333,1","1,0.333,0.333,0.333,1,0.333,0.333,0.333,1","1",""
"","html-keyboard-response","29","118406","0.0-29.0","3PJUZCGDJ72BSAARTF0QBIWMPQL890","AU34T9OMHN4Z4","3PIOQ99R7Y8STPN46QFY0SD7JTFNU0","","null","<img src=""img/flower5.png"" style=""width:200px; border:14px solid green;"">","null","","","","","","","","",""
"","image-keyboard-response","30","119471","0.0-30.0","3PJUZCGDJ72BSAARTF0QBIWMPQL890","AU34T9OMHN4Z4","3PIOQ99R7Y8STPN46QFY0SD7JTFNU0","","1063.300000011921","img/flower4.png","74","1064.2999999523163","1","0","2","1","1,0.333,0.333,0.333,1,0.333,0.333,0.333,1","1,0.333,0.333,0.333,1,0.333,0.333,0.333,1","1",""
"","html-keyboard-response","31","119773","0.0-31.0","3PJUZCGDJ72BSAARTF0QBIWMPQL890","AU34T9OMHN4Z4","3PIOQ99R7Y8STPN46QFY0SD7JTFNU0","","null","<img src=""img/flower4.png"" style=""width:200px;border:14px solid red;"">","null","","","","","","","","",""
"","image-keyboard-response","32","120352","0.0-32.0","3PJUZCGDJ72BSAARTF0QBIWMPQL890","AU34T9OMHN4Z4","3PIOQ99R7Y8STPN46QFY0SD7JTFNU0","","578.5999999642372","img/flower2.png","74","579.3000000119209","1","1","1","1","1,0.333,0.333,0.333,1,0.333,0.333,0.333,1","1,0.333,0.333,0.333,1,0.333,0.333,0.333,1","1",""
"","html-keyboard-response","33","120653","0.0-33.0","3PJUZCGDJ72BSAARTF0QBIWMPQL890","AU34T9OMHN4Z4","3PIOQ99R7Y8STPN46QFY0SD7JTFNU0","","null","<img src=""img/flower2.png"" style=""width:200px; border:14px solid green;"">","null","","","","","","","","",""
"","image-keyboard-response","34","121719","0.0-34.0","3PJUZCGDJ72BSAARTF0QBIWMPQL890","AU34T9OMHN4Z4","3PIOQ99R7Y8STPN46QFY0SD7JTFNU0","","1064.6000000238419","img/flower4.png","75","1065.300000011921","2","1","2","1","1,0.333,0.333,0.333,1,0.333,0.333,0.333,1","1,0.333,0.333,0.333,1,0.333,0.333,0.333,1","1",""
"","html-keyboard-response","35","122020","0.0-35.0","3PJUZCGDJ72BSAARTF0QBIWMPQL890","AU34T9OMHN4Z4","3PIOQ99R7Y8STPN46QFY0SD7JTFNU0","","null","<img src=""img/flower4.png"" style=""width:200px; border:14px solid green;"">","null","","","","","","","","",""
"","image-keyboard-response","36","123520","0.0-36.0","3PJUZCGDJ72BSAARTF0QBIWMPQL890","AU34T9OMHN4Z4","3PIOQ99R7Y8STPN46QFY0SD7JTFNU0","","1498.5","img/flower2.png","74","1499.5999999642372","1","1","1","1","1,0.333,0.333,0.333,1,0.333,0.333,0.333,1","1,0.333,0.333,0.333,1,0.333,0.333,0.333,1","1",""
"","html-keyboard-response","37","123823","0.0-37.0","3PJUZCGDJ72BSAARTF0QBIWMPQL890","AU34T9OMHN4Z4","3PIOQ99R7Y8STPN46QFY0SD7JTFNU0","","null","<img src=""img/flower2.png"" style=""width:200px; border:14px solid green;"">","null","","","","","","","","",""
"","image-keyboard-response","38","124592","0.0-38.0","3PJUZCGDJ72BSAARTF0QBIWMPQL890","AU34T9OMHN4Z4","3PIOQ99R7Y8STPN46QFY0SD7JTFNU0","","767.6999999880791","img/flower5.png","76","768.5999999642372","3","1","3","1","1,0.333,0.333,0.333,1,0.333,0.333,0.333,1","1,0.333,0.333,0.333,1,0.333,0.333,0.333,1","1",""
"","html-keyboard-response","39","124894","0.0-39.0","3PJUZCGDJ72BSAARTF0QBIWMPQL890","AU34T9OMHN4Z4","3PIOQ99R7Y8STPN46QFY0SD7JTFNU0","","null","<img src=""img/flower5.png"" style=""width:200px; border:14px solid green;"">","null","","","","","","","","",""
"","image-keyboard-response","40","126047","0.0-40.0","3PJUZCGDJ72BSAARTF0QBIWMPQL890","AU34T9OMHN4Z4","3PIOQ99R7Y8STPN46QFY0SD7JTFNU0","","1152","img/flower4.png","75","1152.5","2","1","2","1","1,0.333,0.333,0.333,1,0.333,0.333,0.333,1","1,0.333,0.333,0.333,1,0.333,0.333,0.333,1","1",""
"","html-keyboard-response","41","126348","0.0-41.0","3PJUZCGDJ72BSAARTF0QBIWMPQL890","AU34T9OMHN4Z4","3PIOQ99R7Y8STPN46QFY0SD7JTFNU0","","null","<img src=""img/flower4.png"" style=""width:200px; border:14px solid green;"">","null","","","","","","","","",""
"","image-keyboard-response","42","127192","0.0-42.0","3PJUZCGDJ72BSAARTF0QBIWMPQL890","AU34T9OMHN4Z4","3PIOQ99R7Y8STPN46QFY0SD7JTFNU0","","842.5999999642372","img/flower5.png","76","843.6000000238419","3","1","3","1","1,0.333,0.333,0.333,1,0.333,0.333,0.333,1","1,0.333,0.333,0.333,1,0.333,0.333,0.333,1","1",""
"","html-keyboard-response","43","127495","0.0-43.0","3PJUZCGDJ72BSAARTF0QBIWMPQL890","AU34T9OMHN4Z4","3PIOQ99R7Y8STPN46QFY0SD7JTFNU0","","null","<img src=""img/flower5.png"" style=""width:200px; border:14px solid green;"">","null","","","","","","","","",""
"","image-keyboard-response","44","128207","0.0-44.0","3PJUZCGDJ72BSAARTF0QBIWMPQL890","AU34T9OMHN4Z4","3PIOQ99R7Y8STPN46QFY0SD7JTFNU0","","711.1999999880791","img/flower2.png","74","712.4000000357628","1","1","1","1","1,0.333,0.333,0.333,1,0.333,0.333,0.333,1","1,0.333,0.333,0.333,1,0.333,0.333,0.333,1","1",""
"","html-keyboard-response","45","128510","0.0-45.0","3PJUZCGDJ72BSAARTF0QBIWMPQL890","AU34T9OMHN4Z4","3PIOQ99R7Y8STPN46QFY0SD7JTFNU0","","null","<img src=""img/flower2.png"" style=""width:200px; border:14px solid green;"">","null","","","","","","","","",""
"","image-keyboard-response","46","128880","0.0-46.0","3PJUZCGDJ72BSAARTF0QBIWMPQL890","AU34T9OMHN4Z4","3PIOQ99R7Y8STPN46QFY0SD7JTFNU0","","368","img/flower2.png","74","368.9000000357628","1","1","1","1","1,0.333,0.333,0.333,1,0.333,0.333,0.333,1","1,0.333,0.333,0.333,1,0.333,0.333,0.333,1","1",""
"","html-keyboard-response","47","129182","0.0-47.0","3PJUZCGDJ72BSAARTF0QBIWMPQL890","AU34T9OMHN4Z4","3PIOQ99R7Y8STPN46QFY0SD7JTFNU0","","null","<img src=""img/flower2.png"" style=""width:200px; border:14px solid green;"">","null","","","","","","","","",""
"","image-keyboard-response","48","129496","0.0-48.0","3PJUZCGDJ72BSAARTF0QBIWMPQL890","AU34T9OMHN4Z4","3PIOQ99R7Y8STPN46QFY0SD7JTFNU0","","313.5","img/flower2.png","74","314.2000000476837","1","1","1","1","1,0.333,0.333,0.333,1,0.333,0.333,0.333,1","1,0.333,0.333,0.333,1,0.333,0.333,0.333,1","1",""
"","html-keyboard-response","49","129799","0.0-49.0","3PJUZCGDJ72BSAARTF0QBIWMPQL890","AU34T9OMHN4Z4","3PIOQ99R7Y8STPN46QFY0SD7JTFNU0","","null","<img src=""img/flower2.png"" style=""width:200px; border:14px solid green;"">","null","","","","","","","","",""
"","image-keyboard-response","50","130615","0.0-50.0","3PJUZCGDJ72BSAARTF0QBIWMPQL890","AU34T9OMHN4Z4","3PIOQ99R7Y8STPN46QFY0SD7JTFNU0","","815.3000000119209","img/flower5.png","76","816","3","1","3","1","1,0.333,0.333,0.333,1,0.333,0.333,0.333,1","1,0.333,0.333,0.333,1,0.333,0.333,0.333,1","1",""
"","html-keyboard-response","51","130918","0.0-51.0","3PJUZCGDJ72BSAARTF0QBIWMPQL890","AU34T9OMHN4Z4","3PIOQ99R7Y8STPN46QFY0SD7JTFNU0","","null","<img src=""img/flower5.png"" style=""width:200px; border:14px solid green;"">","null","","","","","","","","",""
"","image-keyboard-response","52","131616","0.0-52.0","3PJUZCGDJ72BSAARTF0QBIWMPQL890","AU34T9OMHN4Z4","3PIOQ99R7Y8STPN46QFY0SD7JTFNU0","","696.4000000357628","img/flower2.png","75","697.3000000119209","2","0","1","1","1,0.333,0.333,0.333,1,0.333,0.333,0.333,1","1,0.333,0.333,0.333,1,0.333,0.333,0.333,1","1",""
"","html-keyboard-response","53","131919","0.0-53.0","3PJUZCGDJ72BSAARTF0QBIWMPQL890","AU34T9OMHN4Z4","3PIOQ99R7Y8STPN46QFY0SD7JTFNU0","","null","<img src=""img/flower2.png"" style=""width:200px;border:14px solid red;"">","null","","","","","","","","",""
"","image-keyboard-response","54","133383","0.0-54.0","3PJUZCGDJ72BSAARTF0QBIWMPQL890","AU34T9OMHN4Z4","3PIOQ99R7Y8STPN46QFY0SD7JTFNU0","","1463.699999988079","img/flower4.png","75","1464.4000000357628","2","1","2","1","1,0.333,0.333,0.333,1,0.333,0.333,0.333,1","1,0.333,0.333,0.333,1,0.333,0.333,0.333,1","1",""
"","html-keyboard-response","55","133685","0.0-55.0","3PJUZCGDJ72BSAARTF0QBIWMPQL890","AU34T9OMHN4Z4","3PIOQ99R7Y8STPN46QFY0SD7JTFNU0","","null","<img src=""img/flower4.png"" style=""width:200px; border:14px solid green;"">","null","","","","","","","","",""
"","image-keyboard-response","56","134447","0.0-56.0","3PJUZCGDJ72BSAARTF0QBIWMPQL890","AU34T9OMHN4Z4","3PIOQ99R7Y8STPN46QFY0SD7JTFNU0","","760.8000000119209","img/flower5.png","76","761.8999999761581","3","1","3","1","1,0.333,0.333,0.333,1,0.333,0.333,0.333,1","1,0.333,0.333,0.333,1,0.333,0.333,0.333,1","1",""
"","html-keyboard-response","57","134749","0.0-57.0","3PJUZCGDJ72BSAARTF0QBIWMPQL890","AU34T9OMHN4Z4","3PIOQ99R7Y8STPN46QFY0SD7JTFNU0","","null","<img src=""img/flower5.png"" style=""width:200px; border:14px solid green;"">","null","","","","","","","","",""
"","image-keyboard-response","58","135134","0.0-58.0","3PJUZCGDJ72BSAARTF0QBIWMPQL890","AU34T9OMHN4Z4","3PIOQ99R7Y8STPN46QFY0SD7JTFNU0","","384.5","img/flower5.png","76","384.80000001192093","3","1","3","1","1,0.333,0.333,0.333,1,0.333,0.333,0.333,1","1,0.333,0.333,0.333,1,0.333,0.333,0.333,1","1",""
"","html-keyboard-response","59","135436","0.0-59.0","3PJUZCGDJ72BSAARTF0QBIWMPQL890","AU34T9OMHN4Z4","3PIOQ99R7Y8STPN46QFY0SD7JTFNU0","","null","<img src=""img/flower5.png"" style=""width:200px; border:14px solid green;"">","null","","","","","","","","",""
"","image-keyboard-response","60","135774","0.0-60.0","3PJUZCGDJ72BSAARTF0QBIWMPQL890","AU34T9OMHN4Z4","3PIOQ99R7Y8STPN46QFY0SD7JTFNU0","","336.69999998807907","img/flower5.png","76","337.60000002384186","3","1","3","1","1,0.333,0.333,0.333,1,0.333,0.333,0.333,1","1,0.333,0.333,0.333,1,0.333,0.333,0.333,1","1",""
"","html-keyboard-response","61","136076","0.0-61.0","3PJUZCGDJ72BSAARTF0QBIWMPQL890","AU34T9OMHN4Z4","3PIOQ99R7Y8STPN46QFY0SD7JTFNU0","","null","<img src=""img/flower5.png"" style=""width:200px; border:14px solid green;"">","null","","","","","","","","",""
"","image-keyboard-response","62","136919","0.0-62.0","3PJUZCGDJ72BSAARTF0QBIWMPQL890","AU34T9OMHN4Z4","3PIOQ99R7Y8STPN46QFY0SD7JTFNU0","","841.5","img/flower2.png","74","842.6000000238419","1","1","1","1","1,0.333,0.333,0.333,1,0.333,0.333,0.333,1","1,0.333,0.333,0.333,1,0.333,0.333,0.333,1","1",""
"","html-keyboard-response","63","137221","0.0-63.0","3PJUZCGDJ72BSAARTF0QBIWMPQL890","AU34T9OMHN4Z4","3PIOQ99R7Y8STPN46QFY0SD7JTFNU0","","null","<img src=""img/flower2.png"" style=""width:200px; border:14px solid green;"">","null","","","","","","","","",""
"","image-keyboard-response","64","138054","0.0-64.0","3PJUZCGDJ72BSAARTF0QBIWMPQL890","AU34T9OMHN4Z4","3PIOQ99R7Y8STPN46QFY0SD7JTFNU0","","832.1999999880791","img/flower5.png","76","832.8000000119209","3","1","3","1","1,0.333,0.333,0.333,1,0.333,0.333,0.333,1","1,0.333,0.333,0.333,1,0.333,0.333,0.333,1","1",""
"","html-keyboard-response","65","138355","0.0-65.0","3PJUZCGDJ72BSAARTF0QBIWMPQL890","AU34T9OMHN4Z4","3PIOQ99R7Y8STPN46QFY0SD7JTFNU0","","null","<img src=""img/flower5.png"" style=""width:200px; border:14px solid green;"">","null","","","","","","","","",""
"","image-keyboard-response","66","138758","0.0-66.0","3PJUZCGDJ72BSAARTF0QBIWMPQL890","AU34T9OMHN4Z4","3PIOQ99R7Y8STPN46QFY0SD7JTFNU0","","402.19999998807907","img/flower5.png","76","402.89999997615814","3","1","3","1","1,0.333,0.333,0.333,1,0.333,0.333,0.333,1","1,0.333,0.333,0.333,1,0.333,0.333,0.333,1","1",""
"","html-keyboard-response","67","139059","0.0-67.0","3PJUZCGDJ72BSAARTF0QBIWMPQL890","AU34T9OMHN4Z4","3PIOQ99R7Y8STPN46QFY0SD7JTFNU0","","null","<img src=""img/flower5.png"" style=""width:200px; border:14px solid green;"">","null","","","","","","","","",""
"","image-keyboard-response","68","139623","0.0-68.0","3PJUZCGDJ72BSAARTF0QBIWMPQL890","AU34T9OMHN4Z4","3PIOQ99R7Y8STPN46QFY0SD7JTFNU0","","562.8999999761581","img/flower5.png","76","563.8999999761581","3","1","3","1","1,0.333,0.333,0.333,1,0.333,0.333,0.333,1","1,0.333,0.333,0.333,1,0.333,0.333,0.333,1","1",""
"","html-keyboard-response","69","139926","0.0-69.0","3PJUZCGDJ72BSAARTF0QBIWMPQL890","AU34T9OMHN4Z4","3PIOQ99R7Y8STPN46QFY0SD7JTFNU0","","null","<img src=""img/flower5.png"" style=""width:200px; border:14px solid green;"">","null","","","","","","","","",""
"","image-keyboard-response","70","140903","0.0-70.0","3PJUZCGDJ72BSAARTF0QBIWMPQL890","AU34T9OMHN4Z4","3PIOQ99R7Y8STPN46QFY0SD7JTFNU0","","975.8000000119209","img/flower4.png","75","976.1999999880791","2","1","2","1","1,0.333,0.333,0.333,1,0.333,0.333,0.333,1","1,0.333,0.333,0.333,1,0.333,0.333,0.333,1","1",""
"","html-keyboard-response","71","141205","0.0-71.0","3PJUZCGDJ72BSAARTF0QBIWMPQL890","AU34T9OMHN4Z4","3PIOQ99R7Y8STPN46QFY0SD7JTFNU0","","null","<img src=""img/flower4.png"" style=""width:200px; border:14px solid green;"">","null","","","","","","","","",""
"","image-keyboard-response","72","142151","0.0-72.0","3PJUZCGDJ72BSAARTF0QBIWMPQL890","AU34T9OMHN4Z4","3PIOQ99R7Y8STPN46QFY0SD7JTFNU0","","944.9000000357628","img/flower2.png","74","946","1","1","1","1","1,0.333,0.333,0.333,1,0.333,0.333,0.333,1","1,0.333,0.333,0.333,1,0.333,0.333,0.333,1","1",""
"","html-keyboard-response","73","142453","0.0-73.0","3PJUZCGDJ72BSAARTF0QBIWMPQL890","AU34T9OMHN4Z4","3PIOQ99R7Y8STPN46QFY0SD7JTFNU0","","null","<img src=""img/flower2.png"" style=""width:200px; border:14px solid green;"">","null","","","","","","","","",""
"","image-keyboard-response","74","143182","0.0-74.0","3PJUZCGDJ72BSAARTF0QBIWMPQL890","AU34T9OMHN4Z4","3PIOQ99R7Y8STPN46QFY0SD7JTFNU0","","727.1000000238419","img/flower4.png","75","728.4000000357628","2","1","2","1","1,0.333,0.333,0.333,1,0.333,0.333,0.333,1","1,0.333,0.333,0.333,1,0.333,0.333,0.333,1","1",""
"","html-keyboard-response","75","143485","0.0-75.0","3PJUZCGDJ72BSAARTF0QBIWMPQL890","AU34T9OMHN4Z4","3PIOQ99R7Y8STPN46QFY0SD7JTFNU0","","null","<img src=""img/flower4.png"" style=""width:200px; border:14px solid green;"">","null","","","","","","","","",""
"","image-keyboard-response","76","144302","0.0-76.0","3PJUZCGDJ72BSAARTF0QBIWMPQL890","AU34T9OMHN4Z4","3PIOQ99R7Y8STPN46QFY0SD7JTFNU0","","816.5","img/flower2.png","74","817.1999999880791","1","1","1","1","1,0.333,0.333,0.333,1,0.333,0.333,0.333,1","1,0.333,0.333,0.333,1,0.333,0.333,0.333,1","1",""
"","html-keyboard-response","77","144604","0.0-77.0","3PJUZCGDJ72BSAARTF0QBIWMPQL890","AU34T9OMHN4Z4","3PIOQ99R7Y8STPN46QFY0SD7JTFNU0","","null","<img src=""img/flower2.png"" style=""width:200px; border:14px solid green;"">","null","","","","","","","","",""
"","image-keyboard-response","78","145494","0.0-78.0","3PJUZCGDJ72BSAARTF0QBIWMPQL890","AU34T9OMHN4Z4","3PIOQ99R7Y8STPN46QFY0SD7JTFNU0","","889.1999999880791","img/flower5.png","75","890","2","0","3","1","1,0.333,0.333,0.333,1,0.333,0.333,0.333,1","1,0.333,0.333,0.333,1,0.333,0.333,0.333,1","1",""
"","html-keyboard-response","79","145795","0.0-79.0","3PJUZCGDJ72BSAARTF0QBIWMPQL890","AU34T9OMHN4Z4","3PIOQ99R7Y8STPN46QFY0SD7JTFNU0","","null","<img src=""img/flower5.png"" style=""width:200px;border:14px solid red;"">","null","","","","","","","","",""
"","image-keyboard-response","80","146527","0.0-80.0","3PJUZCGDJ72BSAARTF0QBIWMPQL890","AU34T9OMHN4Z4","3PIOQ99R7Y8STPN46QFY0SD7JTFNU0","","730.5999999642372","img/flower4.png","75","731.5","2","1","2","1","1,0.333,0.333,0.333,1,0.333,0.333,0.333,1","1,0.333,0.333,0.333,1,0.333,0.333,0.333,1","1",""
"","html-keyboard-response","81","146830","0.0-81.0","3PJUZCGDJ72BSAARTF0QBIWMPQL890","AU34T9OMHN4Z4","3PIOQ99R7Y8STPN46QFY0SD7JTFNU0","","null","<img src=""img/flower4.png"" style=""width:200px; border:14px solid green;"">","null","","","","","","","","",""
"","image-keyboard-response","82","147334","0.0-82.0","3PJUZCGDJ72BSAARTF0QBIWMPQL890","AU34T9OMHN4Z4","3PIOQ99R7Y8STPN46QFY0SD7JTFNU0","","503.5","img/flower2.png","76","503.89999997615814","3","0","1","1","1,0.333,0.333,0.333,1,0.333,0.333,0.333,1","1,0.333,0.333,0.333,1,0.333,0.333,0.333,1","1",""
"","html-keyboard-response","83","147636","0.0-83.0","3PJUZCGDJ72BSAARTF0QBIWMPQL890","AU34T9OMHN4Z4","3PIOQ99R7Y8STPN46QFY0SD7JTFNU0","","null","<img src=""img/flower2.png"" style=""width:200px;border:14px solid red;"">","null","","","","","","","","",""
"","image-keyboard-response","84","148655","0.0-84.0","3PJUZCGDJ72BSAARTF0QBIWMPQL890","AU34T9OMHN4Z4","3PIOQ99R7Y8STPN46QFY0SD7JTFNU0","","1016.8999999761581","img/flower5.png","76","1017.3000000119209","3","1","3","1","1,0.333,0.333,0.333,1,0.333,0.333,0.333,1","1,0.333,0.333,0.333,1,0.333,0.333,0.333,1","1",""
"","html-keyboard-response","85","148957","0.0-85.0","3PJUZCGDJ72BSAARTF0QBIWMPQL890","AU34T9OMHN4Z4","3PIOQ99R7Y8STPN46QFY0SD7JTFNU0","","null","<img src=""img/flower5.png"" style=""width:200px; border:14px solid green;"">","null","","","","","","","","",""
"","image-keyboard-response","86","149384","0.0-86.0","3PJUZCGDJ72BSAARTF0QBIWMPQL890","AU34T9OMHN4Z4","3PIOQ99R7Y8STPN46QFY0SD7JTFNU0","","425.60000002384186","img/flower2.png","74","426.5","1","1","1","1","1,0.333,0.333,0.333,1,0.333,0.333,0.333,1","1,0.333,0.333,0.333,1,0.333,0.333,0.333,1","1",""
"","html-keyboard-response","87","149686","0.0-87.0","3PJUZCGDJ72BSAARTF0QBIWMPQL890","AU34T9OMHN4Z4","3PIOQ99R7Y8STPN46QFY0SD7JTFNU0","","null","<img src=""img/flower2.png"" style=""width:200px; border:14px solid green;"">","null","","","","","","","","",""
"","image-keyboard-response","88","150359","0.0-88.0","3PJUZCGDJ72BSAARTF0QBIWMPQL890","AU34T9OMHN4Z4","3PIOQ99R7Y8STPN46QFY0SD7JTFNU0","","672.8000000119209","img/flower4.png","75","673.5","2","1","2","1","1,0.333,0.333,0.333,1,0.333,0.333,0.333,1","1,0.333,0.333,0.333,1,0.333,0.333,0.333,1","1",""
"","html-keyboard-response","89","150662","0.0-89.0","3PJUZCGDJ72BSAARTF0QBIWMPQL890","AU34T9OMHN4Z4","3PIOQ99R7Y8STPN46QFY0SD7JTFNU0","","null","<img src=""img/flower4.png"" style=""width:200px; border:14px solid green;"">","null","","","","","","","","",""
"","image-keyboard-response","90","151575","0.0-90.0","3PJUZCGDJ72BSAARTF0QBIWMPQL890","AU34T9OMHN4Z4","3PIOQ99R7Y8STPN46QFY0SD7JTFNU0","","912.3999999761581","img/flower5.png","76","912.9000000357628","3","1","3","1","1,0.333,0.333,0.333,1,0.333,0.333,0.333,1","1,0.333,0.333,0.333,1,0.333,0.333,0.333,1","1",""
"","html-keyboard-response","91","151876","0.0-91.0","3PJUZCGDJ72BSAARTF0QBIWMPQL890","AU34T9OMHN4Z4","3PIOQ99R7Y8STPN46QFY0SD7JTFNU0","","null","<img src=""img/flower5.png"" style=""width:200px; border:14px solid green;"">","null","","","","","","","","",""
"","image-keyboard-response","92","152655","0.0-92.0","3PJUZCGDJ72BSAARTF0QBIWMPQL890","AU34T9OMHN4Z4","3PIOQ99R7Y8STPN46QFY0SD7JTFNU0","","778","img/flower2.png","74","778.6999999880791","1","1","1","1","1,0.333,0.333,0.333,1,0.333,0.333,0.333,1","1,0.333,0.333,0.333,1,0.333,0.333,0.333,1","1",""
"","html-keyboard-response","93","152958","0.0-93.0","3PJUZCGDJ72BSAARTF0QBIWMPQL890","AU34T9OMHN4Z4","3PIOQ99R7Y8STPN46QFY0SD7JTFNU0","","null","<img src=""img/flower2.png"" style=""width:200px; border:14px solid green;"">","null","","","","","","","","",""
"","image-keyboard-response","94","153679","0.0-94.0","3PJUZCGDJ72BSAARTF0QBIWMPQL890","AU34T9OMHN4Z4","3PIOQ99R7Y8STPN46QFY0SD7JTFNU0","","721.3000000119209","img/flower4.png","75","721.7999999523163","2","1","2","1","1,0.333,0.333,0.333,1,0.333,0.333,0.333,1","1,0.333,0.333,0.333,1,0.333,0.333,0.333,1","1",""
"","html-keyboard-response","95","153982","0.0-95.0","3PJUZCGDJ72BSAARTF0QBIWMPQL890","AU34T9OMHN4Z4","3PIOQ99R7Y8STPN46QFY0SD7JTFNU0","","null","<img src=""img/flower4.png"" style=""width:200px; border:14px solid green;"">","null","","","","","","","","",""
"","image-keyboard-response","96","154759","0.0-96.0","3PJUZCGDJ72BSAARTF0QBIWMPQL890","AU34T9OMHN4Z4","3PIOQ99R7Y8STPN46QFY0SD7JTFNU0","","776.1999999880791","img/flower5.png","76","777.5","3","1","3","1","1,0.333,0.333,0.333,1,0.333,0.333,0.333,1","1,0.333,0.333,0.333,1,0.333,0.333,0.333,1","1",""
"","html-keyboard-response","97","155062","0.0-97.0","3PJUZCGDJ72BSAARTF0QBIWMPQL890","AU34T9OMHN4Z4","3PIOQ99R7Y8STPN46QFY0SD7JTFNU0","","null","<img src=""img/flower5.png"" style=""width:200px; border:14px solid green;"">","null","","","","","","","","",""
"","image-keyboard-response","98","156063","0.0-98.0","3PJUZCGDJ72BSAARTF0QBIWMPQL890","AU34T9OMHN4Z4","3PIOQ99R7Y8STPN46QFY0SD7JTFNU0","","1000.2999999523163","img/flower4.png","75","1001.0999999642372","2","1","2","1","1,0.333,0.333,0.333,1,0.333,0.333,0.333,1","1,0.333,0.333,0.333,1,0.333,0.333,0.333,1","1",""
"","html-keyboard-response","99","156365","0.0-99.0","3PJUZCGDJ72BSAARTF0QBIWMPQL890","AU34T9OMHN4Z4","3PIOQ99R7Y8STPN46QFY0SD7JTFNU0","","null","<img src=""img/flower4.png"" style=""width:200px; border:14px solid green;"">","null","","","","","","","","",""
"","image-keyboard-response","100","157295","0.0-100.0","3PJUZCGDJ72BSAARTF0QBIWMPQL890","AU34T9OMHN4Z4","3PIOQ99R7Y8STPN46QFY0SD7JTFNU0","","928.6999999880791","img/flower2.png","74","929.7000000476837","1","1","1","1","1,0.333,0.333,0.333,1,0.333,0.333,0.333,1","1,0.333,0.333,0.333,1,0.333,0.333,0.333,1","1",""
"","html-keyboard-response","101","157598","0.0-101.0","3PJUZCGDJ72BSAARTF0QBIWMPQL890","AU34T9OMHN4Z4","3PIOQ99R7Y8STPN46QFY0SD7JTFNU0","","null","<img src=""img/flower2.png"" style=""width:200px; border:14px solid green;"">","null","","","","","","","","",""
"","image-keyboard-response","102","158182","0.0-102.0","3PJUZCGDJ72BSAARTF0QBIWMPQL890","AU34T9OMHN4Z4","3PIOQ99R7Y8STPN46QFY0SD7JTFNU0","","583.7999999523163","img/flower2.png","74","584.5","1","1","1","1","1,0.333,0.333,0.333,1,0.333,0.333,0.333,1","1,0.333,0.333,0.333,1,0.333,0.333,0.333,1","1",""
"","html-keyboard-response","103","158484","0.0-103.0","3PJUZCGDJ72BSAARTF0QBIWMPQL890","AU34T9OMHN4Z4","3PIOQ99R7Y8STPN46QFY0SD7JTFNU0","","null","<img src=""img/flower2.png"" style=""width:200px; border:14px solid green;"">","null","","","","","","","","",""
"","image-keyboard-response","104","159158","0.0-104.0","3PJUZCGDJ72BSAARTF0QBIWMPQL890","AU34T9OMHN4Z4","3PIOQ99R7Y8STPN46QFY0SD7JTFNU0","","673.6000000238419","img/flower5.png","76","674.1000000238419","3","1","3","1","1,0.333,0.333,0.333,1,0.333,0.333,0.333,1","1,0.333,0.333,0.333,1,0.333,0.333,0.333,1","1",""
"","html-keyboard-response","105","159461","0.0-105.0","3PJUZCGDJ72BSAARTF0QBIWMPQL890","AU34T9OMHN4Z4","3PIOQ99R7Y8STPN46QFY0SD7JTFNU0","","null","<img src=""img/flower5.png"" style=""width:200px; border:14px solid green;"">","null","","","","","","","","",""
"","image-keyboard-response","106","160190","0.0-106.0","3PJUZCGDJ72BSAARTF0QBIWMPQL890","AU34T9OMHN4Z4","3PIOQ99R7Y8STPN46QFY0SD7JTFNU0","","729.0999999642372","img/flower4.png","75","729.6999999880791","2","1","2","1","1,0.333,0.333,0.333,1,0.333,0.333,0.333,1","1,0.333,0.333,0.333,1,0.333,0.333,0.333,1","1",""
"","html-keyboard-response","107","160493","0.0-107.0","3PJUZCGDJ72BSAARTF0QBIWMPQL890","AU34T9OMHN4Z4","3PIOQ99R7Y8STPN46QFY0SD7JTFNU0","","null","<img src=""img/flower4.png"" style=""width:200px; border:14px solid green;"">","null","","","","","","","","",""
"","image-keyboard-response","108","161248","0.0-108.0","3PJUZCGDJ72BSAARTF0QBIWMPQL890","AU34T9OMHN4Z4","3PIOQ99R7Y8STPN46QFY0SD7JTFNU0","","753.6999999880791","img/flower2.png","74","754.5","1","1","1","1","1,0.333,0.333,0.333,1,0.333,0.333,0.333,1","1,0.333,0.333,0.333,1,0.333,0.333,0.333,1","1",""
"","html-keyboard-response","109","161548","0.0-109.0","3PJUZCGDJ72BSAARTF0QBIWMPQL890","AU34T9OMHN4Z4","3PIOQ99R7Y8STPN46QFY0SD7JTFNU0","","null","<img src=""img/flower2.png"" style=""width:200px; border:14px solid green;"">","null","","","","","","","","",""
"","image-keyboard-response","110","161942","0.0-110.0","3PJUZCGDJ72BSAARTF0QBIWMPQL890","AU34T9OMHN4Z4","3PIOQ99R7Y8STPN46QFY0SD7JTFNU0","","392.5","img/flower2.png","74","393.2999999523163","1","1","1","1","1,0.333,0.333,0.333,1,0.333,0.333,0.333,1","1,0.333,0.333,0.333,1,0.333,0.333,0.333,1","1",""
"","html-keyboard-response","111","162245","0.0-111.0","3PJUZCGDJ72BSAARTF0QBIWMPQL890","AU34T9OMHN4Z4","3PIOQ99R7Y8STPN46QFY0SD7JTFNU0","","null","<img src=""img/flower2.png"" style=""width:200px; border:14px solid green;"">","null","","","","","","","","",""
"","image-keyboard-response","112","162575","0.0-112.0","3PJUZCGDJ72BSAARTF0QBIWMPQL890","AU34T9OMHN4Z4","3PIOQ99R7Y8STPN46QFY0SD7JTFNU0","","328.80000001192093","img/flower2.png","74","329.69999998807907","1","1","1","1","1,0.333,0.333,0.333,1,0.333,0.333,0.333,1","1,0.333,0.333,0.333,1,0.333,0.333,0.333,1","1",""
"","html-keyboard-response","113","162877","0.0-113.0","3PJUZCGDJ72BSAARTF0QBIWMPQL890","AU34T9OMHN4Z4","3PIOQ99R7Y8STPN46QFY0SD7JTFNU0","","null","<img src=""img/flower2.png"" style=""width:200px; border:14px solid green;"">","null","","","","","","","","",""
"","image-keyboard-response","114","163614","0.0-114.0","3PJUZCGDJ72BSAARTF0QBIWMPQL890","AU34T9OMHN4Z4","3PIOQ99R7Y8STPN46QFY0SD7JTFNU0","","736.8999999761581","img/flower4.png","75","737.5999999642372","2","1","2","1","1,0.333,0.333,0.333,1,0.333,0.333,0.333,1","1,0.333,0.333,0.333,1,0.333,0.333,0.333,1","1",""
"","html-keyboard-response","115","163916","0.0-115.0","3PJUZCGDJ72BSAARTF0QBIWMPQL890","AU34T9OMHN4Z4","3PIOQ99R7Y8STPN46QFY0SD7JTFNU0","","null","<img src=""img/flower4.png"" style=""width:200px; border:14px solid green;"">","null","","","","","","","","",""
"","image-keyboard-response","116","164887","0.0-116.0","3PJUZCGDJ72BSAARTF0QBIWMPQL890","AU34T9OMHN4Z4","3PIOQ99R7Y8STPN46QFY0SD7JTFNU0","","969.9000000357628","img/flower2.png","74","970.3999999761581","1","1","1","1","1,0.333,0.333,0.333,1,0.333,0.333,0.333,1","1,0.333,0.333,0.333,1,0.333,0.333,0.333,1","1",""
"","html-keyboard-response","117","165189","0.0-117.0","3PJUZCGDJ72BSAARTF0QBIWMPQL890","AU34T9OMHN4Z4","3PIOQ99R7Y8STPN46QFY0SD7JTFNU0","","null","<img src=""img/flower2.png"" style=""width:200px; border:14px solid green;"">","null","","","","","","","","",""
"","image-keyboard-response","118","165806","0.0-118.0","3PJUZCGDJ72BSAARTF0QBIWMPQL890","AU34T9OMHN4Z4","3PIOQ99R7Y8STPN46QFY0SD7JTFNU0","","615.8000000119209","img/flower5.png","76","616.8000000119209","3","1","3","1","1,0.333,0.333,0.333,1,0.333,0.333,0.333,1","1,0.333,0.333,0.333,1,0.333,0.333,0.333,1","1",""
"","html-keyboard-response","119","166107","0.0-119.0","3PJUZCGDJ72BSAARTF0QBIWMPQL890","AU34T9OMHN4Z4","3PIOQ99R7Y8STPN46QFY0SD7JTFNU0","","null","<img src=""img/flower5.png"" style=""width:200px; border:14px solid green;"">","null","","","","","","","","",""
"","image-keyboard-response","120","166631","0.0-120.0","3PJUZCGDJ72BSAARTF0QBIWMPQL890","AU34T9OMHN4Z4","3PIOQ99R7Y8STPN46QFY0SD7JTFNU0","","522","img/flower5.png","76","523.3999999761581","3","1","3","1","1,0.333,0.333,0.333,1,0.333,0.333,0.333,1","1,0.333,0.333,0.333,1,0.333,0.333,0.333,1","1",""
"","html-keyboard-response","121","166934","0.0-121.0","3PJUZCGDJ72BSAARTF0QBIWMPQL890","AU34T9OMHN4Z4","3PIOQ99R7Y8STPN46QFY0SD7JTFNU0","","null","<img src=""img/flower5.png"" style=""width:200px; border:14px solid green;"">","null","","","","","","","","",""
"","image-keyboard-response","122","167647","0.0-122.0","3PJUZCGDJ72BSAARTF0QBIWMPQL890","AU34T9OMHN4Z4","3PIOQ99R7Y8STPN46QFY0SD7JTFNU0","","712.7000000476837","img/flower4.png","75","713.6999999880791","2","1","2","1","1,0.333,0.333,0.333,1,0.333,0.333,0.333,1","1,0.333,0.333,0.333,1,0.333,0.333,0.333,1","1",""
"","html-keyboard-response","123","167950","0.0-123.0","3PJUZCGDJ72BSAARTF0QBIWMPQL890","AU34T9OMHN4Z4","3PIOQ99R7Y8STPN46QFY0SD7JTFNU0","","null","<img src=""img/flower4.png"" style=""width:200px; border:14px solid green;"">","null","","","","","","","","",""
"","image-keyboard-response","124","168327","0.0-124.0","3PJUZCGDJ72BSAARTF0QBIWMPQL890","AU34T9OMHN4Z4","3PIOQ99R7Y8STPN46QFY0SD7JTFNU0","","376.10000002384186","img/flower4.png","75","377","2","1","2","1","1,0.333,0.333,0.333,1,0.333,0.333,0.333,1","1,0.333,0.333,0.333,1,0.333,0.333,0.333,1","1",""
"","html-keyboard-response","125","168628","0.0-125.0","3PJUZCGDJ72BSAARTF0QBIWMPQL890","AU34T9OMHN4Z4","3PIOQ99R7Y8STPN46QFY0SD7JTFNU0","","null","<img src=""img/flower4.png"" style=""width:200px; border:14px solid green;"">","null","","","","","","","","",""
"","image-keyboard-response","126","169159","0.0-126.0","3PJUZCGDJ72BSAARTF0QBIWMPQL890","AU34T9OMHN4Z4","3PIOQ99R7Y8STPN46QFY0SD7JTFNU0","","529.6000000238419","img/flower4.png","75","530.5999999642372","2","1","2","1","1,0.333,0.333,0.333,1,0.333,0.333,0.333,1","1,0.333,0.333,0.333,1,0.333,0.333,0.333,1","1",""
"","html-keyboard-response","127","169461","0.0-127.0","3PJUZCGDJ72BSAARTF0QBIWMPQL890","AU34T9OMHN4Z4","3PIOQ99R7Y8STPN46QFY0SD7JTFNU0","","null","<img src=""img/flower4.png"" style=""width:200px; border:14px solid green;"">","null","","","","","","","","",""
"","image-keyboard-response","128","170280","0.0-128.0","3PJUZCGDJ72BSAARTF0QBIWMPQL890","AU34T9OMHN4Z4","3PIOQ99R7Y8STPN46QFY0SD7JTFNU0","","818.1000000238419","img/flower2.png","74","818.8000000119209","1","1","1","1","1,0.333,0.333,0.333,1,0.333,0.333,0.333,1","1,0.333,0.333,0.333,1,0.333,0.333,0.333,1","1",""
"","html-keyboard-response","129","170581","0.0-129.0","3PJUZCGDJ72BSAARTF0QBIWMPQL890","AU34T9OMHN4Z4","3PIOQ99R7Y8STPN46QFY0SD7JTFNU0","","null","<img src=""img/flower2.png"" style=""width:200px; border:14px solid green;"">","null","","","","","","","","",""
"","image-keyboard-response","130","171310","0.0-130.0","3PJUZCGDJ72BSAARTF0QBIWMPQL890","AU34T9OMHN4Z4","3PIOQ99R7Y8STPN46QFY0SD7JTFNU0","","727.6999999880791","img/flower4.png","75","728.6000000238419","2","1","2","1","1,0.333,0.333,0.333,1,0.333,0.333,0.333,1","1,0.333,0.333,0.333,1,0.333,0.333,0.333,1","1",""
"","html-keyboard-response","131","171612","0.0-131.0","3PJUZCGDJ72BSAARTF0QBIWMPQL890","AU34T9OMHN4Z4","3PIOQ99R7Y8STPN46QFY0SD7JTFNU0","","null","<img src=""img/flower4.png"" style=""width:200px; border:14px solid green;"">","null","","","","","","","","",""
"","image-keyboard-response","132","172302","0.0-132.0","3PJUZCGDJ72BSAARTF0QBIWMPQL890","AU34T9OMHN4Z4","3PIOQ99R7Y8STPN46QFY0SD7JTFNU0","","689.3000000119209","img/flower4.png","75","690.1999999880791","2","1","2","1","1,0.333,0.333,0.333,1,0.333,0.333,0.333,1","1,0.333,0.333,0.333,1,0.333,0.333,0.333,1","1",""
"","html-keyboard-response","133","172604","0.0-133.0","3PJUZCGDJ72BSAARTF0QBIWMPQL890","AU34T9OMHN4Z4","3PIOQ99R7Y8STPN46QFY0SD7JTFNU0","","null","<img src=""img/flower4.png"" style=""width:200px; border:14px solid green;"">","null","","","","","","","","",""
"","image-keyboard-response","134","173494","0.0-134.0","3PJUZCGDJ72BSAARTF0QBIWMPQL890","AU34T9OMHN4Z4","3PIOQ99R7Y8STPN46QFY0SD7JTFNU0","","888.9000000357628","img/flower5.png","76","889.6999999880791","3","1","3","1","1,0.333,0.333,0.333,1,0.333,0.333,0.333,1","1,0.333,0.333,0.333,1,0.333,0.333,0.333,1","1",""
"","html-keyboard-response","135","173796","0.0-135.0","3PJUZCGDJ72BSAARTF0QBIWMPQL890","AU34T9OMHN4Z4","3PIOQ99R7Y8STPN46QFY0SD7JTFNU0","","null","<img src=""img/flower5.png"" style=""width:200px; border:14px solid green;"">","null","","","","","","","","",""
"","image-keyboard-response","136","174495","0.0-136.0","3PJUZCGDJ72BSAARTF0QBIWMPQL890","AU34T9OMHN4Z4","3PIOQ99R7Y8STPN46QFY0SD7JTFNU0","","698.6000000238419","img/flower2.png","74","699.3000000119209","1","1","1","1","1,0.333,0.333,0.333,1,0.333,0.333,0.333,1","1,0.333,0.333,0.333,1,0.333,0.333,0.333,1","1",""
"","html-keyboard-response","137","174797","0.0-137.0","3PJUZCGDJ72BSAARTF0QBIWMPQL890","AU34T9OMHN4Z4","3PIOQ99R7Y8STPN46QFY0SD7JTFNU0","","null","<img src=""img/flower2.png"" style=""width:200px; border:14px solid green;"">","null","","","","","","","","",""
"","image-keyboard-response","138","176230","0.0-138.0","3PJUZCGDJ72BSAARTF0QBIWMPQL890","AU34T9OMHN4Z4","3PIOQ99R7Y8STPN46QFY0SD7JTFNU0","","1432.300000011921","img/flower5.png","76","1432.800000011921","3","1","3","1","1,0.333,0.333,0.333,1,0.333,0.333,0.333,1","1,0.333,0.333,0.333,1,0.333,0.333,0.333,1","1",""
"","html-keyboard-response","139","176532","0.0-139.0","3PJUZCGDJ72BSAARTF0QBIWMPQL890","AU34T9OMHN4Z4","3PIOQ99R7Y8STPN46QFY0SD7JTFNU0","","null","<img src=""img/flower5.png"" style=""width:200px; border:14px solid green;"">","null","","","","","","","","",""
"","image-keyboard-response","140","177486","0.0-140.0","3PJUZCGDJ72BSAARTF0QBIWMPQL890","AU34T9OMHN4Z4","3PIOQ99R7Y8STPN46QFY0SD7JTFNU0","","952.5999999642372","img/flower5.png","76","953.5","3","1","3","1","1,0.333,0.333,0.333,1,0.333,0.333,0.333,1","1,0.333,0.333,0.333,1,0.333,0.333,0.333,1","1",""
"","html-keyboard-response","141","177788","0.0-141.0","3PJUZCGDJ72BSAARTF0QBIWMPQL890","AU34T9OMHN4Z4","3PIOQ99R7Y8STPN46QFY0SD7JTFNU0","","null","<img src=""img/flower5.png"" style=""width:200px; border:14px solid green;"">","null","","","","","","","","",""
"","image-keyboard-response","142","178174","0.0-142.0","3PJUZCGDJ72BSAARTF0QBIWMPQL890","AU34T9OMHN4Z4","3PIOQ99R7Y8STPN46QFY0SD7JTFNU0","","384.80000001192093","img/flower5.png","76","385.5","3","1","3","1","1,0.333,0.333,0.333,1,0.333,0.333,0.333,1","1,0.333,0.333,0.333,1,0.333,0.333,0.333,1","1",""
"","html-keyboard-response","143","178476","0.0-143.0","3PJUZCGDJ72BSAARTF0QBIWMPQL890","AU34T9OMHN4Z4","3PIOQ99R7Y8STPN46QFY0SD7JTFNU0","","null","<img src=""img/flower5.png"" style=""width:200px; border:14px solid green;"">","null","","","","","","","","",""
"","image-keyboard-response","144","179118","0.0-144.0","3PJUZCGDJ72BSAARTF0QBIWMPQL890","AU34T9OMHN4Z4","3PIOQ99R7Y8STPN46QFY0SD7JTFNU0","","641.2999999523163","img/flower4.png","75","641.8000000119209","2","1","2","1","1,0.333,0.333,0.333,1,0.333,0.333,0.333,1","1,0.333,0.333,0.333,1,0.333,0.333,0.333,1","1",""
"","html-keyboard-response","145","179419","0.0-145.0","3PJUZCGDJ72BSAARTF0QBIWMPQL890","AU34T9OMHN4Z4","3PIOQ99R7Y8STPN46QFY0SD7JTFNU0","","null","<img src=""img/flower4.png"" style=""width:200px; border:14px solid green;"">","null","","","","","","","","",""
"","image-keyboard-response","146","179918","0.0-146.0","3PJUZCGDJ72BSAARTF0QBIWMPQL890","AU34T9OMHN4Z4","3PIOQ99R7Y8STPN46QFY0SD7JTFNU0","","497.39999997615814","img/flower4.png","75","498.4000000357628","2","1","2","1","1,0.333,0.333,0.333,1,0.333,0.333,0.333,1","1,0.333,0.333,0.333,1,0.333,0.333,0.333,1","1",""
"","html-keyboard-response","147","180219","0.0-147.0","3PJUZCGDJ72BSAARTF0QBIWMPQL890","AU34T9OMHN4Z4","3PIOQ99R7Y8STPN46QFY0SD7JTFNU0","","null","<img src=""img/flower4.png"" style=""width:200px; border:14px solid green;"">","null","","","","","","","","",""
"","image-keyboard-response","148","180685","0.0-148.0","3PJUZCGDJ72BSAARTF0QBIWMPQL890","AU34T9OMHN4Z4","3PIOQ99R7Y8STPN46QFY0SD7JTFNU0","","465","img/flower4.png","75","465.9000000357628","2","1","2","1","1,0.333,0.333,0.333,1,0.333,0.333,0.333,1","1,0.333,0.333,0.333,1,0.333,0.333,0.333,1","1",""
"","html-keyboard-response","149","180987","0.0-149.0","3PJUZCGDJ72BSAARTF0QBIWMPQL890","AU34T9OMHN4Z4","3PIOQ99R7Y8STPN46QFY0SD7JTFNU0","","null","<img src=""img/flower4.png"" style=""width:200px; border:14px solid green;"">","null","","","","","","","","",""
"","image-keyboard-response","150","181790","0.0-150.0","3PJUZCGDJ72BSAARTF0QBIWMPQL890","AU34T9OMHN4Z4","3PIOQ99R7Y8STPN46QFY0SD7JTFNU0","","801.6000000238419","img/flower2.png","74","802.5","1","1","1","1","1,0.333,0.333,0.333,1,0.333,0.333,0.333,1","1,0.333,0.333,0.333,1,0.333,0.333,0.333,1","1",""
"","html-keyboard-response","151","182091","0.0-151.0","3PJUZCGDJ72BSAARTF0QBIWMPQL890","AU34T9OMHN4Z4","3PIOQ99R7Y8STPN46QFY0SD7JTFNU0","","null","<img src=""img/flower2.png"" style=""width:200px; border:14px solid green;"">","null","","","","","","","","",""
"","image-keyboard-response","152","183093","0.0-152.0","3PJUZCGDJ72BSAARTF0QBIWMPQL890","AU34T9OMHN4Z4","3PIOQ99R7Y8STPN46QFY0SD7JTFNU0","","1000.7999999523163","img/flower5.png","76","1001.7000000476837","3","1","3","1","1,0.333,0.333,0.333,1,0.333,0.333,0.333,1","1,0.333,0.333,0.333,1,0.333,0.333,0.333,1","1",""
"","html-keyboard-response","153","183394","0.0-153.0","3PJUZCGDJ72BSAARTF0QBIWMPQL890","AU34T9OMHN4Z4","3PIOQ99R7Y8STPN46QFY0SD7JTFNU0","","null","<img src=""img/flower5.png"" style=""width:200px; border:14px solid green;"">","null","","","","","","","","",""
"","image-keyboard-response","154","183918","0.0-154.0","3PJUZCGDJ72BSAARTF0QBIWMPQL890","AU34T9OMHN4Z4","3PIOQ99R7Y8STPN46QFY0SD7JTFNU0","","522.8000000119209","img/flower5.png","76","523.6999999880791","3","1","3","1","1,0.333,0.333,0.333,1,0.333,0.333,0.333,1","1,0.333,0.333,0.333,1,0.333,0.333,0.333,1","1",""
"","html-keyboard-response","155","184219","0.0-155.0","3PJUZCGDJ72BSAARTF0QBIWMPQL890","AU34T9OMHN4Z4","3PIOQ99R7Y8STPN46QFY0SD7JTFNU0","","null","<img src=""img/flower5.png"" style=""width:200px; border:14px solid green;"">","null","","","","","","","","",""
"","image-keyboard-response","156","184568","0.0-156.0","3PJUZCGDJ72BSAARTF0QBIWMPQL890","AU34T9OMHN4Z4","3PIOQ99R7Y8STPN46QFY0SD7JTFNU0","","346.5999999642372","img/flower5.png","76","347.89999997615814","3","1","3","1","1,0.333,0.333,0.333,1,0.333,0.333,0.333,1","1,0.333,0.333,0.333,1,0.333,0.333,0.333,1","1",""
"","html-keyboard-response","157","184871","0.0-157.0","3PJUZCGDJ72BSAARTF0QBIWMPQL890","AU34T9OMHN4Z4","3PIOQ99R7Y8STPN46QFY0SD7JTFNU0","","null","<img src=""img/flower5.png"" style=""width:200px; border:14px solid green;"">","null","","","","","","","","",""
"","image-keyboard-response","158","185653","0.0-158.0","3PJUZCGDJ72BSAARTF0QBIWMPQL890","AU34T9OMHN4Z4","3PIOQ99R7Y8STPN46QFY0SD7JTFNU0","","782.0999999642372","img/flower2.png","74","782.5999999642372","1","1","1","1","1,0.333,0.333,0.333,1,0.333,0.333,0.333,1","1,0.333,0.333,0.333,1,0.333,0.333,0.333,1","1",""
"","html-keyboard-response","159","185955","0.0-159.0","3PJUZCGDJ72BSAARTF0QBIWMPQL890","AU34T9OMHN4Z4","3PIOQ99R7Y8STPN46QFY0SD7JTFNU0","","null","<img src=""img/flower2.png"" style=""width:200px; border:14px solid green;"">","null","","","","","","","","",""
"","image-keyboard-response","160","186341","0.0-160.0","3PJUZCGDJ72BSAARTF0QBIWMPQL890","AU34T9OMHN4Z4","3PIOQ99R7Y8STPN46QFY0SD7JTFNU0","","385.5999999642372","img/flower2.png","74","386.19999998807907","1","1","1","1","1,0.333,0.333,0.333,1,0.333,0.333,0.333,1","1,0.333,0.333,0.333,1,0.333,0.333,0.333,1","1",""
"","html-keyboard-response","161","186644","0.0-161.0","3PJUZCGDJ72BSAARTF0QBIWMPQL890","AU34T9OMHN4Z4","3PIOQ99R7Y8STPN46QFY0SD7JTFNU0","","null","<img src=""img/flower2.png"" style=""width:200px; border:14px solid green;"">","null","","","","","","","","",""
"","image-keyboard-response","162","187054","0.0-162.0","3PJUZCGDJ72BSAARTF0QBIWMPQL890","AU34T9OMHN4Z4","3PIOQ99R7Y8STPN46QFY0SD7JTFNU0","","409.19999998807907","img/flower5.png","75","409.80000001192093","2","1","3","1","1,0.333,0.333,0.333,1,0.333,0.333,0.333,1","1,0.333,0.333,0.333,1,0.333,0.333,0.333,1","1",""
"","html-keyboard-response","163","187357","0.0-163.0","3PJUZCGDJ72BSAARTF0QBIWMPQL890","AU34T9OMHN4Z4","3PIOQ99R7Y8STPN46QFY0SD7JTFNU0","","null","<img src=""img/flower5.png"" style=""width:200px; border:14px solid green;"">","null","","","","","","","","",""
"","image-keyboard-response","164","188118","0.0-164.0","3PJUZCGDJ72BSAARTF0QBIWMPQL890","AU34T9OMHN4Z4","3PIOQ99R7Y8STPN46QFY0SD7JTFNU0","","760.5","img/flower5.png","76","761.3999999761581","3","1","3","1","1,0.333,0.333,0.333,1,0.333,0.333,0.333,1","1,0.333,0.333,0.333,1,0.333,0.333,0.333,1","1",""
"","html-keyboard-response","165","188420","0.0-165.0","3PJUZCGDJ72BSAARTF0QBIWMPQL890","AU34T9OMHN4Z4","3PIOQ99R7Y8STPN46QFY0SD7JTFNU0","","null","<img src=""img/flower5.png"" style=""width:200px; border:14px solid green;"">","null","","","","","","","","",""
"","image-keyboard-response","166","189102","0.0-166.0","3PJUZCGDJ72BSAARTF0QBIWMPQL890","AU34T9OMHN4Z4","3PIOQ99R7Y8STPN46QFY0SD7JTFNU0","","680.3999999761581","img/flower4.png","75","681.3000000119209","2","1","2","1","1,0.333,0.333,0.333,1,0.333,0.333,0.333,1","1,0.333,0.333,0.333,1,0.333,0.333,0.333,1","1",""
"","html-keyboard-response","167","189404","0.0-167.0","3PJUZCGDJ72BSAARTF0QBIWMPQL890","AU34T9OMHN4Z4","3PIOQ99R7Y8STPN46QFY0SD7JTFNU0","","null","<img src=""img/flower4.png"" style=""width:200px; border:14px solid green;"">","null","","","","","","","","",""
"","image-keyboard-response","168","190605","0.0-168.0","3PJUZCGDJ72BSAARTF0QBIWMPQL890","AU34T9OMHN4Z4","3PIOQ99R7Y8STPN46QFY0SD7JTFNU0","","1199.7999999523163","img/flower2.png","74","1200.800000011921","1","1","1","1","1,0.333,0.333,0.333,1,0.333,0.333,0.333,1","1,0.333,0.333,0.333,1,0.333,0.333,0.333,1","1",""
"","html-keyboard-response","169","190908","0.0-169.0","3PJUZCGDJ72BSAARTF0QBIWMPQL890","AU34T9OMHN4Z4","3PIOQ99R7Y8STPN46QFY0SD7JTFNU0","","null","<img src=""img/flower2.png"" style=""width:200px; border:14px solid green;"">","null","","","","","","","","",""
"","image-keyboard-response","170","191646","0.0-170.0","3PJUZCGDJ72BSAARTF0QBIWMPQL890","AU34T9OMHN4Z4","3PIOQ99R7Y8STPN46QFY0SD7JTFNU0","","736.6999999880791","img/flower4.png","75","737.6999999880791","2","1","2","1","1,0.333,0.333,0.333,1,0.333,0.333,0.333,1","1,0.333,0.333,0.333,1,0.333,0.333,0.333,1","1",""
"","html-keyboard-response","171","191948","0.0-171.0","3PJUZCGDJ72BSAARTF0QBIWMPQL890","AU34T9OMHN4Z4","3PIOQ99R7Y8STPN46QFY0SD7JTFNU0","","null","<img src=""img/flower4.png"" style=""width:200px; border:14px solid green;"">","null","","","","","","","","",""
"","image-keyboard-response","172","192342","0.0-172.0","3PJUZCGDJ72BSAARTF0QBIWMPQL890","AU34T9OMHN4Z4","3PIOQ99R7Y8STPN46QFY0SD7JTFNU0","","393.69999998807907","img/flower4.png","75","394.39999997615814","2","1","2","1","1,0.333,0.333,0.333,1,0.333,0.333,0.333,1","1,0.333,0.333,0.333,1,0.333,0.333,0.333,1","1",""
"","html-keyboard-response","173","192644","0.0-173.0","3PJUZCGDJ72BSAARTF0QBIWMPQL890","AU34T9OMHN4Z4","3PIOQ99R7Y8STPN46QFY0SD7JTFNU0","","null","<img src=""img/flower4.png"" style=""width:200px; border:14px solid green;"">","null","","","","","","","","",""
"","image-keyboard-response","174","192941","0.0-174.0","3PJUZCGDJ72BSAARTF0QBIWMPQL890","AU34T9OMHN4Z4","3PIOQ99R7Y8STPN46QFY0SD7JTFNU0","","296.19999998807907","img/flower4.png","75","296.60000002384186","2","1","2","1","1,0.333,0.333,0.333,1,0.333,0.333,0.333,1","1,0.333,0.333,0.333,1,0.333,0.333,0.333,1","1",""
"","html-keyboard-response","175","193244","0.0-175.0","3PJUZCGDJ72BSAARTF0QBIWMPQL890","AU34T9OMHN4Z4","3PIOQ99R7Y8STPN46QFY0SD7JTFNU0","","null","<img src=""img/flower4.png"" style=""width:200px; border:14px solid green;"">","null","","","","","","","","",""
"","image-keyboard-response","176","193981","0.0-176.0","3PJUZCGDJ72BSAARTF0QBIWMPQL890","AU34T9OMHN4Z4","3PIOQ99R7Y8STPN46QFY0SD7JTFNU0","","736.4000000357628","img/flower2.png","74","737.0999999642372","1","1","1","1","1,0.333,0.333,0.333,1,0.333,0.333,0.333,1","1,0.333,0.333,0.333,1,0.333,0.333,0.333,1","1",""
"","html-keyboard-response","177","194283","0.0-177.0","3PJUZCGDJ72BSAARTF0QBIWMPQL890","AU34T9OMHN4Z4","3PIOQ99R7Y8STPN46QFY0SD7JTFNU0","","null","<img src=""img/flower2.png"" style=""width:200px; border:14px solid green;"">","null","","","","","","","","",""
"","image-keyboard-response","178","195309","0.0-178.0","3PJUZCGDJ72BSAARTF0QBIWMPQL890","AU34T9OMHN4Z4","3PIOQ99R7Y8STPN46QFY0SD7JTFNU0","","1025.5","img/flower4.png","75","1025.9000000357628","2","1","2","1","1,0.333,0.333,0.333,1,0.333,0.333,0.333,1","1,0.333,0.333,0.333,1,0.333,0.333,0.333,1","1",""
"","html-keyboard-response","179","195611","0.0-179.0","3PJUZCGDJ72BSAARTF0QBIWMPQL890","AU34T9OMHN4Z4","3PIOQ99R7Y8STPN46QFY0SD7JTFNU0","","null","<img src=""img/flower4.png"" style=""width:200px; border:14px solid green;"">","null","","","","","","","","",""
"","image-keyboard-response","180","196005","0.0-180.0","3PJUZCGDJ72BSAARTF0QBIWMPQL890","AU34T9OMHN4Z4","3PIOQ99R7Y8STPN46QFY0SD7JTFNU0","","393.30000001192093","img/flower4.png","75","394.0999999642372","2","1","2","1","1,0.333,0.333,0.333,1,0.333,0.333,0.333,1","1,0.333,0.333,0.333,1,0.333,0.333,0.333,1","1",""
"","html-keyboard-response","181","196307","0.0-181.0","3PJUZCGDJ72BSAARTF0QBIWMPQL890","AU34T9OMHN4Z4","3PIOQ99R7Y8STPN46QFY0SD7JTFNU0","","null","<img src=""img/flower4.png"" style=""width:200px; border:14px solid green;"">","null","","","","","","","","",""
"","html-keyboard-response","182","197902","0.0-182.0","3PJUZCGDJ72BSAARTF0QBIWMPQL890","AU34T9OMHN4Z4","3PIOQ99R7Y8STPN46QFY0SD7JTFNU0","","","","","","","","","","","","",""
"","image-keyboard-response","183","198700","0.0-183.0","3PJUZCGDJ72BSAARTF0QBIWMPQL890","AU34T9OMHN4Z4","3PIOQ99R7Y8STPN46QFY0SD7JTFNU0","","796.8999999761581","img/flower6.png","74","797.8999999761581","1","0","3","2","1,0,0,1,1,0,1,0,1","0,0,1,1,0,1,0,1,1","2",""
"","html-keyboard-response","184","199002","0.0-184.0","3PJUZCGDJ72BSAARTF0QBIWMPQL890","AU34T9OMHN4Z4","3PIOQ99R7Y8STPN46QFY0SD7JTFNU0","","null","<img src=""img/flower6.png"" style=""width:200px;border:14px solid red;"">","null","","","","","","","","",""
"","image-keyboard-response","185","199797","0.0-185.0","3PJUZCGDJ72BSAARTF0QBIWMPQL890","AU34T9OMHN4Z4","3PIOQ99R7Y8STPN46QFY0SD7JTFNU0","","793.5","img/flower6.png","75","794.1000000238419","2","1","3","2","1,0,0,1,1,0,1,0,1","0,0,1,1,0,1,0,1,1","2",""
"","html-keyboard-response","186","200098","0.0-186.0","3PJUZCGDJ72BSAARTF0QBIWMPQL890","AU34T9OMHN4Z4","3PIOQ99R7Y8STPN46QFY0SD7JTFNU0","","null","<img src=""img/flower6.png"" style=""width:200px; border:14px solid green;"">","null","","","","","","","","",""
"","image-keyboard-response","187","201061","0.0-187.0","3PJUZCGDJ72BSAARTF0QBIWMPQL890","AU34T9OMHN4Z4","3PIOQ99R7Y8STPN46QFY0SD7JTFNU0","","961.5","img/flower1.png","74","962.1000000238419","1","1","2","2","1,0,0,1,1,0,1,0,1","0,0,1,1,0,1,0,1,1","2",""
"","html-keyboard-response","188","201362","0.0-188.0","3PJUZCGDJ72BSAARTF0QBIWMPQL890","AU34T9OMHN4Z4","3PIOQ99R7Y8STPN46QFY0SD7JTFNU0","","null","<img src=""img/flower1.png"" style=""width:200px; border:14px solid green;"">","null","","","","","","","","",""
"","image-keyboard-response","189","202254","0.0-189.0","3PJUZCGDJ72BSAARTF0QBIWMPQL890","AU34T9OMHN4Z4","3PIOQ99R7Y8STPN46QFY0SD7JTFNU0","","889.8999999761581","img/flower6.png","75","891.2000000476837","2","1","3","2","1,0,0,1,1,0,1,0,1","0,0,1,1,0,1,0,1,1","2",""
"","html-keyboard-response","190","202556","0.0-190.0","3PJUZCGDJ72BSAARTF0QBIWMPQL890","AU34T9OMHN4Z4","3PIOQ99R7Y8STPN46QFY0SD7JTFNU0","","null","<img src=""img/flower6.png"" style=""width:200px; border:14px solid green;"">","null","","","","","","","","",""
"","image-keyboard-response","191","203165","0.0-191.0","3PJUZCGDJ72BSAARTF0QBIWMPQL890","AU34T9OMHN4Z4","3PIOQ99R7Y8STPN46QFY0SD7JTFNU0","","607.8999999761581","img/flower1.png","74","608.3999999761581","1","1","2","2","1,0,0,1,1,0,1,0,1","0,0,1,1,0,1,0,1,1","2",""
"","html-keyboard-response","192","203466","0.0-192.0","3PJUZCGDJ72BSAARTF0QBIWMPQL890","AU34T9OMHN4Z4","3PIOQ99R7Y8STPN46QFY0SD7JTFNU0","","null","<img src=""img/flower1.png"" style=""width:200px; border:14px solid green;"">","null","","","","","","","","",""
"","image-keyboard-response","193","203868","0.0-193.0","3PJUZCGDJ72BSAARTF0QBIWMPQL890","AU34T9OMHN4Z4","3PIOQ99R7Y8STPN46QFY0SD7JTFNU0","","401.10000002384186","img/flower1.png","74","401.69999998807907","1","1","2","2","1,0,0,1,1,0,1,0,1","0,0,1,1,0,1,0,1,1","2",""
"","html-keyboard-response","194","204170","0.0-194.0","3PJUZCGDJ72BSAARTF0QBIWMPQL890","AU34T9OMHN4Z4","3PIOQ99R7Y8STPN46QFY0SD7JTFNU0","","null","<img src=""img/flower1.png"" style=""width:200px; border:14px solid green;"">","null","","","","","","","","",""
"","image-keyboard-response","195","204925","0.0-195.0","3PJUZCGDJ72BSAARTF0QBIWMPQL890","AU34T9OMHN4Z4","3PIOQ99R7Y8STPN46QFY0SD7JTFNU0","","753.8999999761581","img/flower3.png","76","754.6000000238419","3","1","1","2","1,0,0,1,1,0,1,0,1","0,0,1,1,0,1,0,1,1","2",""
"","html-keyboard-response","196","205227","0.0-196.0","3PJUZCGDJ72BSAARTF0QBIWMPQL890","AU34T9OMHN4Z4","3PIOQ99R7Y8STPN46QFY0SD7JTFNU0","","null","<img src=""img/flower3.png"" style=""width:200px; border:14px solid green;"">","null","","","","","","","","",""
"","image-keyboard-response","197","205692","0.0-197.0","3PJUZCGDJ72BSAARTF0QBIWMPQL890","AU34T9OMHN4Z4","3PIOQ99R7Y8STPN46QFY0SD7JTFNU0","","464.39999997615814","img/flower3.png","76","465.5999999642372","3","1","1","2","1,0,0,1,1,0,1,0,1","0,0,1,1,0,1,0,1,1","2",""
"","html-keyboard-response","198","205995","0.0-198.0","3PJUZCGDJ72BSAARTF0QBIWMPQL890","AU34T9OMHN4Z4","3PIOQ99R7Y8STPN46QFY0SD7JTFNU0","","null","<img src=""img/flower3.png"" style=""width:200px; border:14px solid green;"">","null","","","","","","","","",""
"","image-keyboard-response","199","206748","0.0-199.0","3PJUZCGDJ72BSAARTF0QBIWMPQL890","AU34T9OMHN4Z4","3PIOQ99R7Y8STPN46QFY0SD7JTFNU0","","752.3000000119209","img/flower6.png","74","753.3999999761581","1","0","3","2","1,0,0,1,1,0,1,0,1","0,0,1,1,0,1,0,1,1","2",""
"","html-keyboard-response","200","207050","0.0-200.0","3PJUZCGDJ72BSAARTF0QBIWMPQL890","AU34T9OMHN4Z4","3PIOQ99R7Y8STPN46QFY0SD7JTFNU0","","null","<img src=""img/flower6.png"" style=""width:200px;border:14px solid red;"">","null","","","","","","","","",""
"","image-keyboard-response","201","207716","0.0-201.0","3PJUZCGDJ72BSAARTF0QBIWMPQL890","AU34T9OMHN4Z4","3PIOQ99R7Y8STPN46QFY0SD7JTFNU0","","665.4000000357628","img/flower1.png","74","666.1999999880791","1","1","2","2","1,0,0,1,1,0,1,0,1","0,0,1,1,0,1,0,1,1","2",""
"","html-keyboard-response","202","208019","0.0-202.0","3PJUZCGDJ72BSAARTF0QBIWMPQL890","AU34T9OMHN4Z4","3PIOQ99R7Y8STPN46QFY0SD7JTFNU0","","null","<img src=""img/flower1.png"" style=""width:200px; border:14px solid green;"">","null","","","","","","","","",""
"","image-keyboard-response","203","208372","0.0-203.0","3PJUZCGDJ72BSAARTF0QBIWMPQL890","AU34T9OMHN4Z4","3PIOQ99R7Y8STPN46QFY0SD7JTFNU0","","353.30000001192093","img/flower1.png","74","353.89999997615814","1","1","2","2","1,0,0,1,1,0,1,0,1","0,0,1,1,0,1,0,1,1","2",""
"","html-keyboard-response","204","208676","0.0-204.0","3PJUZCGDJ72BSAARTF0QBIWMPQL890","AU34T9OMHN4Z4","3PIOQ99R7Y8STPN46QFY0SD7JTFNU0","","null","<img src=""img/flower1.png"" style=""width:200px; border:14px solid green;"">","null","","","","","","","","",""
"","image-keyboard-response","205","209166","0.0-205.0","3PJUZCGDJ72BSAARTF0QBIWMPQL890","AU34T9OMHN4Z4","3PIOQ99R7Y8STPN46QFY0SD7JTFNU0","","488.7999999523163","img/flower6.png","75","489.39999997615814","2","1","3","2","1,0,0,1,1,0,1,0,1","0,0,1,1,0,1,0,1,1","2",""
"","html-keyboard-response","206","209468","0.0-206.0","3PJUZCGDJ72BSAARTF0QBIWMPQL890","AU34T9OMHN4Z4","3PIOQ99R7Y8STPN46QFY0SD7JTFNU0","","null","<img src=""img/flower6.png"" style=""width:200px; border:14px solid green;"">","null","","","","","","","","",""
"","image-keyboard-response","207","210213","0.0-207.0","3PJUZCGDJ72BSAARTF0QBIWMPQL890","AU34T9OMHN4Z4","3PIOQ99R7Y8STPN46QFY0SD7JTFNU0","","744.9000000357628","img/flower1.png","74","745.3999999761581","1","1","2","2","1,0,0,1,1,0,1,0,1","0,0,1,1,0,1,0,1,1","2",""
"","html-keyboard-response","208","210516","0.0-208.0","3PJUZCGDJ72BSAARTF0QBIWMPQL890","AU34T9OMHN4Z4","3PIOQ99R7Y8STPN46QFY0SD7JTFNU0","","null","<img src=""img/flower1.png"" style=""width:200px; border:14px solid green;"">","null","","","","","","","","",""
"","image-keyboard-response","209","211093","0.0-209.0","3PJUZCGDJ72BSAARTF0QBIWMPQL890","AU34T9OMHN4Z4","3PIOQ99R7Y8STPN46QFY0SD7JTFNU0","","576.8000000119209","img/flower6.png","75","577.3000000119209","2","1","3","2","1,0,0,1,1,0,1,0,1","0,0,1,1,0,1,0,1,1","2",""
"","html-keyboard-response","210","211395","0.0-210.0","3PJUZCGDJ72BSAARTF0QBIWMPQL890","AU34T9OMHN4Z4","3PIOQ99R7Y8STPN46QFY0SD7JTFNU0","","null","<img src=""img/flower6.png"" style=""width:200px; border:14px solid green;"">","null","","","","","","","","",""
"","image-keyboard-response","211","212087","0.0-211.0","3PJUZCGDJ72BSAARTF0QBIWMPQL890","AU34T9OMHN4Z4","3PIOQ99R7Y8STPN46QFY0SD7JTFNU0","","690","img/flower1.png","74","691.0999999642372","1","1","2","2","1,0,0,1,1,0,1,0,1","0,0,1,1,0,1,0,1,1","2",""
"","html-keyboard-response","212","212389","0.0-212.0","3PJUZCGDJ72BSAARTF0QBIWMPQL890","AU34T9OMHN4Z4","3PIOQ99R7Y8STPN46QFY0SD7JTFNU0","","null","<img src=""img/flower1.png"" style=""width:200px; border:14px solid green;"">","null","","","","","","","","",""
"","image-keyboard-response","213","212757","0.0-213.0","3PJUZCGDJ72BSAARTF0QBIWMPQL890","AU34T9OMHN4Z4","3PIOQ99R7Y8STPN46QFY0SD7JTFNU0","","367.19999998807907","img/flower1.png","74","367.69999998807907","1","1","2","2","1,0,0,1,1,0,1,0,1","0,0,1,1,0,1,0,1,1","2",""
"","html-keyboard-response","214","213059","0.0-214.0","3PJUZCGDJ72BSAARTF0QBIWMPQL890","AU34T9OMHN4Z4","3PIOQ99R7Y8STPN46QFY0SD7JTFNU0","","null","<img src=""img/flower1.png"" style=""width:200px; border:14px solid green;"">","null","","","","","","","","",""
"","image-keyboard-response","215","213661","0.0-215.0","3PJUZCGDJ72BSAARTF0QBIWMPQL890","AU34T9OMHN4Z4","3PIOQ99R7Y8STPN46QFY0SD7JTFNU0","","600.8999999761581","img/flower3.png","76","601.8000000119209","3","1","1","2","1,0,0,1,1,0,1,0,1","0,0,1,1,0,1,0,1,1","2",""
"","html-keyboard-response","216","213963","0.0-216.0","3PJUZCGDJ72BSAARTF0QBIWMPQL890","AU34T9OMHN4Z4","3PIOQ99R7Y8STPN46QFY0SD7JTFNU0","","null","<img src=""img/flower3.png"" style=""width:200px; border:14px solid green;"">","null","","","","","","","","",""
"","image-keyboard-response","217","214328","0.0-217.0","3PJUZCGDJ72BSAARTF0QBIWMPQL890","AU34T9OMHN4Z4","3PIOQ99R7Y8STPN46QFY0SD7JTFNU0","","362.89999997615814","img/flower3.png","76","364.7000000476837","3","1","1","2","1,0,0,1,1,0,1,0,1","0,0,1,1,0,1,0,1,1","2",""
"","html-keyboard-response","218","214633","0.0-218.0","3PJUZCGDJ72BSAARTF0QBIWMPQL890","AU34T9OMHN4Z4","3PIOQ99R7Y8STPN46QFY0SD7JTFNU0","","null","<img src=""img/flower3.png"" style=""width:200px; border:14px solid green;"">","null","","","","","","","","",""
"","image-keyboard-response","219","215238","0.0-219.0","3PJUZCGDJ72BSAARTF0QBIWMPQL890","AU34T9OMHN4Z4","3PIOQ99R7Y8STPN46QFY0SD7JTFNU0","","601.8000000119209","img/flower6.png","75","604.6000000238419","2","1","3","2","1,0,0,1,1,0,1,0,1","0,0,1,1,0,1,0,1,1","2",""
"","html-keyboard-response","220","215540","0.0-220.0","3PJUZCGDJ72BSAARTF0QBIWMPQL890","AU34T9OMHN4Z4","3PIOQ99R7Y8STPN46QFY0SD7JTFNU0","","null","<img src=""img/flower6.png"" style=""width:200px; border:14px solid green;"">","null","","","","","","","","",""
"","image-keyboard-response","221","216510","0.0-221.0","3PJUZCGDJ72BSAARTF0QBIWMPQL890","AU34T9OMHN4Z4","3PIOQ99R7Y8STPN46QFY0SD7JTFNU0","","968.5999999642372","img/flower3.png","76","969.6000000238419","3","1","1","2","1,0,0,1,1,0,1,0,1","0,0,1,1,0,1,0,1,1","2",""
"","html-keyboard-response","222","216811","0.0-222.0","3PJUZCGDJ72BSAARTF0QBIWMPQL890","AU34T9OMHN4Z4","3PIOQ99R7Y8STPN46QFY0SD7JTFNU0","","null","<img src=""img/flower3.png"" style=""width:200px; border:14px solid green;"">","null","","","","","","","","",""
"","image-keyboard-response","223","217462","0.0-223.0","3PJUZCGDJ72BSAARTF0QBIWMPQL890","AU34T9OMHN4Z4","3PIOQ99R7Y8STPN46QFY0SD7JTFNU0","","649.8000000119209","img/flower1.png","74","650.5","1","1","2","2","1,0,0,1,1,0,1,0,1","0,0,1,1,0,1,0,1,1","2",""
"","html-keyboard-response","224","217764","0.0-224.0","3PJUZCGDJ72BSAARTF0QBIWMPQL890","AU34T9OMHN4Z4","3PIOQ99R7Y8STPN46QFY0SD7JTFNU0","","null","<img src=""img/flower1.png"" style=""width:200px; border:14px solid green;"">","null","","","","","","","","",""
"","image-keyboard-response","225","218573","0.0-225.0","3PJUZCGDJ72BSAARTF0QBIWMPQL890","AU34T9OMHN4Z4","3PIOQ99R7Y8STPN46QFY0SD7JTFNU0","","807.5","img/flower3.png","76","808.5","3","1","1","2","1,0,0,1,1,0,1,0,1","0,0,1,1,0,1,0,1,1","2",""
"","html-keyboard-response","226","218875","0.0-226.0","3PJUZCGDJ72BSAARTF0QBIWMPQL890","AU34T9OMHN4Z4","3PIOQ99R7Y8STPN46QFY0SD7JTFNU0","","null","<img src=""img/flower3.png"" style=""width:200px; border:14px solid green;"">","null","","","","","","","","",""
"","image-keyboard-response","227","219940","0.0-227.0","3PJUZCGDJ72BSAARTF0QBIWMPQL890","AU34T9OMHN4Z4","3PIOQ99R7Y8STPN46QFY0SD7JTFNU0","","1063.7999999523163","img/flower1.png","74","1064.4000000357628","1","1","2","2","1,0,0,1,1,0,1,0,1","0,0,1,1,0,1,0,1,1","2",""
"","html-keyboard-response","228","220242","0.0-228.0","3PJUZCGDJ72BSAARTF0QBIWMPQL890","AU34T9OMHN4Z4","3PIOQ99R7Y8STPN46QFY0SD7JTFNU0","","null","<img src=""img/flower1.png"" style=""width:200px; border:14px solid green;"">","null","","","","","","","","",""
"","image-keyboard-response","229","221053","0.0-229.0","3PJUZCGDJ72BSAARTF0QBIWMPQL890","AU34T9OMHN4Z4","3PIOQ99R7Y8STPN46QFY0SD7JTFNU0","","810.4000000357628","img/flower3.png","76","810.8999999761581","3","1","1","2","1,0,0,1,1,0,1,0,1","0,0,1,1,0,1,0,1,1","2",""
"","html-keyboard-response","230","221354","0.0-230.0","3PJUZCGDJ72BSAARTF0QBIWMPQL890","AU34T9OMHN4Z4","3PIOQ99R7Y8STPN46QFY0SD7JTFNU0","","null","<img src=""img/flower3.png"" style=""width:200px; border:14px solid green;"">","null","","","","","","","","",""
"","image-keyboard-response","231","221732","0.0-231.0","3PJUZCGDJ72BSAARTF0QBIWMPQL890","AU34T9OMHN4Z4","3PIOQ99R7Y8STPN46QFY0SD7JTFNU0","","377.0999999642372","img/flower3.png","76","377.7999999523163","3","1","1","2","1,0,0,1,1,0,1,0,1","0,0,1,1,0,1,0,1,1","2",""
"","html-keyboard-response","232","222034","0.0-232.0","3PJUZCGDJ72BSAARTF0QBIWMPQL890","AU34T9OMHN4Z4","3PIOQ99R7Y8STPN46QFY0SD7JTFNU0","","null","<img src=""img/flower3.png"" style=""width:200px; border:14px solid green;"">","null","","","","","","","","",""
"","image-keyboard-response","233","222365","0.0-233.0","3PJUZCGDJ72BSAARTF0QBIWMPQL890","AU34T9OMHN4Z4","3PIOQ99R7Y8STPN46QFY0SD7JTFNU0","","330","img/flower3.png","76","330.89999997615814","3","1","1","2","1,0,0,1,1,0,1,0,1","0,0,1,1,0,1,0,1,1","2",""
"","html-keyboard-response","234","222668","0.0-234.0","3PJUZCGDJ72BSAARTF0QBIWMPQL890","AU34T9OMHN4Z4","3PIOQ99R7Y8STPN46QFY0SD7JTFNU0","","null","<img src=""img/flower3.png"" style=""width:200px; border:14px solid green;"">","null","","","","","","","","",""
"","image-keyboard-response","235","223236","0.0-235.0","3PJUZCGDJ72BSAARTF0QBIWMPQL890","AU34T9OMHN4Z4","3PIOQ99R7Y8STPN46QFY0SD7JTFNU0","","567.6999999880791","img/flower6.png","75","568.2999999523163","2","1","3","2","1,0,0,1,1,0,1,0,1","0,0,1,1,0,1,0,1,1","2",""
"","html-keyboard-response","236","223538","0.0-236.0","3PJUZCGDJ72BSAARTF0QBIWMPQL890","AU34T9OMHN4Z4","3PIOQ99R7Y8STPN46QFY0SD7JTFNU0","","null","<img src=""img/flower6.png"" style=""width:200px; border:14px solid green;"">","null","","","","","","","","",""
"","image-keyboard-response","237","224253","0.0-237.0","3PJUZCGDJ72BSAARTF0QBIWMPQL890","AU34T9OMHN4Z4","3PIOQ99R7Y8STPN46QFY0SD7JTFNU0","","715.1000000238419","img/flower3.png","76","715.8000000119209","3","1","1","2","1,0,0,1,1,0,1,0,1","0,0,1,1,0,1,0,1,1","2",""
"","html-keyboard-response","238","224554","0.0-238.0","3PJUZCGDJ72BSAARTF0QBIWMPQL890","AU34T9OMHN4Z4","3PIOQ99R7Y8STPN46QFY0SD7JTFNU0","","null","<img src=""img/flower3.png"" style=""width:200px; border:14px solid green;"">","null","","","","","","","","",""
"","image-keyboard-response","239","225222","0.0-239.0","3PJUZCGDJ72BSAARTF0QBIWMPQL890","AU34T9OMHN4Z4","3PIOQ99R7Y8STPN46QFY0SD7JTFNU0","","666.4000000357628","img/flower6.png","75","667.3999999761581","2","1","3","2","1,0,0,1,1,0,1,0,1","0,0,1,1,0,1,0,1,1","2",""
"","html-keyboard-response","240","225525","0.0-240.0","3PJUZCGDJ72BSAARTF0QBIWMPQL890","AU34T9OMHN4Z4","3PIOQ99R7Y8STPN46QFY0SD7JTFNU0","","null","<img src=""img/flower6.png"" style=""width:200px; border:14px solid green;"">","null","","","","","","","","",""
"","image-keyboard-response","241","226173","0.0-241.0","3PJUZCGDJ72BSAARTF0QBIWMPQL890","AU34T9OMHN4Z4","3PIOQ99R7Y8STPN46QFY0SD7JTFNU0","","645.6999999880791","img/flower1.png","74","647.6999999880791","1","1","2","2","1,0,0,1,1,0,1,0,1","0,0,1,1,0,1,0,1,1","2",""
"","html-keyboard-response","242","226476","0.0-242.0","3PJUZCGDJ72BSAARTF0QBIWMPQL890","AU34T9OMHN4Z4","3PIOQ99R7Y8STPN46QFY0SD7JTFNU0","","null","<img src=""img/flower1.png"" style=""width:200px; border:14px solid green;"">","null","","","","","","","","",""
"","image-keyboard-response","243","226764","0.0-243.0","3PJUZCGDJ72BSAARTF0QBIWMPQL890","AU34T9OMHN4Z4","3PIOQ99R7Y8STPN46QFY0SD7JTFNU0","","286.4000000357628","img/flower1.png","74","288.10000002384186","1","1","2","2","1,0,0,1,1,0,1,0,1","0,0,1,1,0,1,0,1,1","2",""
"","html-keyboard-response","244","227067","0.0-244.0","3PJUZCGDJ72BSAARTF0QBIWMPQL890","AU34T9OMHN4Z4","3PIOQ99R7Y8STPN46QFY0SD7JTFNU0","","null","<img src=""img/flower1.png"" style=""width:200px; border:14px solid green;"">","null","","","","","","","","",""
"","image-keyboard-response","245","227917","0.0-245.0","3PJUZCGDJ72BSAARTF0QBIWMPQL890","AU34T9OMHN4Z4","3PIOQ99R7Y8STPN46QFY0SD7JTFNU0","","849.0999999642372","img/flower3.png","76","850","3","1","1","2","1,0,0,1,1,0,1,0,1","0,0,1,1,0,1,0,1,1","2",""
"","html-keyboard-response","246","228219","0.0-246.0","3PJUZCGDJ72BSAARTF0QBIWMPQL890","AU34T9OMHN4Z4","3PIOQ99R7Y8STPN46QFY0SD7JTFNU0","","null","<img src=""img/flower3.png"" style=""width:200px; border:14px solid green;"">","null","","","","","","","","",""
"","image-keyboard-response","247","229077","0.0-247.0","3PJUZCGDJ72BSAARTF0QBIWMPQL890","AU34T9OMHN4Z4","3PIOQ99R7Y8STPN46QFY0SD7JTFNU0","","857","img/flower1.png","74","857.3999999761581","1","1","2","2","1,0,0,1,1,0,1,0,1","0,0,1,1,0,1,0,1,1","2",""
"","html-keyboard-response","248","229378","0.0-248.0","3PJUZCGDJ72BSAARTF0QBIWMPQL890","AU34T9OMHN4Z4","3PIOQ99R7Y8STPN46QFY0SD7JTFNU0","","null","<img src=""img/flower1.png"" style=""width:200px; border:14px solid green;"">","null","","","","","","","","",""
"","image-keyboard-response","249","230060","0.0-249.0","3PJUZCGDJ72BSAARTF0QBIWMPQL890","AU34T9OMHN4Z4","3PIOQ99R7Y8STPN46QFY0SD7JTFNU0","","680.9000000357628","img/flower3.png","75","681.6999999880791","2","0","1","2","1,0,0,1,1,0,1,0,1","0,0,1,1,0,1,0,1,1","2",""
"","html-keyboard-response","250","230362","0.0-250.0","3PJUZCGDJ72BSAARTF0QBIWMPQL890","AU34T9OMHN4Z4","3PIOQ99R7Y8STPN46QFY0SD7JTFNU0","","null","<img src=""img/flower3.png"" style=""width:200px;border:14px solid red;"">","null","","","","","","","","",""
"","image-keyboard-response","251","231341","0.0-251.0","3PJUZCGDJ72BSAARTF0QBIWMPQL890","AU34T9OMHN4Z4","3PIOQ99R7Y8STPN46QFY0SD7JTFNU0","","976.6999999880791","img/flower1.png","74","978.1000000238419","1","1","2","2","1,0,0,1,1,0,1,0,1","0,0,1,1,0,1,0,1,1","2",""
"","html-keyboard-response","252","231643","0.0-252.0","3PJUZCGDJ72BSAARTF0QBIWMPQL890","AU34T9OMHN4Z4","3PIOQ99R7Y8STPN46QFY0SD7JTFNU0","","null","<img src=""img/flower1.png"" style=""width:200px; border:14px solid green;"">","null","","","","","","","","",""
"","image-keyboard-response","253","231988","0.0-253.0","3PJUZCGDJ72BSAARTF0QBIWMPQL890","AU34T9OMHN4Z4","3PIOQ99R7Y8STPN46QFY0SD7JTFNU0","","344","img/flower1.png","74","344.89999997615814","1","1","2","2","1,0,0,1,1,0,1,0,1","0,0,1,1,0,1,0,1,1","2",""
"","html-keyboard-response","254","232290","0.0-254.0","3PJUZCGDJ72BSAARTF0QBIWMPQL890","AU34T9OMHN4Z4","3PIOQ99R7Y8STPN46QFY0SD7JTFNU0","","null","<img src=""img/flower1.png"" style=""width:200px; border:14px solid green;"">","null","","","","","","","","",""
"","image-keyboard-response","255","232973","0.0-255.0","3PJUZCGDJ72BSAARTF0QBIWMPQL890","AU34T9OMHN4Z4","3PIOQ99R7Y8STPN46QFY0SD7JTFNU0","","680.6999999880791","img/flower3.png","76","682.1999999880791","3","1","1","2","1,0,0,1,1,0,1,0,1","0,0,1,1,0,1,0,1,1","2",""
"","html-keyboard-response","256","233275","0.0-256.0","3PJUZCGDJ72BSAARTF0QBIWMPQL890","AU34T9OMHN4Z4","3PIOQ99R7Y8STPN46QFY0SD7JTFNU0","","null","<img src=""img/flower3.png"" style=""width:200px; border:14px solid green;"">","null","","","","","","","","",""
"","image-keyboard-response","257","233957","0.0-257.0","3PJUZCGDJ72BSAARTF0QBIWMPQL890","AU34T9OMHN4Z4","3PIOQ99R7Y8STPN46QFY0SD7JTFNU0","","679.6000000238419","img/flower1.png","74","680.5999999642372","1","1","2","2","1,0,0,1,1,0,1,0,1","0,0,1,1,0,1,0,1,1","2",""
"","html-keyboard-response","258","234259","0.0-258.0","3PJUZCGDJ72BSAARTF0QBIWMPQL890","AU34T9OMHN4Z4","3PIOQ99R7Y8STPN46QFY0SD7JTFNU0","","null","<img src=""img/flower1.png"" style=""width:200px; border:14px solid green;"">","null","","","","","","","","",""
"","image-keyboard-response","259","235485","0.0-259.0","3PJUZCGDJ72BSAARTF0QBIWMPQL890","AU34T9OMHN4Z4","3PIOQ99R7Y8STPN46QFY0SD7JTFNU0","","1225","img/flower3.png","75","1225.8999999761581","2","0","1","2","1,0,0,1,1,0,1,0,1","0,0,1,1,0,1,0,1,1","2",""
"","html-keyboard-response","260","235787","0.0-260.0","3PJUZCGDJ72BSAARTF0QBIWMPQL890","AU34T9OMHN4Z4","3PIOQ99R7Y8STPN46QFY0SD7JTFNU0","","null","<img src=""img/flower3.png"" style=""width:200px;border:14px solid red;"">","null","","","","","","","","",""
"","image-keyboard-response","261","236557","0.0-261.0","3PJUZCGDJ72BSAARTF0QBIWMPQL890","AU34T9OMHN4Z4","3PIOQ99R7Y8STPN46QFY0SD7JTFNU0","","769.9000000357628","img/flower6.png","75","770.6000000238419","2","1","3","2","1,0,0,1,1,0,1,0,1","0,0,1,1,0,1,0,1,1","2",""
"","html-keyboard-response","262","236860","0.0-262.0","3PJUZCGDJ72BSAARTF0QBIWMPQL890","AU34T9OMHN4Z4","3PIOQ99R7Y8STPN46QFY0SD7JTFNU0","","null","<img src=""img/flower6.png"" style=""width:200px; border:14px solid green;"">","null","","","","","","","","",""
"","image-keyboard-response","263","237628","0.0-263.0","3PJUZCGDJ72BSAARTF0QBIWMPQL890","AU34T9OMHN4Z4","3PIOQ99R7Y8STPN46QFY0SD7JTFNU0","","767.2999999523163","img/flower1.png","74","768","1","1","2","2","1,0,0,1,1,0,1,0,1","0,0,1,1,0,1,0,1,1","2",""
"","html-keyboard-response","264","237931","0.0-264.0","3PJUZCGDJ72BSAARTF0QBIWMPQL890","AU34T9OMHN4Z4","3PIOQ99R7Y8STPN46QFY0SD7JTFNU0","","null","<img src=""img/flower1.png"" style=""width:200px; border:14px solid green;"">","null","","","","","","","","",""
"","image-keyboard-response","265","238852","0.0-265.0","3PJUZCGDJ72BSAARTF0QBIWMPQL890","AU34T9OMHN4Z4","3PIOQ99R7Y8STPN46QFY0SD7JTFNU0","","920.5","img/flower6.png","75","920.8999999761581","2","1","3","2","1,0,0,1,1,0,1,0,1","0,0,1,1,0,1,0,1,1","2",""
"","html-keyboard-response","266","239154","0.0-266.0","3PJUZCGDJ72BSAARTF0QBIWMPQL890","AU34T9OMHN4Z4","3PIOQ99R7Y8STPN46QFY0SD7JTFNU0","","null","<img src=""img/flower6.png"" style=""width:200px; border:14px solid green;"">","null","","","","","","","","",""
"","image-keyboard-response","267","239612","0.0-267.0","3PJUZCGDJ72BSAARTF0QBIWMPQL890","AU34T9OMHN4Z4","3PIOQ99R7Y8STPN46QFY0SD7JTFNU0","","457","img/flower6.png","75","457.7000000476837","2","1","3","2","1,0,0,1,1,0,1,0,1","0,0,1,1,0,1,0,1,1","2",""
"","html-keyboard-response","268","239914","0.0-268.0","3PJUZCGDJ72BSAARTF0QBIWMPQL890","AU34T9OMHN4Z4","3PIOQ99R7Y8STPN46QFY0SD7JTFNU0","","null","<img src=""img/flower6.png"" style=""width:200px; border:14px solid green;"">","null","","","","","","","","",""
"","image-keyboard-response","269","240332","0.0-269.0","3PJUZCGDJ72BSAARTF0QBIWMPQL890","AU34T9OMHN4Z4","3PIOQ99R7Y8STPN46QFY0SD7JTFNU0","","417.5","img/flower6.png","75","418.19999998807907","2","1","3","2","1,0,0,1,1,0,1,0,1","0,0,1,1,0,1,0,1,1","2",""
"","html-keyboard-response","270","240635","0.0-270.0","3PJUZCGDJ72BSAARTF0QBIWMPQL890","AU34T9OMHN4Z4","3PIOQ99R7Y8STPN46QFY0SD7JTFNU0","","null","<img src=""img/flower6.png"" style=""width:200px; border:14px solid green;"">","null","","","","","","","","",""
"","image-keyboard-response","271","240948","0.0-271.0","3PJUZCGDJ72BSAARTF0QBIWMPQL890","AU34T9OMHN4Z4","3PIOQ99R7Y8STPN46QFY0SD7JTFNU0","","312.0999999642372","img/flower6.png","75","313.0999999642372","2","1","3","2","1,0,0,1,1,0,1,0,1","0,0,1,1,0,1,0,1,1","2",""
"","html-keyboard-response","272","241250","0.0-272.0","3PJUZCGDJ72BSAARTF0QBIWMPQL890","AU34T9OMHN4Z4","3PIOQ99R7Y8STPN46QFY0SD7JTFNU0","","null","<img src=""img/flower6.png"" style=""width:200px; border:14px solid green;"">","null","","","","","","","","",""
"","image-keyboard-response","273","241588","0.0-273.0","3PJUZCGDJ72BSAARTF0QBIWMPQL890","AU34T9OMHN4Z4","3PIOQ99R7Y8STPN46QFY0SD7JTFNU0","","336.5999999642372","img/flower6.png","75","338.10000002384186","2","1","3","2","1,0,0,1,1,0,1,0,1","0,0,1,1,0,1,0,1,1","2",""
"","html-keyboard-response","274","241890","0.0-274.0","3PJUZCGDJ72BSAARTF0QBIWMPQL890","AU34T9OMHN4Z4","3PIOQ99R7Y8STPN46QFY0SD7JTFNU0","","null","<img src=""img/flower6.png"" style=""width:200px; border:14px solid green;"">","null","","","","","","","","",""
"","image-keyboard-response","275","242652","0.0-275.0","3PJUZCGDJ72BSAARTF0QBIWMPQL890","AU34T9OMHN4Z4","3PIOQ99R7Y8STPN46QFY0SD7JTFNU0","","761.3000000119209","img/flower3.png","76","762","3","1","1","2","1,0,0,1,1,0,1,0,1","0,0,1,1,0,1,0,1,1","2",""
"","html-keyboard-response","276","242955","0.0-276.0","3PJUZCGDJ72BSAARTF0QBIWMPQL890","AU34T9OMHN4Z4","3PIOQ99R7Y8STPN46QFY0SD7JTFNU0","","null","<img src=""img/flower3.png"" style=""width:200px; border:14px solid green;"">","null","","","","","","","","",""
"","image-keyboard-response","277","243940","0.0-277.0","3PJUZCGDJ72BSAARTF0QBIWMPQL890","AU34T9OMHN4Z4","3PIOQ99R7Y8STPN46QFY0SD7JTFNU0","","984","img/flower6.png","75","984.6999999880791","2","1","3","2","1,0,0,1,1,0,1,0,1","0,0,1,1,0,1,0,1,1","2",""
"","html-keyboard-response","278","244242","0.0-278.0","3PJUZCGDJ72BSAARTF0QBIWMPQL890","AU34T9OMHN4Z4","3PIOQ99R7Y8STPN46QFY0SD7JTFNU0","","null","<img src=""img/flower6.png"" style=""width:200px; border:14px solid green;"">","null","","","","","","","","",""
"","image-keyboard-response","279","244612","0.0-279.0","3PJUZCGDJ72BSAARTF0QBIWMPQL890","AU34T9OMHN4Z4","3PIOQ99R7Y8STPN46QFY0SD7JTFNU0","","368.7000000476837","img/flower6.png","75","369.80000001192093","2","1","3","2","1,0,0,1,1,0,1,0,1","0,0,1,1,0,1,0,1,1","2",""
"","html-keyboard-response","280","244914","0.0-280.0","3PJUZCGDJ72BSAARTF0QBIWMPQL890","AU34T9OMHN4Z4","3PIOQ99R7Y8STPN46QFY0SD7JTFNU0","","null","<img src=""img/flower6.png"" style=""width:200px; border:14px solid green;"">","null","","","","","","","","",""
"","image-keyboard-response","281","245476","0.0-281.0","3PJUZCGDJ72BSAARTF0QBIWMPQL890","AU34T9OMHN4Z4","3PIOQ99R7Y8STPN46QFY0SD7JTFNU0","","560.5999999642372","img/flower1.png","74","561.7000000476837","1","1","2","2","1,0,0,1,1,0,1,0,1","0,0,1,1,0,1,0,1,1","2",""
"","html-keyboard-response","282","245778","0.0-282.0","3PJUZCGDJ72BSAARTF0QBIWMPQL890","AU34T9OMHN4Z4","3PIOQ99R7Y8STPN46QFY0SD7JTFNU0","","null","<img src=""img/flower1.png"" style=""width:200px; border:14px solid green;"">","null","","","","","","","","",""
"","image-keyboard-response","283","246348","0.0-283.0","3PJUZCGDJ72BSAARTF0QBIWMPQL890","AU34T9OMHN4Z4","3PIOQ99R7Y8STPN46QFY0SD7JTFNU0","","569.1999999880791","img/flower6.png","74","569.8000000119209","1","0","3","2","1,0,0,1,1,0,1,0,1","0,0,1,1,0,1,0,1,1","2",""
"","html-keyboard-response","284","246650","0.0-284.0","3PJUZCGDJ72BSAARTF0QBIWMPQL890","AU34T9OMHN4Z4","3PIOQ99R7Y8STPN46QFY0SD7JTFNU0","","null","<img src=""img/flower6.png"" style=""width:200px;border:14px solid red;"">","null","","","","","","","","",""
"","image-keyboard-response","285","247300","0.0-285.0","3PJUZCGDJ72BSAARTF0QBIWMPQL890","AU34T9OMHN4Z4","3PIOQ99R7Y8STPN46QFY0SD7JTFNU0","","648.5999999642372","img/flower6.png","75","649.3000000119209","2","1","3","2","1,0,0,1,1,0,1,0,1","0,0,1,1,0,1,0,1,1","2",""
"","html-keyboard-response","286","247602","0.0-286.0","3PJUZCGDJ72BSAARTF0QBIWMPQL890","AU34T9OMHN4Z4","3PIOQ99R7Y8STPN46QFY0SD7JTFNU0","","null","<img src=""img/flower6.png"" style=""width:200px; border:14px solid green;"">","null","","","","","","","","",""
"","image-keyboard-response","287","248260","0.0-287.0","3PJUZCGDJ72BSAARTF0QBIWMPQL890","AU34T9OMHN4Z4","3PIOQ99R7Y8STPN46QFY0SD7JTFNU0","","656.8000000119209","img/flower3.png","76","658.1999999880791","3","1","1","2","1,0,0,1,1,0,1,0,1","0,0,1,1,0,1,0,1,1","2",""
"","html-keyboard-response","288","248563","0.0-288.0","3PJUZCGDJ72BSAARTF0QBIWMPQL890","AU34T9OMHN4Z4","3PIOQ99R7Y8STPN46QFY0SD7JTFNU0","","null","<img src=""img/flower3.png"" style=""width:200px; border:14px solid green;"">","null","","","","","","","","",""
"","image-keyboard-response","289","248948","0.0-289.0","3PJUZCGDJ72BSAARTF0QBIWMPQL890","AU34T9OMHN4Z4","3PIOQ99R7Y8STPN46QFY0SD7JTFNU0","","384.0999999642372","img/flower3.png","76","384.80000001192093","3","1","1","2","1,0,0,1,1,0,1,0,1","0,0,1,1,0,1,0,1,1","2",""
"","html-keyboard-response","290","249250","0.0-290.0","3PJUZCGDJ72BSAARTF0QBIWMPQL890","AU34T9OMHN4Z4","3PIOQ99R7Y8STPN46QFY0SD7JTFNU0","","null","<img src=""img/flower3.png"" style=""width:200px; border:14px solid green;"">","null","","","","","","","","",""
"","image-keyboard-response","291","249572","0.0-291.0","3PJUZCGDJ72BSAARTF0QBIWMPQL890","AU34T9OMHN4Z4","3PIOQ99R7Y8STPN46QFY0SD7JTFNU0","","320.7000000476837","img/flower3.png","76","321.5999999642372","3","1","1","2","1,0,0,1,1,0,1,0,1","0,0,1,1,0,1,0,1,1","2",""
"","html-keyboard-response","292","249874","0.0-292.0","3PJUZCGDJ72BSAARTF0QBIWMPQL890","AU34T9OMHN4Z4","3PIOQ99R7Y8STPN46QFY0SD7JTFNU0","","null","<img src=""img/flower3.png"" style=""width:200px; border:14px solid green;"">","null","","","","","","","","",""
"","image-keyboard-response","293","250220","0.0-293.0","3PJUZCGDJ72BSAARTF0QBIWMPQL890","AU34T9OMHN4Z4","3PIOQ99R7Y8STPN46QFY0SD7JTFNU0","","345.2999999523163","img/flower3.png","76","346.10000002384186","3","1","1","2","1,0,0,1,1,0,1,0,1","0,0,1,1,0,1,0,1,1","2",""
"","html-keyboard-response","294","250522","0.0-294.0","3PJUZCGDJ72BSAARTF0QBIWMPQL890","AU34T9OMHN4Z4","3PIOQ99R7Y8STPN46QFY0SD7JTFNU0","","null","<img src=""img/flower3.png"" style=""width:200px; border:14px solid green;"">","null","","","","","","","","",""
"","image-keyboard-response","295","251188","0.0-295.0","3PJUZCGDJ72BSAARTF0QBIWMPQL890","AU34T9OMHN4Z4","3PIOQ99R7Y8STPN46QFY0SD7JTFNU0","","665.1000000238419","img/flower1.png","74","666.0999999642372","1","1","2","2","1,0,0,1,1,0,1,0,1","0,0,1,1,0,1,0,1,1","2",""
"","html-keyboard-response","296","251491","0.0-296.0","3PJUZCGDJ72BSAARTF0QBIWMPQL890","AU34T9OMHN4Z4","3PIOQ99R7Y8STPN46QFY0SD7JTFNU0","","null","<img src=""img/flower1.png"" style=""width:200px; border:14px solid green;"">","null","","","","","","","","",""
"","image-keyboard-response","297","252276","0.0-297.0","3PJUZCGDJ72BSAARTF0QBIWMPQL890","AU34T9OMHN4Z4","3PIOQ99R7Y8STPN46QFY0SD7JTFNU0","","783.2999999523163","img/flower6.png","75","784.3999999761581","2","1","3","2","1,0,0,1,1,0,1,0,1","0,0,1,1,0,1,0,1,1","2",""
"","html-keyboard-response","298","252579","0.0-298.0","3PJUZCGDJ72BSAARTF0QBIWMPQL890","AU34T9OMHN4Z4","3PIOQ99R7Y8STPN46QFY0SD7JTFNU0","","null","<img src=""img/flower6.png"" style=""width:200px; border:14px solid green;"">","null","","","","","","","","",""
"","image-keyboard-response","299","253324","0.0-299.0","3PJUZCGDJ72BSAARTF0QBIWMPQL890","AU34T9OMHN4Z4","3PIOQ99R7Y8STPN46QFY0SD7JTFNU0","","744.6000000238419","img/flower1.png","74","745.5","1","1","2","2","1,0,0,1,1,0,1,0,1","0,0,1,1,0,1,0,1,1","2",""
"","html-keyboard-response","300","253628","0.0-300.0","3PJUZCGDJ72BSAARTF0QBIWMPQL890","AU34T9OMHN4Z4","3PIOQ99R7Y8STPN46QFY0SD7JTFNU0","","null","<img src=""img/flower1.png"" style=""width:200px; border:14px solid green;"">","null","","","","","","","","",""
"","image-keyboard-response","301","254403","0.0-301.0","3PJUZCGDJ72BSAARTF0QBIWMPQL890","AU34T9OMHN4Z4","3PIOQ99R7Y8STPN46QFY0SD7JTFNU0","","774","img/flower3.png","76","775","3","1","1","2","1,0,0,1,1,0,1,0,1","0,0,1,1,0,1,0,1,1","2",""
"","html-keyboard-response","302","254704","0.0-302.0","3PJUZCGDJ72BSAARTF0QBIWMPQL890","AU34T9OMHN4Z4","3PIOQ99R7Y8STPN46QFY0SD7JTFNU0","","null","<img src=""img/flower3.png"" style=""width:200px; border:14px solid green;"">","null","","","","","","","","",""
"","image-keyboard-response","303","255492","0.0-303.0","3PJUZCGDJ72BSAARTF0QBIWMPQL890","AU34T9OMHN4Z4","3PIOQ99R7Y8STPN46QFY0SD7JTFNU0","","786.5999999642372","img/flower1.png","74","787.5","1","1","2","2","1,0,0,1,1,0,1,0,1","0,0,1,1,0,1,0,1,1","2",""
"","html-keyboard-response","304","255794","0.0-304.0","3PJUZCGDJ72BSAARTF0QBIWMPQL890","AU34T9OMHN4Z4","3PIOQ99R7Y8STPN46QFY0SD7JTFNU0","","null","<img src=""img/flower1.png"" style=""width:200px; border:14px solid green;"">","null","","","","","","","","",""
"","image-keyboard-response","305","256587","0.0-305.0","3PJUZCGDJ72BSAARTF0QBIWMPQL890","AU34T9OMHN4Z4","3PIOQ99R7Y8STPN46QFY0SD7JTFNU0","","792.2000000476837","img/flower3.png","75","792.8999999761581","2","0","1","2","1,0,0,1,1,0,1,0,1","0,0,1,1,0,1,0,1,1","2",""
"","html-keyboard-response","306","256890","0.0-306.0","3PJUZCGDJ72BSAARTF0QBIWMPQL890","AU34T9OMHN4Z4","3PIOQ99R7Y8STPN46QFY0SD7JTFNU0","","null","<img src=""img/flower3.png"" style=""width:200px;border:14px solid red;"">","null","","","","","","","","",""
"","image-keyboard-response","307","258005","0.0-307.0","3PJUZCGDJ72BSAARTF0QBIWMPQL890","AU34T9OMHN4Z4","3PIOQ99R7Y8STPN46QFY0SD7JTFNU0","","1113.9000000357628","img/flower1.png","74","1114.800000011921","1","1","2","2","1,0,0,1,1,0,1,0,1","0,0,1,1,0,1,0,1,1","2",""
"","html-keyboard-response","308","258307","0.0-308.0","3PJUZCGDJ72BSAARTF0QBIWMPQL890","AU34T9OMHN4Z4","3PIOQ99R7Y8STPN46QFY0SD7JTFNU0","","null","<img src=""img/flower1.png"" style=""width:200px; border:14px solid green;"">","null","","","","","","","","",""
"","image-keyboard-response","309","259067","0.0-309.0","3PJUZCGDJ72BSAARTF0QBIWMPQL890","AU34T9OMHN4Z4","3PIOQ99R7Y8STPN46QFY0SD7JTFNU0","","758.0999999642372","img/flower3.png","76","759.3000000119209","3","1","1","2","1,0,0,1,1,0,1,0,1","0,0,1,1,0,1,0,1,1","2",""
"","html-keyboard-response","310","259368","0.0-310.0","3PJUZCGDJ72BSAARTF0QBIWMPQL890","AU34T9OMHN4Z4","3PIOQ99R7Y8STPN46QFY0SD7JTFNU0","","null","<img src=""img/flower3.png"" style=""width:200px; border:14px solid green;"">","null","","","","","","","","",""
"","image-keyboard-response","311","260075","0.0-311.0","3PJUZCGDJ72BSAARTF0QBIWMPQL890","AU34T9OMHN4Z4","3PIOQ99R7Y8STPN46QFY0SD7JTFNU0","","705.7999999523163","img/flower6.png","75","706.8000000119209","2","1","3","2","1,0,0,1,1,0,1,0,1","0,0,1,1,0,1,0,1,1","2",""
"","html-keyboard-response","312","260378","0.0-312.0","3PJUZCGDJ72BSAARTF0QBIWMPQL890","AU34T9OMHN4Z4","3PIOQ99R7Y8STPN46QFY0SD7JTFNU0","","null","<img src=""img/flower6.png"" style=""width:200px; border:14px solid green;"">","null","","","","","","","","",""
"","image-keyboard-response","313","261019","0.0-313.0","3PJUZCGDJ72BSAARTF0QBIWMPQL890","AU34T9OMHN4Z4","3PIOQ99R7Y8STPN46QFY0SD7JTFNU0","","640.1999999880791","img/flower1.png","74","641.3000000119209","1","1","2","2","1,0,0,1,1,0,1,0,1","0,0,1,1,0,1,0,1,1","2",""
"","html-keyboard-response","314","261321","0.0-314.0","3PJUZCGDJ72BSAARTF0QBIWMPQL890","AU34T9OMHN4Z4","3PIOQ99R7Y8STPN46QFY0SD7JTFNU0","","null","<img src=""img/flower1.png"" style=""width:200px; border:14px solid green;"">","null","","","","","","","","",""
"","image-keyboard-response","315","262131","0.0-315.0","3PJUZCGDJ72BSAARTF0QBIWMPQL890","AU34T9OMHN4Z4","3PIOQ99R7Y8STPN46QFY0SD7JTFNU0","","808.2000000476837","img/flower1.png","74","809.1000000238419","1","1","2","2","1,0,0,1,1,0,1,0,1","0,0,1,1,0,1,0,1,1","2",""
"","html-keyboard-response","316","262432","0.0-316.0","3PJUZCGDJ72BSAARTF0QBIWMPQL890","AU34T9OMHN4Z4","3PIOQ99R7Y8STPN46QFY0SD7JTFNU0","","null","<img src=""img/flower1.png"" style=""width:200px; border:14px solid green;"">","null","","","","","","","","",""
"","image-keyboard-response","317","263259","0.0-317.0","3PJUZCGDJ72BSAARTF0QBIWMPQL890","AU34T9OMHN4Z4","3PIOQ99R7Y8STPN46QFY0SD7JTFNU0","","826.3000000119209","img/flower3.png","76","826.8999999761581","3","1","1","2","1,0,0,1,1,0,1,0,1","0,0,1,1,0,1,0,1,1","2",""
"","html-keyboard-response","318","263561","0.0-318.0","3PJUZCGDJ72BSAARTF0QBIWMPQL890","AU34T9OMHN4Z4","3PIOQ99R7Y8STPN46QFY0SD7JTFNU0","","null","<img src=""img/flower3.png"" style=""width:200px; border:14px solid green;"">","null","","","","","","","","",""
"","image-keyboard-response","319","264028","0.0-319.0","3PJUZCGDJ72BSAARTF0QBIWMPQL890","AU34T9OMHN4Z4","3PIOQ99R7Y8STPN46QFY0SD7JTFNU0","","465.7999999523163","img/flower3.png","76","466.7999999523163","3","1","1","2","1,0,0,1,1,0,1,0,1","0,0,1,1,0,1,0,1,1","2",""
"","html-keyboard-response","320","264331","0.0-320.0","3PJUZCGDJ72BSAARTF0QBIWMPQL890","AU34T9OMHN4Z4","3PIOQ99R7Y8STPN46QFY0SD7JTFNU0","","null","<img src=""img/flower3.png"" style=""width:200px; border:14px solid green;"">","null","","","","","","","","",""
"","image-keyboard-response","321","265035","0.0-321.0","3PJUZCGDJ72BSAARTF0QBIWMPQL890","AU34T9OMHN4Z4","3PIOQ99R7Y8STPN46QFY0SD7JTFNU0","","703.3999999761581","img/flower6.png","75","704.5","2","1","3","2","1,0,0,1,1,0,1,0,1","0,0,1,1,0,1,0,1,1","2",""
"","html-keyboard-response","322","265338","0.0-322.0","3PJUZCGDJ72BSAARTF0QBIWMPQL890","AU34T9OMHN4Z4","3PIOQ99R7Y8STPN46QFY0SD7JTFNU0","","null","<img src=""img/flower6.png"" style=""width:200px; border:14px solid green;"">","null","","","","","","","","",""
"","image-keyboard-response","323","265715","0.0-323.0","3PJUZCGDJ72BSAARTF0QBIWMPQL890","AU34T9OMHN4Z4","3PIOQ99R7Y8STPN46QFY0SD7JTFNU0","","375.10000002384186","img/flower6.png","75","376.0999999642372","2","1","3","2","1,0,0,1,1,0,1,0,1","0,0,1,1,0,1,0,1,1","2",""
"","html-keyboard-response","324","266016","0.0-324.0","3PJUZCGDJ72BSAARTF0QBIWMPQL890","AU34T9OMHN4Z4","3PIOQ99R7Y8STPN46QFY0SD7JTFNU0","","null","<img src=""img/flower6.png"" style=""width:200px; border:14px solid green;"">","null","","","","","","","","",""
"","image-keyboard-response","325","266763","0.0-325.0","3PJUZCGDJ72BSAARTF0QBIWMPQL890","AU34T9OMHN4Z4","3PIOQ99R7Y8STPN46QFY0SD7JTFNU0","","745.5999999642372","img/flower1.png","74","746.3000000119209","1","1","2","2","1,0,0,1,1,0,1,0,1","0,0,1,1,0,1,0,1,1","2",""
"","html-keyboard-response","326","267065","0.0-326.0","3PJUZCGDJ72BSAARTF0QBIWMPQL890","AU34T9OMHN4Z4","3PIOQ99R7Y8STPN46QFY0SD7JTFNU0","","null","<img src=""img/flower1.png"" style=""width:200px; border:14px solid green;"">","null","","","","","","","","",""
"","image-keyboard-response","327","267763","0.0-327.0","3PJUZCGDJ72BSAARTF0QBIWMPQL890","AU34T9OMHN4Z4","3PIOQ99R7Y8STPN46QFY0SD7JTFNU0","","696.3999999761581","img/flower6.png","75","697.2999999523163","2","1","3","2","1,0,0,1,1,0,1,0,1","0,0,1,1,0,1,0,1,1","2",""
"","html-keyboard-response","328","268065","0.0-328.0","3PJUZCGDJ72BSAARTF0QBIWMPQL890","AU34T9OMHN4Z4","3PIOQ99R7Y8STPN46QFY0SD7JTFNU0","","null","<img src=""img/flower6.png"" style=""width:200px; border:14px solid green;"">","null","","","","","","","","",""
"","image-keyboard-response","329","268923","0.0-329.0","3PJUZCGDJ72BSAARTF0QBIWMPQL890","AU34T9OMHN4Z4","3PIOQ99R7Y8STPN46QFY0SD7JTFNU0","","856.3999999761581","img/flower3.png","76","857.3999999761581","3","1","1","2","1,0,0,1,1,0,1,0,1","0,0,1,1,0,1,0,1,1","2",""
"","html-keyboard-response","330","269226","0.0-330.0","3PJUZCGDJ72BSAARTF0QBIWMPQL890","AU34T9OMHN4Z4","3PIOQ99R7Y8STPN46QFY0SD7JTFNU0","","null","<img src=""img/flower3.png"" style=""width:200px; border:14px solid green;"">","null","","","","","","","","",""
"","image-keyboard-response","331","269612","0.0-331.0","3PJUZCGDJ72BSAARTF0QBIWMPQL890","AU34T9OMHN4Z4","3PIOQ99R7Y8STPN46QFY0SD7JTFNU0","","385.5","img/flower3.png","76","386.5","3","1","1","2","1,0,0,1,1,0,1,0,1","0,0,1,1,0,1,0,1,1","2",""
"","html-keyboard-response","332","269915","0.0-332.0","3PJUZCGDJ72BSAARTF0QBIWMPQL890","AU34T9OMHN4Z4","3PIOQ99R7Y8STPN46QFY0SD7JTFNU0","","null","<img src=""img/flower3.png"" style=""width:200px; border:14px solid green;"">","null","","","","","","","","",""
"","image-keyboard-response","333","270690","0.0-333.0","3PJUZCGDJ72BSAARTF0QBIWMPQL890","AU34T9OMHN4Z4","3PIOQ99R7Y8STPN46QFY0SD7JTFNU0","","774.5999999642372","img/flower6.png","75","775.5","2","1","3","2","1,0,0,1,1,0,1,0,1","0,0,1,1,0,1,0,1,1","2",""
"","html-keyboard-response","334","270993","0.0-334.0","3PJUZCGDJ72BSAARTF0QBIWMPQL890","AU34T9OMHN4Z4","3PIOQ99R7Y8STPN46QFY0SD7JTFNU0","","null","<img src=""img/flower6.png"" style=""width:200px; border:14px solid green;"">","null","","","","","","","","",""
"","image-keyboard-response","335","271723","0.0-335.0","3PJUZCGDJ72BSAARTF0QBIWMPQL890","AU34T9OMHN4Z4","3PIOQ99R7Y8STPN46QFY0SD7JTFNU0","","729.1000000238419","img/flower1.png","74","729.7999999523163","1","1","2","2","1,0,0,1,1,0,1,0,1","0,0,1,1,0,1,0,1,1","2",""
"","html-keyboard-response","336","272025","0.0-336.0","3PJUZCGDJ72BSAARTF0QBIWMPQL890","AU34T9OMHN4Z4","3PIOQ99R7Y8STPN46QFY0SD7JTFNU0","","null","<img src=""img/flower1.png"" style=""width:200px; border:14px solid green;"">","null","","","","","","","","",""
"","image-keyboard-response","337","273036","0.0-337.0","3PJUZCGDJ72BSAARTF0QBIWMPQL890","AU34T9OMHN4Z4","3PIOQ99R7Y8STPN46QFY0SD7JTFNU0","","1009.2000000476837","img/flower6.png","76","1010.1999999880791","3","1","3","2","1,0,0,1,1,0,1,0,1","0,0,1,1,0,1,0,1,1","2",""
"","html-keyboard-response","338","273339","0.0-338.0","3PJUZCGDJ72BSAARTF0QBIWMPQL890","AU34T9OMHN4Z4","3PIOQ99R7Y8STPN46QFY0SD7JTFNU0","","null","<img src=""img/flower6.png"" style=""width:200px; border:14px solid green;"">","null","","","","","","","","",""
"","image-keyboard-response","339","274210","0.0-339.0","3PJUZCGDJ72BSAARTF0QBIWMPQL890","AU34T9OMHN4Z4","3PIOQ99R7Y8STPN46QFY0SD7JTFNU0","","870.6999999880791","img/flower1.png","74","871.2000000476837","1","1","2","2","1,0,0,1,1,0,1,0,1","0,0,1,1,0,1,0,1,1","2",""
"","html-keyboard-response","340","274512","0.0-340.0","3PJUZCGDJ72BSAARTF0QBIWMPQL890","AU34T9OMHN4Z4","3PIOQ99R7Y8STPN46QFY0SD7JTFNU0","","null","<img src=""img/flower1.png"" style=""width:200px; border:14px solid green;"">","null","","","","","","","","",""
"","image-keyboard-response","341","275218","0.0-341.0","3PJUZCGDJ72BSAARTF0QBIWMPQL890","AU34T9OMHN4Z4","3PIOQ99R7Y8STPN46QFY0SD7JTFNU0","","705.8000000119209","img/flower6.png","75","706.5","2","1","3","2","1,0,0,1,1,0,1,0,1","0,0,1,1,0,1,0,1,1","2",""
"","html-keyboard-response","342","275520","0.0-342.0","3PJUZCGDJ72BSAARTF0QBIWMPQL890","AU34T9OMHN4Z4","3PIOQ99R7Y8STPN46QFY0SD7JTFNU0","","null","<img src=""img/flower6.png"" style=""width:200px; border:14px solid green;"">","null","","","","","","","","",""
"","image-keyboard-response","343","276754","0.0-343.0","3PJUZCGDJ72BSAARTF0QBIWMPQL890","AU34T9OMHN4Z4","3PIOQ99R7Y8STPN46QFY0SD7JTFNU0","","1233.300000011921","img/flower3.png","76","1233.9000000357628","3","1","1","2","1,0,0,1,1,0,1,0,1","0,0,1,1,0,1,0,1,1","2",""
"","html-keyboard-response","344","277056","0.0-344.0","3PJUZCGDJ72BSAARTF0QBIWMPQL890","AU34T9OMHN4Z4","3PIOQ99R7Y8STPN46QFY0SD7JTFNU0","","null","<img src=""img/flower3.png"" style=""width:200px; border:14px solid green;"">","null","","","","","","","","",""
"","image-keyboard-response","345","277978","0.0-345.0","3PJUZCGDJ72BSAARTF0QBIWMPQL890","AU34T9OMHN4Z4","3PIOQ99R7Y8STPN46QFY0SD7JTFNU0","","920.5999999642372","img/flower1.png","74","921.8000000119209","1","1","2","2","1,0,0,1,1,0,1,0,1","0,0,1,1,0,1,0,1,1","2",""
"","html-keyboard-response","346","278281","0.0-346.0","3PJUZCGDJ72BSAARTF0QBIWMPQL890","AU34T9OMHN4Z4","3PIOQ99R7Y8STPN46QFY0SD7JTFNU0","","null","<img src=""img/flower1.png"" style=""width:200px; border:14px solid green;"">","null","","","","","","","","",""
"","image-keyboard-response","347","279346","0.0-347.0","3PJUZCGDJ72BSAARTF0QBIWMPQL890","AU34T9OMHN4Z4","3PIOQ99R7Y8STPN46QFY0SD7JTFNU0","","1064.199999988079","img/flower1.png","74","1065.0999999642372","1","1","2","2","1,0,0,1,1,0,1,0,1","0,0,1,1,0,1,0,1,1","2",""
"","html-keyboard-response","348","279647","0.0-348.0","3PJUZCGDJ72BSAARTF0QBIWMPQL890","AU34T9OMHN4Z4","3PIOQ99R7Y8STPN46QFY0SD7JTFNU0","","null","<img src=""img/flower1.png"" style=""width:200px; border:14px solid green;"">","null","","","","","","","","",""
"","image-keyboard-response","349","280338","0.0-349.0","3PJUZCGDJ72BSAARTF0QBIWMPQL890","AU34T9OMHN4Z4","3PIOQ99R7Y8STPN46QFY0SD7JTFNU0","","690","img/flower6.png","75","691","2","1","3","2","1,0,0,1,1,0,1,0,1","0,0,1,1,0,1,0,1,1","2",""
"","html-keyboard-response","350","280642","0.0-350.0","3PJUZCGDJ72BSAARTF0QBIWMPQL890","AU34T9OMHN4Z4","3PIOQ99R7Y8STPN46QFY0SD7JTFNU0","","null","<img src=""img/flower6.png"" style=""width:200px; border:14px solid green;"">","null","","","","","","","","",""
"","image-keyboard-response","351","281403","0.0-351.0","3PJUZCGDJ72BSAARTF0QBIWMPQL890","AU34T9OMHN4Z4","3PIOQ99R7Y8STPN46QFY0SD7JTFNU0","","759.6999999880791","img/flower3.png","76","760.6000000238419","3","1","1","2","1,0,0,1,1,0,1,0,1","0,0,1,1,0,1,0,1,1","2",""
"","html-keyboard-response","352","281705","0.0-352.0","3PJUZCGDJ72BSAARTF0QBIWMPQL890","AU34T9OMHN4Z4","3PIOQ99R7Y8STPN46QFY0SD7JTFNU0","","null","<img src=""img/flower3.png"" style=""width:200px; border:14px solid green;"">","null","","","","","","","","",""
"","image-keyboard-response","353","282251","0.0-353.0","3PJUZCGDJ72BSAARTF0QBIWMPQL890","AU34T9OMHN4Z4","3PIOQ99R7Y8STPN46QFY0SD7JTFNU0","","545.1000000238419","img/flower3.png","76","545.8999999761581","3","1","1","2","1,0,0,1,1,0,1,0,1","0,0,1,1,0,1,0,1,1","2",""
"","html-keyboard-response","354","282554","0.0-354.0","3PJUZCGDJ72BSAARTF0QBIWMPQL890","AU34T9OMHN4Z4","3PIOQ99R7Y8STPN46QFY0SD7JTFNU0","","null","<img src=""img/flower3.png"" style=""width:200px; border:14px solid green;"">","null","","","","","","","","",""
"","image-keyboard-response","355","283435","0.0-355.0","3PJUZCGDJ72BSAARTF0QBIWMPQL890","AU34T9OMHN4Z4","3PIOQ99R7Y8STPN46QFY0SD7JTFNU0","","879.5","img/flower6.png","75","880.5","2","1","3","2","1,0,0,1,1,0,1,0,1","0,0,1,1,0,1,0,1,1","2",""
"","html-keyboard-response","356","283736","0.0-356.0","3PJUZCGDJ72BSAARTF0QBIWMPQL890","AU34T9OMHN4Z4","3PIOQ99R7Y8STPN46QFY0SD7JTFNU0","","null","<img src=""img/flower6.png"" style=""width:200px; border:14px solid green;"">","null","","","","","","","","",""
"","image-keyboard-response","357","284187","0.0-357.0","3PJUZCGDJ72BSAARTF0QBIWMPQL890","AU34T9OMHN4Z4","3PIOQ99R7Y8STPN46QFY0SD7JTFNU0","","449.39999997615814","img/flower6.png","75","450.19999998807907","2","1","3","2","1,0,0,1,1,0,1,0,1","0,0,1,1,0,1,0,1,1","2",""
"","html-keyboard-response","358","284488","0.0-358.0","3PJUZCGDJ72BSAARTF0QBIWMPQL890","AU34T9OMHN4Z4","3PIOQ99R7Y8STPN46QFY0SD7JTFNU0","","null","<img src=""img/flower6.png"" style=""width:200px; border:14px solid green;"">","null","","","","","","","","",""
"","image-keyboard-response","359","285090","0.0-359.0","3PJUZCGDJ72BSAARTF0QBIWMPQL890","AU34T9OMHN4Z4","3PIOQ99R7Y8STPN46QFY0SD7JTFNU0","","601.5","img/flower3.png","76","602.1999999880791","3","1","1","2","1,0,0,1,1,0,1,0,1","0,0,1,1,0,1,0,1,1","2",""
"","html-keyboard-response","360","285393","0.0-360.0","3PJUZCGDJ72BSAARTF0QBIWMPQL890","AU34T9OMHN4Z4","3PIOQ99R7Y8STPN46QFY0SD7JTFNU0","","null","<img src=""img/flower3.png"" style=""width:200px; border:14px solid green;"">","null","","","","","","","","",""
"","image-keyboard-response","361","286114","0.0-361.0","3PJUZCGDJ72BSAARTF0QBIWMPQL890","AU34T9OMHN4Z4","3PIOQ99R7Y8STPN46QFY0SD7JTFNU0","","719.5","img/flower1.png","74","720.1999999880791","1","1","2","2","1,0,0,1,1,0,1,0,1","0,0,1,1,0,1,0,1,1","2",""
"","html-keyboard-response","362","286415","0.0-362.0","3PJUZCGDJ72BSAARTF0QBIWMPQL890","AU34T9OMHN4Z4","3PIOQ99R7Y8STPN46QFY0SD7JTFNU0","","null","<img src=""img/flower1.png"" style=""width:200px; border:14px solid green;"">","null","","","","","","","","",""
"","instructions","363","293296","0.0-363.0","3PJUZCGDJ72BSAARTF0QBIWMPQL890","AU34T9OMHN4Z4","3PIOQ99R7Y8STPN46QFY0SD7JTFNU0","[{""page_index"":0,""viewing_time"":6879.399999976158}]","6879.599999964237","","","","","","","","","","",""
"","survey-text","364","310000","0.0-364.0","3PJUZCGDJ72BSAARTF0QBIWMPQL890","AU34T9OMHN4Z4","3PIOQ99R7Y8STPN46QFY0SD7JTFNU0","","16701.80000001192","","","","","","","","","","","{""Q0"":""AU34T9OMHN4Z4""}"
