"success","trial_type","trial_index","time_elapsed","internal_node_id","assignmentID","mturkID","hitID","view_history","rt","stimulus","key_press","reactionTime","a","r","s","cond","reward_cond","reward_cond_actual","reward_matrix_idx","responses"
"true","fullscreen","0","1908","0.0-0.0","30IQTZXKALSJBHNM1RTPY6CMD000XY","AV9GV051TQCZK","3I7KR83SNAZT1REYB2SRC49PCEEK9H","","","","","","","","","","","","",""
"","instructions","1","7373","0.0-1.0","30IQTZXKALSJBHNM1RTPY6CMD000XY","AV9GV051TQCZK","3I7KR83SNAZT1REYB2SRC49PCEEK9H","[{""page_index"":0,""viewing_time"":1287.5},{""page_index"":1,""viewing_time"":713.7999999970198},{""page_index"":2,""viewing_time"":342.20000000298023},{""page_index"":3,""viewing_time"":302.8999999985099},{""page_index"":4,""viewing_time"":711.8999999985099},{""page_index"":5,""viewing_time"":713},{""page_index"":6,""viewing_time"":721.1000000014901},{""page_index"":7,""viewing_time"":671.8999999985099}]","5464.5","","","","","","","","","","",""
"","image-keyboard-response","2","8889","0.0-2.0","30IQTZXKALSJBHNM1RTPY6CMD000XY","AV9GV051TQCZK","3I7KR83SNAZT1REYB2SRC49PCEEK9H","","1515.5","img/flower1.png","74","1516.1000000014901","1","1","3","1","1,0.333,0.333,0.333,1,0.333,0.333,0.333,1","1,0.333,0.333,0.333,1,0.333,0.333,0.333,1","1",""
"","html-keyboard-response","3","9198","0.0-3.0","30IQTZXKALSJBHNM1RTPY6CMD000XY","AV9GV051TQCZK","3I7KR83SNAZT1REYB2SRC49PCEEK9H","","null","<img src=""img/flower1.png"" style=""width:200px; border:14px solid green;"">","null","","","","","","","","",""
"","image-keyboard-response","4","9505","0.0-4.0","30IQTZXKALSJBHNM1RTPY6CMD000XY","AV9GV051TQCZK","3I7KR83SNAZT1REYB2SRC49PCEEK9H","","306.30000000447035","img/flower5.png","74","306.79999999701977","1","0","2","1","1,0.333,0.333,0.333,1,0.333,0.333,0.333,1","1,0.333,0.333,0.333,1,0.333,0.333,0.333,1","1",""
"","html-keyboard-response","5","9813","0.0-5.0","30IQTZXKALSJBHNM1RTPY6CMD000XY","AV9GV051TQCZK","3I7KR83SNAZT1REYB2SRC49PCEEK9H","","null","<img src=""img/flower5.png"" style=""width:200px;border:14px solid red;"">","null","","","","","","","","",""
"","image-keyboard-response","6","10041","0.0-6.0","30IQTZXKALSJBHNM1RTPY6CMD000XY","AV9GV051TQCZK","3I7KR83SNAZT1REYB2SRC49PCEEK9H","","227","img/flower1.png","75","227.39999999850988","2","0","3","1","1,0.333,0.333,0.333,1,0.333,0.333,0.333,1","1,0.333,0.333,0.333,1,0.333,0.333,0.333,1","1",""
"","html-keyboard-response","7","10349","0.0-7.0","30IQTZXKALSJBHNM1RTPY6CMD000XY","AV9GV051TQCZK","3I7KR83SNAZT1REYB2SRC49PCEEK9H","","null","<img src=""img/flower1.png"" style=""width:200px;border:14px solid red;"">","null","","","","","","","","",""
"","image-keyboard-response","8","12025","0.0-8.0","30IQTZXKALSJBHNM1RTPY6CMD000XY","AV9GV051TQCZK","3I7KR83SNAZT1REYB2SRC49PCEEK9H","","1675.5","img/flower6.png","76","1676","3","1","1","1","1,0.333,0.333,0.333,1,0.333,0.333,0.333,1","1,0.333,0.333,0.333,1,0.333,0.333,0.333,1","1",""
"","html-keyboard-response","9","12338","0.0-9.0","30IQTZXKALSJBHNM1RTPY6CMD000XY","AV9GV051TQCZK","3I7KR83SNAZT1REYB2SRC49PCEEK9H","","null","<img src=""img/flower6.png"" style=""width:200px; border:14px solid green;"">","null","","","","","","","","",""
"","image-keyboard-response","10","12617","0.0-10.0","30IQTZXKALSJBHNM1RTPY6CMD000XY","AV9GV051TQCZK","3I7KR83SNAZT1REYB2SRC49PCEEK9H","","278.5","img/flower6.png","76","279","3","1","1","1","1,0.333,0.333,0.333,1,0.333,0.333,0.333,1","1,0.333,0.333,0.333,1,0.333,0.333,0.333,1","1",""
"","html-keyboard-response","11","12920","0.0-11.0","30IQTZXKALSJBHNM1RTPY6CMD000XY","AV9GV051TQCZK","3I7KR83SNAZT1REYB2SRC49PCEEK9H","","null","<img src=""img/flower6.png"" style=""width:200px; border:14px solid green;"">","null","","","","","","","","",""
"","image-keyboard-response","12","13153","0.0-12.0","30IQTZXKALSJBHNM1RTPY6CMD000XY","AV9GV051TQCZK","3I7KR83SNAZT1REYB2SRC49PCEEK9H","","232.60000000149012","img/flower1.png","76","233","3","1","3","1","1,0.333,0.333,0.333,1,0.333,0.333,0.333,1","1,0.333,0.333,0.333,1,0.333,0.333,0.333,1","1",""
"","html-keyboard-response","13","13457","0.0-13.0","30IQTZXKALSJBHNM1RTPY6CMD000XY","AV9GV051TQCZK","3I7KR83SNAZT1REYB2SRC49PCEEK9H","","null","<img src=""img/flower1.png"" style=""width:200px; border:14px solid green;"">","null","","","","","","","","",""
"","image-keyboard-response","14","13713","0.0-14.0","30IQTZXKALSJBHNM1RTPY6CMD000XY","AV9GV051TQCZK","3I7KR83SNAZT1REYB2SRC49PCEEK9H","","255.20000000298023","img/flower5.png","76","255.79999999701977","3","0","2","1","1,0.333,0.333,0.333,1,0.333,0.333,0.333,1","1,0.333,0.333,0.333,1,0.333,0.333,0.333,1","1",""
"","html-keyboard-response","15","14025","0.0-15.0","30IQTZXKALSJBHNM1RTPY6CMD000XY","AV9GV051TQCZK","3I7KR83SNAZT1REYB2SRC49PCEEK9H","","null","<img src=""img/flower5.png"" style=""width:200px;border:14px solid red;"">","null","","","","","","","","",""
"","image-keyboard-response","16","14641","0.0-16.0","30IQTZXKALSJBHNM1RTPY6CMD000XY","AV9GV051TQCZK","3I7KR83SNAZT1REYB2SRC49PCEEK9H","","615.1000000014901","img/flower1.png","76","615.6999999955297","3","1","3","1","1,0.333,0.333,0.333,1,0.333,0.333,0.333,1","1,0.333,0.333,0.333,1,0.333,0.333,0.333,1","1",""
"","html-keyboard-response","17","14957","0.0-17.0","30IQTZXKALSJBHNM1RTPY6CMD000XY","AV9GV051TQCZK","3I7KR83SNAZT1REYB2SRC49PCEEK9H","","null","<img src=""img/flower1.png"" style=""width:200px; border:14px solid green;"">","null","","","","","","","","",""
"","image-keyboard-response","18","15289","0.0-18.0","30IQTZXKALSJBHNM1RTPY6CMD000XY","AV9GV051TQCZK","3I7KR83SNAZT1REYB2SRC49PCEEK9H","","331.20000000298023","img/flower1.png","76","331.69999999552965","3","1","3","1","1,0.333,0.333,0.333,1,0.333,0.333,0.333,1","1,0.333,0.333,0.333,1,0.333,0.333,0.333,1","1",""
"","html-keyboard-response","19","15605","0.0-19.0","30IQTZXKALSJBHNM1RTPY6CMD000XY","AV9GV051TQCZK","3I7KR83SNAZT1REYB2SRC49PCEEK9H","","null","<img src=""img/flower1.png"" style=""width:200px; border:14px solid green;"">","null","","","","","","","","",""
"","image-keyboard-response","20","16169","0.0-20.0","30IQTZXKALSJBHNM1RTPY6CMD000XY","AV9GV051TQCZK","3I7KR83SNAZT1REYB2SRC49PCEEK9H","","563.7000000029802","img/flower1.png","76","564.2000000029802","3","1","3","1","1,0.333,0.333,0.333,1,0.333,0.333,0.333,1","1,0.333,0.333,0.333,1,0.333,0.333,0.333,1","1",""
"","html-keyboard-response","21","16472","0.0-21.0","30IQTZXKALSJBHNM1RTPY6CMD000XY","AV9GV051TQCZK","3I7KR83SNAZT1REYB2SRC49PCEEK9H","","null","<img src=""img/flower1.png"" style=""width:200px; border:14px solid green;"">","null","","","","","","","","",""
"","image-keyboard-response","22","16985","0.0-22.0","30IQTZXKALSJBHNM1RTPY6CMD000XY","AV9GV051TQCZK","3I7KR83SNAZT1REYB2SRC49PCEEK9H","","512.8000000044703","img/flower5.png","76","513.2000000029802","3","0","2","1","1,0.333,0.333,0.333,1,0.333,0.333,0.333,1","1,0.333,0.333,0.333,1,0.333,0.333,0.333,1","1",""
"","html-keyboard-response","23","17301","0.0-23.0","30IQTZXKALSJBHNM1RTPY6CMD000XY","AV9GV051TQCZK","3I7KR83SNAZT1REYB2SRC49PCEEK9H","","null","<img src=""img/flower5.png"" style=""width:200px;border:14px solid red;"">","null","","","","","","","","",""
"","image-keyboard-response","24","17673","0.0-24.0","30IQTZXKALSJBHNM1RTPY6CMD000XY","AV9GV051TQCZK","3I7KR83SNAZT1REYB2SRC49PCEEK9H","","371.3999999985099","img/flower5.png","76","371.8999999985099","3","0","2","1","1,0.333,0.333,0.333,1,0.333,0.333,0.333,1","1,0.333,0.333,0.333,1,0.333,0.333,0.333,1","1",""
"","html-keyboard-response","25","17989","0.0-25.0","30IQTZXKALSJBHNM1RTPY6CMD000XY","AV9GV051TQCZK","3I7KR83SNAZT1REYB2SRC49PCEEK9H","","null","<img src=""img/flower5.png"" style=""width:200px;border:14px solid red;"">","null","","","","","","","","",""
"","image-keyboard-response","26","18457","0.0-26.0","30IQTZXKALSJBHNM1RTPY6CMD000XY","AV9GV051TQCZK","3I7KR83SNAZT1REYB2SRC49PCEEK9H","","467.5","img/flower5.png","75","467.8999999985099","2","1","2","1","1,0.333,0.333,0.333,1,0.333,0.333,0.333,1","1,0.333,0.333,0.333,1,0.333,0.333,0.333,1","1",""
"","html-keyboard-response","27","18761","0.0-27.0","30IQTZXKALSJBHNM1RTPY6CMD000XY","AV9GV051TQCZK","3I7KR83SNAZT1REYB2SRC49PCEEK9H","","null","<img src=""img/flower5.png"" style=""width:200px; border:14px solid green;"">","null","","","","","","","","",""
"","image-keyboard-response","28","19073","0.0-28.0","30IQTZXKALSJBHNM1RTPY6CMD000XY","AV9GV051TQCZK","3I7KR83SNAZT1REYB2SRC49PCEEK9H","","311.1000000014901","img/flower5.png","76","311.6000000014901","3","1","2","1","1,0.333,0.333,0.333,1,0.333,0.333,0.333,1","1,0.333,0.333,0.333,1,0.333,0.333,0.333,1","1",""
"","html-keyboard-response","29","19389","0.0-29.0","30IQTZXKALSJBHNM1RTPY6CMD000XY","AV9GV051TQCZK","3I7KR83SNAZT1REYB2SRC49PCEEK9H","","null","<img src=""img/flower5.png"" style=""width:200px; border:14px solid green;"">","null","","","","","","","","",""
"","image-keyboard-response","30","19745","0.0-30.0","30IQTZXKALSJBHNM1RTPY6CMD000XY","AV9GV051TQCZK","3I7KR83SNAZT1REYB2SRC49PCEEK9H","","355.6000000014901","img/flower1.png","75","356","2","0","3","1","1,0.333,0.333,0.333,1,0.333,0.333,0.333,1","1,0.333,0.333,0.333,1,0.333,0.333,0.333,1","1",""
"","html-keyboard-response","31","20052","0.0-31.0","30IQTZXKALSJBHNM1RTPY6CMD000XY","AV9GV051TQCZK","3I7KR83SNAZT1REYB2SRC49PCEEK9H","","null","<img src=""img/flower1.png"" style=""width:200px;border:14px solid red;"">","null","","","","","","","","",""
"","image-keyboard-response","32","20257","0.0-32.0","30IQTZXKALSJBHNM1RTPY6CMD000XY","AV9GV051TQCZK","3I7KR83SNAZT1REYB2SRC49PCEEK9H","","204.10000000149012","img/flower5.png","76","204.5","3","1","2","1","1,0.333,0.333,0.333,1,0.333,0.333,0.333,1","1,0.333,0.333,0.333,1,0.333,0.333,0.333,1","1",""
"","html-keyboard-response","33","20571","0.0-33.0","30IQTZXKALSJBHNM1RTPY6CMD000XY","AV9GV051TQCZK","3I7KR83SNAZT1REYB2SRC49PCEEK9H","","null","<img src=""img/flower5.png"" style=""width:200px; border:14px solid green;"">","null","","","","","","","","",""
"","image-keyboard-response","34","20841","0.0-34.0","30IQTZXKALSJBHNM1RTPY6CMD000XY","AV9GV051TQCZK","3I7KR83SNAZT1REYB2SRC49PCEEK9H","","268.80000000447035","img/flower1.png","75","269.3999999985099","2","0","3","1","1,0.333,0.333,0.333,1,0.333,0.333,0.333,1","1,0.333,0.333,0.333,1,0.333,0.333,0.333,1","1",""
"","html-keyboard-response","35","21156","0.0-35.0","30IQTZXKALSJBHNM1RTPY6CMD000XY","AV9GV051TQCZK","3I7KR83SNAZT1REYB2SRC49PCEEK9H","","null","<img src=""img/flower1.png"" style=""width:200px;border:14px solid red;"">","null","","","","","","","","",""
"","image-keyboard-response","36","21329","0.0-36.0","30IQTZXKALSJBHNM1RTPY6CMD000XY","AV9GV051TQCZK","3I7KR83SNAZT1REYB2SRC49PCEEK9H","","172.39999999850988","img/flower6.png","76","172.89999999850988","3","0","1","1","1,0.333,0.333,0.333,1,0.333,0.333,0.333,1","1,0.333,0.333,0.333,1,0.333,0.333,0.333,1","1",""
"","html-keyboard-response","37","21631","0.0-37.0","30IQTZXKALSJBHNM1RTPY6CMD000XY","AV9GV051TQCZK","3I7KR83SNAZT1REYB2SRC49PCEEK9H","","null","<img src=""img/flower6.png"" style=""width:200px;border:14px solid red;"">","null","","","","","","","","",""
"","image-keyboard-response","38","21889","0.0-38.0","30IQTZXKALSJBHNM1RTPY6CMD000XY","AV9GV051TQCZK","3I7KR83SNAZT1REYB2SRC49PCEEK9H","","257.6000000014901","img/flower6.png","74","257.90000000596046","1","1","1","1","1,0.333,0.333,0.333,1,0.333,0.333,0.333,1","1,0.333,0.333,0.333,1,0.333,0.333,0.333,1","1",""
"","html-keyboard-response","39","22196","0.0-39.0","30IQTZXKALSJBHNM1RTPY6CMD000XY","AV9GV051TQCZK","3I7KR83SNAZT1REYB2SRC49PCEEK9H","","null","<img src=""img/flower6.png"" style=""width:200px; border:14px solid green;"">","null","","","","","","","","",""
"","image-keyboard-response","40","22465","0.0-40.0","30IQTZXKALSJBHNM1RTPY6CMD000XY","AV9GV051TQCZK","3I7KR83SNAZT1REYB2SRC49PCEEK9H","","268.70000000298023","img/flower6.png","74","269","1","1","1","1","1,0.333,0.333,0.333,1,0.333,0.333,0.333,1","1,0.333,0.333,0.333,1,0.333,0.333,0.333,1","1",""
"","html-keyboard-response","41","22766","0.0-41.0","30IQTZXKALSJBHNM1RTPY6CMD000XY","AV9GV051TQCZK","3I7KR83SNAZT1REYB2SRC49PCEEK9H","","null","<img src=""img/flower6.png"" style=""width:200px; border:14px solid green;"">","null","","","","","","","","",""
"","image-keyboard-response","42","23025","0.0-42.0","30IQTZXKALSJBHNM1RTPY6CMD000XY","AV9GV051TQCZK","3I7KR83SNAZT1REYB2SRC49PCEEK9H","","258.20000000298023","img/flower5.png","74","258.70000000298023","1","0","2","1","1,0.333,0.333,0.333,1,0.333,0.333,0.333,1","1,0.333,0.333,0.333,1,0.333,0.333,0.333,1","1",""
"","html-keyboard-response","43","23326","0.0-43.0","30IQTZXKALSJBHNM1RTPY6CMD000XY","AV9GV051TQCZK","3I7KR83SNAZT1REYB2SRC49PCEEK9H","","null","<img src=""img/flower5.png"" style=""width:200px;border:14px solid red;"">","null","","","","","","","","",""
"","image-keyboard-response","44","23489","0.0-44.0","30IQTZXKALSJBHNM1RTPY6CMD000XY","AV9GV051TQCZK","3I7KR83SNAZT1REYB2SRC49PCEEK9H","","162.5","img/flower1.png","75","162.89999999850988","2","1","3","1","1,0.333,0.333,0.333,1,0.333,0.333,0.333,1","1,0.333,0.333,0.333,1,0.333,0.333,0.333,1","1",""
"","html-keyboard-response","45","23790","0.0-45.0","30IQTZXKALSJBHNM1RTPY6CMD000XY","AV9GV051TQCZK","3I7KR83SNAZT1REYB2SRC49PCEEK9H","","null","<img src=""img/flower1.png"" style=""width:200px; border:14px solid green;"">","null","","","","","","","","",""
"","image-keyboard-response","46","24001","0.0-46.0","30IQTZXKALSJBHNM1RTPY6CMD000XY","AV9GV051TQCZK","3I7KR83SNAZT1REYB2SRC49PCEEK9H","","210.30000000447035","img/flower6.png","76","210.60000000149012","3","0","1","1","1,0.333,0.333,0.333,1,0.333,0.333,0.333,1","1,0.333,0.333,0.333,1,0.333,0.333,0.333,1","1",""
"","html-keyboard-response","47","24302","0.0-47.0","30IQTZXKALSJBHNM1RTPY6CMD000XY","AV9GV051TQCZK","3I7KR83SNAZT1REYB2SRC49PCEEK9H","","null","<img src=""img/flower6.png"" style=""width:200px;border:14px solid red;"">","null","","","","","","","","",""
"","image-keyboard-response","48","24409","0.0-48.0","30IQTZXKALSJBHNM1RTPY6CMD000XY","AV9GV051TQCZK","3I7KR83SNAZT1REYB2SRC49PCEEK9H","","106.5","img/flower6.png","74","106.80000000447035","1","1","1","1","1,0.333,0.333,0.333,1,0.333,0.333,0.333,1","1,0.333,0.333,0.333,1,0.333,0.333,0.333,1","1",""
"","html-keyboard-response","49","24710","0.0-49.0","30IQTZXKALSJBHNM1RTPY6CMD000XY","AV9GV051TQCZK","3I7KR83SNAZT1REYB2SRC49PCEEK9H","","null","<img src=""img/flower6.png"" style=""width:200px; border:14px solid green;"">","null","","","","","","","","",""
"","image-keyboard-response","50","24849","0.0-50.0","30IQTZXKALSJBHNM1RTPY6CMD000XY","AV9GV051TQCZK","3I7KR83SNAZT1REYB2SRC49PCEEK9H","","138.30000000447035","img/flower1.png","75","138.79999999701977","2","0","3","1","1,0.333,0.333,0.333,1,0.333,0.333,0.333,1","1,0.333,0.333,0.333,1,0.333,0.333,0.333,1","1",""
"","html-keyboard-response","51","25150","0.0-51.0","30IQTZXKALSJBHNM1RTPY6CMD000XY","AV9GV051TQCZK","3I7KR83SNAZT1REYB2SRC49PCEEK9H","","null","<img src=""img/flower1.png"" style=""width:200px;border:14px solid red;"">","null","","","","","","","","",""
"","image-keyboard-response","52","25217","0.0-52.0","30IQTZXKALSJBHNM1RTPY6CMD000XY","AV9GV051TQCZK","3I7KR83SNAZT1REYB2SRC49PCEEK9H","","66.5","img/flower1.png","74","66.90000000596046","1","0","3","1","1,0.333,0.333,0.333,1,0.333,0.333,0.333,1","1,0.333,0.333,0.333,1,0.333,0.333,0.333,1","1",""
"","html-keyboard-response","53","25518","0.0-53.0","30IQTZXKALSJBHNM1RTPY6CMD000XY","AV9GV051TQCZK","3I7KR83SNAZT1REYB2SRC49PCEEK9H","","null","<img src=""img/flower1.png"" style=""width:200px;border:14px solid red;"">","null","","","","","","","","",""
"","image-keyboard-response","54","25681","0.0-54.0","30IQTZXKALSJBHNM1RTPY6CMD000XY","AV9GV051TQCZK","3I7KR83SNAZT1REYB2SRC49PCEEK9H","","162.5","img/flower6.png","76","162.90000000596046","3","0","1","1","1,0.333,0.333,0.333,1,0.333,0.333,0.333,1","1,0.333,0.333,0.333,1,0.333,0.333,0.333,1","1",""
"","html-keyboard-response","55","25983","0.0-55.0","30IQTZXKALSJBHNM1RTPY6CMD000XY","AV9GV051TQCZK","3I7KR83SNAZT1REYB2SRC49PCEEK9H","","null","<img src=""img/flower6.png"" style=""width:200px;border:14px solid red;"">","null","","","","","","","","",""
"","image-keyboard-response","56","26049","0.0-56.0","30IQTZXKALSJBHNM1RTPY6CMD000XY","AV9GV051TQCZK","3I7KR83SNAZT1REYB2SRC49PCEEK9H","","65.5","img/flower1.png","75","66","2","0","3","1","1,0.333,0.333,0.333,1,0.333,0.333,0.333,1","1,0.333,0.333,0.333,1,0.333,0.333,0.333,1","1",""
"","html-keyboard-response","57","26350","0.0-57.0","30IQTZXKALSJBHNM1RTPY6CMD000XY","AV9GV051TQCZK","3I7KR83SNAZT1REYB2SRC49PCEEK9H","","null","<img src=""img/flower1.png"" style=""width:200px;border:14px solid red;"">","null","","","","","","","","",""
"","image-keyboard-response","58","26529","0.0-58.0","30IQTZXKALSJBHNM1RTPY6CMD000XY","AV9GV051TQCZK","3I7KR83SNAZT1REYB2SRC49PCEEK9H","","178.39999999850988","img/flower5.png","74","178.80000000447035","1","0","2","1","1,0.333,0.333,0.333,1,0.333,0.333,0.333,1","1,0.333,0.333,0.333,1,0.333,0.333,0.333,1","1",""
"","html-keyboard-response","59","26830","0.0-59.0","30IQTZXKALSJBHNM1RTPY6CMD000XY","AV9GV051TQCZK","3I7KR83SNAZT1REYB2SRC49PCEEK9H","","null","<img src=""img/flower5.png"" style=""width:200px;border:14px solid red;"">","null","","","","","","","","",""
"","image-keyboard-response","60","27009","0.0-60.0","30IQTZXKALSJBHNM1RTPY6CMD000XY","AV9GV051TQCZK","3I7KR83SNAZT1REYB2SRC49PCEEK9H","","178.20000000298023","img/flower5.png","75","178.70000000298023","2","1","2","1","1,0.333,0.333,0.333,1,0.333,0.333,0.333,1","1,0.333,0.333,0.333,1,0.333,0.333,0.333,1","1",""
"","html-keyboard-response","61","27311","0.0-61.0","30IQTZXKALSJBHNM1RTPY6CMD000XY","AV9GV051TQCZK","3I7KR83SNAZT1REYB2SRC49PCEEK9H","","null","<img src=""img/flower5.png"" style=""width:200px; border:14px solid green;"">","null","","","","","","","","",""
"","image-keyboard-response","62","27449","0.0-62.0","30IQTZXKALSJBHNM1RTPY6CMD000XY","AV9GV051TQCZK","3I7KR83SNAZT1REYB2SRC49PCEEK9H","","137.10000000149012","img/flower6.png","75","137.5","2","0","1","1","1,0.333,0.333,0.333,1,0.333,0.333,0.333,1","1,0.333,0.333,0.333,1,0.333,0.333,0.333,1","1",""
"","html-keyboard-response","63","27750","0.0-63.0","30IQTZXKALSJBHNM1RTPY6CMD000XY","AV9GV051TQCZK","3I7KR83SNAZT1REYB2SRC49PCEEK9H","","null","<img src=""img/flower6.png"" style=""width:200px;border:14px solid red;"">","null","","","","","","","","",""
"","image-keyboard-response","64","27777","0.0-64.0","30IQTZXKALSJBHNM1RTPY6CMD000XY","AV9GV051TQCZK","3I7KR83SNAZT1REYB2SRC49PCEEK9H","","26.400000005960464","img/flower6.png","76","26.80000000447035","3","0","1","1","1,0.333,0.333,0.333,1,0.333,0.333,0.333,1","1,0.333,0.333,0.333,1,0.333,0.333,0.333,1","1",""
"","html-keyboard-response","65","28086","0.0-65.0","30IQTZXKALSJBHNM1RTPY6CMD000XY","AV9GV051TQCZK","3I7KR83SNAZT1REYB2SRC49PCEEK9H","","null","<img src=""img/flower6.png"" style=""width:200px;border:14px solid red;"">","null","","","","","","","","",""
"","image-keyboard-response","66","28233","0.0-66.0","30IQTZXKALSJBHNM1RTPY6CMD000XY","AV9GV051TQCZK","3I7KR83SNAZT1REYB2SRC49PCEEK9H","","146.20000000298023","img/flower6.png","74","146.70000000298023","1","1","1","1","1,0.333,0.333,0.333,1,0.333,0.333,0.333,1","1,0.333,0.333,0.333,1,0.333,0.333,0.333,1","1",""
"","html-keyboard-response","67","28534","0.0-67.0","30IQTZXKALSJBHNM1RTPY6CMD000XY","AV9GV051TQCZK","3I7KR83SNAZT1REYB2SRC49PCEEK9H","","null","<img src=""img/flower6.png"" style=""width:200px; border:14px solid green;"">","null","","","","","","","","",""
"","image-keyboard-response","68","28641","0.0-68.0","30IQTZXKALSJBHNM1RTPY6CMD000XY","AV9GV051TQCZK","3I7KR83SNAZT1REYB2SRC49PCEEK9H","","106.10000000149012","img/flower6.png","76","106.59999999403954","3","0","1","1","1,0.333,0.333,0.333,1,0.333,0.333,0.333,1","1,0.333,0.333,0.333,1,0.333,0.333,0.333,1","1",""
"","html-keyboard-response","69","28941","0.0-69.0","30IQTZXKALSJBHNM1RTPY6CMD000XY","AV9GV051TQCZK","3I7KR83SNAZT1REYB2SRC49PCEEK9H","","null","<img src=""img/flower6.png"" style=""width:200px;border:14px solid red;"">","null","","","","","","","","",""
"","image-keyboard-response","70","28977","0.0-70.0","30IQTZXKALSJBHNM1RTPY6CMD000XY","AV9GV051TQCZK","3I7KR83SNAZT1REYB2SRC49PCEEK9H","","34.899999998509884","img/flower1.png","74","35.30000000447035","1","0","3","1","1,0.333,0.333,0.333,1,0.333,0.333,0.333,1","1,0.333,0.333,0.333,1,0.333,0.333,0.333,1","1",""
"","html-keyboard-response","71","29278","0.0-71.0","30IQTZXKALSJBHNM1RTPY6CMD000XY","AV9GV051TQCZK","3I7KR83SNAZT1REYB2SRC49PCEEK9H","","null","<img src=""img/flower1.png"" style=""width:200px;border:14px solid red;"">","null","","","","","","","","",""
"","image-keyboard-response","72","29585","0.0-72.0","30IQTZXKALSJBHNM1RTPY6CMD000XY","AV9GV051TQCZK","3I7KR83SNAZT1REYB2SRC49PCEEK9H","","306.5","img/flower1.png","74","306.80000000447035","1","0","3","1","1,0.333,0.333,0.333,1,0.333,0.333,0.333,1","1,0.333,0.333,0.333,1,0.333,0.333,0.333,1","1",""
"","html-keyboard-response","73","29901","0.0-73.0","30IQTZXKALSJBHNM1RTPY6CMD000XY","AV9GV051TQCZK","3I7KR83SNAZT1REYB2SRC49PCEEK9H","","null","<img src=""img/flower1.png"" style=""width:200px;border:14px solid red;"">","null","","","","","","","","",""
"","image-keyboard-response","74","29961","0.0-74.0","30IQTZXKALSJBHNM1RTPY6CMD000XY","AV9GV051TQCZK","3I7KR83SNAZT1REYB2SRC49PCEEK9H","","59.30000000447035","img/flower1.png","76","59.70000000298023","3","1","3","1","1,0.333,0.333,0.333,1,0.333,0.333,0.333,1","1,0.333,0.333,0.333,1,0.333,0.333,0.333,1","1",""
"","html-keyboard-response","75","30262","0.0-75.0","30IQTZXKALSJBHNM1RTPY6CMD000XY","AV9GV051TQCZK","3I7KR83SNAZT1REYB2SRC49PCEEK9H","","null","<img src=""img/flower1.png"" style=""width:200px; border:14px solid green;"">","null","","","","","","","","",""
"","image-keyboard-response","76","30465","0.0-76.0","30IQTZXKALSJBHNM1RTPY6CMD000XY","AV9GV051TQCZK","3I7KR83SNAZT1REYB2SRC49PCEEK9H","","201.89999999850988","img/flower5.png","76","202.30000000447035","3","0","2","1","1,0.333,0.333,0.333,1,0.333,0.333,0.333,1","1,0.333,0.333,0.333,1,0.333,0.333,0.333,1","1",""
"","html-keyboard-response","77","30766","0.0-77.0","30IQTZXKALSJBHNM1RTPY6CMD000XY","AV9GV051TQCZK","3I7KR83SNAZT1REYB2SRC49PCEEK9H","","null","<img src=""img/flower5.png"" style=""width:200px;border:14px solid red;"">","null","","","","","","","","",""
"","image-keyboard-response","78","31033","0.0-78.0","30IQTZXKALSJBHNM1RTPY6CMD000XY","AV9GV051TQCZK","3I7KR83SNAZT1REYB2SRC49PCEEK9H","","266.5","img/flower1.png","74","266.90000000596046","1","0","3","1","1,0.333,0.333,0.333,1,0.333,0.333,0.333,1","1,0.333,0.333,0.333,1,0.333,0.333,0.333,1","1",""
"","html-keyboard-response","79","31333","0.0-79.0","30IQTZXKALSJBHNM1RTPY6CMD000XY","AV9GV051TQCZK","3I7KR83SNAZT1REYB2SRC49PCEEK9H","","null","<img src=""img/flower1.png"" style=""width:200px;border:14px solid red;"">","null","","","","","","","","",""
"","image-keyboard-response","80","31601","0.0-80.0","30IQTZXKALSJBHNM1RTPY6CMD000XY","AV9GV051TQCZK","3I7KR83SNAZT1REYB2SRC49PCEEK9H","","267","img/flower1.png","74","267.5","1","0","3","1","1,0.333,0.333,0.333,1,0.333,0.333,0.333,1","1,0.333,0.333,0.333,1,0.333,0.333,0.333,1","1",""
"","html-keyboard-response","81","31902","0.0-81.0","30IQTZXKALSJBHNM1RTPY6CMD000XY","AV9GV051TQCZK","3I7KR83SNAZT1REYB2SRC49PCEEK9H","","null","<img src=""img/flower1.png"" style=""width:200px;border:14px solid red;"">","null","","","","","","","","",""
"","image-keyboard-response","82","31921","0.0-82.0","30IQTZXKALSJBHNM1RTPY6CMD000XY","AV9GV051TQCZK","3I7KR83SNAZT1REYB2SRC49PCEEK9H","","17.899999998509884","img/flower6.png","75","18.30000000447035","2","0","1","1","1,0.333,0.333,0.333,1,0.333,0.333,0.333,1","1,0.333,0.333,0.333,1,0.333,0.333,0.333,1","1",""
"","html-keyboard-response","83","32222","0.0-83.0","30IQTZXKALSJBHNM1RTPY6CMD000XY","AV9GV051TQCZK","3I7KR83SNAZT1REYB2SRC49PCEEK9H","","null","<img src=""img/flower6.png"" style=""width:200px;border:14px solid red;"">","null","","","","","","","","",""
"","image-keyboard-response","84","32657","0.0-84.0","30IQTZXKALSJBHNM1RTPY6CMD000XY","AV9GV051TQCZK","3I7KR83SNAZT1REYB2SRC49PCEEK9H","","434.6000000014901","img/flower5.png","76","435.1000000014901","3","0","2","1","1,0.333,0.333,0.333,1,0.333,0.333,0.333,1","1,0.333,0.333,0.333,1,0.333,0.333,0.333,1","1",""
"","html-keyboard-response","85","32957","0.0-85.0","30IQTZXKALSJBHNM1RTPY6CMD000XY","AV9GV051TQCZK","3I7KR83SNAZT1REYB2SRC49PCEEK9H","","null","<img src=""img/flower5.png"" style=""width:200px;border:14px solid red;"">","null","","","","","","","","",""
"","image-keyboard-response","86","33073","0.0-86.0","30IQTZXKALSJBHNM1RTPY6CMD000XY","AV9GV051TQCZK","3I7KR83SNAZT1REYB2SRC49PCEEK9H","","114.89999999850988","img/flower1.png","74","115.20000000298023","1","0","3","1","1,0.333,0.333,0.333,1,0.333,0.333,0.333,1","1,0.333,0.333,0.333,1,0.333,0.333,0.333,1","1",""
"","html-keyboard-response","87","33374","0.0-87.0","30IQTZXKALSJBHNM1RTPY6CMD000XY","AV9GV051TQCZK","3I7KR83SNAZT1REYB2SRC49PCEEK9H","","null","<img src=""img/flower1.png"" style=""width:200px;border:14px solid red;"">","null","","","","","","","","",""
"","image-keyboard-response","88","33425","0.0-88.0","30IQTZXKALSJBHNM1RTPY6CMD000XY","AV9GV051TQCZK","3I7KR83SNAZT1REYB2SRC49PCEEK9H","","50.600000001490116","img/flower5.png","75","51.19999999552965","2","1","2","1","1,0.333,0.333,0.333,1,0.333,0.333,0.333,1","1,0.333,0.333,0.333,1,0.333,0.333,0.333,1","1",""
"","html-keyboard-response","89","33726","0.0-89.0","30IQTZXKALSJBHNM1RTPY6CMD000XY","AV9GV051TQCZK","3I7KR83SNAZT1REYB2SRC49PCEEK9H","","null","<img src=""img/flower5.png"" style=""width:200px; border:14px solid green;"">","null","","","","","","","","",""
"","image-keyboard-response","90","33993","0.0-90.0","30IQTZXKALSJBHNM1RTPY6CMD000XY","AV9GV051TQCZK","3I7KR83SNAZT1REYB2SRC49PCEEK9H","","266.1000000014901","img/flower1.png","75","266.5","2","1","3","1","1,0.333,0.333,0.333,1,0.333,0.333,0.333,1","1,0.333,0.333,0.333,1,0.333,0.333,0.333,1","1",""
"","html-keyboard-response","91","34294","0.0-91.0","30IQTZXKALSJBHNM1RTPY6CMD000XY","AV9GV051TQCZK","3I7KR83SNAZT1REYB2SRC49PCEEK9H","","null","<img src=""img/flower1.png"" style=""width:200px; border:14px solid green;"">","null","","","","","","","","",""
"","image-keyboard-response","92","34457","0.0-92.0","30IQTZXKALSJBHNM1RTPY6CMD000XY","AV9GV051TQCZK","3I7KR83SNAZT1REYB2SRC49PCEEK9H","","162.70000000298023","img/flower1.png","76","163.19999999552965","3","1","3","1","1,0.333,0.333,0.333,1,0.333,0.333,0.333,1","1,0.333,0.333,0.333,1,0.333,0.333,0.333,1","1",""
"","html-keyboard-response","93","34758","0.0-93.0","30IQTZXKALSJBHNM1RTPY6CMD000XY","AV9GV051TQCZK","3I7KR83SNAZT1REYB2SRC49PCEEK9H","","null","<img src=""img/flower1.png"" style=""width:200px; border:14px solid green;"">","null","","","","","","","","",""
"","image-keyboard-response","94","34825","0.0-94.0","30IQTZXKALSJBHNM1RTPY6CMD000XY","AV9GV051TQCZK","3I7KR83SNAZT1REYB2SRC49PCEEK9H","","66.79999999701977","img/flower5.png","75","67.20000000298023","2","1","2","1","1,0.333,0.333,0.333,1,0.333,0.333,0.333,1","1,0.333,0.333,0.333,1,0.333,0.333,0.333,1","1",""
"","html-keyboard-response","95","35127","0.0-95.0","30IQTZXKALSJBHNM1RTPY6CMD000XY","AV9GV051TQCZK","3I7KR83SNAZT1REYB2SRC49PCEEK9H","","null","<img src=""img/flower5.png"" style=""width:200px; border:14px solid green;"">","null","","","","","","","","",""
"","image-keyboard-response","96","35249","0.0-96.0","30IQTZXKALSJBHNM1RTPY6CMD000XY","AV9GV051TQCZK","3I7KR83SNAZT1REYB2SRC49PCEEK9H","","121.5","img/flower5.png","76","122.10000000149012","3","1","2","1","1,0.333,0.333,0.333,1,0.333,0.333,0.333,1","1,0.333,0.333,0.333,1,0.333,0.333,0.333,1","1",""
"","html-keyboard-response","97","35550","0.0-97.0","30IQTZXKALSJBHNM1RTPY6CMD000XY","AV9GV051TQCZK","3I7KR83SNAZT1REYB2SRC49PCEEK9H","","null","<img src=""img/flower5.png"" style=""width:200px; border:14px solid green;"">","null","","","","","","","","",""
"","image-keyboard-response","98","35985","0.0-98.0","30IQTZXKALSJBHNM1RTPY6CMD000XY","AV9GV051TQCZK","3I7KR83SNAZT1REYB2SRC49PCEEK9H","","434.1000000014901","img/flower1.png","75","434.59999999403954","2","0","3","1","1,0.333,0.333,0.333,1,0.333,0.333,0.333,1","1,0.333,0.333,0.333,1,0.333,0.333,0.333,1","1",""
"","html-keyboard-response","99","36286","0.0-99.0","30IQTZXKALSJBHNM1RTPY6CMD000XY","AV9GV051TQCZK","3I7KR83SNAZT1REYB2SRC49PCEEK9H","","null","<img src=""img/flower1.png"" style=""width:200px;border:14px solid red;"">","null","","","","","","","","",""
"","image-keyboard-response","100","36641","0.0-100.0","30IQTZXKALSJBHNM1RTPY6CMD000XY","AV9GV051TQCZK","3I7KR83SNAZT1REYB2SRC49PCEEK9H","","354.3999999985099","img/flower6.png","76","354.80000000447035","3","0","1","1","1,0.333,0.333,0.333,1,0.333,0.333,0.333,1","1,0.333,0.333,0.333,1,0.333,0.333,0.333,1","1",""
"","html-keyboard-response","101","36941","0.0-101.0","30IQTZXKALSJBHNM1RTPY6CMD000XY","AV9GV051TQCZK","3I7KR83SNAZT1REYB2SRC49PCEEK9H","","null","<img src=""img/flower6.png"" style=""width:200px;border:14px solid red;"">","null","","","","","","","","",""
"","image-keyboard-response","102","37193","0.0-102.0","30IQTZXKALSJBHNM1RTPY6CMD000XY","AV9GV051TQCZK","3I7KR83SNAZT1REYB2SRC49PCEEK9H","","250.89999999850988","img/flower6.png","75","251.30000000447035","2","0","1","1","1,0.333,0.333,0.333,1,0.333,0.333,0.333,1","1,0.333,0.333,0.333,1,0.333,0.333,0.333,1","1",""
"","html-keyboard-response","103","37493","0.0-103.0","30IQTZXKALSJBHNM1RTPY6CMD000XY","AV9GV051TQCZK","3I7KR83SNAZT1REYB2SRC49PCEEK9H","","null","<img src=""img/flower6.png"" style=""width:200px;border:14px solid red;"">","null","","","","","","","","",""
"","image-keyboard-response","104","37889","0.0-104.0","30IQTZXKALSJBHNM1RTPY6CMD000XY","AV9GV051TQCZK","3I7KR83SNAZT1REYB2SRC49PCEEK9H","","395.1000000014901","img/flower1.png","75","395.5","2","0","3","1","1,0.333,0.333,0.333,1,0.333,0.333,0.333,1","1,0.333,0.333,0.333,1,0.333,0.333,0.333,1","1",""
"","html-keyboard-response","105","38190","0.0-105.0","30IQTZXKALSJBHNM1RTPY6CMD000XY","AV9GV051TQCZK","3I7KR83SNAZT1REYB2SRC49PCEEK9H","","null","<img src=""img/flower1.png"" style=""width:200px;border:14px solid red;"">","null","","","","","","","","",""
"","image-keyboard-response","106","38345","0.0-106.0","30IQTZXKALSJBHNM1RTPY6CMD000XY","AV9GV051TQCZK","3I7KR83SNAZT1REYB2SRC49PCEEK9H","","154.20000000298023","img/flower6.png","76","154.70000000298023","3","0","1","1","1,0.333,0.333,0.333,1,0.333,0.333,0.333,1","1,0.333,0.333,0.333,1,0.333,0.333,0.333,1","1",""
"","html-keyboard-response","107","38646","0.0-107.0","30IQTZXKALSJBHNM1RTPY6CMD000XY","AV9GV051TQCZK","3I7KR83SNAZT1REYB2SRC49PCEEK9H","","null","<img src=""img/flower6.png"" style=""width:200px;border:14px solid red;"">","null","","","","","","","","",""
"","image-keyboard-response","108","38697","0.0-108.0","30IQTZXKALSJBHNM1RTPY6CMD000XY","AV9GV051TQCZK","3I7KR83SNAZT1REYB2SRC49PCEEK9H","","50.5","img/flower5.png","76","51","3","0","2","1","1,0.333,0.333,0.333,1,0.333,0.333,0.333,1","1,0.333,0.333,0.333,1,0.333,0.333,0.333,1","1",""
"","html-keyboard-response","109","38998","0.0-109.0","30IQTZXKALSJBHNM1RTPY6CMD000XY","AV9GV051TQCZK","3I7KR83SNAZT1REYB2SRC49PCEEK9H","","null","<img src=""img/flower5.png"" style=""width:200px;border:14px solid red;"">","null","","","","","","","","",""
"","image-keyboard-response","110","39073","0.0-110.0","30IQTZXKALSJBHNM1RTPY6CMD000XY","AV9GV051TQCZK","3I7KR83SNAZT1REYB2SRC49PCEEK9H","","74.39999999850988","img/flower5.png","75","74.80000000447035","2","1","2","1","1,0.333,0.333,0.333,1,0.333,0.333,0.333,1","1,0.333,0.333,0.333,1,0.333,0.333,0.333,1","1",""
"","html-keyboard-response","111","39374","0.0-111.0","30IQTZXKALSJBHNM1RTPY6CMD000XY","AV9GV051TQCZK","3I7KR83SNAZT1REYB2SRC49PCEEK9H","","null","<img src=""img/flower5.png"" style=""width:200px; border:14px solid green;"">","null","","","","","","","","",""
"","image-keyboard-response","112","39569","0.0-112.0","30IQTZXKALSJBHNM1RTPY6CMD000XY","AV9GV051TQCZK","3I7KR83SNAZT1REYB2SRC49PCEEK9H","","194.39999999850988","img/flower5.png","76","194.80000000447035","3","0","2","1","1,0.333,0.333,0.333,1,0.333,0.333,0.333,1","1,0.333,0.333,0.333,1,0.333,0.333,0.333,1","1",""
"","html-keyboard-response","113","39870","0.0-113.0","30IQTZXKALSJBHNM1RTPY6CMD000XY","AV9GV051TQCZK","3I7KR83SNAZT1REYB2SRC49PCEEK9H","","null","<img src=""img/flower5.png"" style=""width:200px;border:14px solid red;"">","null","","","","","","","","",""
"","image-keyboard-response","114","40129","0.0-114.0","30IQTZXKALSJBHNM1RTPY6CMD000XY","AV9GV051TQCZK","3I7KR83SNAZT1REYB2SRC49PCEEK9H","","258.20000000298023","img/flower5.png","75","258.69999999552965","2","1","2","1","1,0.333,0.333,0.333,1,0.333,0.333,0.333,1","1,0.333,0.333,0.333,1,0.333,0.333,0.333,1","1",""
"","html-keyboard-response","115","40431","0.0-115.0","30IQTZXKALSJBHNM1RTPY6CMD000XY","AV9GV051TQCZK","3I7KR83SNAZT1REYB2SRC49PCEEK9H","","null","<img src=""img/flower5.png"" style=""width:200px; border:14px solid green;"">","null","","","","","","","","",""
"","image-keyboard-response","116","40481","0.0-116.0","30IQTZXKALSJBHNM1RTPY6CMD000XY","AV9GV051TQCZK","3I7KR83SNAZT1REYB2SRC49PCEEK9H","","49.70000000298023","img/flower5.png","75","50","2","1","2","1","1,0.333,0.333,0.333,1,0.333,0.333,0.333,1","1,0.333,0.333,0.333,1,0.333,0.333,0.333,1","1",""
"","html-keyboard-response","117","40783","0.0-117.0","30IQTZXKALSJBHNM1RTPY6CMD000XY","AV9GV051TQCZK","3I7KR83SNAZT1REYB2SRC49PCEEK9H","","null","<img src=""img/flower5.png"" style=""width:200px; border:14px solid green;"">","null","","","","","","","","",""
"","image-keyboard-response","118","40793","0.0-118.0","30IQTZXKALSJBHNM1RTPY6CMD000XY","AV9GV051TQCZK","3I7KR83SNAZT1REYB2SRC49PCEEK9H","","9.5","img/flower1.png","76","9.900000005960464","3","1","3","1","1,0.333,0.333,0.333,1,0.333,0.333,0.333,1","1,0.333,0.333,0.333,1,0.333,0.333,0.333,1","1",""
"","html-keyboard-response","119","41094","0.0-119.0","30IQTZXKALSJBHNM1RTPY6CMD000XY","AV9GV051TQCZK","3I7KR83SNAZT1REYB2SRC49PCEEK9H","","null","<img src=""img/flower1.png"" style=""width:200px; border:14px solid green;"">","null","","","","","","","","",""
"","image-keyboard-response","120","41457","0.0-120.0","30IQTZXKALSJBHNM1RTPY6CMD000XY","AV9GV051TQCZK","3I7KR83SNAZT1REYB2SRC49PCEEK9H","","362.1000000014901","img/flower5.png","75","362.5","2","1","2","1","1,0.333,0.333,0.333,1,0.333,0.333,0.333,1","1,0.333,0.333,0.333,1,0.333,0.333,0.333,1","1",""
"","html-keyboard-response","121","41758","0.0-121.0","30IQTZXKALSJBHNM1RTPY6CMD000XY","AV9GV051TQCZK","3I7KR83SNAZT1REYB2SRC49PCEEK9H","","null","<img src=""img/flower5.png"" style=""width:200px; border:14px solid green;"">","null","","","","","","","","",""
"","image-keyboard-response","122","42185","0.0-122.0","30IQTZXKALSJBHNM1RTPY6CMD000XY","AV9GV051TQCZK","3I7KR83SNAZT1REYB2SRC49PCEEK9H","","426.5","img/flower6.png","76","427","3","1","1","1","1,0.333,0.333,0.333,1,0.333,0.333,0.333,1","1,0.333,0.333,0.333,1,0.333,0.333,0.333,1","1",""
"","html-keyboard-response","123","42487","0.0-123.0","30IQTZXKALSJBHNM1RTPY6CMD000XY","AV9GV051TQCZK","3I7KR83SNAZT1REYB2SRC49PCEEK9H","","null","<img src=""img/flower6.png"" style=""width:200px; border:14px solid green;"">","null","","","","","","","","",""
"","image-keyboard-response","124","42809","0.0-124.0","30IQTZXKALSJBHNM1RTPY6CMD000XY","AV9GV051TQCZK","3I7KR83SNAZT1REYB2SRC49PCEEK9H","","321.80000000447035","img/flower5.png","75","322.20000000298023","2","1","2","1","1,0.333,0.333,0.333,1,0.333,0.333,0.333,1","1,0.333,0.333,0.333,1,0.333,0.333,0.333,1","1",""
"","html-keyboard-response","125","43111","0.0-125.0","30IQTZXKALSJBHNM1RTPY6CMD000XY","AV9GV051TQCZK","3I7KR83SNAZT1REYB2SRC49PCEEK9H","","null","<img src=""img/flower5.png"" style=""width:200px; border:14px solid green;"">","null","","","","","","","","",""
"","image-keyboard-response","126","43297","0.0-126.0","30IQTZXKALSJBHNM1RTPY6CMD000XY","AV9GV051TQCZK","3I7KR83SNAZT1REYB2SRC49PCEEK9H","","185.90000000596046","img/flower6.png","75","186.29999999701977","2","0","1","1","1,0.333,0.333,0.333,1,0.333,0.333,0.333,1","1,0.333,0.333,0.333,1,0.333,0.333,0.333,1","1",""
"","html-keyboard-response","127","43598","0.0-127.0","30IQTZXKALSJBHNM1RTPY6CMD000XY","AV9GV051TQCZK","3I7KR83SNAZT1REYB2SRC49PCEEK9H","","null","<img src=""img/flower6.png"" style=""width:200px;border:14px solid red;"">","null","","","","","","","","",""
"","image-keyboard-response","128","43745","0.0-128.0","30IQTZXKALSJBHNM1RTPY6CMD000XY","AV9GV051TQCZK","3I7KR83SNAZT1REYB2SRC49PCEEK9H","","146","img/flower6.png","76","146.30000000447035","3","1","1","1","1,0.333,0.333,0.333,1,0.333,0.333,0.333,1","1,0.333,0.333,0.333,1,0.333,0.333,0.333,1","1",""
"","html-keyboard-response","129","44054","0.0-129.0","30IQTZXKALSJBHNM1RTPY6CMD000XY","AV9GV051TQCZK","3I7KR83SNAZT1REYB2SRC49PCEEK9H","","null","<img src=""img/flower6.png"" style=""width:200px; border:14px solid green;"">","null","","","","","","","","",""
"","image-keyboard-response","130","44521","0.0-130.0","30IQTZXKALSJBHNM1RTPY6CMD000XY","AV9GV051TQCZK","3I7KR83SNAZT1REYB2SRC49PCEEK9H","","466.30000000447035","img/flower1.png","75","466.69999999552965","2","0","3","1","1,0.333,0.333,0.333,1,0.333,0.333,0.333,1","1,0.333,0.333,0.333,1,0.333,0.333,0.333,1","1",""
"","html-keyboard-response","131","44822","0.0-131.0","30IQTZXKALSJBHNM1RTPY6CMD000XY","AV9GV051TQCZK","3I7KR83SNAZT1REYB2SRC49PCEEK9H","","null","<img src=""img/flower1.png"" style=""width:200px;border:14px solid red;"">","null","","","","","","","","",""
"","image-keyboard-response","132","44905","0.0-132.0","30IQTZXKALSJBHNM1RTPY6CMD000XY","AV9GV051TQCZK","3I7KR83SNAZT1REYB2SRC49PCEEK9H","","82","img/flower6.png","75","82.30000000447035","2","0","1","1","1,0.333,0.333,0.333,1,0.333,0.333,0.333,1","1,0.333,0.333,0.333,1,0.333,0.333,0.333,1","1",""
"","html-keyboard-response","133","45205","0.0-133.0","30IQTZXKALSJBHNM1RTPY6CMD000XY","AV9GV051TQCZK","3I7KR83SNAZT1REYB2SRC49PCEEK9H","","null","<img src=""img/flower6.png"" style=""width:200px;border:14px solid red;"">","null","","","","","","","","",""
"","image-keyboard-response","134","45681","0.0-134.0","30IQTZXKALSJBHNM1RTPY6CMD000XY","AV9GV051TQCZK","3I7KR83SNAZT1REYB2SRC49PCEEK9H","","474.80000000447035","img/flower1.png","76","475.3999999985099","3","1","3","1","1,0.333,0.333,0.333,1,0.333,0.333,0.333,1","1,0.333,0.333,0.333,1,0.333,0.333,0.333,1","1",""
"","html-keyboard-response","135","45982","0.0-135.0","30IQTZXKALSJBHNM1RTPY6CMD000XY","AV9GV051TQCZK","3I7KR83SNAZT1REYB2SRC49PCEEK9H","","null","<img src=""img/flower1.png"" style=""width:200px; border:14px solid green;"">","null","","","","","","","","",""
"","image-keyboard-response","136","46321","0.0-136.0","30IQTZXKALSJBHNM1RTPY6CMD000XY","AV9GV051TQCZK","3I7KR83SNAZT1REYB2SRC49PCEEK9H","","338.1000000014901","img/flower1.png","76","338.40000000596046","3","1","3","1","1,0.333,0.333,0.333,1,0.333,0.333,0.333,1","1,0.333,0.333,0.333,1,0.333,0.333,0.333,1","1",""
"","html-keyboard-response","137","46622","0.0-137.0","30IQTZXKALSJBHNM1RTPY6CMD000XY","AV9GV051TQCZK","3I7KR83SNAZT1REYB2SRC49PCEEK9H","","null","<img src=""img/flower1.png"" style=""width:200px; border:14px solid green;"">","null","","","","","","","","",""
"","image-keyboard-response","138","46849","0.0-138.0","30IQTZXKALSJBHNM1RTPY6CMD000XY","AV9GV051TQCZK","3I7KR83SNAZT1REYB2SRC49PCEEK9H","","226","img/flower1.png","76","226.40000000596046","3","1","3","1","1,0.333,0.333,0.333,1,0.333,0.333,0.333,1","1,0.333,0.333,0.333,1,0.333,0.333,0.333,1","1",""
"","html-keyboard-response","139","47150","0.0-139.0","30IQTZXKALSJBHNM1RTPY6CMD000XY","AV9GV051TQCZK","3I7KR83SNAZT1REYB2SRC49PCEEK9H","","null","<img src=""img/flower1.png"" style=""width:200px; border:14px solid green;"">","null","","","","","","","","",""
"","image-keyboard-response","140","47265","0.0-140.0","30IQTZXKALSJBHNM1RTPY6CMD000XY","AV9GV051TQCZK","3I7KR83SNAZT1REYB2SRC49PCEEK9H","","114.60000000149012","img/flower6.png","75","115.10000000149012","2","0","1","1","1,0.333,0.333,0.333,1,0.333,0.333,0.333,1","1,0.333,0.333,0.333,1,0.333,0.333,0.333,1","1",""
"","html-keyboard-response","141","47566","0.0-141.0","30IQTZXKALSJBHNM1RTPY6CMD000XY","AV9GV051TQCZK","3I7KR83SNAZT1REYB2SRC49PCEEK9H","","null","<img src=""img/flower6.png"" style=""width:200px;border:14px solid red;"">","null","","","","","","","","",""
"","image-keyboard-response","142","47689","0.0-142.0","30IQTZXKALSJBHNM1RTPY6CMD000XY","AV9GV051TQCZK","3I7KR83SNAZT1REYB2SRC49PCEEK9H","","122.5","img/flower6.png","76","123","3","0","1","1","1,0.333,0.333,0.333,1,0.333,0.333,0.333,1","1,0.333,0.333,0.333,1,0.333,0.333,0.333,1","1",""
"","html-keyboard-response","143","47989","0.0-143.0","30IQTZXKALSJBHNM1RTPY6CMD000XY","AV9GV051TQCZK","3I7KR83SNAZT1REYB2SRC49PCEEK9H","","null","<img src=""img/flower6.png"" style=""width:200px;border:14px solid red;"">","null","","","","","","","","",""
"","image-keyboard-response","144","48233","0.0-144.0","30IQTZXKALSJBHNM1RTPY6CMD000XY","AV9GV051TQCZK","3I7KR83SNAZT1REYB2SRC49PCEEK9H","","242.90000000596046","img/flower6.png","76","243.20000000298023","3","0","1","1","1,0.333,0.333,0.333,1,0.333,0.333,0.333,1","1,0.333,0.333,0.333,1,0.333,0.333,0.333,1","1",""
"","html-keyboard-response","145","48534","0.0-145.0","30IQTZXKALSJBHNM1RTPY6CMD000XY","AV9GV051TQCZK","3I7KR83SNAZT1REYB2SRC49PCEEK9H","","null","<img src=""img/flower6.png"" style=""width:200px;border:14px solid red;"">","null","","","","","","","","",""
"","image-keyboard-response","146","48865","0.0-146.0","30IQTZXKALSJBHNM1RTPY6CMD000XY","AV9GV051TQCZK","3I7KR83SNAZT1REYB2SRC49PCEEK9H","","330","img/flower6.png","75","330.40000000596046","2","0","1","1","1,0.333,0.333,0.333,1,0.333,0.333,0.333,1","1,0.333,0.333,0.333,1,0.333,0.333,0.333,1","1",""
"","html-keyboard-response","147","49178","0.0-147.0","30IQTZXKALSJBHNM1RTPY6CMD000XY","AV9GV051TQCZK","3I7KR83SNAZT1REYB2SRC49PCEEK9H","","null","<img src=""img/flower6.png"" style=""width:200px;border:14px solid red;"">","null","","","","","","","","",""
"","image-keyboard-response","148","49329","0.0-148.0","30IQTZXKALSJBHNM1RTPY6CMD000XY","AV9GV051TQCZK","3I7KR83SNAZT1REYB2SRC49PCEEK9H","","150.70000000298023","img/flower5.png","75","151.10000000149012","2","1","2","1","1,0.333,0.333,0.333,1,0.333,0.333,0.333,1","1,0.333,0.333,0.333,1,0.333,0.333,0.333,1","1",""
"","html-keyboard-response","149","49631","0.0-149.0","30IQTZXKALSJBHNM1RTPY6CMD000XY","AV9GV051TQCZK","3I7KR83SNAZT1REYB2SRC49PCEEK9H","","null","<img src=""img/flower5.png"" style=""width:200px; border:14px solid green;"">","null","","","","","","","","",""
"","image-keyboard-response","150","49921","0.0-150.0","30IQTZXKALSJBHNM1RTPY6CMD000XY","AV9GV051TQCZK","3I7KR83SNAZT1REYB2SRC49PCEEK9H","","289.70000000298023","img/flower6.png","76","290.1000000014901","3","0","1","1","1,0.333,0.333,0.333,1,0.333,0.333,0.333,1","1,0.333,0.333,0.333,1,0.333,0.333,0.333,1","1",""
"","html-keyboard-response","151","50222","0.0-151.0","30IQTZXKALSJBHNM1RTPY6CMD000XY","AV9GV051TQCZK","3I7KR83SNAZT1REYB2SRC49PCEEK9H","","null","<img src=""img/flower6.png"" style=""width:200px;border:14px solid red;"">","null","","","","","","","","",""
"","image-keyboard-response","152","50969","0.0-152.0","30IQTZXKALSJBHNM1RTPY6CMD000XY","AV9GV051TQCZK","3I7KR83SNAZT1REYB2SRC49PCEEK9H","","746.3000000044703","img/flower5.png","75","746.6000000014901","2","1","2","1","1,0.333,0.333,0.333,1,0.333,0.333,0.333,1","1,0.333,0.333,0.333,1,0.333,0.333,0.333,1","1",""
"","html-keyboard-response","153","51270","0.0-153.0","30IQTZXKALSJBHNM1RTPY6CMD000XY","AV9GV051TQCZK","3I7KR83SNAZT1REYB2SRC49PCEEK9H","","null","<img src=""img/flower5.png"" style=""width:200px; border:14px solid green;"">","null","","","","","","","","",""
"","image-keyboard-response","154","51648","0.0-154.0","30IQTZXKALSJBHNM1RTPY6CMD000XY","AV9GV051TQCZK","3I7KR83SNAZT1REYB2SRC49PCEEK9H","","378.3999999985099","img/flower6.png","75","378.80000000447035","2","1","1","1","1,0.333,0.333,0.333,1,0.333,0.333,0.333,1","1,0.333,0.333,0.333,1,0.333,0.333,0.333,1","1",""
"","html-keyboard-response","155","51950","0.0-155.0","30IQTZXKALSJBHNM1RTPY6CMD000XY","AV9GV051TQCZK","3I7KR83SNAZT1REYB2SRC49PCEEK9H","","null","<img src=""img/flower6.png"" style=""width:200px; border:14px solid green;"">","null","","","","","","","","",""
"","image-keyboard-response","156","52217","0.0-156.0","30IQTZXKALSJBHNM1RTPY6CMD000XY","AV9GV051TQCZK","3I7KR83SNAZT1REYB2SRC49PCEEK9H","","266.59999999403954","img/flower1.png","75","267.5","2","0","3","1","1,0.333,0.333,0.333,1,0.333,0.333,0.333,1","1,0.333,0.333,0.333,1,0.333,0.333,0.333,1","1",""
"","html-keyboard-response","157","52518","0.0-157.0","30IQTZXKALSJBHNM1RTPY6CMD000XY","AV9GV051TQCZK","3I7KR83SNAZT1REYB2SRC49PCEEK9H","","null","<img src=""img/flower1.png"" style=""width:200px;border:14px solid red;"">","null","","","","","","","","",""
"","image-keyboard-response","158","52928","0.0-158.0","30IQTZXKALSJBHNM1RTPY6CMD000XY","AV9GV051TQCZK","3I7KR83SNAZT1REYB2SRC49PCEEK9H","","410","img/flower6.png","76","410.40000000596046","3","1","1","1","1,0.333,0.333,0.333,1,0.333,0.333,0.333,1","1,0.333,0.333,0.333,1,0.333,0.333,0.333,1","1",""
"","html-keyboard-response","159","53230","0.0-159.0","30IQTZXKALSJBHNM1RTPY6CMD000XY","AV9GV051TQCZK","3I7KR83SNAZT1REYB2SRC49PCEEK9H","","null","<img src=""img/flower6.png"" style=""width:200px; border:14px solid green;"">","null","","","","","","","","",""
"","image-keyboard-response","160","53792","0.0-160.0","30IQTZXKALSJBHNM1RTPY6CMD000XY","AV9GV051TQCZK","3I7KR83SNAZT1REYB2SRC49PCEEK9H","","561.9000000059605","img/flower5.png","76","562.2000000029802","3","0","2","1","1,0.333,0.333,0.333,1,0.333,0.333,0.333,1","1,0.333,0.333,0.333,1,0.333,0.333,0.333,1","1",""
"","html-keyboard-response","161","54093","0.0-161.0","30IQTZXKALSJBHNM1RTPY6CMD000XY","AV9GV051TQCZK","3I7KR83SNAZT1REYB2SRC49PCEEK9H","","null","<img src=""img/flower5.png"" style=""width:200px;border:14px solid red;"">","null","","","","","","","","",""
"","image-keyboard-response","162","54384","0.0-162.0","30IQTZXKALSJBHNM1RTPY6CMD000XY","AV9GV051TQCZK","3I7KR83SNAZT1REYB2SRC49PCEEK9H","","290.5","img/flower6.png","75","290.90000000596046","2","0","1","1","1,0.333,0.333,0.333,1,0.333,0.333,0.333,1","1,0.333,0.333,0.333,1,0.333,0.333,0.333,1","1",""
"","html-keyboard-response","163","54686","0.0-163.0","30IQTZXKALSJBHNM1RTPY6CMD000XY","AV9GV051TQCZK","3I7KR83SNAZT1REYB2SRC49PCEEK9H","","null","<img src=""img/flower6.png"" style=""width:200px;border:14px solid red;"">","null","","","","","","","","",""
"","image-keyboard-response","164","55009","0.0-164.0","30IQTZXKALSJBHNM1RTPY6CMD000XY","AV9GV051TQCZK","3I7KR83SNAZT1REYB2SRC49PCEEK9H","","321.70000000298023","img/flower5.png","76","322.19999999552965","3","0","2","1","1,0.333,0.333,0.333,1,0.333,0.333,0.333,1","1,0.333,0.333,0.333,1,0.333,0.333,0.333,1","1",""
"","html-keyboard-response","165","55310","0.0-165.0","30IQTZXKALSJBHNM1RTPY6CMD000XY","AV9GV051TQCZK","3I7KR83SNAZT1REYB2SRC49PCEEK9H","","null","<img src=""img/flower5.png"" style=""width:200px;border:14px solid red;"">","null","","","","","","","","",""
"","image-keyboard-response","166","55536","0.0-166.0","30IQTZXKALSJBHNM1RTPY6CMD000XY","AV9GV051TQCZK","3I7KR83SNAZT1REYB2SRC49PCEEK9H","","225.5","img/flower5.png","75","226","2","1","2","1","1,0.333,0.333,0.333,1,0.333,0.333,0.333,1","1,0.333,0.333,0.333,1,0.333,0.333,0.333,1","1",""
"","html-keyboard-response","167","55838","0.0-167.0","30IQTZXKALSJBHNM1RTPY6CMD000XY","AV9GV051TQCZK","3I7KR83SNAZT1REYB2SRC49PCEEK9H","","null","<img src=""img/flower5.png"" style=""width:200px; border:14px solid green;"">","null","","","","","","","","",""
"","image-keyboard-response","168","56072","0.0-168.0","30IQTZXKALSJBHNM1RTPY6CMD000XY","AV9GV051TQCZK","3I7KR83SNAZT1REYB2SRC49PCEEK9H","","233.60000000149012","img/flower5.png","75","234.10000000149012","2","1","2","1","1,0.333,0.333,0.333,1,0.333,0.333,0.333,1","1,0.333,0.333,0.333,1,0.333,0.333,0.333,1","1",""
"","html-keyboard-response","169","56374","0.0-169.0","30IQTZXKALSJBHNM1RTPY6CMD000XY","AV9GV051TQCZK","3I7KR83SNAZT1REYB2SRC49PCEEK9H","","null","<img src=""img/flower5.png"" style=""width:200px; border:14px solid green;"">","null","","","","","","","","",""
"","image-keyboard-response","170","56560","0.0-170.0","30IQTZXKALSJBHNM1RTPY6CMD000XY","AV9GV051TQCZK","3I7KR83SNAZT1REYB2SRC49PCEEK9H","","186.20000000298023","img/flower5.png","75","186.70000000298023","2","1","2","1","1,0.333,0.333,0.333,1,0.333,0.333,0.333,1","1,0.333,0.333,0.333,1,0.333,0.333,0.333,1","1",""
"","html-keyboard-response","171","56862","0.0-171.0","30IQTZXKALSJBHNM1RTPY6CMD000XY","AV9GV051TQCZK","3I7KR83SNAZT1REYB2SRC49PCEEK9H","","null","<img src=""img/flower5.png"" style=""width:200px; border:14px solid green;"">","null","","","","","","","","",""
"","image-keyboard-response","172","57056","0.0-172.0","30IQTZXKALSJBHNM1RTPY6CMD000XY","AV9GV051TQCZK","3I7KR83SNAZT1REYB2SRC49PCEEK9H","","194.20000000298023","img/flower1.png","75","194.70000000298023","2","0","3","1","1,0.333,0.333,0.333,1,0.333,0.333,0.333,1","1,0.333,0.333,0.333,1,0.333,0.333,0.333,1","1",""
"","html-keyboard-response","173","57358","0.0-173.0","30IQTZXKALSJBHNM1RTPY6CMD000XY","AV9GV051TQCZK","3I7KR83SNAZT1REYB2SRC49PCEEK9H","","null","<img src=""img/flower1.png"" style=""width:200px;border:14px solid red;"">","null","","","","","","","","",""
"","image-keyboard-response","174","57688","0.0-174.0","30IQTZXKALSJBHNM1RTPY6CMD000XY","AV9GV051TQCZK","3I7KR83SNAZT1REYB2SRC49PCEEK9H","","329.5","img/flower6.png","76","330","3","0","1","1","1,0.333,0.333,0.333,1,0.333,0.333,0.333,1","1,0.333,0.333,0.333,1,0.333,0.333,0.333,1","1",""
"","html-keyboard-response","175","57989","0.0-175.0","30IQTZXKALSJBHNM1RTPY6CMD000XY","AV9GV051TQCZK","3I7KR83SNAZT1REYB2SRC49PCEEK9H","","null","<img src=""img/flower6.png"" style=""width:200px;border:14px solid red;"">","null","","","","","","","","",""
"","image-keyboard-response","176","58344","0.0-176.0","30IQTZXKALSJBHNM1RTPY6CMD000XY","AV9GV051TQCZK","3I7KR83SNAZT1REYB2SRC49PCEEK9H","","354.6000000014901","img/flower6.png","75","355","2","0","1","1","1,0.333,0.333,0.333,1,0.333,0.333,0.333,1","1,0.333,0.333,0.333,1,0.333,0.333,0.333,1","1",""
"","html-keyboard-response","177","58657","0.0-177.0","30IQTZXKALSJBHNM1RTPY6CMD000XY","AV9GV051TQCZK","3I7KR83SNAZT1REYB2SRC49PCEEK9H","","null","<img src=""img/flower6.png"" style=""width:200px;border:14px solid red;"">","null","","","","","","","","",""
"","image-keyboard-response","178","58880","0.0-178.0","30IQTZXKALSJBHNM1RTPY6CMD000XY","AV9GV051TQCZK","3I7KR83SNAZT1REYB2SRC49PCEEK9H","","222.89999999850988","img/flower5.png","75","223.40000000596046","2","1","2","1","1,0.333,0.333,0.333,1,0.333,0.333,0.333,1","1,0.333,0.333,0.333,1,0.333,0.333,0.333,1","1",""
"","html-keyboard-response","179","59182","0.0-179.0","30IQTZXKALSJBHNM1RTPY6CMD000XY","AV9GV051TQCZK","3I7KR83SNAZT1REYB2SRC49PCEEK9H","","null","<img src=""img/flower5.png"" style=""width:200px; border:14px solid green;"">","null","","","","","","","","",""
"","image-keyboard-response","180","59488","0.0-180.0","30IQTZXKALSJBHNM1RTPY6CMD000XY","AV9GV051TQCZK","3I7KR83SNAZT1REYB2SRC49PCEEK9H","","306.20000000298023","img/flower1.png","75","306.6000000014901","2","1","3","1","1,0.333,0.333,0.333,1,0.333,0.333,0.333,1","1,0.333,0.333,0.333,1,0.333,0.333,0.333,1","1",""
"","html-keyboard-response","181","59790","0.0-181.0","30IQTZXKALSJBHNM1RTPY6CMD000XY","AV9GV051TQCZK","3I7KR83SNAZT1REYB2SRC49PCEEK9H","","null","<img src=""img/flower1.png"" style=""width:200px; border:14px solid green;"">","null","","","","","","","","",""
"","html-keyboard-response","182","62660","0.0-182.0","30IQTZXKALSJBHNM1RTPY6CMD000XY","AV9GV051TQCZK","3I7KR83SNAZT1REYB2SRC49PCEEK9H","","","","","","","","","","","","",""
"","image-keyboard-response","183","63960","0.0-183.0","30IQTZXKALSJBHNM1RTPY6CMD000XY","AV9GV051TQCZK","3I7KR83SNAZT1REYB2SRC49PCEEK9H","","1299.3999999985099","img/flower4.png","76","1300","3","1","3","2","1,0,0,1,1,0,1,0,1","0,0,1,1,0,1,0,1,1","2",""
"","html-keyboard-response","184","64261","0.0-184.0","30IQTZXKALSJBHNM1RTPY6CMD000XY","AV9GV051TQCZK","3I7KR83SNAZT1REYB2SRC49PCEEK9H","","null","<img src=""img/flower4.png"" style=""width:200px; border:14px solid green;"">","null","","","","","","","","",""
"","image-keyboard-response","185","64817","0.0-185.0","30IQTZXKALSJBHNM1RTPY6CMD000XY","AV9GV051TQCZK","3I7KR83SNAZT1REYB2SRC49PCEEK9H","","555.0999999940395","img/flower3.png","76","555.5","3","1","2","2","1,0,0,1,1,0,1,0,1","0,0,1,1,0,1,0,1,1","2",""
"","html-keyboard-response","186","65118","0.0-186.0","30IQTZXKALSJBHNM1RTPY6CMD000XY","AV9GV051TQCZK","3I7KR83SNAZT1REYB2SRC49PCEEK9H","","null","<img src=""img/flower3.png"" style=""width:200px; border:14px solid green;"">","null","","","","","","","","",""
"","image-keyboard-response","187","65601","0.0-187.0","30IQTZXKALSJBHNM1RTPY6CMD000XY","AV9GV051TQCZK","3I7KR83SNAZT1REYB2SRC49PCEEK9H","","482.1000000014901","img/flower4.png","76","482.3999999985099","3","1","3","2","1,0,0,1,1,0,1,0,1","0,0,1,1,0,1,0,1,1","2",""
"","html-keyboard-response","188","65902","0.0-188.0","30IQTZXKALSJBHNM1RTPY6CMD000XY","AV9GV051TQCZK","3I7KR83SNAZT1REYB2SRC49PCEEK9H","","null","<img src=""img/flower4.png"" style=""width:200px; border:14px solid green;"">","null","","","","","","","","",""
"","image-keyboard-response","189","66376","0.0-189.0","30IQTZXKALSJBHNM1RTPY6CMD000XY","AV9GV051TQCZK","3I7KR83SNAZT1REYB2SRC49PCEEK9H","","473.70000000298023","img/flower2.png","76","474.1000000014901","3","1","1","2","1,0,0,1,1,0,1,0,1","0,0,1,1,0,1,0,1,1","2",""
"","html-keyboard-response","190","66677","0.0-190.0","30IQTZXKALSJBHNM1RTPY6CMD000XY","AV9GV051TQCZK","3I7KR83SNAZT1REYB2SRC49PCEEK9H","","null","<img src=""img/flower2.png"" style=""width:200px; border:14px solid green;"">","null","","","","","","","","",""
"","image-keyboard-response","191","67064","0.0-191.0","30IQTZXKALSJBHNM1RTPY6CMD000XY","AV9GV051TQCZK","3I7KR83SNAZT1REYB2SRC49PCEEK9H","","386.3999999985099","img/flower2.png","76","386.8999999985099","3","1","1","2","1,0,0,1,1,0,1,0,1","0,0,1,1,0,1,0,1,1","2",""
"","html-keyboard-response","192","67366","0.0-192.0","30IQTZXKALSJBHNM1RTPY6CMD000XY","AV9GV051TQCZK","3I7KR83SNAZT1REYB2SRC49PCEEK9H","","null","<img src=""img/flower2.png"" style=""width:200px; border:14px solid green;"">","null","","","","","","","","",""
"","image-keyboard-response","193","67856","0.0-193.0","30IQTZXKALSJBHNM1RTPY6CMD000XY","AV9GV051TQCZK","3I7KR83SNAZT1REYB2SRC49PCEEK9H","","489.80000000447035","img/flower3.png","76","490.20000000298023","3","1","2","2","1,0,0,1,1,0,1,0,1","0,0,1,1,0,1,0,1,1","2",""
"","html-keyboard-response","194","68158","0.0-194.0","30IQTZXKALSJBHNM1RTPY6CMD000XY","AV9GV051TQCZK","3I7KR83SNAZT1REYB2SRC49PCEEK9H","","null","<img src=""img/flower3.png"" style=""width:200px; border:14px solid green;"">","null","","","","","","","","",""
"","image-keyboard-response","195","68464","0.0-195.0","30IQTZXKALSJBHNM1RTPY6CMD000XY","AV9GV051TQCZK","3I7KR83SNAZT1REYB2SRC49PCEEK9H","","306","img/flower4.png","76","306.40000000596046","3","1","3","2","1,0,0,1,1,0,1,0,1","0,0,1,1,0,1,0,1,1","2",""
"","html-keyboard-response","196","68765","0.0-196.0","30IQTZXKALSJBHNM1RTPY6CMD000XY","AV9GV051TQCZK","3I7KR83SNAZT1REYB2SRC49PCEEK9H","","null","<img src=""img/flower4.png"" style=""width:200px; border:14px solid green;"">","null","","","","","","","","",""
"","image-keyboard-response","197","69120","0.0-197.0","30IQTZXKALSJBHNM1RTPY6CMD000XY","AV9GV051TQCZK","3I7KR83SNAZT1REYB2SRC49PCEEK9H","","355","img/flower4.png","76","355.30000000447035","3","1","3","2","1,0,0,1,1,0,1,0,1","0,0,1,1,0,1,0,1,1","2",""
"","html-keyboard-response","198","69422","0.0-198.0","30IQTZXKALSJBHNM1RTPY6CMD000XY","AV9GV051TQCZK","3I7KR83SNAZT1REYB2SRC49PCEEK9H","","null","<img src=""img/flower4.png"" style=""width:200px; border:14px solid green;"">","null","","","","","","","","",""
"","image-keyboard-response","199","69904","0.0-199.0","30IQTZXKALSJBHNM1RTPY6CMD000XY","AV9GV051TQCZK","3I7KR83SNAZT1REYB2SRC49PCEEK9H","","482.30000000447035","img/flower2.png","76","482.70000000298023","3","1","1","2","1,0,0,1,1,0,1,0,1","0,0,1,1,0,1,0,1,1","2",""
"","html-keyboard-response","200","70212","0.0-200.0","30IQTZXKALSJBHNM1RTPY6CMD000XY","AV9GV051TQCZK","3I7KR83SNAZT1REYB2SRC49PCEEK9H","","null","<img src=""img/flower2.png"" style=""width:200px; border:14px solid green;"">","null","","","","","","","","",""
"","image-keyboard-response","201","70504","0.0-201.0","30IQTZXKALSJBHNM1RTPY6CMD000XY","AV9GV051TQCZK","3I7KR83SNAZT1REYB2SRC49PCEEK9H","","291.5","img/flower4.png","76","291.90000000596046","3","1","3","2","1,0,0,1,1,0,1,0,1","0,0,1,1,0,1,0,1,1","2",""
"","html-keyboard-response","202","70811","0.0-202.0","30IQTZXKALSJBHNM1RTPY6CMD000XY","AV9GV051TQCZK","3I7KR83SNAZT1REYB2SRC49PCEEK9H","","null","<img src=""img/flower4.png"" style=""width:200px; border:14px solid green;"">","null","","","","","","","","",""
"","image-keyboard-response","203","71120","0.0-203.0","30IQTZXKALSJBHNM1RTPY6CMD000XY","AV9GV051TQCZK","3I7KR83SNAZT1REYB2SRC49PCEEK9H","","308.6000000014901","img/flower2.png","76","308.90000000596046","3","1","1","2","1,0,0,1,1,0,1,0,1","0,0,1,1,0,1,0,1,1","2",""
"","html-keyboard-response","204","71422","0.0-204.0","30IQTZXKALSJBHNM1RTPY6CMD000XY","AV9GV051TQCZK","3I7KR83SNAZT1REYB2SRC49PCEEK9H","","null","<img src=""img/flower2.png"" style=""width:200px; border:14px solid green;"">","null","","","","","","","","",""
"","image-keyboard-response","205","71672","0.0-205.0","30IQTZXKALSJBHNM1RTPY6CMD000XY","AV9GV051TQCZK","3I7KR83SNAZT1REYB2SRC49PCEEK9H","","249.89999999850988","img/flower4.png","76","250.40000000596046","3","1","3","2","1,0,0,1,1,0,1,0,1","0,0,1,1,0,1,0,1,1","2",""
"","html-keyboard-response","206","71975","0.0-206.0","30IQTZXKALSJBHNM1RTPY6CMD000XY","AV9GV051TQCZK","3I7KR83SNAZT1REYB2SRC49PCEEK9H","","null","<img src=""img/flower4.png"" style=""width:200px; border:14px solid green;"">","null","","","","","","","","",""
"","image-keyboard-response","207","72208","0.0-207.0","30IQTZXKALSJBHNM1RTPY6CMD000XY","AV9GV051TQCZK","3I7KR83SNAZT1REYB2SRC49PCEEK9H","","233","img/flower4.png","76","233.60000000149012","3","1","3","2","1,0,0,1,1,0,1,0,1","0,0,1,1,0,1,0,1,1","2",""
"","html-keyboard-response","208","72510","0.0-208.0","30IQTZXKALSJBHNM1RTPY6CMD000XY","AV9GV051TQCZK","3I7KR83SNAZT1REYB2SRC49PCEEK9H","","null","<img src=""img/flower4.png"" style=""width:200px; border:14px solid green;"">","null","","","","","","","","",""
"","image-keyboard-response","209","72800","0.0-209.0","30IQTZXKALSJBHNM1RTPY6CMD000XY","AV9GV051TQCZK","3I7KR83SNAZT1REYB2SRC49PCEEK9H","","289.70000000298023","img/flower4.png","76","290.1000000014901","3","1","3","2","1,0,0,1,1,0,1,0,1","0,0,1,1,0,1,0,1,1","2",""
"","html-keyboard-response","210","73102","0.0-210.0","30IQTZXKALSJBHNM1RTPY6CMD000XY","AV9GV051TQCZK","3I7KR83SNAZT1REYB2SRC49PCEEK9H","","null","<img src=""img/flower4.png"" style=""width:200px; border:14px solid green;"">","null","","","","","","","","",""
"","image-keyboard-response","211","73337","0.0-211.0","30IQTZXKALSJBHNM1RTPY6CMD000XY","AV9GV051TQCZK","3I7KR83SNAZT1REYB2SRC49PCEEK9H","","233.70000000298023","img/flower3.png","76","234.29999999701977","3","1","2","2","1,0,0,1,1,0,1,0,1","0,0,1,1,0,1,0,1,1","2",""
"","html-keyboard-response","212","73638","0.0-212.0","30IQTZXKALSJBHNM1RTPY6CMD000XY","AV9GV051TQCZK","3I7KR83SNAZT1REYB2SRC49PCEEK9H","","null","<img src=""img/flower3.png"" style=""width:200px; border:14px solid green;"">","null","","","","","","","","",""
"","image-keyboard-response","213","73872","0.0-213.0","30IQTZXKALSJBHNM1RTPY6CMD000XY","AV9GV051TQCZK","3I7KR83SNAZT1REYB2SRC49PCEEK9H","","233.89999999850988","img/flower2.png","76","234.20000000298023","3","1","1","2","1,0,0,1,1,0,1,0,1","0,0,1,1,0,1,0,1,1","2",""
"","html-keyboard-response","214","74175","0.0-214.0","30IQTZXKALSJBHNM1RTPY6CMD000XY","AV9GV051TQCZK","3I7KR83SNAZT1REYB2SRC49PCEEK9H","","null","<img src=""img/flower2.png"" style=""width:200px; border:14px solid green;"">","null","","","","","","","","",""
"","image-keyboard-response","215","74472","0.0-215.0","30IQTZXKALSJBHNM1RTPY6CMD000XY","AV9GV051TQCZK","3I7KR83SNAZT1REYB2SRC49PCEEK9H","","297","img/flower2.png","76","297.5","3","1","1","2","1,0,0,1,1,0,1,0,1","0,0,1,1,0,1,0,1,1","2",""
"","html-keyboard-response","216","74773","0.0-216.0","30IQTZXKALSJBHNM1RTPY6CMD000XY","AV9GV051TQCZK","3I7KR83SNAZT1REYB2SRC49PCEEK9H","","null","<img src=""img/flower2.png"" style=""width:200px; border:14px solid green;"">","null","","","","","","","","",""
"","image-keyboard-response","217","75000","0.0-217.0","30IQTZXKALSJBHNM1RTPY6CMD000XY","AV9GV051TQCZK","3I7KR83SNAZT1REYB2SRC49PCEEK9H","","226.39999999850988","img/flower2.png","76","226.90000000596046","3","1","1","2","1,0,0,1,1,0,1,0,1","0,0,1,1,0,1,0,1,1","2",""
"","html-keyboard-response","218","75302","0.0-218.0","30IQTZXKALSJBHNM1RTPY6CMD000XY","AV9GV051TQCZK","3I7KR83SNAZT1REYB2SRC49PCEEK9H","","null","<img src=""img/flower2.png"" style=""width:200px; border:14px solid green;"">","null","","","","","","","","",""
"","image-keyboard-response","219","75512","0.0-219.0","30IQTZXKALSJBHNM1RTPY6CMD000XY","AV9GV051TQCZK","3I7KR83SNAZT1REYB2SRC49PCEEK9H","","210.10000000149012","img/flower2.png","76","210.5","3","1","1","2","1,0,0,1,1,0,1,0,1","0,0,1,1,0,1,0,1,1","2",""
"","html-keyboard-response","220","75814","0.0-220.0","30IQTZXKALSJBHNM1RTPY6CMD000XY","AV9GV051TQCZK","3I7KR83SNAZT1REYB2SRC49PCEEK9H","","null","<img src=""img/flower2.png"" style=""width:200px; border:14px solid green;"">","null","","","","","","","","",""
"","image-keyboard-response","221","76032","0.0-221.0","30IQTZXKALSJBHNM1RTPY6CMD000XY","AV9GV051TQCZK","3I7KR83SNAZT1REYB2SRC49PCEEK9H","","218.30000000447035","img/flower3.png","76","218.79999999701977","3","1","2","2","1,0,0,1,1,0,1,0,1","0,0,1,1,0,1,0,1,1","2",""
"","html-keyboard-response","222","76334","0.0-222.0","30IQTZXKALSJBHNM1RTPY6CMD000XY","AV9GV051TQCZK","3I7KR83SNAZT1REYB2SRC49PCEEK9H","","null","<img src=""img/flower3.png"" style=""width:200px; border:14px solid green;"">","null","","","","","","","","",""
"","image-keyboard-response","223","76576","0.0-223.0","30IQTZXKALSJBHNM1RTPY6CMD000XY","AV9GV051TQCZK","3I7KR83SNAZT1REYB2SRC49PCEEK9H","","242","img/flower2.png","76","242.30000000447035","3","1","1","2","1,0,0,1,1,0,1,0,1","0,0,1,1,0,1,0,1,1","2",""
"","html-keyboard-response","224","76878","0.0-224.0","30IQTZXKALSJBHNM1RTPY6CMD000XY","AV9GV051TQCZK","3I7KR83SNAZT1REYB2SRC49PCEEK9H","","null","<img src=""img/flower2.png"" style=""width:200px; border:14px solid green;"">","null","","","","","","","","",""
"","image-keyboard-response","225","77112","0.0-225.0","30IQTZXKALSJBHNM1RTPY6CMD000XY","AV9GV051TQCZK","3I7KR83SNAZT1REYB2SRC49PCEEK9H","","234","img/flower2.png","76","234.40000000596046","3","1","1","2","1,0,0,1,1,0,1,0,1","0,0,1,1,0,1,0,1,1","2",""
"","html-keyboard-response","226","77415","0.0-226.0","30IQTZXKALSJBHNM1RTPY6CMD000XY","AV9GV051TQCZK","3I7KR83SNAZT1REYB2SRC49PCEEK9H","","null","<img src=""img/flower2.png"" style=""width:200px; border:14px solid green;"">","null","","","","","","","","",""
"","image-keyboard-response","227","77617","0.0-227.0","30IQTZXKALSJBHNM1RTPY6CMD000XY","AV9GV051TQCZK","3I7KR83SNAZT1REYB2SRC49PCEEK9H","","201.30000000447035","img/flower4.png","76","201.79999999701977","3","1","3","2","1,0,0,1,1,0,1,0,1","0,0,1,1,0,1,0,1,1","2",""
"","html-keyboard-response","228","77918","0.0-228.0","30IQTZXKALSJBHNM1RTPY6CMD000XY","AV9GV051TQCZK","3I7KR83SNAZT1REYB2SRC49PCEEK9H","","null","<img src=""img/flower4.png"" style=""width:200px; border:14px solid green;"">","null","","","","","","","","",""
"","image-keyboard-response","229","78128","0.0-229.0","30IQTZXKALSJBHNM1RTPY6CMD000XY","AV9GV051TQCZK","3I7KR83SNAZT1REYB2SRC49PCEEK9H","","209.80000000447035","img/flower2.png","76","210.20000000298023","3","1","1","2","1,0,0,1,1,0,1,0,1","0,0,1,1,0,1,0,1,1","2",""
"","html-keyboard-response","230","78430","0.0-230.0","30IQTZXKALSJBHNM1RTPY6CMD000XY","AV9GV051TQCZK","3I7KR83SNAZT1REYB2SRC49PCEEK9H","","null","<img src=""img/flower2.png"" style=""width:200px; border:14px solid green;"">","null","","","","","","","","",""
"","image-keyboard-response","231","78632","0.0-231.0","30IQTZXKALSJBHNM1RTPY6CMD000XY","AV9GV051TQCZK","3I7KR83SNAZT1REYB2SRC49PCEEK9H","","201.5","img/flower4.png","76","201.90000000596046","3","1","3","2","1,0,0,1,1,0,1,0,1","0,0,1,1,0,1,0,1,1","2",""
"","html-keyboard-response","232","78933","0.0-232.0","30IQTZXKALSJBHNM1RTPY6CMD000XY","AV9GV051TQCZK","3I7KR83SNAZT1REYB2SRC49PCEEK9H","","null","<img src=""img/flower4.png"" style=""width:200px; border:14px solid green;"">","null","","","","","","","","",""
"","image-keyboard-response","233","79160","0.0-233.0","30IQTZXKALSJBHNM1RTPY6CMD000XY","AV9GV051TQCZK","3I7KR83SNAZT1REYB2SRC49PCEEK9H","","226.70000000298023","img/flower4.png","76","227","3","1","3","2","1,0,0,1,1,0,1,0,1","0,0,1,1,0,1,0,1,1","2",""
"","html-keyboard-response","234","79462","0.0-234.0","30IQTZXKALSJBHNM1RTPY6CMD000XY","AV9GV051TQCZK","3I7KR83SNAZT1REYB2SRC49PCEEK9H","","null","<img src=""img/flower4.png"" style=""width:200px; border:14px solid green;"">","null","","","","","","","","",""
"","image-keyboard-response","235","79608","0.0-235.0","30IQTZXKALSJBHNM1RTPY6CMD000XY","AV9GV051TQCZK","3I7KR83SNAZT1REYB2SRC49PCEEK9H","","145.5","img/flower3.png","76","145.89999999850988","3","1","2","2","1,0,0,1,1,0,1,0,1","0,0,1,1,0,1,0,1,1","2",""
"","html-keyboard-response","236","79910","0.0-236.0","30IQTZXKALSJBHNM1RTPY6CMD000XY","AV9GV051TQCZK","3I7KR83SNAZT1REYB2SRC49PCEEK9H","","null","<img src=""img/flower3.png"" style=""width:200px; border:14px solid green;"">","null","","","","","","","","",""
"","image-keyboard-response","237","80137","0.0-237.0","30IQTZXKALSJBHNM1RTPY6CMD000XY","AV9GV051TQCZK","3I7KR83SNAZT1REYB2SRC49PCEEK9H","","226.20000000298023","img/flower4.png","76","226.59999999403954","3","1","3","2","1,0,0,1,1,0,1,0,1","0,0,1,1,0,1,0,1,1","2",""
"","html-keyboard-response","238","80438","0.0-238.0","30IQTZXKALSJBHNM1RTPY6CMD000XY","AV9GV051TQCZK","3I7KR83SNAZT1REYB2SRC49PCEEK9H","","null","<img src=""img/flower4.png"" style=""width:200px; border:14px solid green;"">","null","","","","","","","","",""
"","image-keyboard-response","239","80656","0.0-239.0","30IQTZXKALSJBHNM1RTPY6CMD000XY","AV9GV051TQCZK","3I7KR83SNAZT1REYB2SRC49PCEEK9H","","218.20000000298023","img/flower3.png","76","218.69999999552965","3","1","2","2","1,0,0,1,1,0,1,0,1","0,0,1,1,0,1,0,1,1","2",""
"","html-keyboard-response","240","80958","0.0-240.0","30IQTZXKALSJBHNM1RTPY6CMD000XY","AV9GV051TQCZK","3I7KR83SNAZT1REYB2SRC49PCEEK9H","","null","<img src=""img/flower3.png"" style=""width:200px; border:14px solid green;"">","null","","","","","","","","",""
"","image-keyboard-response","241","81176","0.0-241.0","30IQTZXKALSJBHNM1RTPY6CMD000XY","AV9GV051TQCZK","3I7KR83SNAZT1REYB2SRC49PCEEK9H","","217.89999999850988","img/flower4.png","76","218.39999999850988","3","1","3","2","1,0,0,1,1,0,1,0,1","0,0,1,1,0,1,0,1,1","2",""
"","html-keyboard-response","242","81478","0.0-242.0","30IQTZXKALSJBHNM1RTPY6CMD000XY","AV9GV051TQCZK","3I7KR83SNAZT1REYB2SRC49PCEEK9H","","null","<img src=""img/flower4.png"" style=""width:200px; border:14px solid green;"">","null","","","","","","","","",""
"","image-keyboard-response","243","81688","0.0-243.0","30IQTZXKALSJBHNM1RTPY6CMD000XY","AV9GV051TQCZK","3I7KR83SNAZT1REYB2SRC49PCEEK9H","","209.39999999850988","img/flower3.png","76","210","3","1","2","2","1,0,0,1,1,0,1,0,1","0,0,1,1,0,1,0,1,1","2",""
"","html-keyboard-response","244","81990","0.0-244.0","30IQTZXKALSJBHNM1RTPY6CMD000XY","AV9GV051TQCZK","3I7KR83SNAZT1REYB2SRC49PCEEK9H","","null","<img src=""img/flower3.png"" style=""width:200px; border:14px solid green;"">","null","","","","","","","","",""
"","image-keyboard-response","245","82144","0.0-245.0","30IQTZXKALSJBHNM1RTPY6CMD000XY","AV9GV051TQCZK","3I7KR83SNAZT1REYB2SRC49PCEEK9H","","153.60000000149012","img/flower2.png","76","154.10000000149012","3","1","1","2","1,0,0,1,1,0,1,0,1","0,0,1,1,0,1,0,1,1","2",""
"","html-keyboard-response","246","82455","0.0-246.0","30IQTZXKALSJBHNM1RTPY6CMD000XY","AV9GV051TQCZK","3I7KR83SNAZT1REYB2SRC49PCEEK9H","","null","<img src=""img/flower2.png"" style=""width:200px; border:14px solid green;"">","null","","","","","","","","",""
"","image-keyboard-response","247","82704","0.0-247.0","30IQTZXKALSJBHNM1RTPY6CMD000XY","AV9GV051TQCZK","3I7KR83SNAZT1REYB2SRC49PCEEK9H","","248.79999999701977","img/flower3.png","76","249.40000000596046","3","1","2","2","1,0,0,1,1,0,1,0,1","0,0,1,1,0,1,0,1,1","2",""
"","html-keyboard-response","248","83007","0.0-248.0","30IQTZXKALSJBHNM1RTPY6CMD000XY","AV9GV051TQCZK","3I7KR83SNAZT1REYB2SRC49PCEEK9H","","null","<img src=""img/flower3.png"" style=""width:200px; border:14px solid green;"">","null","","","","","","","","",""
"","image-keyboard-response","249","83208","0.0-249.0","30IQTZXKALSJBHNM1RTPY6CMD000XY","AV9GV051TQCZK","3I7KR83SNAZT1REYB2SRC49PCEEK9H","","200.5","img/flower3.png","76","200.90000000596046","3","1","2","2","1,0,0,1,1,0,1,0,1","0,0,1,1,0,1,0,1,1","2",""
"","html-keyboard-response","250","83510","0.0-250.0","30IQTZXKALSJBHNM1RTPY6CMD000XY","AV9GV051TQCZK","3I7KR83SNAZT1REYB2SRC49PCEEK9H","","null","<img src=""img/flower3.png"" style=""width:200px; border:14px solid green;"">","null","","","","","","","","",""
"","image-keyboard-response","251","83704","0.0-251.0","30IQTZXKALSJBHNM1RTPY6CMD000XY","AV9GV051TQCZK","3I7KR83SNAZT1REYB2SRC49PCEEK9H","","194.20000000298023","img/flower3.png","76","194.60000000149012","3","1","2","2","1,0,0,1,1,0,1,0,1","0,0,1,1,0,1,0,1,1","2",""
"","html-keyboard-response","252","84006","0.0-252.0","30IQTZXKALSJBHNM1RTPY6CMD000XY","AV9GV051TQCZK","3I7KR83SNAZT1REYB2SRC49PCEEK9H","","null","<img src=""img/flower3.png"" style=""width:200px; border:14px solid green;"">","null","","","","","","","","",""
"","image-keyboard-response","253","84192","0.0-253.0","30IQTZXKALSJBHNM1RTPY6CMD000XY","AV9GV051TQCZK","3I7KR83SNAZT1REYB2SRC49PCEEK9H","","186","img/flower2.png","76","186.40000000596046","3","1","1","2","1,0,0,1,1,0,1,0,1","0,0,1,1,0,1,0,1,1","2",""
"","html-keyboard-response","254","84495","0.0-254.0","30IQTZXKALSJBHNM1RTPY6CMD000XY","AV9GV051TQCZK","3I7KR83SNAZT1REYB2SRC49PCEEK9H","","null","<img src=""img/flower2.png"" style=""width:200px; border:14px solid green;"">","null","","","","","","","","",""
"","image-keyboard-response","255","84664","0.0-255.0","30IQTZXKALSJBHNM1RTPY6CMD000XY","AV9GV051TQCZK","3I7KR83SNAZT1REYB2SRC49PCEEK9H","","169.10000000149012","img/flower3.png","76","169.60000000149012","3","1","2","2","1,0,0,1,1,0,1,0,1","0,0,1,1,0,1,0,1,1","2",""
"","html-keyboard-response","256","84973","0.0-256.0","30IQTZXKALSJBHNM1RTPY6CMD000XY","AV9GV051TQCZK","3I7KR83SNAZT1REYB2SRC49PCEEK9H","","null","<img src=""img/flower3.png"" style=""width:200px; border:14px solid green;"">","null","","","","","","","","",""
"","image-keyboard-response","257","85152","0.0-257.0","30IQTZXKALSJBHNM1RTPY6CMD000XY","AV9GV051TQCZK","3I7KR83SNAZT1REYB2SRC49PCEEK9H","","179.39999999850988","img/flower2.png","76","179.79999999701977","3","1","1","2","1,0,0,1,1,0,1,0,1","0,0,1,1,0,1,0,1,1","2",""
"","html-keyboard-response","258","85455","0.0-258.0","30IQTZXKALSJBHNM1RTPY6CMD000XY","AV9GV051TQCZK","3I7KR83SNAZT1REYB2SRC49PCEEK9H","","null","<img src=""img/flower2.png"" style=""width:200px; border:14px solid green;"">","null","","","","","","","","",""
"","image-keyboard-response","259","85664","0.0-259.0","30IQTZXKALSJBHNM1RTPY6CMD000XY","AV9GV051TQCZK","3I7KR83SNAZT1REYB2SRC49PCEEK9H","","209.20000000298023","img/flower3.png","76","209.5","3","1","2","2","1,0,0,1,1,0,1,0,1","0,0,1,1,0,1,0,1,1","2",""
"","html-keyboard-response","260","85965","0.0-260.0","30IQTZXKALSJBHNM1RTPY6CMD000XY","AV9GV051TQCZK","3I7KR83SNAZT1REYB2SRC49PCEEK9H","","null","<img src=""img/flower3.png"" style=""width:200px; border:14px solid green;"">","null","","","","","","","","",""
"","image-keyboard-response","261","86184","0.0-261.0","30IQTZXKALSJBHNM1RTPY6CMD000XY","AV9GV051TQCZK","3I7KR83SNAZT1REYB2SRC49PCEEK9H","","218.80000000447035","img/flower4.png","76","219.29999999701977","3","1","3","2","1,0,0,1,1,0,1,0,1","0,0,1,1,0,1,0,1,1","2",""
"","html-keyboard-response","262","86486","0.0-262.0","30IQTZXKALSJBHNM1RTPY6CMD000XY","AV9GV051TQCZK","3I7KR83SNAZT1REYB2SRC49PCEEK9H","","null","<img src=""img/flower4.png"" style=""width:200px; border:14px solid green;"">","null","","","","","","","","",""
"","image-keyboard-response","263","86672","0.0-263.0","30IQTZXKALSJBHNM1RTPY6CMD000XY","AV9GV051TQCZK","3I7KR83SNAZT1REYB2SRC49PCEEK9H","","185.89999999850988","img/flower3.png","76","186.30000000447035","3","1","2","2","1,0,0,1,1,0,1,0,1","0,0,1,1,0,1,0,1,1","2",""
"","html-keyboard-response","264","86973","0.0-264.0","30IQTZXKALSJBHNM1RTPY6CMD000XY","AV9GV051TQCZK","3I7KR83SNAZT1REYB2SRC49PCEEK9H","","null","<img src=""img/flower3.png"" style=""width:200px; border:14px solid green;"">","null","","","","","","","","",""
"","image-keyboard-response","265","87192","0.0-265.0","30IQTZXKALSJBHNM1RTPY6CMD000XY","AV9GV051TQCZK","3I7KR83SNAZT1REYB2SRC49PCEEK9H","","218.5","img/flower4.png","76","219","3","1","3","2","1,0,0,1,1,0,1,0,1","0,0,1,1,0,1,0,1,1","2",""
"","html-keyboard-response","266","87494","0.0-266.0","30IQTZXKALSJBHNM1RTPY6CMD000XY","AV9GV051TQCZK","3I7KR83SNAZT1REYB2SRC49PCEEK9H","","null","<img src=""img/flower4.png"" style=""width:200px; border:14px solid green;"">","null","","","","","","","","",""
"","image-keyboard-response","267","87704","0.0-267.0","30IQTZXKALSJBHNM1RTPY6CMD000XY","AV9GV051TQCZK","3I7KR83SNAZT1REYB2SRC49PCEEK9H","","210.30000000447035","img/flower3.png","76","210.60000000149012","3","1","2","2","1,0,0,1,1,0,1,0,1","0,0,1,1,0,1,0,1,1","2",""
"","html-keyboard-response","268","88006","0.0-268.0","30IQTZXKALSJBHNM1RTPY6CMD000XY","AV9GV051TQCZK","3I7KR83SNAZT1REYB2SRC49PCEEK9H","","null","<img src=""img/flower3.png"" style=""width:200px; border:14px solid green;"">","null","","","","","","","","",""
"","image-keyboard-response","269","88216","0.0-269.0","30IQTZXKALSJBHNM1RTPY6CMD000XY","AV9GV051TQCZK","3I7KR83SNAZT1REYB2SRC49PCEEK9H","","209.80000000447035","img/flower3.png","76","210.39999999850988","3","1","2","2","1,0,0,1,1,0,1,0,1","0,0,1,1,0,1,0,1,1","2",""
"","html-keyboard-response","270","88517","0.0-270.0","30IQTZXKALSJBHNM1RTPY6CMD000XY","AV9GV051TQCZK","3I7KR83SNAZT1REYB2SRC49PCEEK9H","","null","<img src=""img/flower3.png"" style=""width:200px; border:14px solid green;"">","null","","","","","","","","",""
"","image-keyboard-response","271","88688","0.0-271.0","30IQTZXKALSJBHNM1RTPY6CMD000XY","AV9GV051TQCZK","3I7KR83SNAZT1REYB2SRC49PCEEK9H","","170.39999999850988","img/flower4.png","76","170.90000000596046","3","1","3","2","1,0,0,1,1,0,1,0,1","0,0,1,1,0,1,0,1,1","2",""
"","html-keyboard-response","272","88990","0.0-272.0","30IQTZXKALSJBHNM1RTPY6CMD000XY","AV9GV051TQCZK","3I7KR83SNAZT1REYB2SRC49PCEEK9H","","null","<img src=""img/flower4.png"" style=""width:200px; border:14px solid green;"">","null","","","","","","","","",""
"","image-keyboard-response","273","89240","0.0-273.0","30IQTZXKALSJBHNM1RTPY6CMD000XY","AV9GV051TQCZK","3I7KR83SNAZT1REYB2SRC49PCEEK9H","","250.20000000298023","img/flower2.png","76","250.70000000298023","3","1","1","2","1,0,0,1,1,0,1,0,1","0,0,1,1,0,1,0,1,1","2",""
"","html-keyboard-response","274","89541","0.0-274.0","30IQTZXKALSJBHNM1RTPY6CMD000XY","AV9GV051TQCZK","3I7KR83SNAZT1REYB2SRC49PCEEK9H","","null","<img src=""img/flower2.png"" style=""width:200px; border:14px solid green;"">","null","","","","","","","","",""
"","image-keyboard-response","275","89688","0.0-275.0","30IQTZXKALSJBHNM1RTPY6CMD000XY","AV9GV051TQCZK","3I7KR83SNAZT1REYB2SRC49PCEEK9H","","146.89999999850988","img/flower3.png","76","147.20000000298023","3","1","2","2","1,0,0,1,1,0,1,0,1","0,0,1,1,0,1,0,1,1","2",""
"","html-keyboard-response","276","89990","0.0-276.0","30IQTZXKALSJBHNM1RTPY6CMD000XY","AV9GV051TQCZK","3I7KR83SNAZT1REYB2SRC49PCEEK9H","","null","<img src=""img/flower3.png"" style=""width:200px; border:14px solid green;"">","null","","","","","","","","",""
"","image-keyboard-response","277","90192","0.0-277.0","30IQTZXKALSJBHNM1RTPY6CMD000XY","AV9GV051TQCZK","3I7KR83SNAZT1REYB2SRC49PCEEK9H","","201.60000000149012","img/flower2.png","76","202","3","1","1","2","1,0,0,1,1,0,1,0,1","0,0,1,1,0,1,0,1,1","2",""
"","html-keyboard-response","278","90494","0.0-278.0","30IQTZXKALSJBHNM1RTPY6CMD000XY","AV9GV051TQCZK","3I7KR83SNAZT1REYB2SRC49PCEEK9H","","null","<img src=""img/flower2.png"" style=""width:200px; border:14px solid green;"">","null","","","","","","","","",""
"","image-keyboard-response","279","90664","0.0-279.0","30IQTZXKALSJBHNM1RTPY6CMD000XY","AV9GV051TQCZK","3I7KR83SNAZT1REYB2SRC49PCEEK9H","","170.30000000447035","img/flower3.png","76","170.79999999701977","3","1","2","2","1,0,0,1,1,0,1,0,1","0,0,1,1,0,1,0,1,1","2",""
"","html-keyboard-response","280","90966","0.0-280.0","30IQTZXKALSJBHNM1RTPY6CMD000XY","AV9GV051TQCZK","3I7KR83SNAZT1REYB2SRC49PCEEK9H","","null","<img src=""img/flower3.png"" style=""width:200px; border:14px solid green;"">","null","","","","","","","","",""
"","image-keyboard-response","281","91208","0.0-281.0","30IQTZXKALSJBHNM1RTPY6CMD000XY","AV9GV051TQCZK","3I7KR83SNAZT1REYB2SRC49PCEEK9H","","242","img/flower3.png","76","242.40000000596046","3","1","2","2","1,0,0,1,1,0,1,0,1","0,0,1,1,0,1,0,1,1","2",""
"","html-keyboard-response","282","91510","0.0-282.0","30IQTZXKALSJBHNM1RTPY6CMD000XY","AV9GV051TQCZK","3I7KR83SNAZT1REYB2SRC49PCEEK9H","","null","<img src=""img/flower3.png"" style=""width:200px; border:14px solid green;"">","null","","","","","","","","",""
"","image-keyboard-response","283","91648","0.0-283.0","30IQTZXKALSJBHNM1RTPY6CMD000XY","AV9GV051TQCZK","3I7KR83SNAZT1REYB2SRC49PCEEK9H","","137.60000000149012","img/flower3.png","76","138.10000000149012","3","1","2","2","1,0,0,1,1,0,1,0,1","0,0,1,1,0,1,0,1,1","2",""
"","html-keyboard-response","284","91950","0.0-284.0","30IQTZXKALSJBHNM1RTPY6CMD000XY","AV9GV051TQCZK","3I7KR83SNAZT1REYB2SRC49PCEEK9H","","null","<img src=""img/flower3.png"" style=""width:200px; border:14px solid green;"">","null","","","","","","","","",""
"","image-keyboard-response","285","92177","0.0-285.0","30IQTZXKALSJBHNM1RTPY6CMD000XY","AV9GV051TQCZK","3I7KR83SNAZT1REYB2SRC49PCEEK9H","","226.09999999403954","img/flower2.png","76","226.70000000298023","3","1","1","2","1,0,0,1,1,0,1,0,1","0,0,1,1,0,1,0,1,1","2",""
"","html-keyboard-response","286","92478","0.0-286.0","30IQTZXKALSJBHNM1RTPY6CMD000XY","AV9GV051TQCZK","3I7KR83SNAZT1REYB2SRC49PCEEK9H","","null","<img src=""img/flower2.png"" style=""width:200px; border:14px solid green;"">","null","","","","","","","","",""
"","image-keyboard-response","287","92664","0.0-287.0","30IQTZXKALSJBHNM1RTPY6CMD000XY","AV9GV051TQCZK","3I7KR83SNAZT1REYB2SRC49PCEEK9H","","185.70000000298023","img/flower3.png","76","186","3","1","2","2","1,0,0,1,1,0,1,0,1","0,0,1,1,0,1,0,1,1","2",""
"","html-keyboard-response","288","92972","0.0-288.0","30IQTZXKALSJBHNM1RTPY6CMD000XY","AV9GV051TQCZK","3I7KR83SNAZT1REYB2SRC49PCEEK9H","","null","<img src=""img/flower3.png"" style=""width:200px; border:14px solid green;"">","null","","","","","","","","",""
"","image-keyboard-response","289","93168","0.0-289.0","30IQTZXKALSJBHNM1RTPY6CMD000XY","AV9GV051TQCZK","3I7KR83SNAZT1REYB2SRC49PCEEK9H","","195.70000000298023","img/flower4.png","76","196.19999999552965","3","1","3","2","1,0,0,1,1,0,1,0,1","0,0,1,1,0,1,0,1,1","2",""
"","html-keyboard-response","290","93470","0.0-290.0","30IQTZXKALSJBHNM1RTPY6CMD000XY","AV9GV051TQCZK","3I7KR83SNAZT1REYB2SRC49PCEEK9H","","null","<img src=""img/flower4.png"" style=""width:200px; border:14px solid green;"">","null","","","","","","","","",""
"","image-keyboard-response","291","93608","0.0-291.0","30IQTZXKALSJBHNM1RTPY6CMD000XY","AV9GV051TQCZK","3I7KR83SNAZT1REYB2SRC49PCEEK9H","","138.29999999701977","img/flower2.png","76","138.70000000298023","3","1","1","2","1,0,0,1,1,0,1,0,1","0,0,1,1,0,1,0,1,1","2",""
"","html-keyboard-response","292","93910","0.0-292.0","30IQTZXKALSJBHNM1RTPY6CMD000XY","AV9GV051TQCZK","3I7KR83SNAZT1REYB2SRC49PCEEK9H","","null","<img src=""img/flower2.png"" style=""width:200px; border:14px solid green;"">","null","","","","","","","","",""
"","image-keyboard-response","293","94128","0.0-293.0","30IQTZXKALSJBHNM1RTPY6CMD000XY","AV9GV051TQCZK","3I7KR83SNAZT1REYB2SRC49PCEEK9H","","217.5","img/flower3.png","76","218","3","1","2","2","1,0,0,1,1,0,1,0,1","0,0,1,1,0,1,0,1,1","2",""
"","html-keyboard-response","294","94430","0.0-294.0","30IQTZXKALSJBHNM1RTPY6CMD000XY","AV9GV051TQCZK","3I7KR83SNAZT1REYB2SRC49PCEEK9H","","null","<img src=""img/flower3.png"" style=""width:200px; border:14px solid green;"">","null","","","","","","","","",""
"","image-keyboard-response","295","94592","0.0-295.0","30IQTZXKALSJBHNM1RTPY6CMD000XY","AV9GV051TQCZK","3I7KR83SNAZT1REYB2SRC49PCEEK9H","","161.60000000149012","img/flower2.png","76","162.20000000298023","3","1","1","2","1,0,0,1,1,0,1,0,1","0,0,1,1,0,1,0,1,1","2",""
"","html-keyboard-response","296","94893","0.0-296.0","30IQTZXKALSJBHNM1RTPY6CMD000XY","AV9GV051TQCZK","3I7KR83SNAZT1REYB2SRC49PCEEK9H","","null","<img src=""img/flower2.png"" style=""width:200px; border:14px solid green;"">","null","","","","","","","","",""
"","image-keyboard-response","297","95056","0.0-297.0","30IQTZXKALSJBHNM1RTPY6CMD000XY","AV9GV051TQCZK","3I7KR83SNAZT1REYB2SRC49PCEEK9H","","162.89999999850988","img/flower3.png","76","163.30000000447035","3","1","2","2","1,0,0,1,1,0,1,0,1","0,0,1,1,0,1,0,1,1","2",""
"","html-keyboard-response","298","95358","0.0-298.0","30IQTZXKALSJBHNM1RTPY6CMD000XY","AV9GV051TQCZK","3I7KR83SNAZT1REYB2SRC49PCEEK9H","","null","<img src=""img/flower3.png"" style=""width:200px; border:14px solid green;"">","null","","","","","","","","",""
"","image-keyboard-response","299","95537","0.0-299.0","30IQTZXKALSJBHNM1RTPY6CMD000XY","AV9GV051TQCZK","3I7KR83SNAZT1REYB2SRC49PCEEK9H","","178.40000000596046","img/flower2.png","76","178.79999999701977","3","1","1","2","1,0,0,1,1,0,1,0,1","0,0,1,1,0,1,0,1,1","2",""
"","html-keyboard-response","300","95838","0.0-300.0","30IQTZXKALSJBHNM1RTPY6CMD000XY","AV9GV051TQCZK","3I7KR83SNAZT1REYB2SRC49PCEEK9H","","null","<img src=""img/flower2.png"" style=""width:200px; border:14px solid green;"">","null","","","","","","","","",""
"","image-keyboard-response","301","96040","0.0-301.0","30IQTZXKALSJBHNM1RTPY6CMD000XY","AV9GV051TQCZK","3I7KR83SNAZT1REYB2SRC49PCEEK9H","","201.89999999850988","img/flower3.png","76","202.30000000447035","3","1","2","2","1,0,0,1,1,0,1,0,1","0,0,1,1,0,1,0,1,1","2",""
"","html-keyboard-response","302","96342","0.0-302.0","30IQTZXKALSJBHNM1RTPY6CMD000XY","AV9GV051TQCZK","3I7KR83SNAZT1REYB2SRC49PCEEK9H","","null","<img src=""img/flower3.png"" style=""width:200px; border:14px solid green;"">","null","","","","","","","","",""
"","image-keyboard-response","303","96481","0.0-303.0","30IQTZXKALSJBHNM1RTPY6CMD000XY","AV9GV051TQCZK","3I7KR83SNAZT1REYB2SRC49PCEEK9H","","138.30000000447035","img/flower2.png","76","138.59999999403954","3","1","1","2","1,0,0,1,1,0,1,0,1","0,0,1,1,0,1,0,1,1","2",""
"","html-keyboard-response","304","96781","0.0-304.0","30IQTZXKALSJBHNM1RTPY6CMD000XY","AV9GV051TQCZK","3I7KR83SNAZT1REYB2SRC49PCEEK9H","","null","<img src=""img/flower2.png"" style=""width:200px; border:14px solid green;"">","null","","","","","","","","",""
"","image-keyboard-response","305","96992","0.0-305.0","30IQTZXKALSJBHNM1RTPY6CMD000XY","AV9GV051TQCZK","3I7KR83SNAZT1REYB2SRC49PCEEK9H","","210.39999999850988","img/flower4.png","76","210.80000000447035","3","1","3","2","1,0,0,1,1,0,1,0,1","0,0,1,1,0,1,0,1,1","2",""
"","html-keyboard-response","306","97293","0.0-306.0","30IQTZXKALSJBHNM1RTPY6CMD000XY","AV9GV051TQCZK","3I7KR83SNAZT1REYB2SRC49PCEEK9H","","null","<img src=""img/flower4.png"" style=""width:200px; border:14px solid green;"">","null","","","","","","","","",""
"","image-keyboard-response","307","97480","0.0-307.0","30IQTZXKALSJBHNM1RTPY6CMD000XY","AV9GV051TQCZK","3I7KR83SNAZT1REYB2SRC49PCEEK9H","","186.5","img/flower2.png","76","187","3","1","1","2","1,0,0,1,1,0,1,0,1","0,0,1,1,0,1,0,1,1","2",""
"","html-keyboard-response","308","97781","0.0-308.0","30IQTZXKALSJBHNM1RTPY6CMD000XY","AV9GV051TQCZK","3I7KR83SNAZT1REYB2SRC49PCEEK9H","","null","<img src=""img/flower2.png"" style=""width:200px; border:14px solid green;"">","null","","","","","","","","",""
"","image-keyboard-response","309","97960","0.0-309.0","30IQTZXKALSJBHNM1RTPY6CMD000XY","AV9GV051TQCZK","3I7KR83SNAZT1REYB2SRC49PCEEK9H","","178.70000000298023","img/flower4.png","76","179.30000000447035","3","1","3","2","1,0,0,1,1,0,1,0,1","0,0,1,1,0,1,0,1,1","2",""
"","html-keyboard-response","310","98261","0.0-310.0","30IQTZXKALSJBHNM1RTPY6CMD000XY","AV9GV051TQCZK","3I7KR83SNAZT1REYB2SRC49PCEEK9H","","null","<img src=""img/flower4.png"" style=""width:200px; border:14px solid green;"">","null","","","","","","","","",""
"","image-keyboard-response","311","98496","0.0-311.0","30IQTZXKALSJBHNM1RTPY6CMD000XY","AV9GV051TQCZK","3I7KR83SNAZT1REYB2SRC49PCEEK9H","","234.39999999850988","img/flower3.png","76","234.90000000596046","3","1","2","2","1,0,0,1,1,0,1,0,1","0,0,1,1,0,1,0,1,1","2",""
"","html-keyboard-response","312","98798","0.0-312.0","30IQTZXKALSJBHNM1RTPY6CMD000XY","AV9GV051TQCZK","3I7KR83SNAZT1REYB2SRC49PCEEK9H","","null","<img src=""img/flower3.png"" style=""width:200px; border:14px solid green;"">","null","","","","","","","","",""
"","image-keyboard-response","313","98920","0.0-313.0","30IQTZXKALSJBHNM1RTPY6CMD000XY","AV9GV051TQCZK","3I7KR83SNAZT1REYB2SRC49PCEEK9H","","122","img/flower4.png","76","122.39999999850988","3","1","3","2","1,0,0,1,1,0,1,0,1","0,0,1,1,0,1,0,1,1","2",""
"","html-keyboard-response","314","99222","0.0-314.0","30IQTZXKALSJBHNM1RTPY6CMD000XY","AV9GV051TQCZK","3I7KR83SNAZT1REYB2SRC49PCEEK9H","","null","<img src=""img/flower4.png"" style=""width:200px; border:14px solid green;"">","null","","","","","","","","",""
"","image-keyboard-response","315","99432","0.0-315.0","30IQTZXKALSJBHNM1RTPY6CMD000XY","AV9GV051TQCZK","3I7KR83SNAZT1REYB2SRC49PCEEK9H","","210.39999999850988","img/flower2.png","76","210.89999999850988","3","1","1","2","1,0,0,1,1,0,1,0,1","0,0,1,1,0,1,0,1,1","2",""
"","html-keyboard-response","316","99734","0.0-316.0","30IQTZXKALSJBHNM1RTPY6CMD000XY","AV9GV051TQCZK","3I7KR83SNAZT1REYB2SRC49PCEEK9H","","null","<img src=""img/flower2.png"" style=""width:200px; border:14px solid green;"">","null","","","","","","","","",""
"","image-keyboard-response","317","99920","0.0-317.0","30IQTZXKALSJBHNM1RTPY6CMD000XY","AV9GV051TQCZK","3I7KR83SNAZT1REYB2SRC49PCEEK9H","","186","img/flower4.png","76","186.40000000596046","3","1","3","2","1,0,0,1,1,0,1,0,1","0,0,1,1,0,1,0,1,1","2",""
"","html-keyboard-response","318","100222","0.0-318.0","30IQTZXKALSJBHNM1RTPY6CMD000XY","AV9GV051TQCZK","3I7KR83SNAZT1REYB2SRC49PCEEK9H","","null","<img src=""img/flower4.png"" style=""width:200px; border:14px solid green;"">","null","","","","","","","","",""
"","image-keyboard-response","319","100400","0.0-319.0","30IQTZXKALSJBHNM1RTPY6CMD000XY","AV9GV051TQCZK","3I7KR83SNAZT1REYB2SRC49PCEEK9H","","177.70000000298023","img/flower3.png","76","178","3","1","2","2","1,0,0,1,1,0,1,0,1","0,0,1,1,0,1,0,1,1","2",""
"","html-keyboard-response","320","100702","0.0-320.0","30IQTZXKALSJBHNM1RTPY6CMD000XY","AV9GV051TQCZK","3I7KR83SNAZT1REYB2SRC49PCEEK9H","","null","<img src=""img/flower3.png"" style=""width:200px; border:14px solid green;"">","null","","","","","","","","",""
"","image-keyboard-response","321","100944","0.0-321.0","30IQTZXKALSJBHNM1RTPY6CMD000XY","AV9GV051TQCZK","3I7KR83SNAZT1REYB2SRC49PCEEK9H","","242.39999999850988","img/flower4.png","76","242.79999999701977","3","1","3","2","1,0,0,1,1,0,1,0,1","0,0,1,1,0,1,0,1,1","2",""
"","html-keyboard-response","322","101245","0.0-322.0","30IQTZXKALSJBHNM1RTPY6CMD000XY","AV9GV051TQCZK","3I7KR83SNAZT1REYB2SRC49PCEEK9H","","null","<img src=""img/flower4.png"" style=""width:200px; border:14px solid green;"">","null","","","","","","","","",""
"","image-keyboard-response","323","101400","0.0-323.0","30IQTZXKALSJBHNM1RTPY6CMD000XY","AV9GV051TQCZK","3I7KR83SNAZT1REYB2SRC49PCEEK9H","","154.89999999850988","img/flower3.png","76","155.30000000447035","3","1","2","2","1,0,0,1,1,0,1,0,1","0,0,1,1,0,1,0,1,1","2",""
"","html-keyboard-response","324","101702","0.0-324.0","30IQTZXKALSJBHNM1RTPY6CMD000XY","AV9GV051TQCZK","3I7KR83SNAZT1REYB2SRC49PCEEK9H","","null","<img src=""img/flower3.png"" style=""width:200px; border:14px solid green;"">","null","","","","","","","","",""
"","image-keyboard-response","325","101856","0.0-325.0","30IQTZXKALSJBHNM1RTPY6CMD000XY","AV9GV051TQCZK","3I7KR83SNAZT1REYB2SRC49PCEEK9H","","153.70000000298023","img/flower4.png","76","154.09999999403954","3","1","3","2","1,0,0,1,1,0,1,0,1","0,0,1,1,0,1,0,1,1","2",""
"","html-keyboard-response","326","102158","0.0-326.0","30IQTZXKALSJBHNM1RTPY6CMD000XY","AV9GV051TQCZK","3I7KR83SNAZT1REYB2SRC49PCEEK9H","","null","<img src=""img/flower4.png"" style=""width:200px; border:14px solid green;"">","null","","","","","","","","",""
"","image-keyboard-response","327","102368","0.0-327.0","30IQTZXKALSJBHNM1RTPY6CMD000XY","AV9GV051TQCZK","3I7KR83SNAZT1REYB2SRC49PCEEK9H","","209.79999999701977","img/flower4.png","76","210.20000000298023","3","1","3","2","1,0,0,1,1,0,1,0,1","0,0,1,1,0,1,0,1,1","2",""
"","html-keyboard-response","328","102669","0.0-328.0","30IQTZXKALSJBHNM1RTPY6CMD000XY","AV9GV051TQCZK","3I7KR83SNAZT1REYB2SRC49PCEEK9H","","null","<img src=""img/flower4.png"" style=""width:200px; border:14px solid green;"">","null","","","","","","","","",""
"","image-keyboard-response","329","102880","0.0-329.0","30IQTZXKALSJBHNM1RTPY6CMD000XY","AV9GV051TQCZK","3I7KR83SNAZT1REYB2SRC49PCEEK9H","","210.60000000149012","img/flower4.png","76","210.89999999850988","3","1","3","2","1,0,0,1,1,0,1,0,1","0,0,1,1,0,1,0,1,1","2",""
"","html-keyboard-response","330","103182","0.0-330.0","30IQTZXKALSJBHNM1RTPY6CMD000XY","AV9GV051TQCZK","3I7KR83SNAZT1REYB2SRC49PCEEK9H","","null","<img src=""img/flower4.png"" style=""width:200px; border:14px solid green;"">","null","","","","","","","","",""
"","image-keyboard-response","331","103392","0.0-331.0","30IQTZXKALSJBHNM1RTPY6CMD000XY","AV9GV051TQCZK","3I7KR83SNAZT1REYB2SRC49PCEEK9H","","209.70000000298023","img/flower2.png","76","210.20000000298023","3","1","1","2","1,0,0,1,1,0,1,0,1","0,0,1,1,0,1,0,1,1","2",""
"","html-keyboard-response","332","103693","0.0-332.0","30IQTZXKALSJBHNM1RTPY6CMD000XY","AV9GV051TQCZK","3I7KR83SNAZT1REYB2SRC49PCEEK9H","","null","<img src=""img/flower2.png"" style=""width:200px; border:14px solid green;"">","null","","","","","","","","",""
"","image-keyboard-response","333","103904","0.0-333.0","30IQTZXKALSJBHNM1RTPY6CMD000XY","AV9GV051TQCZK","3I7KR83SNAZT1REYB2SRC49PCEEK9H","","210.79999999701977","img/flower2.png","76","211.30000000447035","3","1","1","2","1,0,0,1,1,0,1,0,1","0,0,1,1,0,1,0,1,1","2",""
"","html-keyboard-response","334","104205","0.0-334.0","30IQTZXKALSJBHNM1RTPY6CMD000XY","AV9GV051TQCZK","3I7KR83SNAZT1REYB2SRC49PCEEK9H","","null","<img src=""img/flower2.png"" style=""width:200px; border:14px solid green;"">","null","","","","","","","","",""
"","image-keyboard-response","335","104392","0.0-335.0","30IQTZXKALSJBHNM1RTPY6CMD000XY","AV9GV051TQCZK","3I7KR83SNAZT1REYB2SRC49PCEEK9H","","186.39999999850988","img/flower2.png","76","186.80000000447035","3","1","1","2","1,0,0,1,1,0,1,0,1","0,0,1,1,0,1,0,1,1","2",""
"","html-keyboard-response","336","104694","0.0-336.0","30IQTZXKALSJBHNM1RTPY6CMD000XY","AV9GV051TQCZK","3I7KR83SNAZT1REYB2SRC49PCEEK9H","","null","<img src=""img/flower2.png"" style=""width:200px; border:14px solid green;"">","null","","","","","","","","",""
"","image-keyboard-response","337","104792","0.0-337.0","30IQTZXKALSJBHNM1RTPY6CMD000XY","AV9GV051TQCZK","3I7KR83SNAZT1REYB2SRC49PCEEK9H","","98.20000000298023","img/flower3.png","76","98.70000000298023","3","1","2","2","1,0,0,1,1,0,1,0,1","0,0,1,1,0,1,0,1,1","2",""
"","html-keyboard-response","338","105093","0.0-338.0","30IQTZXKALSJBHNM1RTPY6CMD000XY","AV9GV051TQCZK","3I7KR83SNAZT1REYB2SRC49PCEEK9H","","null","<img src=""img/flower3.png"" style=""width:200px; border:14px solid green;"">","null","","","","","","","","",""
"","image-keyboard-response","339","105328","0.0-339.0","30IQTZXKALSJBHNM1RTPY6CMD000XY","AV9GV051TQCZK","3I7KR83SNAZT1REYB2SRC49PCEEK9H","","234.5","img/flower3.png","76","234.90000000596046","3","1","2","2","1,0,0,1,1,0,1,0,1","0,0,1,1,0,1,0,1,1","2",""
"","html-keyboard-response","340","105630","0.0-340.0","30IQTZXKALSJBHNM1RTPY6CMD000XY","AV9GV051TQCZK","3I7KR83SNAZT1REYB2SRC49PCEEK9H","","null","<img src=""img/flower3.png"" style=""width:200px; border:14px solid green;"">","null","","","","","","","","",""
"","image-keyboard-response","341","105776","0.0-341.0","30IQTZXKALSJBHNM1RTPY6CMD000XY","AV9GV051TQCZK","3I7KR83SNAZT1REYB2SRC49PCEEK9H","","146.20000000298023","img/flower4.png","76","146.59999999403954","3","1","3","2","1,0,0,1,1,0,1,0,1","0,0,1,1,0,1,0,1,1","2",""
"","html-keyboard-response","342","106078","0.0-342.0","30IQTZXKALSJBHNM1RTPY6CMD000XY","AV9GV051TQCZK","3I7KR83SNAZT1REYB2SRC49PCEEK9H","","null","<img src=""img/flower4.png"" style=""width:200px; border:14px solid green;"">","null","","","","","","","","",""
"","image-keyboard-response","343","106320","0.0-343.0","30IQTZXKALSJBHNM1RTPY6CMD000XY","AV9GV051TQCZK","3I7KR83SNAZT1REYB2SRC49PCEEK9H","","242.39999999850988","img/flower2.png","76","242.80000000447035","3","1","1","2","1,0,0,1,1,0,1,0,1","0,0,1,1,0,1,0,1,1","2",""
"","html-keyboard-response","344","106621","0.0-344.0","30IQTZXKALSJBHNM1RTPY6CMD000XY","AV9GV051TQCZK","3I7KR83SNAZT1REYB2SRC49PCEEK9H","","null","<img src=""img/flower2.png"" style=""width:200px; border:14px solid green;"">","null","","","","","","","","",""
"","image-keyboard-response","345","106768","0.0-345.0","30IQTZXKALSJBHNM1RTPY6CMD000XY","AV9GV051TQCZK","3I7KR83SNAZT1REYB2SRC49PCEEK9H","","146.89999999850988","img/flower2.png","76","147.5","3","1","1","2","1,0,0,1,1,0,1,0,1","0,0,1,1,0,1,0,1,1","2",""
"","html-keyboard-response","346","107070","0.0-346.0","30IQTZXKALSJBHNM1RTPY6CMD000XY","AV9GV051TQCZK","3I7KR83SNAZT1REYB2SRC49PCEEK9H","","null","<img src=""img/flower2.png"" style=""width:200px; border:14px solid green;"">","null","","","","","","","","",""
"","image-keyboard-response","347","107280","0.0-347.0","30IQTZXKALSJBHNM1RTPY6CMD000XY","AV9GV051TQCZK","3I7KR83SNAZT1REYB2SRC49PCEEK9H","","210.20000000298023","img/flower2.png","76","210.60000000149012","3","1","1","2","1,0,0,1,1,0,1,0,1","0,0,1,1,0,1,0,1,1","2",""
"","html-keyboard-response","348","107582","0.0-348.0","30IQTZXKALSJBHNM1RTPY6CMD000XY","AV9GV051TQCZK","3I7KR83SNAZT1REYB2SRC49PCEEK9H","","null","<img src=""img/flower2.png"" style=""width:200px; border:14px solid green;"">","null","","","","","","","","",""
"","image-keyboard-response","349","107784","0.0-349.0","30IQTZXKALSJBHNM1RTPY6CMD000XY","AV9GV051TQCZK","3I7KR83SNAZT1REYB2SRC49PCEEK9H","","202.39999999850988","img/flower4.png","76","202.79999999701977","3","1","3","2","1,0,0,1,1,0,1,0,1","0,0,1,1,0,1,0,1,1","2",""
"","html-keyboard-response","350","108085","0.0-350.0","30IQTZXKALSJBHNM1RTPY6CMD000XY","AV9GV051TQCZK","3I7KR83SNAZT1REYB2SRC49PCEEK9H","","null","<img src=""img/flower4.png"" style=""width:200px; border:14px solid green;"">","null","","","","","","","","",""
"","image-keyboard-response","351","108240","0.0-351.0","30IQTZXKALSJBHNM1RTPY6CMD000XY","AV9GV051TQCZK","3I7KR83SNAZT1REYB2SRC49PCEEK9H","","155","img/flower4.png","76","155.40000000596046","3","1","3","2","1,0,0,1,1,0,1,0,1","0,0,1,1,0,1,0,1,1","2",""
"","html-keyboard-response","352","108542","0.0-352.0","30IQTZXKALSJBHNM1RTPY6CMD000XY","AV9GV051TQCZK","3I7KR83SNAZT1REYB2SRC49PCEEK9H","","null","<img src=""img/flower4.png"" style=""width:200px; border:14px solid green;"">","null","","","","","","","","",""
"","image-keyboard-response","353","108680","0.0-353.0","30IQTZXKALSJBHNM1RTPY6CMD000XY","AV9GV051TQCZK","3I7KR83SNAZT1REYB2SRC49PCEEK9H","","137.80000000447035","img/flower2.png","76","138.20000000298023","3","1","1","2","1,0,0,1,1,0,1,0,1","0,0,1,1,0,1,0,1,1","2",""
"","html-keyboard-response","354","108982","0.0-354.0","30IQTZXKALSJBHNM1RTPY6CMD000XY","AV9GV051TQCZK","3I7KR83SNAZT1REYB2SRC49PCEEK9H","","null","<img src=""img/flower2.png"" style=""width:200px; border:14px solid green;"">","null","","","","","","","","",""
"","image-keyboard-response","355","109168","0.0-355.0","30IQTZXKALSJBHNM1RTPY6CMD000XY","AV9GV051TQCZK","3I7KR83SNAZT1REYB2SRC49PCEEK9H","","186.10000000149012","img/flower3.png","76","186.40000000596046","3","1","2","2","1,0,0,1,1,0,1,0,1","0,0,1,1,0,1,0,1,1","2",""
"","html-keyboard-response","356","109469","0.0-356.0","30IQTZXKALSJBHNM1RTPY6CMD000XY","AV9GV051TQCZK","3I7KR83SNAZT1REYB2SRC49PCEEK9H","","null","<img src=""img/flower3.png"" style=""width:200px; border:14px solid green;"">","null","","","","","","","","",""
"","image-keyboard-response","357","109640","0.0-357.0","30IQTZXKALSJBHNM1RTPY6CMD000XY","AV9GV051TQCZK","3I7KR83SNAZT1REYB2SRC49PCEEK9H","","170.60000000149012","img/flower4.png","76","171.10000000149012","3","1","3","2","1,0,0,1,1,0,1,0,1","0,0,1,1,0,1,0,1,1","2",""
"","html-keyboard-response","358","109942","0.0-358.0","30IQTZXKALSJBHNM1RTPY6CMD000XY","AV9GV051TQCZK","3I7KR83SNAZT1REYB2SRC49PCEEK9H","","null","<img src=""img/flower4.png"" style=""width:200px; border:14px solid green;"">","null","","","","","","","","",""
"","image-keyboard-response","359","110128","0.0-359.0","30IQTZXKALSJBHNM1RTPY6CMD000XY","AV9GV051TQCZK","3I7KR83SNAZT1REYB2SRC49PCEEK9H","","185.89999999850988","img/flower4.png","76","186.40000000596046","3","1","3","2","1,0,0,1,1,0,1,0,1","0,0,1,1,0,1,0,1,1","2",""
"","html-keyboard-response","360","110430","0.0-360.0","30IQTZXKALSJBHNM1RTPY6CMD000XY","AV9GV051TQCZK","3I7KR83SNAZT1REYB2SRC49PCEEK9H","","null","<img src=""img/flower4.png"" style=""width:200px; border:14px solid green;"">","null","","","","","","","","",""
"","image-keyboard-response","361","110624","0.0-361.0","30IQTZXKALSJBHNM1RTPY6CMD000XY","AV9GV051TQCZK","3I7KR83SNAZT1REYB2SRC49PCEEK9H","","193.70000000298023","img/flower3.png","76","194.10000000149012","3","1","2","2","1,0,0,1,1,0,1,0,1","0,0,1,1,0,1,0,1,1","2",""
"","html-keyboard-response","362","110929","0.0-362.0","30IQTZXKALSJBHNM1RTPY6CMD000XY","AV9GV051TQCZK","3I7KR83SNAZT1REYB2SRC49PCEEK9H","","null","<img src=""img/flower3.png"" style=""width:200px; border:14px solid green;"">","null","","","","","","","","",""
"","instructions","363","114070","0.0-363.0","30IQTZXKALSJBHNM1RTPY6CMD000XY","AV9GV051TQCZK","3I7KR83SNAZT1REYB2SRC49PCEEK9H","[{""page_index"":0,""viewing_time"":3140.39999999851}]","3140.5","","","","","","","","","","",""
"","survey-text","364","119294","0.0-364.0","30IQTZXKALSJBHNM1RTPY6CMD000XY","AV9GV051TQCZK","3I7KR83SNAZT1REYB2SRC49PCEEK9H","","5222.60000000149","","","","","","","","","","","{""Q0"":""AV9GV051TQCZK""}"
