"rt","url","trial_type","trial_index","time_elapsed","internal_node_id","assignmentID","mturkID","hitID","success","view_history","stimulus","key_press","reactionTime","a","r","s","reward_cond","responses"
"33916.5","consent.html","external-html","0","34044","0.0-0.0","39O5D9O87UERPBBOTIFLMRPJDFVC36","AW0K78T4I2T72","3T5ZXGO9DEAUILU6S56NLENRQJRQZJ","","","","","","","","","",""
"","","fullscreen","1","38350","0.0-1.0","39O5D9O87UERPBBOTIFLMRPJDFVC36","AW0K78T4I2T72","3T5ZXGO9DEAUILU6S56NLENRQJRQZJ","true","","","","","","","","",""
"109617.60000000149","","instructions","2","147970","0.0-2.0","39O5D9O87UERPBBOTIFLMRPJDFVC36","AW0K78T4I2T72","3T5ZXGO9DEAUILU6S56NLENRQJRQZJ","","[{""page_index"":0,""viewing_time"":7610.10000000149},{""page_index"":1,""viewing_time"":10935.79999999702},{""page_index"":2,""viewing_time"":9927.900000002235},{""page_index"":3,""viewing_time"":31983.599999997765},{""page_index"":4,""viewing_time"":5935.900000002235},{""page_index"":5,""viewing_time"":32743.599999997765},{""page_index"":6,""viewing_time"":10479.900000002235}]","","","","","","","",""
"17678.39999999851","","instructions","3","165649","0.0-3.0","39O5D9O87UERPBBOTIFLMRPJDFVC36","AW0K78T4I2T72","3T5ZXGO9DEAUILU6S56NLENRQJRQZJ","","[{""page_index"":0,""viewing_time"":17678.199999999255}]","","","","","","","",""
"1306.800000000745","","image-keyboard-response","4","166959","0.0-4.0","39O5D9O87UERPBBOTIFLMRPJDFVC36","AW0K78T4I2T72","3T5ZXGO9DEAUILU6S56NLENRQJRQZJ","","","img/flower5.png","75","1309.2999999970198","2","1","2","",""
"null","","html-keyboard-response","5","167274","0.0-5.0","39O5D9O87UERPBBOTIFLMRPJDFVC36","AW0K78T4I2T72","3T5ZXGO9DEAUILU6S56NLENRQJRQZJ","","","<img src=""img/flower5.png"" style=""width:200px; border:14px solid green;"">","null","","","","","",""
"737.6000000014901","","image-keyboard-response","6","168013","0.0-6.0","39O5D9O87UERPBBOTIFLMRPJDFVC36","AW0K78T4I2T72","3T5ZXGO9DEAUILU6S56NLENRQJRQZJ","","","img/flower5.png","75","738.7999999970198","2","1","2","",""
"null","","html-keyboard-response","7","168328","0.0-7.0","39O5D9O87UERPBBOTIFLMRPJDFVC36","AW0K78T4I2T72","3T5ZXGO9DEAUILU6S56NLENRQJRQZJ","","","<img src=""img/flower5.png"" style=""width:200px; border:14px solid green;"">","null","","","","","",""
"804.1000000014901","","image-keyboard-response","8","169133","0.0-8.0","39O5D9O87UERPBBOTIFLMRPJDFVC36","AW0K78T4I2T72","3T5ZXGO9DEAUILU6S56NLENRQJRQZJ","","","img/flower6.png","76","805.6000000014901","3","1","3","",""
"null","","html-keyboard-response","9","169445","0.0-9.0","39O5D9O87UERPBBOTIFLMRPJDFVC36","AW0K78T4I2T72","3T5ZXGO9DEAUILU6S56NLENRQJRQZJ","","","<img src=""img/flower6.png"" style=""width:200px; border:14px solid green;"">","null","","","","","",""
"526.1000000014901","","image-keyboard-response","10","169973","0.0-10.0","39O5D9O87UERPBBOTIFLMRPJDFVC36","AW0K78T4I2T72","3T5ZXGO9DEAUILU6S56NLENRQJRQZJ","","","img/flower6.png","76","527.5","3","1","3","",""
"null","","html-keyboard-response","11","170277","0.0-11.0","39O5D9O87UERPBBOTIFLMRPJDFVC36","AW0K78T4I2T72","3T5ZXGO9DEAUILU6S56NLENRQJRQZJ","","","<img src=""img/flower6.png"" style=""width:200px; border:14px solid green;"">","null","","","","","",""
"990.5","","image-keyboard-response","12","171269","0.0-12.0","39O5D9O87UERPBBOTIFLMRPJDFVC36","AW0K78T4I2T72","3T5ZXGO9DEAUILU6S56NLENRQJRQZJ","","","img/flower4.png","74","991.8999999985099","1","1","1","",""
"null","","html-keyboard-response","13","171577","0.0-13.0","39O5D9O87UERPBBOTIFLMRPJDFVC36","AW0K78T4I2T72","3T5ZXGO9DEAUILU6S56NLENRQJRQZJ","","","<img src=""img/flower4.png"" style=""width:200px; border:14px solid green;"">","null","","","","","",""
"875","","image-keyboard-response","14","172454","0.0-14.0","39O5D9O87UERPBBOTIFLMRPJDFVC36","AW0K78T4I2T72","3T5ZXGO9DEAUILU6S56NLENRQJRQZJ","","","img/flower5.png","75","876.7000000029802","2","1","2","",""
"null","","html-keyboard-response","15","172759","0.0-15.0","39O5D9O87UERPBBOTIFLMRPJDFVC36","AW0K78T4I2T72","3T5ZXGO9DEAUILU6S56NLENRQJRQZJ","","","<img src=""img/flower5.png"" style=""width:200px; border:14px solid green;"">","null","","","","","",""
"1037.1000000014901","","image-keyboard-response","16","173797","0.0-16.0","39O5D9O87UERPBBOTIFLMRPJDFVC36","AW0K78T4I2T72","3T5ZXGO9DEAUILU6S56NLENRQJRQZJ","","","img/flower4.png","74","1038.300000000745","1","1","1","",""
"null","","html-keyboard-response","17","174109","0.0-17.0","39O5D9O87UERPBBOTIFLMRPJDFVC36","AW0K78T4I2T72","3T5ZXGO9DEAUILU6S56NLENRQJRQZJ","","","<img src=""img/flower4.png"" style=""width:200px; border:14px solid green;"">","null","","","","","",""
"494.9000000022352","","image-keyboard-response","18","174605","0.0-18.0","39O5D9O87UERPBBOTIFLMRPJDFVC36","AW0K78T4I2T72","3T5ZXGO9DEAUILU6S56NLENRQJRQZJ","","","img/flower4.png","74","496","1","1","1","",""
"null","","html-keyboard-response","19","174908","0.0-19.0","39O5D9O87UERPBBOTIFLMRPJDFVC36","AW0K78T4I2T72","3T5ZXGO9DEAUILU6S56NLENRQJRQZJ","","","<img src=""img/flower4.png"" style=""width:200px; border:14px solid green;"">","null","","","","","",""
"423.4000000022352","","image-keyboard-response","20","175333","0.0-20.0","39O5D9O87UERPBBOTIFLMRPJDFVC36","AW0K78T4I2T72","3T5ZXGO9DEAUILU6S56NLENRQJRQZJ","","","img/flower4.png","74","424.80000000074506","1","1","1","",""
"null","","html-keyboard-response","21","175641","0.0-21.0","39O5D9O87UERPBBOTIFLMRPJDFVC36","AW0K78T4I2T72","3T5ZXGO9DEAUILU6S56NLENRQJRQZJ","","","<img src=""img/flower4.png"" style=""width:200px; border:14px solid green;"">","null","","","","","",""
"690.3999999985099","","image-keyboard-response","22","176333","0.0-22.0","39O5D9O87UERPBBOTIFLMRPJDFVC36","AW0K78T4I2T72","3T5ZXGO9DEAUILU6S56NLENRQJRQZJ","","","img/flower5.png","75","691.8999999985099","2","1","2","",""
"null","","html-keyboard-response","23","176642","0.0-23.0","39O5D9O87UERPBBOTIFLMRPJDFVC36","AW0K78T4I2T72","3T5ZXGO9DEAUILU6S56NLENRQJRQZJ","","","<img src=""img/flower5.png"" style=""width:200px; border:14px solid green;"">","null","","","","","",""
"450.1000000014901","","image-keyboard-response","24","177093","0.0-24.0","39O5D9O87UERPBBOTIFLMRPJDFVC36","AW0K78T4I2T72","3T5ZXGO9DEAUILU6S56NLENRQJRQZJ","","","img/flower5.png","75","451.3999999985099","2","0","2","",""
"null","","html-keyboard-response","25","177395","0.0-25.0","39O5D9O87UERPBBOTIFLMRPJDFVC36","AW0K78T4I2T72","3T5ZXGO9DEAUILU6S56NLENRQJRQZJ","","","<img src=""img/flower5.png"" style=""width:200px;border:14px solid red;"">","null","","","","","",""
"1144.7999999970198","","image-keyboard-response","26","178541","0.0-26.0","39O5D9O87UERPBBOTIFLMRPJDFVC36","AW0K78T4I2T72","3T5ZXGO9DEAUILU6S56NLENRQJRQZJ","","","img/flower5.png","75","1146","2","1","2","",""
"null","","html-keyboard-response","27","178857","0.0-27.0","39O5D9O87UERPBBOTIFLMRPJDFVC36","AW0K78T4I2T72","3T5ZXGO9DEAUILU6S56NLENRQJRQZJ","","","<img src=""img/flower5.png"" style=""width:200px; border:14px solid green;"">","null","","","","","",""
"666.8999999985099","","image-keyboard-response","28","179525","0.0-28.0","39O5D9O87UERPBBOTIFLMRPJDFVC36","AW0K78T4I2T72","3T5ZXGO9DEAUILU6S56NLENRQJRQZJ","","","img/flower5.png","75","668.0999999977648","2","1","2","",""
"null","","html-keyboard-response","29","179832","0.0-29.0","39O5D9O87UERPBBOTIFLMRPJDFVC36","AW0K78T4I2T72","3T5ZXGO9DEAUILU6S56NLENRQJRQZJ","","","<img src=""img/flower5.png"" style=""width:200px; border:14px solid green;"">","null","","","","","",""
"923.8000000007451","","image-keyboard-response","30","180757","0.0-30.0","39O5D9O87UERPBBOTIFLMRPJDFVC36","AW0K78T4I2T72","3T5ZXGO9DEAUILU6S56NLENRQJRQZJ","","","img/flower4.png","74","925.0999999977648","1","1","1","",""
"null","","html-keyboard-response","31","181073","0.0-31.0","39O5D9O87UERPBBOTIFLMRPJDFVC36","AW0K78T4I2T72","3T5ZXGO9DEAUILU6S56NLENRQJRQZJ","","","<img src=""img/flower4.png"" style=""width:200px; border:14px solid green;"">","null","","","","","",""
"810.3000000007451","","image-keyboard-response","32","181885","0.0-32.0","39O5D9O87UERPBBOTIFLMRPJDFVC36","AW0K78T4I2T72","3T5ZXGO9DEAUILU6S56NLENRQJRQZJ","","","img/flower5.png","75","811.5999999977648","2","1","2","",""
"null","","html-keyboard-response","33","182189","0.0-33.0","39O5D9O87UERPBBOTIFLMRPJDFVC36","AW0K78T4I2T72","3T5ZXGO9DEAUILU6S56NLENRQJRQZJ","","","<img src=""img/flower5.png"" style=""width:200px; border:14px solid green;"">","null","","","","","",""
"862.8000000007451","","image-keyboard-response","34","183053","0.0-34.0","39O5D9O87UERPBBOTIFLMRPJDFVC36","AW0K78T4I2T72","3T5ZXGO9DEAUILU6S56NLENRQJRQZJ","","","img/flower4.png","74","864.1999999992549","1","1","1","",""
"null","","html-keyboard-response","35","183362","0.0-35.0","39O5D9O87UERPBBOTIFLMRPJDFVC36","AW0K78T4I2T72","3T5ZXGO9DEAUILU6S56NLENRQJRQZJ","","","<img src=""img/flower4.png"" style=""width:200px; border:14px solid green;"">","null","","","","","",""
"457.69999999925494","","image-keyboard-response","36","183821","0.0-36.0","39O5D9O87UERPBBOTIFLMRPJDFVC36","AW0K78T4I2T72","3T5ZXGO9DEAUILU6S56NLENRQJRQZJ","","","img/flower4.png","74","459.1000000014901","1","1","1","",""
"null","","html-keyboard-response","37","184138","0.0-37.0","39O5D9O87UERPBBOTIFLMRPJDFVC36","AW0K78T4I2T72","3T5ZXGO9DEAUILU6S56NLENRQJRQZJ","","","<img src=""img/flower4.png"" style=""width:200px; border:14px solid green;"">","null","","","","","",""
"441.5","","image-keyboard-response","38","184581","0.0-38.0","39O5D9O87UERPBBOTIFLMRPJDFVC36","AW0K78T4I2T72","3T5ZXGO9DEAUILU6S56NLENRQJRQZJ","","","img/flower4.png","74","442.69999999925494","1","1","1","",""
"null","","html-keyboard-response","39","184888","0.0-39.0","39O5D9O87UERPBBOTIFLMRPJDFVC36","AW0K78T4I2T72","3T5ZXGO9DEAUILU6S56NLENRQJRQZJ","","","<img src=""img/flower4.png"" style=""width:200px; border:14px solid green;"">","null","","","","","",""
"939.5","","image-keyboard-response","40","185829","0.0-40.0","39O5D9O87UERPBBOTIFLMRPJDFVC36","AW0K78T4I2T72","3T5ZXGO9DEAUILU6S56NLENRQJRQZJ","","","img/flower6.png","76","940.8999999985099","3","1","3","",""
"null","","html-keyboard-response","41","186138","0.0-41.0","39O5D9O87UERPBBOTIFLMRPJDFVC36","AW0K78T4I2T72","3T5ZXGO9DEAUILU6S56NLENRQJRQZJ","","","<img src=""img/flower6.png"" style=""width:200px; border:14px solid green;"">","null","","","","","",""
"545.3999999985099","","image-keyboard-response","42","186685","0.0-42.0","39O5D9O87UERPBBOTIFLMRPJDFVC36","AW0K78T4I2T72","3T5ZXGO9DEAUILU6S56NLENRQJRQZJ","","","img/flower6.png","76","546.5999999977648","3","0","3","",""
"null","","html-keyboard-response","43","186988","0.0-43.0","39O5D9O87UERPBBOTIFLMRPJDFVC36","AW0K78T4I2T72","3T5ZXGO9DEAUILU6S56NLENRQJRQZJ","","","<img src=""img/flower6.png"" style=""width:200px;border:14px solid red;"">","null","","","","","",""
"943.8000000007451","","image-keyboard-response","44","187933","0.0-44.0","39O5D9O87UERPBBOTIFLMRPJDFVC36","AW0K78T4I2T72","3T5ZXGO9DEAUILU6S56NLENRQJRQZJ","","","img/flower4.png","74","945.1000000014901","1","0","1","",""
"null","","html-keyboard-response","45","188248","0.0-45.0","39O5D9O87UERPBBOTIFLMRPJDFVC36","AW0K78T4I2T72","3T5ZXGO9DEAUILU6S56NLENRQJRQZJ","","","<img src=""img/flower4.png"" style=""width:200px;border:14px solid red;"">","null","","","","","",""
"931.8000000007451","","image-keyboard-response","46","189181","0.0-46.0","39O5D9O87UERPBBOTIFLMRPJDFVC36","AW0K78T4I2T72","3T5ZXGO9DEAUILU6S56NLENRQJRQZJ","","","img/flower6.png","76","933.0999999977648","3","1","3","",""
"null","","html-keyboard-response","47","189486","0.0-47.0","39O5D9O87UERPBBOTIFLMRPJDFVC36","AW0K78T4I2T72","3T5ZXGO9DEAUILU6S56NLENRQJRQZJ","","","<img src=""img/flower6.png"" style=""width:200px; border:14px solid green;"">","null","","","","","",""
"541.4000000022352","","image-keyboard-response","48","190029","0.0-48.0","39O5D9O87UERPBBOTIFLMRPJDFVC36","AW0K78T4I2T72","3T5ZXGO9DEAUILU6S56NLENRQJRQZJ","","","img/flower6.png","76","542.5","3","1","3","",""
"null","","html-keyboard-response","49","190337","0.0-49.0","39O5D9O87UERPBBOTIFLMRPJDFVC36","AW0K78T4I2T72","3T5ZXGO9DEAUILU6S56NLENRQJRQZJ","","","<img src=""img/flower6.png"" style=""width:200px; border:14px solid green;"">","null","","","","","",""
"858.5999999977648","","image-keyboard-response","50","191197","0.0-50.0","39O5D9O87UERPBBOTIFLMRPJDFVC36","AW0K78T4I2T72","3T5ZXGO9DEAUILU6S56NLENRQJRQZJ","","","img/flower5.png","75","860.0999999977648","2","0","2","",""
"null","","html-keyboard-response","51","191503","0.0-51.0","39O5D9O87UERPBBOTIFLMRPJDFVC36","AW0K78T4I2T72","3T5ZXGO9DEAUILU6S56NLENRQJRQZJ","","","<img src=""img/flower5.png"" style=""width:200px;border:14px solid red;"">","null","","","","","",""
"1068.0999999977648","","image-keyboard-response","52","192573","0.0-52.0","39O5D9O87UERPBBOTIFLMRPJDFVC36","AW0K78T4I2T72","3T5ZXGO9DEAUILU6S56NLENRQJRQZJ","","","img/flower6.png","76","1069.1000000014901","3","1","3","",""
"null","","html-keyboard-response","53","192886","0.0-53.0","39O5D9O87UERPBBOTIFLMRPJDFVC36","AW0K78T4I2T72","3T5ZXGO9DEAUILU6S56NLENRQJRQZJ","","","<img src=""img/flower6.png"" style=""width:200px; border:14px solid green;"">","null","","","","","",""
"1421.199999999255","","image-keyboard-response","54","194309","0.0-54.0","39O5D9O87UERPBBOTIFLMRPJDFVC36","AW0K78T4I2T72","3T5ZXGO9DEAUILU6S56NLENRQJRQZJ","","","img/flower6.png","76","1422.4000000022352","3","0","3","",""
"null","","html-keyboard-response","55","194618","0.0-55.0","39O5D9O87UERPBBOTIFLMRPJDFVC36","AW0K78T4I2T72","3T5ZXGO9DEAUILU6S56NLENRQJRQZJ","","","<img src=""img/flower6.png"" style=""width:200px;border:14px solid red;"">","null","","","","","",""
"1009.2000000029802","","image-keyboard-response","56","195629","0.0-56.0","39O5D9O87UERPBBOTIFLMRPJDFVC36","AW0K78T4I2T72","3T5ZXGO9DEAUILU6S56NLENRQJRQZJ","","","img/flower5.png","75","1010.5","2","1","2","",""
"null","","html-keyboard-response","57","195938","0.0-57.0","39O5D9O87UERPBBOTIFLMRPJDFVC36","AW0K78T4I2T72","3T5ZXGO9DEAUILU6S56NLENRQJRQZJ","","","<img src=""img/flower5.png"" style=""width:200px; border:14px solid green;"">","null","","","","","",""
"978.3000000007451","","image-keyboard-response","58","196908","0.0-58.0","39O5D9O87UERPBBOTIFLMRPJDFVC36","AW0K78T4I2T72","3T5ZXGO9DEAUILU6S56NLENRQJRQZJ","","","img/flower6.png","76","979.4000000022352","3","1","3","",""
"null","","html-keyboard-response","59","197224","0.0-59.0","39O5D9O87UERPBBOTIFLMRPJDFVC36","AW0K78T4I2T72","3T5ZXGO9DEAUILU6S56NLENRQJRQZJ","","","<img src=""img/flower6.png"" style=""width:200px; border:14px solid green;"">","null","","","","","",""
"434.6000000014901","","image-keyboard-response","60","197660","0.0-60.0","39O5D9O87UERPBBOTIFLMRPJDFVC36","AW0K78T4I2T72","3T5ZXGO9DEAUILU6S56NLENRQJRQZJ","","","img/flower6.png","76","436","3","1","3","",""
"null","","html-keyboard-response","61","197975","0.0-61.0","39O5D9O87UERPBBOTIFLMRPJDFVC36","AW0K78T4I2T72","3T5ZXGO9DEAUILU6S56NLENRQJRQZJ","","","<img src=""img/flower6.png"" style=""width:200px; border:14px solid green;"">","null","","","","","",""
"659.8000000007451","","image-keyboard-response","62","198636","0.0-62.0","39O5D9O87UERPBBOTIFLMRPJDFVC36","AW0K78T4I2T72","3T5ZXGO9DEAUILU6S56NLENRQJRQZJ","","","img/flower4.png","74","661","1","0","1","",""
"null","","html-keyboard-response","63","198941","0.0-63.0","39O5D9O87UERPBBOTIFLMRPJDFVC36","AW0K78T4I2T72","3T5ZXGO9DEAUILU6S56NLENRQJRQZJ","","","<img src=""img/flower4.png"" style=""width:200px;border:14px solid red;"">","null","","","","","",""
"16097.199999999255","","instructions","64","215039","0.0-64.0","39O5D9O87UERPBBOTIFLMRPJDFVC36","AW0K78T4I2T72","3T5ZXGO9DEAUILU6S56NLENRQJRQZJ","","[{""page_index"":0,""viewing_time"":7441.099999997765},{""page_index"":1,""viewing_time"":8655.900000002235}]","","","","","","","",""
"1202.9000000022352","","image-keyboard-response","65","216244","0.0-65.0","39O5D9O87UERPBBOTIFLMRPJDFVC36","AW0K78T4I2T72","3T5ZXGO9DEAUILU6S56NLENRQJRQZJ","","","img/flower6.png","76","1204.0999999977648","3","0","3","",""
"null","","html-keyboard-response","66","216552","0.0-66.0","39O5D9O87UERPBBOTIFLMRPJDFVC36","AW0K78T4I2T72","3T5ZXGO9DEAUILU6S56NLENRQJRQZJ","","","<img src=""img/flower6.png"" style=""width:200px;border:14px solid red;"">","null","","","","","",""
"1137.8999999985099","","image-keyboard-response","67","217692","0.0-67.0","39O5D9O87UERPBBOTIFLMRPJDFVC36","AW0K78T4I2T72","3T5ZXGO9DEAUILU6S56NLENRQJRQZJ","","","img/flower4.png","74","1139.1000000014901","1","1","1","",""
"null","","html-keyboard-response","68","218001","0.0-68.0","39O5D9O87UERPBBOTIFLMRPJDFVC36","AW0K78T4I2T72","3T5ZXGO9DEAUILU6S56NLENRQJRQZJ","","","<img src=""img/flower4.png"" style=""width:200px; border:14px solid green;"">","null","","","","","",""
"496.5","","image-keyboard-response","69","218500","0.0-69.0","39O5D9O87UERPBBOTIFLMRPJDFVC36","AW0K78T4I2T72","3T5ZXGO9DEAUILU6S56NLENRQJRQZJ","","","img/flower4.png","74","497.69999999925494","1","1","1","",""
"null","","html-keyboard-response","70","218802","0.0-70.0","39O5D9O87UERPBBOTIFLMRPJDFVC36","AW0K78T4I2T72","3T5ZXGO9DEAUILU6S56NLENRQJRQZJ","","","<img src=""img/flower4.png"" style=""width:200px; border:14px solid green;"">","null","","","","","",""
"511.69999999925494","","image-keyboard-response","71","219315","0.0-71.0","39O5D9O87UERPBBOTIFLMRPJDFVC36","AW0K78T4I2T72","3T5ZXGO9DEAUILU6S56NLENRQJRQZJ","","","img/flower4.png","74","512.8999999985099","1","1","1","",""
"null","","html-keyboard-response","72","219633","0.0-72.0","39O5D9O87UERPBBOTIFLMRPJDFVC36","AW0K78T4I2T72","3T5ZXGO9DEAUILU6S56NLENRQJRQZJ","","","<img src=""img/flower4.png"" style=""width:200px; border:14px solid green;"">","null","","","","","",""
"880.8999999985099","","image-keyboard-response","73","220515","0.0-73.0","39O5D9O87UERPBBOTIFLMRPJDFVC36","AW0K78T4I2T72","3T5ZXGO9DEAUILU6S56NLENRQJRQZJ","","","img/flower6.png","76","882.1000000014901","3","1","3","",""
"null","","html-keyboard-response","74","220818","0.0-74.0","39O5D9O87UERPBBOTIFLMRPJDFVC36","AW0K78T4I2T72","3T5ZXGO9DEAUILU6S56NLENRQJRQZJ","","","<img src=""img/flower6.png"" style=""width:200px; border:14px solid green;"">","null","","","","","",""
"503.69999999925494","","image-keyboard-response","75","221323","0.0-75.0","39O5D9O87UERPBBOTIFLMRPJDFVC36","AW0K78T4I2T72","3T5ZXGO9DEAUILU6S56NLENRQJRQZJ","","","img/flower6.png","76","505.1000000014901","3","1","3","",""
"null","","html-keyboard-response","76","221634","0.0-76.0","39O5D9O87UERPBBOTIFLMRPJDFVC36","AW0K78T4I2T72","3T5ZXGO9DEAUILU6S56NLENRQJRQZJ","","","<img src=""img/flower6.png"" style=""width:200px; border:14px solid green;"">","null","","","","","",""
"535.1999999992549","","image-keyboard-response","77","222171","0.0-77.0","39O5D9O87UERPBBOTIFLMRPJDFVC36","AW0K78T4I2T72","3T5ZXGO9DEAUILU6S56NLENRQJRQZJ","","","img/flower6.png","76","536.3000000007451","3","1","3","",""
"null","","html-keyboard-response","78","222484","0.0-78.0","39O5D9O87UERPBBOTIFLMRPJDFVC36","AW0K78T4I2T72","3T5ZXGO9DEAUILU6S56NLENRQJRQZJ","","","<img src=""img/flower6.png"" style=""width:200px; border:14px solid green;"">","null","","","","","",""
"798.0999999977648","","image-keyboard-response","79","223283","0.0-79.0","39O5D9O87UERPBBOTIFLMRPJDFVC36","AW0K78T4I2T72","3T5ZXGO9DEAUILU6S56NLENRQJRQZJ","","","img/flower4.png","74","799.4000000022352","1","0","1","",""
"null","","html-keyboard-response","80","223599","0.0-80.0","39O5D9O87UERPBBOTIFLMRPJDFVC36","AW0K78T4I2T72","3T5ZXGO9DEAUILU6S56NLENRQJRQZJ","","","<img src=""img/flower4.png"" style=""width:200px;border:14px solid red;"">","null","","","","","",""
"858.6999999992549","","image-keyboard-response","81","224460","0.0-81.0","39O5D9O87UERPBBOTIFLMRPJDFVC36","AW0K78T4I2T72","3T5ZXGO9DEAUILU6S56NLENRQJRQZJ","","","img/flower6.png","76","860.1999999992549","3","1","3","",""
"null","","html-keyboard-response","82","224779","0.0-82.0","39O5D9O87UERPBBOTIFLMRPJDFVC36","AW0K78T4I2T72","3T5ZXGO9DEAUILU6S56NLENRQJRQZJ","","","<img src=""img/flower6.png"" style=""width:200px; border:14px solid green;"">","null","","","","","",""
"943.0999999977648","","image-keyboard-response","83","225724","0.0-83.0","39O5D9O87UERPBBOTIFLMRPJDFVC36","AW0K78T4I2T72","3T5ZXGO9DEAUILU6S56NLENRQJRQZJ","","","img/flower5.png","75","944.5","2","0","2","",""
"null","","html-keyboard-response","84","226029","0.0-84.0","39O5D9O87UERPBBOTIFLMRPJDFVC36","AW0K78T4I2T72","3T5ZXGO9DEAUILU6S56NLENRQJRQZJ","","","<img src=""img/flower5.png"" style=""width:200px;border:14px solid red;"">","null","","","","","",""
"485.19999999925494","","image-keyboard-response","85","226515","0.0-85.0","39O5D9O87UERPBBOTIFLMRPJDFVC36","AW0K78T4I2T72","3T5ZXGO9DEAUILU6S56NLENRQJRQZJ","","","img/flower5.png","75","486.3999999985099","2","1","2","",""
"null","","html-keyboard-response","86","226823","0.0-86.0","39O5D9O87UERPBBOTIFLMRPJDFVC36","AW0K78T4I2T72","3T5ZXGO9DEAUILU6S56NLENRQJRQZJ","","","<img src=""img/flower5.png"" style=""width:200px; border:14px solid green;"">","null","","","","","",""
"866.8999999985099","","image-keyboard-response","87","227691","0.0-87.0","39O5D9O87UERPBBOTIFLMRPJDFVC36","AW0K78T4I2T72","3T5ZXGO9DEAUILU6S56NLENRQJRQZJ","","","img/flower6.png","76","868.1000000014901","3","0","3","",""
"null","","html-keyboard-response","88","228009","0.0-88.0","39O5D9O87UERPBBOTIFLMRPJDFVC36","AW0K78T4I2T72","3T5ZXGO9DEAUILU6S56NLENRQJRQZJ","","","<img src=""img/flower6.png"" style=""width:200px;border:14px solid red;"">","null","","","","","",""
"1009","","image-keyboard-response","89","229019","0.0-89.0","39O5D9O87UERPBBOTIFLMRPJDFVC36","AW0K78T4I2T72","3T5ZXGO9DEAUILU6S56NLENRQJRQZJ","","","img/flower5.png","75","1010.1999999992549","2","1","2","",""
"null","","html-keyboard-response","90","229339","0.0-90.0","39O5D9O87UERPBBOTIFLMRPJDFVC36","AW0K78T4I2T72","3T5ZXGO9DEAUILU6S56NLENRQJRQZJ","","","<img src=""img/flower5.png"" style=""width:200px; border:14px solid green;"">","null","","","","","",""
"582.8000000007451","","image-keyboard-response","91","229923","0.0-91.0","39O5D9O87UERPBBOTIFLMRPJDFVC36","AW0K78T4I2T72","3T5ZXGO9DEAUILU6S56NLENRQJRQZJ","","","img/flower5.png","75","584","2","0","2","",""
"null","","html-keyboard-response","92","230229","0.0-92.0","39O5D9O87UERPBBOTIFLMRPJDFVC36","AW0K78T4I2T72","3T5ZXGO9DEAUILU6S56NLENRQJRQZJ","","","<img src=""img/flower5.png"" style=""width:200px;border:14px solid red;"">","null","","","","","",""
"589","","image-keyboard-response","93","230819","0.0-93.0","39O5D9O87UERPBBOTIFLMRPJDFVC36","AW0K78T4I2T72","3T5ZXGO9DEAUILU6S56NLENRQJRQZJ","","","img/flower4.png","74","590.3000000007451","1","1","1","",""
"null","","html-keyboard-response","94","231129","0.0-94.0","39O5D9O87UERPBBOTIFLMRPJDFVC36","AW0K78T4I2T72","3T5ZXGO9DEAUILU6S56NLENRQJRQZJ","","","<img src=""img/flower4.png"" style=""width:200px; border:14px solid green;"">","null","","","","","",""
"424.80000000074506","","image-keyboard-response","95","231555","0.0-95.0","39O5D9O87UERPBBOTIFLMRPJDFVC36","AW0K78T4I2T72","3T5ZXGO9DEAUILU6S56NLENRQJRQZJ","","","img/flower4.png","74","426.1000000014901","1","1","1","",""
"null","","html-keyboard-response","96","231869","0.0-96.0","39O5D9O87UERPBBOTIFLMRPJDFVC36","AW0K78T4I2T72","3T5ZXGO9DEAUILU6S56NLENRQJRQZJ","","","<img src=""img/flower4.png"" style=""width:200px; border:14px solid green;"">","null","","","","","",""
"821.1000000014901","","image-keyboard-response","97","232691","0.0-97.0","39O5D9O87UERPBBOTIFLMRPJDFVC36","AW0K78T4I2T72","3T5ZXGO9DEAUILU6S56NLENRQJRQZJ","","","img/flower6.png","76","822.3999999985099","3","1","3","",""
"null","","html-keyboard-response","98","233009","0.0-98.0","39O5D9O87UERPBBOTIFLMRPJDFVC36","AW0K78T4I2T72","3T5ZXGO9DEAUILU6S56NLENRQJRQZJ","","","<img src=""img/flower6.png"" style=""width:200px; border:14px solid green;"">","null","","","","","",""
"785.3000000007451","","image-keyboard-response","99","233795","0.0-99.0","39O5D9O87UERPBBOTIFLMRPJDFVC36","AW0K78T4I2T72","3T5ZXGO9DEAUILU6S56NLENRQJRQZJ","","","img/flower5.png","75","786.5","2","1","2","",""
"null","","html-keyboard-response","100","234109","0.0-100.0","39O5D9O87UERPBBOTIFLMRPJDFVC36","AW0K78T4I2T72","3T5ZXGO9DEAUILU6S56NLENRQJRQZJ","","","<img src=""img/flower5.png"" style=""width:200px; border:14px solid green;"">","null","","","","","",""
"501.30000000074506","","image-keyboard-response","101","234611","0.0-101.0","39O5D9O87UERPBBOTIFLMRPJDFVC36","AW0K78T4I2T72","3T5ZXGO9DEAUILU6S56NLENRQJRQZJ","","","img/flower5.png","75","502.69999999925494","2","0","2","",""
"null","","html-keyboard-response","102","234921","0.0-102.0","39O5D9O87UERPBBOTIFLMRPJDFVC36","AW0K78T4I2T72","3T5ZXGO9DEAUILU6S56NLENRQJRQZJ","","","<img src=""img/flower5.png"" style=""width:200px;border:14px solid red;"">","null","","","","","",""
"776.6000000014901","","image-keyboard-response","103","235699","0.0-103.0","39O5D9O87UERPBBOTIFLMRPJDFVC36","AW0K78T4I2T72","3T5ZXGO9DEAUILU6S56NLENRQJRQZJ","","","img/flower4.png","74","777.8999999985099","1","1","1","",""
"null","","html-keyboard-response","104","236012","0.0-104.0","39O5D9O87UERPBBOTIFLMRPJDFVC36","AW0K78T4I2T72","3T5ZXGO9DEAUILU6S56NLENRQJRQZJ","","","<img src=""img/flower4.png"" style=""width:200px; border:14px solid green;"">","null","","","","","",""
"885.8999999985099","","image-keyboard-response","105","236899","0.0-105.0","39O5D9O87UERPBBOTIFLMRPJDFVC36","AW0K78T4I2T72","3T5ZXGO9DEAUILU6S56NLENRQJRQZJ","","","img/flower5.png","75","887.1000000014901","2","1","2","",""
"null","","html-keyboard-response","106","237210","0.0-106.0","39O5D9O87UERPBBOTIFLMRPJDFVC36","AW0K78T4I2T72","3T5ZXGO9DEAUILU6S56NLENRQJRQZJ","","","<img src=""img/flower5.png"" style=""width:200px; border:14px solid green;"">","null","","","","","",""
"527.5","","image-keyboard-response","107","237739","0.0-107.0","39O5D9O87UERPBBOTIFLMRPJDFVC36","AW0K78T4I2T72","3T5ZXGO9DEAUILU6S56NLENRQJRQZJ","","","img/flower5.png","75","528.8000000007451","2","1","2","",""
"null","","html-keyboard-response","108","238044","0.0-108.0","39O5D9O87UERPBBOTIFLMRPJDFVC36","AW0K78T4I2T72","3T5ZXGO9DEAUILU6S56NLENRQJRQZJ","","","<img src=""img/flower5.png"" style=""width:200px; border:14px solid green;"">","null","","","","","",""
"678","","image-keyboard-response","109","238723","0.0-109.0","39O5D9O87UERPBBOTIFLMRPJDFVC36","AW0K78T4I2T72","3T5ZXGO9DEAUILU6S56NLENRQJRQZJ","","","img/flower6.png","76","679.1000000014901","3","1","3","",""
"null","","html-keyboard-response","110","239030","0.0-110.0","39O5D9O87UERPBBOTIFLMRPJDFVC36","AW0K78T4I2T72","3T5ZXGO9DEAUILU6S56NLENRQJRQZJ","","","<img src=""img/flower6.png"" style=""width:200px; border:14px solid green;"">","null","","","","","",""
"819.8000000007451","","image-keyboard-response","111","239851","0.0-111.0","39O5D9O87UERPBBOTIFLMRPJDFVC36","AW0K78T4I2T72","3T5ZXGO9DEAUILU6S56NLENRQJRQZJ","","","img/flower4.png","74","821.2000000029802","1","1","1","",""
"null","","html-keyboard-response","112","240161","0.0-112.0","39O5D9O87UERPBBOTIFLMRPJDFVC36","AW0K78T4I2T72","3T5ZXGO9DEAUILU6S56NLENRQJRQZJ","","","<img src=""img/flower4.png"" style=""width:200px; border:14px solid green;"">","null","","","","","",""
"960.6999999992549","","image-keyboard-response","113","241123","0.0-113.0","39O5D9O87UERPBBOTIFLMRPJDFVC36","AW0K78T4I2T72","3T5ZXGO9DEAUILU6S56NLENRQJRQZJ","","","img/flower6.png","76","962","3","0","3","",""
"null","","html-keyboard-response","114","241430","0.0-114.0","39O5D9O87UERPBBOTIFLMRPJDFVC36","AW0K78T4I2T72","3T5ZXGO9DEAUILU6S56NLENRQJRQZJ","","","<img src=""img/flower6.png"" style=""width:200px;border:14px solid red;"">","null","","","","","",""
"891.6000000014901","","image-keyboard-response","115","242323","0.0-115.0","39O5D9O87UERPBBOTIFLMRPJDFVC36","AW0K78T4I2T72","3T5ZXGO9DEAUILU6S56NLENRQJRQZJ","","","img/flower4.png","74","892.8999999985099","1","1","1","",""
"null","","html-keyboard-response","116","242626","0.0-116.0","39O5D9O87UERPBBOTIFLMRPJDFVC36","AW0K78T4I2T72","3T5ZXGO9DEAUILU6S56NLENRQJRQZJ","","","<img src=""img/flower4.png"" style=""width:200px; border:14px solid green;"">","null","","","","","",""
"911.8999999985099","","image-keyboard-response","117","243539","0.0-117.0","39O5D9O87UERPBBOTIFLMRPJDFVC36","AW0K78T4I2T72","3T5ZXGO9DEAUILU6S56NLENRQJRQZJ","","","img/flower5.png","75","913.3000000007451","2","1","2","",""
"null","","html-keyboard-response","118","243850","0.0-118.0","39O5D9O87UERPBBOTIFLMRPJDFVC36","AW0K78T4I2T72","3T5ZXGO9DEAUILU6S56NLENRQJRQZJ","","","<img src=""img/flower5.png"" style=""width:200px; border:14px solid green;"">","null","","","","","",""
"823.8000000007451","","image-keyboard-response","119","244675","0.0-119.0","39O5D9O87UERPBBOTIFLMRPJDFVC36","AW0K78T4I2T72","3T5ZXGO9DEAUILU6S56NLENRQJRQZJ","","","img/flower4.png","74","824.8999999985099","1","0","1","",""
"null","","html-keyboard-response","120","244977","0.0-120.0","39O5D9O87UERPBBOTIFLMRPJDFVC36","AW0K78T4I2T72","3T5ZXGO9DEAUILU6S56NLENRQJRQZJ","","","<img src=""img/flower4.png"" style=""width:200px;border:14px solid red;"">","null","","","","","",""
"929.3999999985099","","image-keyboard-response","121","245907","0.0-121.0","39O5D9O87UERPBBOTIFLMRPJDFVC36","AW0K78T4I2T72","3T5ZXGO9DEAUILU6S56NLENRQJRQZJ","","","img/flower6.png","76","930.4000000022352","3","1","3","",""
"null","","html-keyboard-response","122","246209","0.0-122.0","39O5D9O87UERPBBOTIFLMRPJDFVC36","AW0K78T4I2T72","3T5ZXGO9DEAUILU6S56NLENRQJRQZJ","","","<img src=""img/flower6.png"" style=""width:200px; border:14px solid green;"">","null","","","","","",""
"953.2999999970198","","image-keyboard-response","123","247164","0.0-123.0","39O5D9O87UERPBBOTIFLMRPJDFVC36","AW0K78T4I2T72","3T5ZXGO9DEAUILU6S56NLENRQJRQZJ","","","img/flower5.png","75","954.3999999985099","2","1","2","",""
"null","","html-keyboard-response","124","247474","0.0-124.0","39O5D9O87UERPBBOTIFLMRPJDFVC36","AW0K78T4I2T72","3T5ZXGO9DEAUILU6S56NLENRQJRQZJ","","","<img src=""img/flower5.png"" style=""width:200px; border:14px solid green;"">","null","","","","","",""
"2980.10000000149","","instructions","125","250455","0.0-125.0","39O5D9O87UERPBBOTIFLMRPJDFVC36","AW0K78T4I2T72","3T5ZXGO9DEAUILU6S56NLENRQJRQZJ","","[{""page_index"":0,""viewing_time"":2979.800000000745}]","","","","","","","",""
"907","","image-keyboard-response","126","251363","0.0-126.0","39O5D9O87UERPBBOTIFLMRPJDFVC36","AW0K78T4I2T72","3T5ZXGO9DEAUILU6S56NLENRQJRQZJ","","","img/flower5.png","75","908.1999999992549","2","1","1","1,0.5,0.5,0.5,1,0.5,0.5,0.5,1",""
"null","","html-keyboard-response","127","251673","0.0-127.0","39O5D9O87UERPBBOTIFLMRPJDFVC36","AW0K78T4I2T72","3T5ZXGO9DEAUILU6S56NLENRQJRQZJ","","","<img src=""img/flower5.png"" style=""width:200px; border:14px solid green;"">","null","","","","","",""
"864.3999999985099","","image-keyboard-response","128","252539","0.0-128.0","39O5D9O87UERPBBOTIFLMRPJDFVC36","AW0K78T4I2T72","3T5ZXGO9DEAUILU6S56NLENRQJRQZJ","","","img/flower3.png","74","865.8000000007451","1","0","3","1,0.5,0.5,0.5,1,0.5,0.5,0.5,1",""
"null","","html-keyboard-response","129","252857","0.0-129.0","39O5D9O87UERPBBOTIFLMRPJDFVC36","AW0K78T4I2T72","3T5ZXGO9DEAUILU6S56NLENRQJRQZJ","","","<img src=""img/flower3.png"" style=""width:200px;border:14px solid red;"">","null","","","","","",""
"481","","image-keyboard-response","130","253339","0.0-130.0","39O5D9O87UERPBBOTIFLMRPJDFVC36","AW0K78T4I2T72","3T5ZXGO9DEAUILU6S56NLENRQJRQZJ","","","img/flower3.png","74","482.19999999925494","1","1","3","1,0.5,0.5,0.5,1,0.5,0.5,0.5,1",""
"null","","html-keyboard-response","131","253656","0.0-131.0","39O5D9O87UERPBBOTIFLMRPJDFVC36","AW0K78T4I2T72","3T5ZXGO9DEAUILU6S56NLENRQJRQZJ","","","<img src=""img/flower3.png"" style=""width:200px; border:14px solid green;"">","null","","","","","",""
"450.20000000298023","","image-keyboard-response","132","254107","0.0-132.0","39O5D9O87UERPBBOTIFLMRPJDFVC36","AW0K78T4I2T72","3T5ZXGO9DEAUILU6S56NLENRQJRQZJ","","","img/flower3.png","74","451.29999999701977","1","1","3","1,0.5,0.5,0.5,1,0.5,0.5,0.5,1",""
"null","","html-keyboard-response","133","254422","0.0-133.0","39O5D9O87UERPBBOTIFLMRPJDFVC36","AW0K78T4I2T72","3T5ZXGO9DEAUILU6S56NLENRQJRQZJ","","","<img src=""img/flower3.png"" style=""width:200px; border:14px solid green;"">","null","","","","","",""
"651.5999999977648","","image-keyboard-response","134","255075","0.0-134.0","39O5D9O87UERPBBOTIFLMRPJDFVC36","AW0K78T4I2T72","3T5ZXGO9DEAUILU6S56NLENRQJRQZJ","","","img/flower5.png","75","652.8000000007451","2","0","1","1,0.5,0.5,0.5,1,0.5,0.5,0.5,1",""
"null","","html-keyboard-response","135","255393","0.0-135.0","39O5D9O87UERPBBOTIFLMRPJDFVC36","AW0K78T4I2T72","3T5ZXGO9DEAUILU6S56NLENRQJRQZJ","","","<img src=""img/flower5.png"" style=""width:200px;border:14px solid red;"">","null","","","","","",""
"713.1000000014901","","image-keyboard-response","136","256107","0.0-136.0","39O5D9O87UERPBBOTIFLMRPJDFVC36","AW0K78T4I2T72","3T5ZXGO9DEAUILU6S56NLENRQJRQZJ","","","img/flower3.png","74","714.3999999985099","1","0","3","1,0.5,0.5,0.5,1,0.5,0.5,0.5,1",""
"null","","html-keyboard-response","137","256422","0.0-137.0","39O5D9O87UERPBBOTIFLMRPJDFVC36","AW0K78T4I2T72","3T5ZXGO9DEAUILU6S56NLENRQJRQZJ","","","<img src=""img/flower3.png"" style=""width:200px;border:14px solid red;"">","null","","","","","",""
"972","","image-keyboard-response","138","257401","0.0-138.0","39O5D9O87UERPBBOTIFLMRPJDFVC36","AW0K78T4I2T72","3T5ZXGO9DEAUILU6S56NLENRQJRQZJ","","","img/flower5.png","75","973.3000000007451","2","1","1","1,0.5,0.5,0.5,1,0.5,0.5,0.5,1",""
"null","","html-keyboard-response","139","257710","0.0-139.0","39O5D9O87UERPBBOTIFLMRPJDFVC36","AW0K78T4I2T72","3T5ZXGO9DEAUILU6S56NLENRQJRQZJ","","","<img src=""img/flower5.png"" style=""width:200px; border:14px solid green;"">","null","","","","","",""
"785.4000000022352","","image-keyboard-response","140","258497","0.0-140.0","39O5D9O87UERPBBOTIFLMRPJDFVC36","AW0K78T4I2T72","3T5ZXGO9DEAUILU6S56NLENRQJRQZJ","","","img/flower3.png","74","786.6999999992549","1","1","3","1,0.5,0.5,0.5,1,0.5,0.5,0.5,1",""
"null","","html-keyboard-response","141","258809","0.0-141.0","39O5D9O87UERPBBOTIFLMRPJDFVC36","AW0K78T4I2T72","3T5ZXGO9DEAUILU6S56NLENRQJRQZJ","","","<img src=""img/flower3.png"" style=""width:200px; border:14px solid green;"">","null","","","","","",""
"725.6000000014901","","image-keyboard-response","142","259537","0.0-142.0","39O5D9O87UERPBBOTIFLMRPJDFVC36","AW0K78T4I2T72","3T5ZXGO9DEAUILU6S56NLENRQJRQZJ","","","img/flower5.png","75","726.8000000007451","2","0","1","1,0.5,0.5,0.5,1,0.5,0.5,0.5,1",""
"null","","html-keyboard-response","143","259850","0.0-143.0","39O5D9O87UERPBBOTIFLMRPJDFVC36","AW0K78T4I2T72","3T5ZXGO9DEAUILU6S56NLENRQJRQZJ","","","<img src=""img/flower5.png"" style=""width:200px;border:14px solid red;"">","null","","","","","",""
"701.5","","image-keyboard-response","144","260552","0.0-144.0","39O5D9O87UERPBBOTIFLMRPJDFVC36","AW0K78T4I2T72","3T5ZXGO9DEAUILU6S56NLENRQJRQZJ","","","img/flower5.png","75","702.6999999992549","2","0","1","1,0.5,0.5,0.5,1,0.5,0.5,0.5,1",""
"null","","html-keyboard-response","145","260858","0.0-145.0","39O5D9O87UERPBBOTIFLMRPJDFVC36","AW0K78T4I2T72","3T5ZXGO9DEAUILU6S56NLENRQJRQZJ","","","<img src=""img/flower5.png"" style=""width:200px;border:14px solid red;"">","null","","","","","",""
"820.6999999992549","","image-keyboard-response","146","261681","0.0-146.0","39O5D9O87UERPBBOTIFLMRPJDFVC36","AW0K78T4I2T72","3T5ZXGO9DEAUILU6S56NLENRQJRQZJ","","","img/flower3.png","74","822.1000000014901","1","0","3","1,0.5,0.5,0.5,1,0.5,0.5,0.5,1",""
"null","","html-keyboard-response","147","261992","0.0-147.0","39O5D9O87UERPBBOTIFLMRPJDFVC36","AW0K78T4I2T72","3T5ZXGO9DEAUILU6S56NLENRQJRQZJ","","","<img src=""img/flower3.png"" style=""width:200px;border:14px solid red;"">","null","","","","","",""
"887.3999999985099","","image-keyboard-response","148","262880","0.0-148.0","39O5D9O87UERPBBOTIFLMRPJDFVC36","AW0K78T4I2T72","3T5ZXGO9DEAUILU6S56NLENRQJRQZJ","","","img/flower3.png","74","888.5","1","0","3","1,0.5,0.5,0.5,1,0.5,0.5,0.5,1",""
"null","","html-keyboard-response","149","263191","0.0-149.0","39O5D9O87UERPBBOTIFLMRPJDFVC36","AW0K78T4I2T72","3T5ZXGO9DEAUILU6S56NLENRQJRQZJ","","","<img src=""img/flower3.png"" style=""width:200px;border:14px solid red;"">","null","","","","","",""
"871.8000000007451","","image-keyboard-response","150","264064","0.0-150.0","39O5D9O87UERPBBOTIFLMRPJDFVC36","AW0K78T4I2T72","3T5ZXGO9DEAUILU6S56NLENRQJRQZJ","","","img/flower5.png","75","873.1999999992549","2","0","1","1,0.5,0.5,0.5,1,0.5,0.5,0.5,1",""
"null","","html-keyboard-response","151","264374","0.0-151.0","39O5D9O87UERPBBOTIFLMRPJDFVC36","AW0K78T4I2T72","3T5ZXGO9DEAUILU6S56NLENRQJRQZJ","","","<img src=""img/flower5.png"" style=""width:200px;border:14px solid red;"">","null","","","","","",""
"928.6999999992549","","image-keyboard-response","152","265305","0.0-152.0","39O5D9O87UERPBBOTIFLMRPJDFVC36","AW0K78T4I2T72","3T5ZXGO9DEAUILU6S56NLENRQJRQZJ","","","img/flower5.png","75","929.8999999985099","2","1","1","1,0.5,0.5,0.5,1,0.5,0.5,0.5,1",""
"null","","html-keyboard-response","153","265607","0.0-153.0","39O5D9O87UERPBBOTIFLMRPJDFVC36","AW0K78T4I2T72","3T5ZXGO9DEAUILU6S56NLENRQJRQZJ","","","<img src=""img/flower5.png"" style=""width:200px; border:14px solid green;"">","null","","","","","",""
"703.8999999985099","","image-keyboard-response","154","266312","0.0-154.0","39O5D9O87UERPBBOTIFLMRPJDFVC36","AW0K78T4I2T72","3T5ZXGO9DEAUILU6S56NLENRQJRQZJ","","","img/flower5.png","75","705.1000000014901","2","1","1","1,0.5,0.5,0.5,1,0.5,0.5,0.5,1",""
"null","","html-keyboard-response","155","266624","0.0-155.0","39O5D9O87UERPBBOTIFLMRPJDFVC36","AW0K78T4I2T72","3T5ZXGO9DEAUILU6S56NLENRQJRQZJ","","","<img src=""img/flower5.png"" style=""width:200px; border:14px solid green;"">","null","","","","","",""
"423.3999999985099","","image-keyboard-response","156","267048","0.0-156.0","39O5D9O87UERPBBOTIFLMRPJDFVC36","AW0K78T4I2T72","3T5ZXGO9DEAUILU6S56NLENRQJRQZJ","","","img/flower5.png","75","424.3999999985099","2","1","1","1,0.5,0.5,0.5,1,0.5,0.5,0.5,1",""
"null","","html-keyboard-response","157","267354","0.0-157.0","39O5D9O87UERPBBOTIFLMRPJDFVC36","AW0K78T4I2T72","3T5ZXGO9DEAUILU6S56NLENRQJRQZJ","","","<img src=""img/flower5.png"" style=""width:200px; border:14px solid green;"">","null","","","","","",""
"1053.6000000014901","","image-keyboard-response","158","268409","0.0-158.0","39O5D9O87UERPBBOTIFLMRPJDFVC36","AW0K78T4I2T72","3T5ZXGO9DEAUILU6S56NLENRQJRQZJ","","","img/flower2.png","76","1054.8999999985099","3","0","2","1,0.5,0.5,0.5,1,0.5,0.5,0.5,1",""
"null","","html-keyboard-response","159","268722","0.0-159.0","39O5D9O87UERPBBOTIFLMRPJDFVC36","AW0K78T4I2T72","3T5ZXGO9DEAUILU6S56NLENRQJRQZJ","","","<img src=""img/flower2.png"" style=""width:200px;border:14px solid red;"">","null","","","","","",""
"588.5999999977648","","image-keyboard-response","160","269312","0.0-160.0","39O5D9O87UERPBBOTIFLMRPJDFVC36","AW0K78T4I2T72","3T5ZXGO9DEAUILU6S56NLENRQJRQZJ","","","img/flower2.png","76","589.9000000022352","3","0","2","1,0.5,0.5,0.5,1,0.5,0.5,0.5,1",""
"null","","html-keyboard-response","161","269622","0.0-161.0","39O5D9O87UERPBBOTIFLMRPJDFVC36","AW0K78T4I2T72","3T5ZXGO9DEAUILU6S56NLENRQJRQZJ","","","<img src=""img/flower2.png"" style=""width:200px;border:14px solid red;"">","null","","","","","",""
"760.1999999992549","","image-keyboard-response","162","270384","0.0-162.0","39O5D9O87UERPBBOTIFLMRPJDFVC36","AW0K78T4I2T72","3T5ZXGO9DEAUILU6S56NLENRQJRQZJ","","","img/flower2.png","74","761.4000000022352","1","0","2","1,0.5,0.5,0.5,1,0.5,0.5,0.5,1",""
"null","","html-keyboard-response","163","270689","0.0-163.0","39O5D9O87UERPBBOTIFLMRPJDFVC36","AW0K78T4I2T72","3T5ZXGO9DEAUILU6S56NLENRQJRQZJ","","","<img src=""img/flower2.png"" style=""width:200px;border:14px solid red;"">","null","","","","","",""
"638","","image-keyboard-response","164","271328","0.0-164.0","39O5D9O87UERPBBOTIFLMRPJDFVC36","AW0K78T4I2T72","3T5ZXGO9DEAUILU6S56NLENRQJRQZJ","","","img/flower2.png","75","639.1999999992549","2","1","2","1,0.5,0.5,0.5,1,0.5,0.5,0.5,1",""
"null","","html-keyboard-response","165","271638","0.0-165.0","39O5D9O87UERPBBOTIFLMRPJDFVC36","AW0K78T4I2T72","3T5ZXGO9DEAUILU6S56NLENRQJRQZJ","","","<img src=""img/flower2.png"" style=""width:200px; border:14px solid green;"">","null","","","","","",""
"1777","","image-keyboard-response","166","273416","0.0-166.0","39O5D9O87UERPBBOTIFLMRPJDFVC36","AW0K78T4I2T72","3T5ZXGO9DEAUILU6S56NLENRQJRQZJ","","","img/flower3.png","74","1778.199999999255","1","1","3","1,0.5,0.5,0.5,1,0.5,0.5,0.5,1",""
"null","","html-keyboard-response","167","273719","0.0-167.0","39O5D9O87UERPBBOTIFLMRPJDFVC36","AW0K78T4I2T72","3T5ZXGO9DEAUILU6S56NLENRQJRQZJ","","","<img src=""img/flower3.png"" style=""width:200px; border:14px solid green;"">","null","","","","","",""
"2415.5","","image-keyboard-response","168","276136","0.0-168.0","39O5D9O87UERPBBOTIFLMRPJDFVC36","AW0K78T4I2T72","3T5ZXGO9DEAUILU6S56NLENRQJRQZJ","","","img/flower5.png","75","2416.800000000745","2","1","1","1,0.5,0.5,0.5,1,0.5,0.5,0.5,1",""
"null","","html-keyboard-response","169","276460","0.0-169.0","39O5D9O87UERPBBOTIFLMRPJDFVC36","AW0K78T4I2T72","3T5ZXGO9DEAUILU6S56NLENRQJRQZJ","","","<img src=""img/flower5.png"" style=""width:200px; border:14px solid green;"">","null","","","","","",""
"810.6000000014901","","image-keyboard-response","170","277272","0.0-170.0","39O5D9O87UERPBBOTIFLMRPJDFVC36","AW0K78T4I2T72","3T5ZXGO9DEAUILU6S56NLENRQJRQZJ","","","img/flower3.png","74","811.8000000007451","1","1","3","1,0.5,0.5,0.5,1,0.5,0.5,0.5,1",""
"null","","html-keyboard-response","171","277587","0.0-171.0","39O5D9O87UERPBBOTIFLMRPJDFVC36","AW0K78T4I2T72","3T5ZXGO9DEAUILU6S56NLENRQJRQZJ","","","<img src=""img/flower3.png"" style=""width:200px; border:14px solid green;"">","null","","","","","",""
"436.0999999977648","","image-keyboard-response","172","278024","0.0-172.0","39O5D9O87UERPBBOTIFLMRPJDFVC36","AW0K78T4I2T72","3T5ZXGO9DEAUILU6S56NLENRQJRQZJ","","","img/flower3.png","74","437.30000000074506","1","1","3","1,0.5,0.5,0.5,1,0.5,0.5,0.5,1",""
"null","","html-keyboard-response","173","278336","0.0-173.0","39O5D9O87UERPBBOTIFLMRPJDFVC36","AW0K78T4I2T72","3T5ZXGO9DEAUILU6S56NLENRQJRQZJ","","","<img src=""img/flower3.png"" style=""width:200px; border:14px solid green;"">","null","","","","","",""
"510.69999999925494","","image-keyboard-response","174","278849","0.0-174.0","39O5D9O87UERPBBOTIFLMRPJDFVC36","AW0K78T4I2T72","3T5ZXGO9DEAUILU6S56NLENRQJRQZJ","","","img/flower3.png","74","512","1","1","3","1,0.5,0.5,0.5,1,0.5,0.5,0.5,1",""
"null","","html-keyboard-response","175","279152","0.0-175.0","39O5D9O87UERPBBOTIFLMRPJDFVC36","AW0K78T4I2T72","3T5ZXGO9DEAUILU6S56NLENRQJRQZJ","","","<img src=""img/flower3.png"" style=""width:200px; border:14px solid green;"">","null","","","","","",""
"470.6000000014901","","image-keyboard-response","176","279624","0.0-176.0","39O5D9O87UERPBBOTIFLMRPJDFVC36","AW0K78T4I2T72","3T5ZXGO9DEAUILU6S56NLENRQJRQZJ","","","img/flower3.png","74","471.8999999985099","1","0","3","1,0.5,0.5,0.5,1,0.5,0.5,0.5,1",""
"null","","html-keyboard-response","177","279936","0.0-177.0","39O5D9O87UERPBBOTIFLMRPJDFVC36","AW0K78T4I2T72","3T5ZXGO9DEAUILU6S56NLENRQJRQZJ","","","<img src=""img/flower3.png"" style=""width:200px;border:14px solid red;"">","null","","","","","",""
"846.5","","image-keyboard-response","178","280785","0.0-178.0","39O5D9O87UERPBBOTIFLMRPJDFVC36","AW0K78T4I2T72","3T5ZXGO9DEAUILU6S56NLENRQJRQZJ","","","img/flower5.png","75","847.9000000022352","2","1","1","1,0.5,0.5,0.5,1,0.5,0.5,0.5,1",""
"null","","html-keyboard-response","179","281086","0.0-179.0","39O5D9O87UERPBBOTIFLMRPJDFVC36","AW0K78T4I2T72","3T5ZXGO9DEAUILU6S56NLENRQJRQZJ","","","<img src=""img/flower5.png"" style=""width:200px; border:14px solid green;"">","null","","","","","",""
"448.19999999925494","","image-keyboard-response","180","281536","0.0-180.0","39O5D9O87UERPBBOTIFLMRPJDFVC36","AW0K78T4I2T72","3T5ZXGO9DEAUILU6S56NLENRQJRQZJ","","","img/flower5.png","75","449.30000000074506","2","0","1","1,0.5,0.5,0.5,1,0.5,0.5,0.5,1",""
"null","","html-keyboard-response","181","281842","0.0-181.0","39O5D9O87UERPBBOTIFLMRPJDFVC36","AW0K78T4I2T72","3T5ZXGO9DEAUILU6S56NLENRQJRQZJ","","","<img src=""img/flower5.png"" style=""width:200px;border:14px solid red;"">","null","","","","","",""
"900.7000000029802","","image-keyboard-response","182","282744","0.0-182.0","39O5D9O87UERPBBOTIFLMRPJDFVC36","AW0K78T4I2T72","3T5ZXGO9DEAUILU6S56NLENRQJRQZJ","","","img/flower3.png","74","902.1000000014901","1","1","3","1,0.5,0.5,0.5,1,0.5,0.5,0.5,1",""
"null","","html-keyboard-response","183","283051","0.0-183.0","39O5D9O87UERPBBOTIFLMRPJDFVC36","AW0K78T4I2T72","3T5ZXGO9DEAUILU6S56NLENRQJRQZJ","","","<img src=""img/flower3.png"" style=""width:200px; border:14px solid green;"">","null","","","","","",""
"787.5","","image-keyboard-response","184","283840","0.0-184.0","39O5D9O87UERPBBOTIFLMRPJDFVC36","AW0K78T4I2T72","3T5ZXGO9DEAUILU6S56NLENRQJRQZJ","","","img/flower5.png","75","788.6999999992549","2","1","1","1,0.5,0.5,0.5,1,0.5,0.5,0.5,1",""
"null","","html-keyboard-response","185","284152","0.0-185.0","39O5D9O87UERPBBOTIFLMRPJDFVC36","AW0K78T4I2T72","3T5ZXGO9DEAUILU6S56NLENRQJRQZJ","","","<img src=""img/flower5.png"" style=""width:200px; border:14px solid green;"">","null","","","","","",""
"1271.300000000745","","image-keyboard-response","186","285424","0.0-186.0","39O5D9O87UERPBBOTIFLMRPJDFVC36","AW0K78T4I2T72","3T5ZXGO9DEAUILU6S56NLENRQJRQZJ","","","img/flower2.png","75","1272.300000000745","2","1","2","1,0.5,0.5,0.5,1,0.5,0.5,0.5,1",""
"null","","html-keyboard-response","187","285733","0.0-187.0","39O5D9O87UERPBBOTIFLMRPJDFVC36","AW0K78T4I2T72","3T5ZXGO9DEAUILU6S56NLENRQJRQZJ","","","<img src=""img/flower2.png"" style=""width:200px; border:14px solid green;"">","null","","","","","",""
"513.5999999977648","","image-keyboard-response","188","286248","0.0-188.0","39O5D9O87UERPBBOTIFLMRPJDFVC36","AW0K78T4I2T72","3T5ZXGO9DEAUILU6S56NLENRQJRQZJ","","","img/flower2.png","75","514.8000000007451","2","1","2","1,0.5,0.5,0.5,1,0.5,0.5,0.5,1",""
"null","","html-keyboard-response","189","286551","0.0-189.0","39O5D9O87UERPBBOTIFLMRPJDFVC36","AW0K78T4I2T72","3T5ZXGO9DEAUILU6S56NLENRQJRQZJ","","","<img src=""img/flower2.png"" style=""width:200px; border:14px solid green;"">","null","","","","","",""
"815.5999999977648","","image-keyboard-response","190","287368","0.0-190.0","39O5D9O87UERPBBOTIFLMRPJDFVC36","AW0K78T4I2T72","3T5ZXGO9DEAUILU6S56NLENRQJRQZJ","","","img/flower3.png","74","816.5","1","1","3","1,0.5,0.5,0.5,1,0.5,0.5,0.5,1",""
"null","","html-keyboard-response","191","287683","0.0-191.0","39O5D9O87UERPBBOTIFLMRPJDFVC36","AW0K78T4I2T72","3T5ZXGO9DEAUILU6S56NLENRQJRQZJ","","","<img src=""img/flower3.png"" style=""width:200px; border:14px solid green;"">","null","","","","","",""
"988.4000000022352","","image-keyboard-response","192","288672","0.0-192.0","39O5D9O87UERPBBOTIFLMRPJDFVC36","AW0K78T4I2T72","3T5ZXGO9DEAUILU6S56NLENRQJRQZJ","","","img/flower3.png","74","991.0999999977648","1","1","3","1,0.5,0.5,0.5,1,0.5,0.5,0.5,1",""
"null","","html-keyboard-response","193","288983","0.0-193.0","39O5D9O87UERPBBOTIFLMRPJDFVC36","AW0K78T4I2T72","3T5ZXGO9DEAUILU6S56NLENRQJRQZJ","","","<img src=""img/flower3.png"" style=""width:200px; border:14px solid green;"">","null","","","","","",""
"847.8000000007451","","image-keyboard-response","194","289832","0.0-194.0","39O5D9O87UERPBBOTIFLMRPJDFVC36","AW0K78T4I2T72","3T5ZXGO9DEAUILU6S56NLENRQJRQZJ","","","img/flower2.png","75","849","2","1","2","1,0.5,0.5,0.5,1,0.5,0.5,0.5,1",""
"null","","html-keyboard-response","195","290148","0.0-195.0","39O5D9O87UERPBBOTIFLMRPJDFVC36","AW0K78T4I2T72","3T5ZXGO9DEAUILU6S56NLENRQJRQZJ","","","<img src=""img/flower2.png"" style=""width:200px; border:14px solid green;"">","null","","","","","",""
"818.3999999985099","","image-keyboard-response","196","290969","0.0-196.0","39O5D9O87UERPBBOTIFLMRPJDFVC36","AW0K78T4I2T72","3T5ZXGO9DEAUILU6S56NLENRQJRQZJ","","","img/flower3.png","74","820.1000000014901","1","1","3","1,0.5,0.5,0.5,1,0.5,0.5,0.5,1",""
"null","","html-keyboard-response","197","291276","0.0-197.0","39O5D9O87UERPBBOTIFLMRPJDFVC36","AW0K78T4I2T72","3T5ZXGO9DEAUILU6S56NLENRQJRQZJ","","","<img src=""img/flower3.png"" style=""width:200px; border:14px solid green;"">","null","","","","","",""
"834.3000000007451","","image-keyboard-response","198","292112","0.0-198.0","39O5D9O87UERPBBOTIFLMRPJDFVC36","AW0K78T4I2T72","3T5ZXGO9DEAUILU6S56NLENRQJRQZJ","","","img/flower5.png","75","835.5","2","0","1","1,0.5,0.5,0.5,1,0.5,0.5,0.5,1",""
"null","","html-keyboard-response","199","292415","0.0-199.0","39O5D9O87UERPBBOTIFLMRPJDFVC36","AW0K78T4I2T72","3T5ZXGO9DEAUILU6S56NLENRQJRQZJ","","","<img src=""img/flower5.png"" style=""width:200px;border:14px solid red;"">","null","","","","","",""
"799.6999999992549","","image-keyboard-response","200","293216","0.0-200.0","39O5D9O87UERPBBOTIFLMRPJDFVC36","AW0K78T4I2T72","3T5ZXGO9DEAUILU6S56NLENRQJRQZJ","","","img/flower3.png","74","801","1","0","3","1,0.5,0.5,0.5,1,0.5,0.5,0.5,1",""
"null","","html-keyboard-response","201","293531","0.0-201.0","39O5D9O87UERPBBOTIFLMRPJDFVC36","AW0K78T4I2T72","3T5ZXGO9DEAUILU6S56NLENRQJRQZJ","","","<img src=""img/flower3.png"" style=""width:200px;border:14px solid red;"">","null","","","","","",""
"924","","image-keyboard-response","202","294456","0.0-202.0","39O5D9O87UERPBBOTIFLMRPJDFVC36","AW0K78T4I2T72","3T5ZXGO9DEAUILU6S56NLENRQJRQZJ","","","img/flower5.png","75","925.1000000014901","2","0","1","1,0.5,0.5,0.5,1,0.5,0.5,0.5,1",""
"null","","html-keyboard-response","203","294763","0.0-203.0","39O5D9O87UERPBBOTIFLMRPJDFVC36","AW0K78T4I2T72","3T5ZXGO9DEAUILU6S56NLENRQJRQZJ","","","<img src=""img/flower5.png"" style=""width:200px;border:14px solid red;"">","null","","","","","",""
"803.3000000007451","","image-keyboard-response","204","295568","0.0-204.0","39O5D9O87UERPBBOTIFLMRPJDFVC36","AW0K78T4I2T72","3T5ZXGO9DEAUILU6S56NLENRQJRQZJ","","","img/flower5.png","75","804.5","2","1","1","1,0.5,0.5,0.5,1,0.5,0.5,0.5,1",""
"null","","html-keyboard-response","205","295885","0.0-205.0","39O5D9O87UERPBBOTIFLMRPJDFVC36","AW0K78T4I2T72","3T5ZXGO9DEAUILU6S56NLENRQJRQZJ","","","<img src=""img/flower5.png"" style=""width:200px; border:14px solid green;"">","null","","","","","",""
"609.7000000029802","","image-keyboard-response","206","296496","0.0-206.0","39O5D9O87UERPBBOTIFLMRPJDFVC36","AW0K78T4I2T72","3T5ZXGO9DEAUILU6S56NLENRQJRQZJ","","","img/flower3.png","74","611.1999999992549","1","0","3","1,0.5,0.5,0.5,1,0.5,0.5,0.5,1",""
"null","","html-keyboard-response","207","296813","0.0-207.0","39O5D9O87UERPBBOTIFLMRPJDFVC36","AW0K78T4I2T72","3T5ZXGO9DEAUILU6S56NLENRQJRQZJ","","","<img src=""img/flower3.png"" style=""width:200px;border:14px solid red;"">","null","","","","","",""
"833.8999999985099","","image-keyboard-response","208","297648","0.0-208.0","39O5D9O87UERPBBOTIFLMRPJDFVC36","AW0K78T4I2T72","3T5ZXGO9DEAUILU6S56NLENRQJRQZJ","","","img/flower5.png","75","835.1999999992549","2","1","1","1,0.5,0.5,0.5,1,0.5,0.5,0.5,1",""
"null","","html-keyboard-response","209","297964","0.0-209.0","39O5D9O87UERPBBOTIFLMRPJDFVC36","AW0K78T4I2T72","3T5ZXGO9DEAUILU6S56NLENRQJRQZJ","","","<img src=""img/flower5.png"" style=""width:200px; border:14px solid green;"">","null","","","","","",""
"666.8999999985099","","image-keyboard-response","210","298632","0.0-210.0","39O5D9O87UERPBBOTIFLMRPJDFVC36","AW0K78T4I2T72","3T5ZXGO9DEAUILU6S56NLENRQJRQZJ","","","img/flower2.png","75","668.1000000014901","2","1","2","1,0.5,0.5,0.5,1,0.5,0.5,0.5,1",""
"null","","html-keyboard-response","211","298947","0.0-211.0","39O5D9O87UERPBBOTIFLMRPJDFVC36","AW0K78T4I2T72","3T5ZXGO9DEAUILU6S56NLENRQJRQZJ","","","<img src=""img/flower2.png"" style=""width:200px; border:14px solid green;"">","null","","","","","",""
"412","","image-keyboard-response","212","299360","0.0-212.0","39O5D9O87UERPBBOTIFLMRPJDFVC36","AW0K78T4I2T72","3T5ZXGO9DEAUILU6S56NLENRQJRQZJ","","","img/flower2.png","75","413.4000000022352","2","1","2","1,0.5,0.5,0.5,1,0.5,0.5,0.5,1",""
"null","","html-keyboard-response","213","299663","0.0-213.0","39O5D9O87UERPBBOTIFLMRPJDFVC36","AW0K78T4I2T72","3T5ZXGO9DEAUILU6S56NLENRQJRQZJ","","","<img src=""img/flower2.png"" style=""width:200px; border:14px solid green;"">","null","","","","","",""
"2288.300000000745","","image-keyboard-response","214","301952","0.0-214.0","39O5D9O87UERPBBOTIFLMRPJDFVC36","AW0K78T4I2T72","3T5ZXGO9DEAUILU6S56NLENRQJRQZJ","","","img/flower5.png","75","2289.39999999851","2","1","1","1,0.5,0.5,0.5,1,0.5,0.5,0.5,1",""
"null","","html-keyboard-response","215","302262","0.0-215.0","39O5D9O87UERPBBOTIFLMRPJDFVC36","AW0K78T4I2T72","3T5ZXGO9DEAUILU6S56NLENRQJRQZJ","","","<img src=""img/flower5.png"" style=""width:200px; border:14px solid green;"">","null","","","","","",""
"920.4000000022352","","image-keyboard-response","216","303184","0.0-216.0","39O5D9O87UERPBBOTIFLMRPJDFVC36","AW0K78T4I2T72","3T5ZXGO9DEAUILU6S56NLENRQJRQZJ","","","img/flower3.png","74","921.6999999992549","1","0","3","1,0.5,0.5,0.5,1,0.5,0.5,0.5,1",""
"null","","html-keyboard-response","217","303494","0.0-217.0","39O5D9O87UERPBBOTIFLMRPJDFVC36","AW0K78T4I2T72","3T5ZXGO9DEAUILU6S56NLENRQJRQZJ","","","<img src=""img/flower3.png"" style=""width:200px;border:14px solid red;"">","null","","","","","",""
"976","","image-keyboard-response","218","304472","0.0-218.0","39O5D9O87UERPBBOTIFLMRPJDFVC36","AW0K78T4I2T72","3T5ZXGO9DEAUILU6S56NLENRQJRQZJ","","","img/flower2.png","75","977.3999999985099","2","1","2","1,0.5,0.5,0.5,1,0.5,0.5,0.5,1",""
"null","","html-keyboard-response","219","304778","0.0-219.0","39O5D9O87UERPBBOTIFLMRPJDFVC36","AW0K78T4I2T72","3T5ZXGO9DEAUILU6S56NLENRQJRQZJ","","","<img src=""img/flower2.png"" style=""width:200px; border:14px solid green;"">","null","","","","","",""
"436.1000000014901","","image-keyboard-response","220","305216","0.0-220.0","39O5D9O87UERPBBOTIFLMRPJDFVC36","AW0K78T4I2T72","3T5ZXGO9DEAUILU6S56NLENRQJRQZJ","","","img/flower2.png","75","437.3999999985099","2","1","2","1,0.5,0.5,0.5,1,0.5,0.5,0.5,1",""
"null","","html-keyboard-response","221","305527","0.0-221.0","39O5D9O87UERPBBOTIFLMRPJDFVC36","AW0K78T4I2T72","3T5ZXGO9DEAUILU6S56NLENRQJRQZJ","","","<img src=""img/flower2.png"" style=""width:200px; border:14px solid green;"">","null","","","","","",""
"848.1000000014901","","image-keyboard-response","222","306376","0.0-222.0","39O5D9O87UERPBBOTIFLMRPJDFVC36","AW0K78T4I2T72","3T5ZXGO9DEAUILU6S56NLENRQJRQZJ","","","img/flower3.png","74","848.9000000022352","1","1","3","1,0.5,0.5,0.5,1,0.5,0.5,0.5,1",""
"null","","html-keyboard-response","223","306693","0.0-223.0","39O5D9O87UERPBBOTIFLMRPJDFVC36","AW0K78T4I2T72","3T5ZXGO9DEAUILU6S56NLENRQJRQZJ","","","<img src=""img/flower3.png"" style=""width:200px; border:14px solid green;"">","null","","","","","",""
"473.8999999985099","","image-keyboard-response","224","307168","0.0-224.0","39O5D9O87UERPBBOTIFLMRPJDFVC36","AW0K78T4I2T72","3T5ZXGO9DEAUILU6S56NLENRQJRQZJ","","","img/flower3.png","74","475.19999999925494","1","0","3","1,0.5,0.5,0.5,1,0.5,0.5,0.5,1",""
"null","","html-keyboard-response","225","307476","0.0-225.0","39O5D9O87UERPBBOTIFLMRPJDFVC36","AW0K78T4I2T72","3T5ZXGO9DEAUILU6S56NLENRQJRQZJ","","","<img src=""img/flower3.png"" style=""width:200px;border:14px solid red;"">","null","","","","","",""
"714.3999999985099","","image-keyboard-response","226","308192","0.0-226.0","39O5D9O87UERPBBOTIFLMRPJDFVC36","AW0K78T4I2T72","3T5ZXGO9DEAUILU6S56NLENRQJRQZJ","","","img/flower2.png","75","715.7999999970198","2","1","2","1,0.5,0.5,0.5,1,0.5,0.5,0.5,1",""
"null","","html-keyboard-response","227","308509","0.0-227.0","39O5D9O87UERPBBOTIFLMRPJDFVC36","AW0K78T4I2T72","3T5ZXGO9DEAUILU6S56NLENRQJRQZJ","","","<img src=""img/flower2.png"" style=""width:200px; border:14px solid green;"">","null","","","","","",""
"817.1999999992549","","image-keyboard-response","228","309328","0.0-228.0","39O5D9O87UERPBBOTIFLMRPJDFVC36","AW0K78T4I2T72","3T5ZXGO9DEAUILU6S56NLENRQJRQZJ","","","img/flower3.png","74","818.5999999977648","1","1","3","1,0.5,0.5,0.5,1,0.5,0.5,0.5,1",""
"null","","html-keyboard-response","229","309642","0.0-229.0","39O5D9O87UERPBBOTIFLMRPJDFVC36","AW0K78T4I2T72","3T5ZXGO9DEAUILU6S56NLENRQJRQZJ","","","<img src=""img/flower3.png"" style=""width:200px; border:14px solid green;"">","null","","","","","",""
"820.7999999970198","","image-keyboard-response","230","310464","0.0-230.0","39O5D9O87UERPBBOTIFLMRPJDFVC36","AW0K78T4I2T72","3T5ZXGO9DEAUILU6S56NLENRQJRQZJ","","","img/flower5.png","75","822.1000000014901","2","0","1","1,0.5,0.5,0.5,1,0.5,0.5,0.5,1",""
"null","","html-keyboard-response","231","310776","0.0-231.0","39O5D9O87UERPBBOTIFLMRPJDFVC36","AW0K78T4I2T72","3T5ZXGO9DEAUILU6S56NLENRQJRQZJ","","","<img src=""img/flower5.png"" style=""width:200px;border:14px solid red;"">","null","","","","","",""
"878.5999999977648","","image-keyboard-response","232","311656","0.0-232.0","39O5D9O87UERPBBOTIFLMRPJDFVC36","AW0K78T4I2T72","3T5ZXGO9DEAUILU6S56NLENRQJRQZJ","","","img/flower3.png","74","879.6999999992549","1","1","3","1,0.5,0.5,0.5,1,0.5,0.5,0.5,1",""
"null","","html-keyboard-response","233","311959","0.0-233.0","39O5D9O87UERPBBOTIFLMRPJDFVC36","AW0K78T4I2T72","3T5ZXGO9DEAUILU6S56NLENRQJRQZJ","","","<img src=""img/flower3.png"" style=""width:200px; border:14px solid green;"">","null","","","","","",""
"687.6999999992549","","image-keyboard-response","234","312648","0.0-234.0","39O5D9O87UERPBBOTIFLMRPJDFVC36","AW0K78T4I2T72","3T5ZXGO9DEAUILU6S56NLENRQJRQZJ","","","img/flower5.png","75","689.1000000014901","2","0","1","1,0.5,0.5,0.5,1,0.5,0.5,0.5,1",""
"null","","html-keyboard-response","235","312958","0.0-235.0","39O5D9O87UERPBBOTIFLMRPJDFVC36","AW0K78T4I2T72","3T5ZXGO9DEAUILU6S56NLENRQJRQZJ","","","<img src=""img/flower5.png"" style=""width:200px;border:14px solid red;"">","null","","","","","",""
"832.1999999992549","","image-keyboard-response","236","313792","0.0-236.0","39O5D9O87UERPBBOTIFLMRPJDFVC36","AW0K78T4I2T72","3T5ZXGO9DEAUILU6S56NLENRQJRQZJ","","","img/flower2.png","75","833.6000000014901","2","1","2","1,0.5,0.5,0.5,1,0.5,0.5,0.5,1",""
"null","","html-keyboard-response","237","314108","0.0-237.0","39O5D9O87UERPBBOTIFLMRPJDFVC36","AW0K78T4I2T72","3T5ZXGO9DEAUILU6S56NLENRQJRQZJ","","","<img src=""img/flower2.png"" style=""width:200px; border:14px solid green;"">","null","","","","","",""
"1010.5","","image-keyboard-response","238","315120","0.0-238.0","39O5D9O87UERPBBOTIFLMRPJDFVC36","AW0K78T4I2T72","3T5ZXGO9DEAUILU6S56NLENRQJRQZJ","","","img/flower5.png","75","1011.8000000007451","2","0","1","1,0.5,0.5,0.5,1,0.5,0.5,0.5,1",""
"null","","html-keyboard-response","239","315426","0.0-239.0","39O5D9O87UERPBBOTIFLMRPJDFVC36","AW0K78T4I2T72","3T5ZXGO9DEAUILU6S56NLENRQJRQZJ","","","<img src=""img/flower5.png"" style=""width:200px;border:14px solid red;"">","null","","","","","",""
"795.8000000007451","","image-keyboard-response","240","316224","0.0-240.0","39O5D9O87UERPBBOTIFLMRPJDFVC36","AW0K78T4I2T72","3T5ZXGO9DEAUILU6S56NLENRQJRQZJ","","","img/flower3.png","74","797.2000000029802","1","0","3","1,0.5,0.5,0.5,1,0.5,0.5,0.5,1",""
"null","","html-keyboard-response","241","316541","0.0-241.0","39O5D9O87UERPBBOTIFLMRPJDFVC36","AW0K78T4I2T72","3T5ZXGO9DEAUILU6S56NLENRQJRQZJ","","","<img src=""img/flower3.png"" style=""width:200px;border:14px solid red;"">","null","","","","","",""
"921.3000000007451","","image-keyboard-response","242","317468","0.0-242.0","39O5D9O87UERPBBOTIFLMRPJDFVC36","AW0K78T4I2T72","3T5ZXGO9DEAUILU6S56NLENRQJRQZJ","","","img/flower3.png","74","922.7000000029802","1","1","3","1,0.5,0.5,0.5,1,0.5,0.5,0.5,1",""
"null","","html-keyboard-response","243","317773","0.0-243.0","39O5D9O87UERPBBOTIFLMRPJDFVC36","AW0K78T4I2T72","3T5ZXGO9DEAUILU6S56NLENRQJRQZJ","","","<img src=""img/flower3.png"" style=""width:200px; border:14px solid green;"">","null","","","","","",""
"749.0999999977648","","image-keyboard-response","244","318524","0.0-244.0","39O5D9O87UERPBBOTIFLMRPJDFVC36","AW0K78T4I2T72","3T5ZXGO9DEAUILU6S56NLENRQJRQZJ","","","img/flower2.png","75","750.4000000022352","2","1","2","1,0.5,0.5,0.5,1,0.5,0.5,0.5,1",""
"null","","html-keyboard-response","245","318826","0.0-245.0","39O5D9O87UERPBBOTIFLMRPJDFVC36","AW0K78T4I2T72","3T5ZXGO9DEAUILU6S56NLENRQJRQZJ","","","<img src=""img/flower2.png"" style=""width:200px; border:14px solid green;"">","null","","","","","",""
"392.30000000074506","","image-keyboard-response","246","319220","0.0-246.0","39O5D9O87UERPBBOTIFLMRPJDFVC36","AW0K78T4I2T72","3T5ZXGO9DEAUILU6S56NLENRQJRQZJ","","","img/flower2.png","75","393.6000000014901","2","1","2","1,0.5,0.5,0.5,1,0.5,0.5,0.5,1",""
"null","","html-keyboard-response","247","319525","0.0-247.0","39O5D9O87UERPBBOTIFLMRPJDFVC36","AW0K78T4I2T72","3T5ZXGO9DEAUILU6S56NLENRQJRQZJ","","","<img src=""img/flower2.png"" style=""width:200px; border:14px solid green;"">","null","","","","","",""
"1077.300000000745","","image-keyboard-response","248","320604","0.0-248.0","39O5D9O87UERPBBOTIFLMRPJDFVC36","AW0K78T4I2T72","3T5ZXGO9DEAUILU6S56NLENRQJRQZJ","","","img/flower3.png","74","1078.5","1","1","3","1,0.5,0.5,0.5,1,0.5,0.5,0.5,1",""
"null","","html-keyboard-response","249","320908","0.0-249.0","39O5D9O87UERPBBOTIFLMRPJDFVC36","AW0K78T4I2T72","3T5ZXGO9DEAUILU6S56NLENRQJRQZJ","","","<img src=""img/flower3.png"" style=""width:200px; border:14px solid green;"">","null","","","","","",""
"813.8000000007451","","image-keyboard-response","250","321724","0.0-250.0","39O5D9O87UERPBBOTIFLMRPJDFVC36","AW0K78T4I2T72","3T5ZXGO9DEAUILU6S56NLENRQJRQZJ","","","img/flower2.png","75","814.9000000022352","2","1","2","1,0.5,0.5,0.5,1,0.5,0.5,0.5,1",""
"null","","html-keyboard-response","251","322026","0.0-251.0","39O5D9O87UERPBBOTIFLMRPJDFVC36","AW0K78T4I2T72","3T5ZXGO9DEAUILU6S56NLENRQJRQZJ","","","<img src=""img/flower2.png"" style=""width:200px; border:14px solid green;"">","null","","","","","",""
"1056.699999999255","","image-keyboard-response","252","323084","0.0-252.0","39O5D9O87UERPBBOTIFLMRPJDFVC36","AW0K78T4I2T72","3T5ZXGO9DEAUILU6S56NLENRQJRQZJ","","","img/flower5.png","76","1058","3","1","1","1,0.5,0.5,0.5,1,0.5,0.5,0.5,1",""
"null","","html-keyboard-response","253","323395","0.0-253.0","39O5D9O87UERPBBOTIFLMRPJDFVC36","AW0K78T4I2T72","3T5ZXGO9DEAUILU6S56NLENRQJRQZJ","","","<img src=""img/flower5.png"" style=""width:200px; border:14px solid green;"">","null","","","","","",""
"527.3999999985099","","image-keyboard-response","254","323924","0.0-254.0","39O5D9O87UERPBBOTIFLMRPJDFVC36","AW0K78T4I2T72","3T5ZXGO9DEAUILU6S56NLENRQJRQZJ","","","img/flower5.png","76","528.6999999992549","3","1","1","1,0.5,0.5,0.5,1,0.5,0.5,0.5,1",""
"null","","html-keyboard-response","255","324240","0.0-255.0","39O5D9O87UERPBBOTIFLMRPJDFVC36","AW0K78T4I2T72","3T5ZXGO9DEAUILU6S56NLENRQJRQZJ","","","<img src=""img/flower5.png"" style=""width:200px; border:14px solid green;"">","null","","","","","",""
"538.4000000022352","","image-keyboard-response","256","324780","0.0-256.0","39O5D9O87UERPBBOTIFLMRPJDFVC36","AW0K78T4I2T72","3T5ZXGO9DEAUILU6S56NLENRQJRQZJ","","","img/flower5.png","76","539.5999999977648","3","0","1","1,0.5,0.5,0.5,1,0.5,0.5,0.5,1",""
"null","","html-keyboard-response","257","325090","0.0-257.0","39O5D9O87UERPBBOTIFLMRPJDFVC36","AW0K78T4I2T72","3T5ZXGO9DEAUILU6S56NLENRQJRQZJ","","","<img src=""img/flower5.png"" style=""width:200px;border:14px solid red;"">","null","","","","","",""
"984.3999999985099","","image-keyboard-response","258","326076","0.0-258.0","39O5D9O87UERPBBOTIFLMRPJDFVC36","AW0K78T4I2T72","3T5ZXGO9DEAUILU6S56NLENRQJRQZJ","","","img/flower2.png","75","987.1000000014901","2","1","2","1,0.5,0.5,0.5,1,0.5,0.5,0.5,1",""
"null","","html-keyboard-response","259","326389","0.0-259.0","39O5D9O87UERPBBOTIFLMRPJDFVC36","AW0K78T4I2T72","3T5ZXGO9DEAUILU6S56NLENRQJRQZJ","","","<img src=""img/flower2.png"" style=""width:200px; border:14px solid green;"">","null","","","","","",""
"1021.6999999992549","","image-keyboard-response","260","327412","0.0-260.0","39O5D9O87UERPBBOTIFLMRPJDFVC36","AW0K78T4I2T72","3T5ZXGO9DEAUILU6S56NLENRQJRQZJ","","","img/flower5.png","76","1022.6999999992549","3","0","1","1,0.5,0.5,0.5,1,0.5,0.5,0.5,1",""
"null","","html-keyboard-response","261","327722","0.0-261.0","39O5D9O87UERPBBOTIFLMRPJDFVC36","AW0K78T4I2T72","3T5ZXGO9DEAUILU6S56NLENRQJRQZJ","","","<img src=""img/flower5.png"" style=""width:200px;border:14px solid red;"">","null","","","","","",""
"904.2000000029802","","image-keyboard-response","262","328628","0.0-262.0","39O5D9O87UERPBBOTIFLMRPJDFVC36","AW0K78T4I2T72","3T5ZXGO9DEAUILU6S56NLENRQJRQZJ","","","img/flower3.png","74","905.7000000029802","1","0","3","1,0.5,0.5,0.5,1,0.5,0.5,0.5,1",""
"null","","html-keyboard-response","263","328938","0.0-263.0","39O5D9O87UERPBBOTIFLMRPJDFVC36","AW0K78T4I2T72","3T5ZXGO9DEAUILU6S56NLENRQJRQZJ","","","<img src=""img/flower3.png"" style=""width:200px;border:14px solid red;"">","null","","","","","",""
"480.1000000014901","","image-keyboard-response","264","329420","0.0-264.0","39O5D9O87UERPBBOTIFLMRPJDFVC36","AW0K78T4I2T72","3T5ZXGO9DEAUILU6S56NLENRQJRQZJ","","","img/flower3.png","74","481.3999999985099","1","1","3","1,0.5,0.5,0.5,1,0.5,0.5,0.5,1",""
"null","","html-keyboard-response","265","329722","0.0-265.0","39O5D9O87UERPBBOTIFLMRPJDFVC36","AW0K78T4I2T72","3T5ZXGO9DEAUILU6S56NLENRQJRQZJ","","","<img src=""img/flower3.png"" style=""width:200px; border:14px solid green;"">","null","","","","","",""
"584.6999999992549","","image-keyboard-response","266","330308","0.0-266.0","39O5D9O87UERPBBOTIFLMRPJDFVC36","AW0K78T4I2T72","3T5ZXGO9DEAUILU6S56NLENRQJRQZJ","","","img/flower2.png","75","586.1999999992549","2","1","2","1,0.5,0.5,0.5,1,0.5,0.5,0.5,1",""
"null","","html-keyboard-response","267","330621","0.0-267.0","39O5D9O87UERPBBOTIFLMRPJDFVC36","AW0K78T4I2T72","3T5ZXGO9DEAUILU6S56NLENRQJRQZJ","","","<img src=""img/flower2.png"" style=""width:200px; border:14px solid green;"">","null","","","","","",""
"421.3999999985099","","image-keyboard-response","268","331044","0.0-268.0","39O5D9O87UERPBBOTIFLMRPJDFVC36","AW0K78T4I2T72","3T5ZXGO9DEAUILU6S56NLENRQJRQZJ","","","img/flower2.png","75","422.6000000014901","2","1","2","1,0.5,0.5,0.5,1,0.5,0.5,0.5,1",""
"null","","html-keyboard-response","269","331361","0.0-269.0","39O5D9O87UERPBBOTIFLMRPJDFVC36","AW0K78T4I2T72","3T5ZXGO9DEAUILU6S56NLENRQJRQZJ","","","<img src=""img/flower2.png"" style=""width:200px; border:14px solid green;"">","null","","","","","",""
"921","","image-keyboard-response","270","332284","0.0-270.0","39O5D9O87UERPBBOTIFLMRPJDFVC36","AW0K78T4I2T72","3T5ZXGO9DEAUILU6S56NLENRQJRQZJ","","","img/flower3.png","74","922.4000000022352","1","0","3","1,0.5,0.5,0.5,1,0.5,0.5,0.5,1",""
"null","","html-keyboard-response","271","332588","0.0-271.0","39O5D9O87UERPBBOTIFLMRPJDFVC36","AW0K78T4I2T72","3T5ZXGO9DEAUILU6S56NLENRQJRQZJ","","","<img src=""img/flower3.png"" style=""width:200px;border:14px solid red;"">","null","","","","","",""
"1326.3999999985099","","image-keyboard-response","272","333916","0.0-272.0","39O5D9O87UERPBBOTIFLMRPJDFVC36","AW0K78T4I2T72","3T5ZXGO9DEAUILU6S56NLENRQJRQZJ","","","img/flower5.png","76","1327.800000000745","3","1","1","1,0.5,0.5,0.5,1,0.5,0.5,0.5,1",""
"null","","html-keyboard-response","273","334220","0.0-273.0","39O5D9O87UERPBBOTIFLMRPJDFVC36","AW0K78T4I2T72","3T5ZXGO9DEAUILU6S56NLENRQJRQZJ","","","<img src=""img/flower5.png"" style=""width:200px; border:14px solid green;"">","null","","","","","",""
"829.5999999977648","","image-keyboard-response","274","335052","0.0-274.0","39O5D9O87UERPBBOTIFLMRPJDFVC36","AW0K78T4I2T72","3T5ZXGO9DEAUILU6S56NLENRQJRQZJ","","","img/flower2.png","75","830.8000000007451","2","1","2","1,0.5,0.5,0.5,1,0.5,0.5,0.5,1",""
"null","","html-keyboard-response","275","335360","0.0-275.0","39O5D9O87UERPBBOTIFLMRPJDFVC36","AW0K78T4I2T72","3T5ZXGO9DEAUILU6S56NLENRQJRQZJ","","","<img src=""img/flower2.png"" style=""width:200px; border:14px solid green;"">","null","","","","","",""
"529.8000000007451","","image-keyboard-response","276","335892","0.0-276.0","39O5D9O87UERPBBOTIFLMRPJDFVC36","AW0K78T4I2T72","3T5ZXGO9DEAUILU6S56NLENRQJRQZJ","","","img/flower2.png","75","531.1999999992549","2","1","2","1,0.5,0.5,0.5,1,0.5,0.5,0.5,1",""
"null","","html-keyboard-response","277","336203","0.0-277.0","39O5D9O87UERPBBOTIFLMRPJDFVC36","AW0K78T4I2T72","3T5ZXGO9DEAUILU6S56NLENRQJRQZJ","","","<img src=""img/flower2.png"" style=""width:200px; border:14px solid green;"">","null","","","","","",""
"479","","image-keyboard-response","278","336684","0.0-278.0","39O5D9O87UERPBBOTIFLMRPJDFVC36","AW0K78T4I2T72","3T5ZXGO9DEAUILU6S56NLENRQJRQZJ","","","img/flower2.png","75","480.3999999985099","2","1","2","1,0.5,0.5,0.5,1,0.5,0.5,0.5,1",""
"null","","html-keyboard-response","279","336987","0.0-279.0","39O5D9O87UERPBBOTIFLMRPJDFVC36","AW0K78T4I2T72","3T5ZXGO9DEAUILU6S56NLENRQJRQZJ","","","<img src=""img/flower2.png"" style=""width:200px; border:14px solid green;"">","null","","","","","",""
"911.1000000014901","","image-keyboard-response","280","337900","0.0-280.0","39O5D9O87UERPBBOTIFLMRPJDFVC36","AW0K78T4I2T72","3T5ZXGO9DEAUILU6S56NLENRQJRQZJ","","","img/flower5.png","76","912.5","3","0","1","1,0.5,0.5,0.5,1,0.5,0.5,0.5,1",""
"null","","html-keyboard-response","281","338203","0.0-281.0","39O5D9O87UERPBBOTIFLMRPJDFVC36","AW0K78T4I2T72","3T5ZXGO9DEAUILU6S56NLENRQJRQZJ","","","<img src=""img/flower5.png"" style=""width:200px;border:14px solid red;"">","null","","","","","",""
"798.8999999985099","","image-keyboard-response","282","339004","0.0-282.0","39O5D9O87UERPBBOTIFLMRPJDFVC36","AW0K78T4I2T72","3T5ZXGO9DEAUILU6S56NLENRQJRQZJ","","","img/flower2.png","75","800.2999999970198","2","1","2","1,0.5,0.5,0.5,1,0.5,0.5,0.5,1",""
"null","","html-keyboard-response","283","339312","0.0-283.0","39O5D9O87UERPBBOTIFLMRPJDFVC36","AW0K78T4I2T72","3T5ZXGO9DEAUILU6S56NLENRQJRQZJ","","","<img src=""img/flower2.png"" style=""width:200px; border:14px solid green;"">","null","","","","","",""
"913.8999999985099","","image-keyboard-response","284","340228","0.0-284.0","39O5D9O87UERPBBOTIFLMRPJDFVC36","AW0K78T4I2T72","3T5ZXGO9DEAUILU6S56NLENRQJRQZJ","","","img/flower5.png","76","915.1000000014901","3","0","1","1,0.5,0.5,0.5,1,0.5,0.5,0.5,1",""
"null","","html-keyboard-response","285","340535","0.0-285.0","39O5D9O87UERPBBOTIFLMRPJDFVC36","AW0K78T4I2T72","3T5ZXGO9DEAUILU6S56NLENRQJRQZJ","","","<img src=""img/flower5.png"" style=""width:200px;border:14px solid red;"">","null","","","","","",""
"827.9000000022352","","image-keyboard-response","286","341364","0.0-286.0","39O5D9O87UERPBBOTIFLMRPJDFVC36","AW0K78T4I2T72","3T5ZXGO9DEAUILU6S56NLENRQJRQZJ","","","img/flower2.png","75","829.3000000007451","2","1","2","1,0.5,0.5,0.5,1,0.5,0.5,0.5,1",""
"null","","html-keyboard-response","287","341668","0.0-287.0","39O5D9O87UERPBBOTIFLMRPJDFVC36","AW0K78T4I2T72","3T5ZXGO9DEAUILU6S56NLENRQJRQZJ","","","<img src=""img/flower2.png"" style=""width:200px; border:14px solid green;"">","null","","","","","",""
"839.1999999992549","","image-keyboard-response","288","342508","0.0-288.0","39O5D9O87UERPBBOTIFLMRPJDFVC36","AW0K78T4I2T72","3T5ZXGO9DEAUILU6S56NLENRQJRQZJ","","","img/flower5.png","75","840.0999999977648","2","0","1","1,0.5,0.5,0.5,1,0.5,0.5,0.5,1",""
"null","","html-keyboard-response","289","342817","0.0-289.0","39O5D9O87UERPBBOTIFLMRPJDFVC36","AW0K78T4I2T72","3T5ZXGO9DEAUILU6S56NLENRQJRQZJ","","","<img src=""img/flower5.png"" style=""width:200px;border:14px solid red;"">","null","","","","","",""
"913.0999999977648","","image-keyboard-response","290","343732","0.0-290.0","39O5D9O87UERPBBOTIFLMRPJDFVC36","AW0K78T4I2T72","3T5ZXGO9DEAUILU6S56NLENRQJRQZJ","","","img/flower2.png","75","914.3999999985099","2","1","2","1,0.5,0.5,0.5,1,0.5,0.5,0.5,1",""
"null","","html-keyboard-response","291","344042","0.0-291.0","39O5D9O87UERPBBOTIFLMRPJDFVC36","AW0K78T4I2T72","3T5ZXGO9DEAUILU6S56NLENRQJRQZJ","","","<img src=""img/flower2.png"" style=""width:200px; border:14px solid green;"">","null","","","","","",""
"840.6999999992549","","image-keyboard-response","292","344884","0.0-292.0","39O5D9O87UERPBBOTIFLMRPJDFVC36","AW0K78T4I2T72","3T5ZXGO9DEAUILU6S56NLENRQJRQZJ","","","img/flower2.png","75","842","2","1","2","1,0.5,0.5,0.5,1,0.5,0.5,0.5,1",""
"null","","html-keyboard-response","293","345200","0.0-293.0","39O5D9O87UERPBBOTIFLMRPJDFVC36","AW0K78T4I2T72","3T5ZXGO9DEAUILU6S56NLENRQJRQZJ","","","<img src=""img/flower2.png"" style=""width:200px; border:14px solid green;"">","null","","","","","",""
"778.9000000022352","","image-keyboard-response","294","345980","0.0-294.0","39O5D9O87UERPBBOTIFLMRPJDFVC36","AW0K78T4I2T72","3T5ZXGO9DEAUILU6S56NLENRQJRQZJ","","","img/flower3.png","74","780","1","1","3","1,0.5,0.5,0.5,1,0.5,0.5,0.5,1",""
"null","","html-keyboard-response","295","346284","0.0-295.0","39O5D9O87UERPBBOTIFLMRPJDFVC36","AW0K78T4I2T72","3T5ZXGO9DEAUILU6S56NLENRQJRQZJ","","","<img src=""img/flower3.png"" style=""width:200px; border:14px solid green;"">","null","","","","","",""
"781.8000000007451","","image-keyboard-response","296","347068","0.0-296.0","39O5D9O87UERPBBOTIFLMRPJDFVC36","AW0K78T4I2T72","3T5ZXGO9DEAUILU6S56NLENRQJRQZJ","","","img/flower2.png","75","783.3000000007451","2","1","2","1,0.5,0.5,0.5,1,0.5,0.5,0.5,1",""
"null","","html-keyboard-response","297","347373","0.0-297.0","39O5D9O87UERPBBOTIFLMRPJDFVC36","AW0K78T4I2T72","3T5ZXGO9DEAUILU6S56NLENRQJRQZJ","","","<img src=""img/flower2.png"" style=""width:200px; border:14px solid green;"">","null","","","","","",""
"1317.7999999970198","","image-keyboard-response","298","348692","0.0-298.0","39O5D9O87UERPBBOTIFLMRPJDFVC36","AW0K78T4I2T72","3T5ZXGO9DEAUILU6S56NLENRQJRQZJ","","","img/flower5.png","76","1319.199999999255","3","1","1","1,0.5,0.5,0.5,1,0.5,0.5,0.5,1",""
"null","","html-keyboard-response","299","348999","0.0-299.0","39O5D9O87UERPBBOTIFLMRPJDFVC36","AW0K78T4I2T72","3T5ZXGO9DEAUILU6S56NLENRQJRQZJ","","","<img src=""img/flower5.png"" style=""width:200px; border:14px solid green;"">","null","","","","","",""
"731.4000000022352","","image-keyboard-response","300","349732","0.0-300.0","39O5D9O87UERPBBOTIFLMRPJDFVC36","AW0K78T4I2T72","3T5ZXGO9DEAUILU6S56NLENRQJRQZJ","","","img/flower2.png","75","732.7999999970198","2","1","2","1,0.5,0.5,0.5,1,0.5,0.5,0.5,1",""
"null","","html-keyboard-response","301","350048","0.0-301.0","39O5D9O87UERPBBOTIFLMRPJDFVC36","AW0K78T4I2T72","3T5ZXGO9DEAUILU6S56NLENRQJRQZJ","","","<img src=""img/flower2.png"" style=""width:200px; border:14px solid green;"">","null","","","","","",""
"465.69999999925494","","image-keyboard-response","302","350515","0.0-302.0","39O5D9O87UERPBBOTIFLMRPJDFVC36","AW0K78T4I2T72","3T5ZXGO9DEAUILU6S56NLENRQJRQZJ","","","img/flower2.png","75","466.9000000022352","2","1","2","1,0.5,0.5,0.5,1,0.5,0.5,0.5,1",""
"null","","html-keyboard-response","303","350831","0.0-303.0","39O5D9O87UERPBBOTIFLMRPJDFVC36","AW0K78T4I2T72","3T5ZXGO9DEAUILU6S56NLENRQJRQZJ","","","<img src=""img/flower2.png"" style=""width:200px; border:14px solid green;"">","null","","","","","",""
"410.69999999925494","","image-keyboard-response","304","351244","0.0-304.0","39O5D9O87UERPBBOTIFLMRPJDFVC36","AW0K78T4I2T72","3T5ZXGO9DEAUILU6S56NLENRQJRQZJ","","","img/flower2.png","75","411.8999999985099","2","1","2","1,0.5,0.5,0.5,1,0.5,0.5,0.5,1",""
"null","","html-keyboard-response","305","351548","0.0-305.0","39O5D9O87UERPBBOTIFLMRPJDFVC36","AW0K78T4I2T72","3T5ZXGO9DEAUILU6S56NLENRQJRQZJ","","","<img src=""img/flower2.png"" style=""width:200px; border:14px solid green;"">","null","","","","","",""
"","","html-keyboard-response","306","359079","0.0-306.0","39O5D9O87UERPBBOTIFLMRPJDFVC36","AW0K78T4I2T72","3T5ZXGO9DEAUILU6S56NLENRQJRQZJ","","","","","","","","","",""
"1435.3999999985099","","image-keyboard-response","307","360516","0.0-307.0","39O5D9O87UERPBBOTIFLMRPJDFVC36","AW0K78T4I2T72","3T5ZXGO9DEAUILU6S56NLENRQJRQZJ","","","img/flower4.png","74","1436.5","1","1","1","1,1,0,0,1,1,1,0,1",""
"null","","html-keyboard-response","308","360828","0.0-308.0","39O5D9O87UERPBBOTIFLMRPJDFVC36","AW0K78T4I2T72","3T5ZXGO9DEAUILU6S56NLENRQJRQZJ","","","<img src=""img/flower4.png"" style=""width:200px; border:14px solid green;"">","null","","","","","",""
"470.19999999925494","","image-keyboard-response","309","361300","0.0-309.0","39O5D9O87UERPBBOTIFLMRPJDFVC36","AW0K78T4I2T72","3T5ZXGO9DEAUILU6S56NLENRQJRQZJ","","","img/flower4.png","74","471.5","1","1","1","1,1,0,0,1,1,1,0,1",""
"null","","html-keyboard-response","310","361611","0.0-310.0","39O5D9O87UERPBBOTIFLMRPJDFVC36","AW0K78T4I2T72","3T5ZXGO9DEAUILU6S56NLENRQJRQZJ","","","<img src=""img/flower4.png"" style=""width:200px; border:14px solid green;"">","null","","","","","",""
"982.9000000022352","","image-keyboard-response","311","362596","0.0-311.0","39O5D9O87UERPBBOTIFLMRPJDFVC36","AW0K78T4I2T72","3T5ZXGO9DEAUILU6S56NLENRQJRQZJ","","","img/flower1.png","75","984.1999999992549","2","1","2","1,1,0,0,1,1,1,0,1",""
"null","","html-keyboard-response","312","362913","0.0-312.0","39O5D9O87UERPBBOTIFLMRPJDFVC36","AW0K78T4I2T72","3T5ZXGO9DEAUILU6S56NLENRQJRQZJ","","","<img src=""img/flower1.png"" style=""width:200px; border:14px solid green;"">","null","","","","","",""
"505.3999999985099","","image-keyboard-response","313","363420","0.0-313.0","39O5D9O87UERPBBOTIFLMRPJDFVC36","AW0K78T4I2T72","3T5ZXGO9DEAUILU6S56NLENRQJRQZJ","","","img/flower1.png","75","506.5","2","1","2","1,1,0,0,1,1,1,0,1",""
"null","","html-keyboard-response","314","363727","0.0-314.0","39O5D9O87UERPBBOTIFLMRPJDFVC36","AW0K78T4I2T72","3T5ZXGO9DEAUILU6S56NLENRQJRQZJ","","","<img src=""img/flower1.png"" style=""width:200px; border:14px solid green;"">","null","","","","","",""
"475.30000000074506","","image-keyboard-response","315","364204","0.0-315.0","39O5D9O87UERPBBOTIFLMRPJDFVC36","AW0K78T4I2T72","3T5ZXGO9DEAUILU6S56NLENRQJRQZJ","","","img/flower1.png","75","476.80000000074506","2","1","2","1,1,0,0,1,1,1,0,1",""
"null","","html-keyboard-response","316","364511","0.0-316.0","39O5D9O87UERPBBOTIFLMRPJDFVC36","AW0K78T4I2T72","3T5ZXGO9DEAUILU6S56NLENRQJRQZJ","","","<img src=""img/flower1.png"" style=""width:200px; border:14px solid green;"">","null","","","","","",""
"827.5","","image-keyboard-response","317","365340","0.0-317.0","39O5D9O87UERPBBOTIFLMRPJDFVC36","AW0K78T4I2T72","3T5ZXGO9DEAUILU6S56NLENRQJRQZJ","","","img/flower4.png","74","828.8000000007451","1","1","1","1,1,0,0,1,1,1,0,1",""
"null","","html-keyboard-response","318","365643","0.0-318.0","39O5D9O87UERPBBOTIFLMRPJDFVC36","AW0K78T4I2T72","3T5ZXGO9DEAUILU6S56NLENRQJRQZJ","","","<img src=""img/flower4.png"" style=""width:200px; border:14px solid green;"">","null","","","","","",""
"1135.0999999977648","","image-keyboard-response","319","366780","0.0-319.0","39O5D9O87UERPBBOTIFLMRPJDFVC36","AW0K78T4I2T72","3T5ZXGO9DEAUILU6S56NLENRQJRQZJ","","","img/flower6.png","76","1136.300000000745","3","1","3","1,1,0,0,1,1,1,0,1",""
"null","","html-keyboard-response","320","367093","0.0-320.0","39O5D9O87UERPBBOTIFLMRPJDFVC36","AW0K78T4I2T72","3T5ZXGO9DEAUILU6S56NLENRQJRQZJ","","","<img src=""img/flower6.png"" style=""width:200px; border:14px solid green;"">","null","","","","","",""
"765.1999999992549","","image-keyboard-response","321","367860","0.0-321.0","39O5D9O87UERPBBOTIFLMRPJDFVC36","AW0K78T4I2T72","3T5ZXGO9DEAUILU6S56NLENRQJRQZJ","","","img/flower4.png","74","766.5","1","1","1","1,1,0,0,1,1,1,0,1",""
"null","","html-keyboard-response","322","368167","0.0-322.0","39O5D9O87UERPBBOTIFLMRPJDFVC36","AW0K78T4I2T72","3T5ZXGO9DEAUILU6S56NLENRQJRQZJ","","","<img src=""img/flower4.png"" style=""width:200px; border:14px solid green;"">","null","","","","","",""
"483","","image-keyboard-response","323","368651","0.0-323.0","39O5D9O87UERPBBOTIFLMRPJDFVC36","AW0K78T4I2T72","3T5ZXGO9DEAUILU6S56NLENRQJRQZJ","","","img/flower4.png","74","484.30000000074506","1","1","1","1,1,0,0,1,1,1,0,1",""
"null","","html-keyboard-response","324","368959","0.0-324.0","39O5D9O87UERPBBOTIFLMRPJDFVC36","AW0K78T4I2T72","3T5ZXGO9DEAUILU6S56NLENRQJRQZJ","","","<img src=""img/flower4.png"" style=""width:200px; border:14px solid green;"">","null","","","","","",""
"955.5","","image-keyboard-response","325","369916","0.0-325.0","39O5D9O87UERPBBOTIFLMRPJDFVC36","AW0K78T4I2T72","3T5ZXGO9DEAUILU6S56NLENRQJRQZJ","","","img/flower6.png","76","956.6999999992549","3","1","3","1,1,0,0,1,1,1,0,1",""
"null","","html-keyboard-response","326","370225","0.0-326.0","39O5D9O87UERPBBOTIFLMRPJDFVC36","AW0K78T4I2T72","3T5ZXGO9DEAUILU6S56NLENRQJRQZJ","","","<img src=""img/flower6.png"" style=""width:200px; border:14px solid green;"">","null","","","","","",""
"480.8999999985099","","image-keyboard-response","327","370708","0.0-327.0","39O5D9O87UERPBBOTIFLMRPJDFVC36","AW0K78T4I2T72","3T5ZXGO9DEAUILU6S56NLENRQJRQZJ","","","img/flower6.png","76","482.30000000074506","3","1","3","1,1,0,0,1,1,1,0,1",""
"null","","html-keyboard-response","328","371025","0.0-328.0","39O5D9O87UERPBBOTIFLMRPJDFVC36","AW0K78T4I2T72","3T5ZXGO9DEAUILU6S56NLENRQJRQZJ","","","<img src=""img/flower6.png"" style=""width:200px; border:14px solid green;"">","null","","","","","",""
"465.19999999925494","","image-keyboard-response","329","371491","0.0-329.0","39O5D9O87UERPBBOTIFLMRPJDFVC36","AW0K78T4I2T72","3T5ZXGO9DEAUILU6S56NLENRQJRQZJ","","","img/flower6.png","76","466.3999999985099","3","1","3","1,1,0,0,1,1,1,0,1",""
"null","","html-keyboard-response","330","371801","0.0-330.0","39O5D9O87UERPBBOTIFLMRPJDFVC36","AW0K78T4I2T72","3T5ZXGO9DEAUILU6S56NLENRQJRQZJ","","","<img src=""img/flower6.png"" style=""width:200px; border:14px solid green;"">","null","","","","","",""
"496.9000000022352","","image-keyboard-response","331","372300","0.0-331.0","39O5D9O87UERPBBOTIFLMRPJDFVC36","AW0K78T4I2T72","3T5ZXGO9DEAUILU6S56NLENRQJRQZJ","","","img/flower6.png","76","498.30000000074506","3","1","3","1,1,0,0,1,1,1,0,1",""
"null","","html-keyboard-response","332","372607","0.0-332.0","39O5D9O87UERPBBOTIFLMRPJDFVC36","AW0K78T4I2T72","3T5ZXGO9DEAUILU6S56NLENRQJRQZJ","","","<img src=""img/flower6.png"" style=""width:200px; border:14px solid green;"">","null","","","","","",""
"794.7000000029802","","image-keyboard-response","333","373404","0.0-333.0","39O5D9O87UERPBBOTIFLMRPJDFVC36","AW0K78T4I2T72","3T5ZXGO9DEAUILU6S56NLENRQJRQZJ","","","img/flower4.png","74","796.2000000029802","1","1","1","1,1,0,0,1,1,1,0,1",""
"null","","html-keyboard-response","334","373706","0.0-334.0","39O5D9O87UERPBBOTIFLMRPJDFVC36","AW0K78T4I2T72","3T5ZXGO9DEAUILU6S56NLENRQJRQZJ","","","<img src=""img/flower4.png"" style=""width:200px; border:14px solid green;"">","null","","","","","",""
"407.5","","image-keyboard-response","335","374116","0.0-335.0","39O5D9O87UERPBBOTIFLMRPJDFVC36","AW0K78T4I2T72","3T5ZXGO9DEAUILU6S56NLENRQJRQZJ","","","img/flower4.png","74","409","1","1","1","1,1,0,0,1,1,1,0,1",""
"null","","html-keyboard-response","336","374423","0.0-336.0","39O5D9O87UERPBBOTIFLMRPJDFVC36","AW0K78T4I2T72","3T5ZXGO9DEAUILU6S56NLENRQJRQZJ","","","<img src=""img/flower4.png"" style=""width:200px; border:14px solid green;"">","null","","","","","",""
"771.1999999992549","","image-keyboard-response","337","375196","0.0-337.0","39O5D9O87UERPBBOTIFLMRPJDFVC36","AW0K78T4I2T72","3T5ZXGO9DEAUILU6S56NLENRQJRQZJ","","","img/flower1.png","75","772.6000000014901","2","1","2","1,1,0,0,1,1,1,0,1",""
"null","","html-keyboard-response","338","375507","0.0-338.0","39O5D9O87UERPBBOTIFLMRPJDFVC36","AW0K78T4I2T72","3T5ZXGO9DEAUILU6S56NLENRQJRQZJ","","","<img src=""img/flower1.png"" style=""width:200px; border:14px solid green;"">","null","","","","","",""
"839","","image-keyboard-response","339","376348","0.0-339.0","39O5D9O87UERPBBOTIFLMRPJDFVC36","AW0K78T4I2T72","3T5ZXGO9DEAUILU6S56NLENRQJRQZJ","","","img/flower4.png","74","840.3999999985099","1","1","1","1,1,0,0,1,1,1,0,1",""
"null","","html-keyboard-response","340","376656","0.0-340.0","39O5D9O87UERPBBOTIFLMRPJDFVC36","AW0K78T4I2T72","3T5ZXGO9DEAUILU6S56NLENRQJRQZJ","","","<img src=""img/flower4.png"" style=""width:200px; border:14px solid green;"">","null","","","","","",""
"626.1000000014901","","image-keyboard-response","341","377283","0.0-341.0","39O5D9O87UERPBBOTIFLMRPJDFVC36","AW0K78T4I2T72","3T5ZXGO9DEAUILU6S56NLENRQJRQZJ","","","img/flower1.png","75","627.2999999970198","2","1","2","1,1,0,0,1,1,1,0,1",""
"null","","html-keyboard-response","342","377589","0.0-342.0","39O5D9O87UERPBBOTIFLMRPJDFVC36","AW0K78T4I2T72","3T5ZXGO9DEAUILU6S56NLENRQJRQZJ","","","<img src=""img/flower1.png"" style=""width:200px; border:14px solid green;"">","null","","","","","",""
"628.8000000007451","","image-keyboard-response","343","378219","0.0-343.0","39O5D9O87UERPBBOTIFLMRPJDFVC36","AW0K78T4I2T72","3T5ZXGO9DEAUILU6S56NLENRQJRQZJ","","","img/flower4.png","74","630.2000000029802","1","1","1","1,1,0,0,1,1,1,0,1",""
"null","","html-keyboard-response","344","378523","0.0-344.0","39O5D9O87UERPBBOTIFLMRPJDFVC36","AW0K78T4I2T72","3T5ZXGO9DEAUILU6S56NLENRQJRQZJ","","","<img src=""img/flower4.png"" style=""width:200px; border:14px solid green;"">","null","","","","","",""
"438.9000000022352","","image-keyboard-response","345","378963","0.0-345.0","39O5D9O87UERPBBOTIFLMRPJDFVC36","AW0K78T4I2T72","3T5ZXGO9DEAUILU6S56NLENRQJRQZJ","","","img/flower4.png","74","440.30000000074506","1","1","1","1,1,0,0,1,1,1,0,1",""
"null","","html-keyboard-response","346","379268","0.0-346.0","39O5D9O87UERPBBOTIFLMRPJDFVC36","AW0K78T4I2T72","3T5ZXGO9DEAUILU6S56NLENRQJRQZJ","","","<img src=""img/flower4.png"" style=""width:200px; border:14px solid green;"">","null","","","","","",""
"461.69999999925494","","image-keyboard-response","347","379731","0.0-347.0","39O5D9O87UERPBBOTIFLMRPJDFVC36","AW0K78T4I2T72","3T5ZXGO9DEAUILU6S56NLENRQJRQZJ","","","img/flower4.png","74","463.1000000014901","1","1","1","1,1,0,0,1,1,1,0,1",""
"null","","html-keyboard-response","348","380037","0.0-348.0","39O5D9O87UERPBBOTIFLMRPJDFVC36","AW0K78T4I2T72","3T5ZXGO9DEAUILU6S56NLENRQJRQZJ","","","<img src=""img/flower4.png"" style=""width:200px; border:14px solid green;"">","null","","","","","",""
"428","","image-keyboard-response","349","380467","0.0-349.0","39O5D9O87UERPBBOTIFLMRPJDFVC36","AW0K78T4I2T72","3T5ZXGO9DEAUILU6S56NLENRQJRQZJ","","","img/flower4.png","74","429.30000000074506","1","1","1","1,1,0,0,1,1,1,0,1",""
"null","","html-keyboard-response","350","380772","0.0-350.0","39O5D9O87UERPBBOTIFLMRPJDFVC36","AW0K78T4I2T72","3T5ZXGO9DEAUILU6S56NLENRQJRQZJ","","","<img src=""img/flower4.png"" style=""width:200px; border:14px solid green;"">","null","","","","","",""
"398.5","","image-keyboard-response","351","381171","0.0-351.0","39O5D9O87UERPBBOTIFLMRPJDFVC36","AW0K78T4I2T72","3T5ZXGO9DEAUILU6S56NLENRQJRQZJ","","","img/flower4.png","74","399.6000000014901","1","1","1","1,1,0,0,1,1,1,0,1",""
"null","","html-keyboard-response","352","381487","0.0-352.0","39O5D9O87UERPBBOTIFLMRPJDFVC36","AW0K78T4I2T72","3T5ZXGO9DEAUILU6S56NLENRQJRQZJ","","","<img src=""img/flower4.png"" style=""width:200px; border:14px solid green;"">","null","","","","","",""
"474.3999999985099","","image-keyboard-response","353","381963","0.0-353.0","39O5D9O87UERPBBOTIFLMRPJDFVC36","AW0K78T4I2T72","3T5ZXGO9DEAUILU6S56NLENRQJRQZJ","","","img/flower4.png","74","475.8999999985099","1","1","1","1,1,0,0,1,1,1,0,1",""
"null","","html-keyboard-response","354","382270","0.0-354.0","39O5D9O87UERPBBOTIFLMRPJDFVC36","AW0K78T4I2T72","3T5ZXGO9DEAUILU6S56NLENRQJRQZJ","","","<img src=""img/flower4.png"" style=""width:200px; border:14px solid green;"">","null","","","","","",""
"971.0999999977648","","image-keyboard-response","355","383243","0.0-355.0","39O5D9O87UERPBBOTIFLMRPJDFVC36","AW0K78T4I2T72","3T5ZXGO9DEAUILU6S56NLENRQJRQZJ","","","img/flower6.png","76","972.4000000022352","3","1","3","1,1,0,0,1,1,1,0,1",""
"null","","html-keyboard-response","356","383554","0.0-356.0","39O5D9O87UERPBBOTIFLMRPJDFVC36","AW0K78T4I2T72","3T5ZXGO9DEAUILU6S56NLENRQJRQZJ","","","<img src=""img/flower6.png"" style=""width:200px; border:14px solid green;"">","null","","","","","",""
"904.1999999992549","","image-keyboard-response","357","384459","0.0-357.0","39O5D9O87UERPBBOTIFLMRPJDFVC36","AW0K78T4I2T72","3T5ZXGO9DEAUILU6S56NLENRQJRQZJ","","","img/flower4.png","74","905.2000000029802","1","1","1","1,1,0,0,1,1,1,0,1",""
"null","","html-keyboard-response","358","384769","0.0-358.0","39O5D9O87UERPBBOTIFLMRPJDFVC36","AW0K78T4I2T72","3T5ZXGO9DEAUILU6S56NLENRQJRQZJ","","","<img src=""img/flower4.png"" style=""width:200px; border:14px solid green;"">","null","","","","","",""
"776.6000000014901","","image-keyboard-response","359","385547","0.0-359.0","39O5D9O87UERPBBOTIFLMRPJDFVC36","AW0K78T4I2T72","3T5ZXGO9DEAUILU6S56NLENRQJRQZJ","","","img/flower1.png","75","778","2","1","2","1,1,0,0,1,1,1,0,1",""
"null","","html-keyboard-response","360","385860","0.0-360.0","39O5D9O87UERPBBOTIFLMRPJDFVC36","AW0K78T4I2T72","3T5ZXGO9DEAUILU6S56NLENRQJRQZJ","","","<img src=""img/flower1.png"" style=""width:200px; border:14px solid green;"">","null","","","","","",""
"837.5","","image-keyboard-response","361","386699","0.0-361.0","39O5D9O87UERPBBOTIFLMRPJDFVC36","AW0K78T4I2T72","3T5ZXGO9DEAUILU6S56NLENRQJRQZJ","","","img/flower6.png","76","838.8000000007451","3","1","3","1,1,0,0,1,1,1,0,1",""
"null","","html-keyboard-response","362","387003","0.0-362.0","39O5D9O87UERPBBOTIFLMRPJDFVC36","AW0K78T4I2T72","3T5ZXGO9DEAUILU6S56NLENRQJRQZJ","","","<img src=""img/flower6.png"" style=""width:200px; border:14px solid green;"">","null","","","","","",""
"478.79999999701977","","image-keyboard-response","363","387483","0.0-363.0","39O5D9O87UERPBBOTIFLMRPJDFVC36","AW0K78T4I2T72","3T5ZXGO9DEAUILU6S56NLENRQJRQZJ","","","img/flower6.png","76","480.30000000074506","3","1","3","1,1,0,0,1,1,1,0,1",""
"null","","html-keyboard-response","364","387796","0.0-364.0","39O5D9O87UERPBBOTIFLMRPJDFVC36","AW0K78T4I2T72","3T5ZXGO9DEAUILU6S56NLENRQJRQZJ","","","<img src=""img/flower6.png"" style=""width:200px; border:14px solid green;"">","null","","","","","",""
"485.19999999925494","","image-keyboard-response","365","388283","0.0-365.0","39O5D9O87UERPBBOTIFLMRPJDFVC36","AW0K78T4I2T72","3T5ZXGO9DEAUILU6S56NLENRQJRQZJ","","","img/flower6.png","76","486.69999999925494","3","1","3","1,1,0,0,1,1,1,0,1",""
"null","","html-keyboard-response","366","388586","0.0-366.0","39O5D9O87UERPBBOTIFLMRPJDFVC36","AW0K78T4I2T72","3T5ZXGO9DEAUILU6S56NLENRQJRQZJ","","","<img src=""img/flower6.png"" style=""width:200px; border:14px solid green;"">","null","","","","","",""
"679.1999999992549","","image-keyboard-response","367","389267","0.0-367.0","39O5D9O87UERPBBOTIFLMRPJDFVC36","AW0K78T4I2T72","3T5ZXGO9DEAUILU6S56NLENRQJRQZJ","","","img/flower4.png","74","680.5999999977648","1","1","1","1,1,0,0,1,1,1,0,1",""
"null","","html-keyboard-response","368","389568","0.0-368.0","39O5D9O87UERPBBOTIFLMRPJDFVC36","AW0K78T4I2T72","3T5ZXGO9DEAUILU6S56NLENRQJRQZJ","","","<img src=""img/flower4.png"" style=""width:200px; border:14px solid green;"">","null","","","","","",""
"448.79999999701977","","image-keyboard-response","369","390019","0.0-369.0","39O5D9O87UERPBBOTIFLMRPJDFVC36","AW0K78T4I2T72","3T5ZXGO9DEAUILU6S56NLENRQJRQZJ","","","img/flower4.png","74","450.1000000014901","1","1","1","1,1,0,0,1,1,1,0,1",""
"null","","html-keyboard-response","370","390334","0.0-370.0","39O5D9O87UERPBBOTIFLMRPJDFVC36","AW0K78T4I2T72","3T5ZXGO9DEAUILU6S56NLENRQJRQZJ","","","<img src=""img/flower4.png"" style=""width:200px; border:14px solid green;"">","null","","","","","",""
"435.30000000074506","","image-keyboard-response","371","390771","0.0-371.0","39O5D9O87UERPBBOTIFLMRPJDFVC36","AW0K78T4I2T72","3T5ZXGO9DEAUILU6S56NLENRQJRQZJ","","","img/flower4.png","74","436.69999999925494","1","1","1","1,1,0,0,1,1,1,0,1",""
"null","","html-keyboard-response","372","391084","0.0-372.0","39O5D9O87UERPBBOTIFLMRPJDFVC36","AW0K78T4I2T72","3T5ZXGO9DEAUILU6S56NLENRQJRQZJ","","","<img src=""img/flower4.png"" style=""width:200px; border:14px solid green;"">","null","","","","","",""
"428.80000000074506","","image-keyboard-response","373","391514","0.0-373.0","39O5D9O87UERPBBOTIFLMRPJDFVC36","AW0K78T4I2T72","3T5ZXGO9DEAUILU6S56NLENRQJRQZJ","","","img/flower4.png","74","430","1","1","1","1,1,0,0,1,1,1,0,1",""
"null","","html-keyboard-response","374","391828","0.0-374.0","39O5D9O87UERPBBOTIFLMRPJDFVC36","AW0K78T4I2T72","3T5ZXGO9DEAUILU6S56NLENRQJRQZJ","","","<img src=""img/flower4.png"" style=""width:200px; border:14px solid green;"">","null","","","","","",""
"700.8999999985099","","image-keyboard-response","375","392530","0.0-375.0","39O5D9O87UERPBBOTIFLMRPJDFVC36","AW0K78T4I2T72","3T5ZXGO9DEAUILU6S56NLENRQJRQZJ","","","img/flower1.png","75","701.5999999977648","2","1","2","1,1,0,0,1,1,1,0,1",""
"null","","html-keyboard-response","376","392834","0.0-376.0","39O5D9O87UERPBBOTIFLMRPJDFVC36","AW0K78T4I2T72","3T5ZXGO9DEAUILU6S56NLENRQJRQZJ","","","<img src=""img/flower1.png"" style=""width:200px; border:14px solid green;"">","null","","","","","",""
"487.30000000074506","","image-keyboard-response","377","393322","0.0-377.0","39O5D9O87UERPBBOTIFLMRPJDFVC36","AW0K78T4I2T72","3T5ZXGO9DEAUILU6S56NLENRQJRQZJ","","","img/flower1.png","75","488.1000000014901","2","1","2","1,1,0,0,1,1,1,0,1",""
"null","","html-keyboard-response","378","393633","0.0-378.0","39O5D9O87UERPBBOTIFLMRPJDFVC36","AW0K78T4I2T72","3T5ZXGO9DEAUILU6S56NLENRQJRQZJ","","","<img src=""img/flower1.png"" style=""width:200px; border:14px solid green;"">","null","","","","","",""
"392.5","","image-keyboard-response","379","394027","0.0-379.0","39O5D9O87UERPBBOTIFLMRPJDFVC36","AW0K78T4I2T72","3T5ZXGO9DEAUILU6S56NLENRQJRQZJ","","","img/flower1.png","75","393.6000000014901","2","1","2","1,1,0,0,1,1,1,0,1",""
"null","","html-keyboard-response","380","394333","0.0-380.0","39O5D9O87UERPBBOTIFLMRPJDFVC36","AW0K78T4I2T72","3T5ZXGO9DEAUILU6S56NLENRQJRQZJ","","","<img src=""img/flower1.png"" style=""width:200px; border:14px solid green;"">","null","","","","","",""
"444.6000000014901","","image-keyboard-response","381","394779","0.0-381.0","39O5D9O87UERPBBOTIFLMRPJDFVC36","AW0K78T4I2T72","3T5ZXGO9DEAUILU6S56NLENRQJRQZJ","","","img/flower1.png","75","446","2","1","2","1,1,0,0,1,1,1,0,1",""
"null","","html-keyboard-response","382","395083","0.0-382.0","39O5D9O87UERPBBOTIFLMRPJDFVC36","AW0K78T4I2T72","3T5ZXGO9DEAUILU6S56NLENRQJRQZJ","","","<img src=""img/flower1.png"" style=""width:200px; border:14px solid green;"">","null","","","","","",""
"437.69999999925494","","image-keyboard-response","383","395522","0.0-383.0","39O5D9O87UERPBBOTIFLMRPJDFVC36","AW0K78T4I2T72","3T5ZXGO9DEAUILU6S56NLENRQJRQZJ","","","img/flower1.png","75","438.9000000022352","2","1","2","1,1,0,0,1,1,1,0,1",""
"null","","html-keyboard-response","384","395826","0.0-384.0","39O5D9O87UERPBBOTIFLMRPJDFVC36","AW0K78T4I2T72","3T5ZXGO9DEAUILU6S56NLENRQJRQZJ","","","<img src=""img/flower1.png"" style=""width:200px; border:14px solid green;"">","null","","","","","",""
"471.19999999925494","","image-keyboard-response","385","396299","0.0-385.0","39O5D9O87UERPBBOTIFLMRPJDFVC36","AW0K78T4I2T72","3T5ZXGO9DEAUILU6S56NLENRQJRQZJ","","","img/flower1.png","75","472.69999999925494","2","1","2","1,1,0,0,1,1,1,0,1",""
"null","","html-keyboard-response","386","396615","0.0-386.0","39O5D9O87UERPBBOTIFLMRPJDFVC36","AW0K78T4I2T72","3T5ZXGO9DEAUILU6S56NLENRQJRQZJ","","","<img src=""img/flower1.png"" style=""width:200px; border:14px solid green;"">","null","","","","","",""
"810.1999999992549","","image-keyboard-response","387","397427","0.0-387.0","39O5D9O87UERPBBOTIFLMRPJDFVC36","AW0K78T4I2T72","3T5ZXGO9DEAUILU6S56NLENRQJRQZJ","","","img/flower6.png","76","811.6999999992549","3","1","3","1,1,0,0,1,1,1,0,1",""
"null","","html-keyboard-response","388","397731","0.0-388.0","39O5D9O87UERPBBOTIFLMRPJDFVC36","AW0K78T4I2T72","3T5ZXGO9DEAUILU6S56NLENRQJRQZJ","","","<img src=""img/flower6.png"" style=""width:200px; border:14px solid green;"">","null","","","","","",""
"493.80000000074506","","image-keyboard-response","389","398227","0.0-389.0","39O5D9O87UERPBBOTIFLMRPJDFVC36","AW0K78T4I2T72","3T5ZXGO9DEAUILU6S56NLENRQJRQZJ","","","img/flower6.png","76","495.29999999701977","3","1","3","1,1,0,0,1,1,1,0,1",""
"null","","html-keyboard-response","390","398531","0.0-390.0","39O5D9O87UERPBBOTIFLMRPJDFVC36","AW0K78T4I2T72","3T5ZXGO9DEAUILU6S56NLENRQJRQZJ","","","<img src=""img/flower6.png"" style=""width:200px; border:14px solid green;"">","null","","","","","",""
"766.1000000014901","","image-keyboard-response","391","399299","0.0-391.0","39O5D9O87UERPBBOTIFLMRPJDFVC36","AW0K78T4I2T72","3T5ZXGO9DEAUILU6S56NLENRQJRQZJ","","","img/flower4.png","74","767.3999999985099","1","1","1","1,1,0,0,1,1,1,0,1",""
"null","","html-keyboard-response","392","399614","0.0-392.0","39O5D9O87UERPBBOTIFLMRPJDFVC36","AW0K78T4I2T72","3T5ZXGO9DEAUILU6S56NLENRQJRQZJ","","","<img src=""img/flower4.png"" style=""width:200px; border:14px solid green;"">","null","","","","","",""
"418.5999999977648","","image-keyboard-response","393","400035","0.0-393.0","39O5D9O87UERPBBOTIFLMRPJDFVC36","AW0K78T4I2T72","3T5ZXGO9DEAUILU6S56NLENRQJRQZJ","","","img/flower4.png","74","420.0999999977648","1","1","1","1,1,0,0,1,1,1,0,1",""
"null","","html-keyboard-response","394","400348","0.0-394.0","39O5D9O87UERPBBOTIFLMRPJDFVC36","AW0K78T4I2T72","3T5ZXGO9DEAUILU6S56NLENRQJRQZJ","","","<img src=""img/flower4.png"" style=""width:200px; border:14px solid green;"">","null","","","","","",""
"437.80000000074506","","image-keyboard-response","395","400787","0.0-395.0","39O5D9O87UERPBBOTIFLMRPJDFVC36","AW0K78T4I2T72","3T5ZXGO9DEAUILU6S56NLENRQJRQZJ","","","img/flower4.png","74","439.19999999925494","1","1","1","1,1,0,0,1,1,1,0,1",""
"null","","html-keyboard-response","396","401092","0.0-396.0","39O5D9O87UERPBBOTIFLMRPJDFVC36","AW0K78T4I2T72","3T5ZXGO9DEAUILU6S56NLENRQJRQZJ","","","<img src=""img/flower4.png"" style=""width:200px; border:14px solid green;"">","null","","","","","",""
"861","","image-keyboard-response","397","401955","0.0-397.0","39O5D9O87UERPBBOTIFLMRPJDFVC36","AW0K78T4I2T72","3T5ZXGO9DEAUILU6S56NLENRQJRQZJ","","","img/flower1.png","75","862.3999999985099","2","1","2","1,1,0,0,1,1,1,0,1",""
"null","","html-keyboard-response","398","402264","0.0-398.0","39O5D9O87UERPBBOTIFLMRPJDFVC36","AW0K78T4I2T72","3T5ZXGO9DEAUILU6S56NLENRQJRQZJ","","","<img src=""img/flower1.png"" style=""width:200px; border:14px solid green;"">","null","","","","","",""
"449.0999999977648","","image-keyboard-response","399","402715","0.0-399.0","39O5D9O87UERPBBOTIFLMRPJDFVC36","AW0K78T4I2T72","3T5ZXGO9DEAUILU6S56NLENRQJRQZJ","","","img/flower1.png","75","450.5","2","1","2","1,1,0,0,1,1,1,0,1",""
"null","","html-keyboard-response","400","403030","0.0-400.0","39O5D9O87UERPBBOTIFLMRPJDFVC36","AW0K78T4I2T72","3T5ZXGO9DEAUILU6S56NLENRQJRQZJ","","","<img src=""img/flower1.png"" style=""width:200px; border:14px solid green;"">","null","","","","","",""
"467.5","","image-keyboard-response","401","403499","0.0-401.0","39O5D9O87UERPBBOTIFLMRPJDFVC36","AW0K78T4I2T72","3T5ZXGO9DEAUILU6S56NLENRQJRQZJ","","","img/flower1.png","75","468.9000000022352","2","1","2","1,1,0,0,1,1,1,0,1",""
"null","","html-keyboard-response","402","403808","0.0-402.0","39O5D9O87UERPBBOTIFLMRPJDFVC36","AW0K78T4I2T72","3T5ZXGO9DEAUILU6S56NLENRQJRQZJ","","","<img src=""img/flower1.png"" style=""width:200px; border:14px solid green;"">","null","","","","","",""
"433.5","","image-keyboard-response","403","404243","0.0-403.0","39O5D9O87UERPBBOTIFLMRPJDFVC36","AW0K78T4I2T72","3T5ZXGO9DEAUILU6S56NLENRQJRQZJ","","","img/flower1.png","75","434.8999999985099","2","1","2","1,1,0,0,1,1,1,0,1",""
"null","","html-keyboard-response","404","404547","0.0-404.0","39O5D9O87UERPBBOTIFLMRPJDFVC36","AW0K78T4I2T72","3T5ZXGO9DEAUILU6S56NLENRQJRQZJ","","","<img src=""img/flower1.png"" style=""width:200px; border:14px solid green;"">","null","","","","","",""
