"rt","url","trial_type","trial_index","time_elapsed","internal_node_id","assignmentID","mturkID","hitID","success","view_history","stimulus","key_press","reactionTime","a","r","s","reward_cond","responses"
"62942.80000001192","consent.html","external-html","0","62978","0.0-0.0","33F859I567ZN9EQHU38SF1KBCZIBH8","AW5O1RK3W60FC","379OL9DBSS0OLW3FFHTILCO0AJC9Y6","","","","","","","","","",""
"","","fullscreen","1","66696","0.0-1.0","33F859I567ZN9EQHU38SF1KBCZIBH8","AW5O1RK3W60FC","379OL9DBSS0OLW3FFHTILCO0AJC9Y6","true","","","","","","","","",""
"101366.20000000298","","instructions","2","168064","0.0-2.0","33F859I567ZN9EQHU38SF1KBCZIBH8","AW5O1RK3W60FC","379OL9DBSS0OLW3FFHTILCO0AJC9Y6","","[{""page_index"":0,""viewing_time"":9134.40000000596},{""page_index"":1,""viewing_time"":18396.39999999106},{""page_index"":2,""viewing_time"":14428.20000000298},{""page_index"":3,""viewing_time"":13033.90000000596},{""page_index"":4,""viewing_time"":10758.09999999404},{""page_index"":5,""viewing_time"":27275.60000000894},{""page_index"":6,""viewing_time"":8338.59999999404}]","","","","","","","",""
"38550.60000000894","","instructions","3","206616","0.0-3.0","33F859I567ZN9EQHU38SF1KBCZIBH8","AW5O1RK3W60FC","379OL9DBSS0OLW3FFHTILCO0AJC9Y6","","[{""page_index"":0,""viewing_time"":38550.20000000298}]","","","","","","","",""
"1261.4000000059605","","image-keyboard-response","4","207879","0.0-4.0","33F859I567ZN9EQHU38SF1KBCZIBH8","AW5O1RK3W60FC","379OL9DBSS0OLW3FFHTILCO0AJC9Y6","","","img/flower6.png","76","1262.800000011921","3","1","3","",""
"null","","html-keyboard-response","5","208184","0.0-5.0","33F859I567ZN9EQHU38SF1KBCZIBH8","AW5O1RK3W60FC","379OL9DBSS0OLW3FFHTILCO0AJC9Y6","","","<img src=""img/flower6.png"" style=""width:200px; border:14px solid green;"">","null","","","","","",""
"1507.7999999970198","","image-keyboard-response","6","209693","0.0-6.0","33F859I567ZN9EQHU38SF1KBCZIBH8","AW5O1RK3W60FC","379OL9DBSS0OLW3FFHTILCO0AJC9Y6","","","img/flower5.png","75","1508.7999999970198","2","1","2","",""
"null","","html-keyboard-response","7","209996","0.0-7.0","33F859I567ZN9EQHU38SF1KBCZIBH8","AW5O1RK3W60FC","379OL9DBSS0OLW3FFHTILCO0AJC9Y6","","","<img src=""img/flower5.png"" style=""width:200px; border:14px solid green;"">","null","","","","","",""
"719.0999999940395","","image-keyboard-response","8","210717","0.0-8.0","33F859I567ZN9EQHU38SF1KBCZIBH8","AW5O1RK3W60FC","379OL9DBSS0OLW3FFHTILCO0AJC9Y6","","","img/flower4.png","74","720.2000000029802","1","1","1","",""
"null","","html-keyboard-response","9","211020","0.0-9.0","33F859I567ZN9EQHU38SF1KBCZIBH8","AW5O1RK3W60FC","379OL9DBSS0OLW3FFHTILCO0AJC9Y6","","","<img src=""img/flower4.png"" style=""width:200px; border:14px solid green;"">","null","","","","","",""
"775.7000000029802","","image-keyboard-response","10","211797","0.0-10.0","33F859I567ZN9EQHU38SF1KBCZIBH8","AW5O1RK3W60FC","379OL9DBSS0OLW3FFHTILCO0AJC9Y6","","","img/flower5.png","75","776.5","2","1","2","",""
"null","","html-keyboard-response","11","212103","0.0-11.0","33F859I567ZN9EQHU38SF1KBCZIBH8","AW5O1RK3W60FC","379OL9DBSS0OLW3FFHTILCO0AJC9Y6","","","<img src=""img/flower5.png"" style=""width:200px; border:14px solid green;"">","null","","","","","",""
"820.5","","image-keyboard-response","12","212925","0.0-12.0","33F859I567ZN9EQHU38SF1KBCZIBH8","AW5O1RK3W60FC","379OL9DBSS0OLW3FFHTILCO0AJC9Y6","","","img/flower5.png","75","821.6999999880791","2","1","2","",""
"null","","html-keyboard-response","13","213239","0.0-13.0","33F859I567ZN9EQHU38SF1KBCZIBH8","AW5O1RK3W60FC","379OL9DBSS0OLW3FFHTILCO0AJC9Y6","","","<img src=""img/flower5.png"" style=""width:200px; border:14px solid green;"">","null","","","","","",""
"636.8000000119209","","image-keyboard-response","14","213878","0.0-14.0","33F859I567ZN9EQHU38SF1KBCZIBH8","AW5O1RK3W60FC","379OL9DBSS0OLW3FFHTILCO0AJC9Y6","","","img/flower4.png","74","637.8999999910593","1","1","1","",""
"null","","html-keyboard-response","15","214184","0.0-15.0","33F859I567ZN9EQHU38SF1KBCZIBH8","AW5O1RK3W60FC","379OL9DBSS0OLW3FFHTILCO0AJC9Y6","","","<img src=""img/flower4.png"" style=""width:200px; border:14px solid green;"">","null","","","","","",""
"707.4000000059605","","image-keyboard-response","16","214893","0.0-16.0","33F859I567ZN9EQHU38SF1KBCZIBH8","AW5O1RK3W60FC","379OL9DBSS0OLW3FFHTILCO0AJC9Y6","","","img/flower6.png","76","708.2999999970198","3","0","3","",""
"null","","html-keyboard-response","17","215201","0.0-17.0","33F859I567ZN9EQHU38SF1KBCZIBH8","AW5O1RK3W60FC","379OL9DBSS0OLW3FFHTILCO0AJC9Y6","","","<img src=""img/flower6.png"" style=""width:200px;border:14px solid red;"">","null","","","","","",""
"787.8000000119209","","image-keyboard-response","18","215990","0.0-18.0","33F859I567ZN9EQHU38SF1KBCZIBH8","AW5O1RK3W60FC","379OL9DBSS0OLW3FFHTILCO0AJC9Y6","","","img/flower6.png","76","788.7999999970198","3","1","3","",""
"null","","html-keyboard-response","19","216301","0.0-19.0","33F859I567ZN9EQHU38SF1KBCZIBH8","AW5O1RK3W60FC","379OL9DBSS0OLW3FFHTILCO0AJC9Y6","","","<img src=""img/flower6.png"" style=""width:200px; border:14px solid green;"">","null","","","","","",""
"1095.5","","image-keyboard-response","20","217398","0.0-20.0","33F859I567ZN9EQHU38SF1KBCZIBH8","AW5O1RK3W60FC","379OL9DBSS0OLW3FFHTILCO0AJC9Y6","","","img/flower4.png","74","1096.7000000029802","1","0","1","",""
"null","","html-keyboard-response","21","217700","0.0-21.0","33F859I567ZN9EQHU38SF1KBCZIBH8","AW5O1RK3W60FC","379OL9DBSS0OLW3FFHTILCO0AJC9Y6","","","<img src=""img/flower4.png"" style=""width:200px;border:14px solid red;"">","null","","","","","",""
"1350.9000000059605","","image-keyboard-response","22","219053","0.0-22.0","33F859I567ZN9EQHU38SF1KBCZIBH8","AW5O1RK3W60FC","379OL9DBSS0OLW3FFHTILCO0AJC9Y6","","","img/flower5.png","75","1352.2000000029802","2","1","2","",""
"null","","html-keyboard-response","23","219368","0.0-23.0","33F859I567ZN9EQHU38SF1KBCZIBH8","AW5O1RK3W60FC","379OL9DBSS0OLW3FFHTILCO0AJC9Y6","","","<img src=""img/flower5.png"" style=""width:200px; border:14px solid green;"">","null","","","","","",""
"660.0999999940395","","image-keyboard-response","24","220029","0.0-24.0","33F859I567ZN9EQHU38SF1KBCZIBH8","AW5O1RK3W60FC","379OL9DBSS0OLW3FFHTILCO0AJC9Y6","","","img/flower6.png","76","660.9000000059605","3","1","3","",""
"null","","html-keyboard-response","25","220334","0.0-25.0","33F859I567ZN9EQHU38SF1KBCZIBH8","AW5O1RK3W60FC","379OL9DBSS0OLW3FFHTILCO0AJC9Y6","","","<img src=""img/flower6.png"" style=""width:200px; border:14px solid green;"">","null","","","","","",""
"741.9000000059605","","image-keyboard-response","26","221077","0.0-26.0","33F859I567ZN9EQHU38SF1KBCZIBH8","AW5O1RK3W60FC","379OL9DBSS0OLW3FFHTILCO0AJC9Y6","","","img/flower4.png","74","742.5999999940395","1","1","1","",""
"null","","html-keyboard-response","27","221383","0.0-27.0","33F859I567ZN9EQHU38SF1KBCZIBH8","AW5O1RK3W60FC","379OL9DBSS0OLW3FFHTILCO0AJC9Y6","","","<img src=""img/flower4.png"" style=""width:200px; border:14px solid green;"">","null","","","","","",""
"589","","image-keyboard-response","28","221974","0.0-28.0","33F859I567ZN9EQHU38SF1KBCZIBH8","AW5O1RK3W60FC","379OL9DBSS0OLW3FFHTILCO0AJC9Y6","","","img/flower4.png","74","590","1","1","1","",""
"null","","html-keyboard-response","29","222284","0.0-29.0","33F859I567ZN9EQHU38SF1KBCZIBH8","AW5O1RK3W60FC","379OL9DBSS0OLW3FFHTILCO0AJC9Y6","","","<img src=""img/flower4.png"" style=""width:200px; border:14px solid green;"">","null","","","","","",""
"775.9000000059605","","image-keyboard-response","30","223061","0.0-30.0","33F859I567ZN9EQHU38SF1KBCZIBH8","AW5O1RK3W60FC","379OL9DBSS0OLW3FFHTILCO0AJC9Y6","","","img/flower6.png","76","776.7000000029802","3","1","3","",""
"null","","html-keyboard-response","31","223367","0.0-31.0","33F859I567ZN9EQHU38SF1KBCZIBH8","AW5O1RK3W60FC","379OL9DBSS0OLW3FFHTILCO0AJC9Y6","","","<img src=""img/flower6.png"" style=""width:200px; border:14px solid green;"">","null","","","","","",""
"620.9000000059605","","image-keyboard-response","32","223989","0.0-32.0","33F859I567ZN9EQHU38SF1KBCZIBH8","AW5O1RK3W60FC","379OL9DBSS0OLW3FFHTILCO0AJC9Y6","","","img/flower6.png","76","621.7999999970198","3","1","3","",""
"null","","html-keyboard-response","33","224301","0.0-33.0","33F859I567ZN9EQHU38SF1KBCZIBH8","AW5O1RK3W60FC","379OL9DBSS0OLW3FFHTILCO0AJC9Y6","","","<img src=""img/flower6.png"" style=""width:200px; border:14px solid green;"">","null","","","","","",""
"926.7999999970198","","image-keyboard-response","34","225229","0.0-34.0","33F859I567ZN9EQHU38SF1KBCZIBH8","AW5O1RK3W60FC","379OL9DBSS0OLW3FFHTILCO0AJC9Y6","","","img/flower6.png","76","927.7999999970198","3","1","3","",""
"null","","html-keyboard-response","35","225534","0.0-35.0","33F859I567ZN9EQHU38SF1KBCZIBH8","AW5O1RK3W60FC","379OL9DBSS0OLW3FFHTILCO0AJC9Y6","","","<img src=""img/flower6.png"" style=""width:200px; border:14px solid green;"">","null","","","","","",""
"718.5","","image-keyboard-response","36","226254","0.0-36.0","33F859I567ZN9EQHU38SF1KBCZIBH8","AW5O1RK3W60FC","379OL9DBSS0OLW3FFHTILCO0AJC9Y6","","","img/flower5.png","75","719.3999999910593","2","1","2","",""
"null","","html-keyboard-response","37","226569","0.0-37.0","33F859I567ZN9EQHU38SF1KBCZIBH8","AW5O1RK3W60FC","379OL9DBSS0OLW3FFHTILCO0AJC9Y6","","","<img src=""img/flower5.png"" style=""width:200px; border:14px solid green;"">","null","","","","","",""
"827.3000000119209","","image-keyboard-response","38","227397","0.0-38.0","33F859I567ZN9EQHU38SF1KBCZIBH8","AW5O1RK3W60FC","379OL9DBSS0OLW3FFHTILCO0AJC9Y6","","","img/flower6.png","76","828.2999999970198","3","1","3","",""
"null","","html-keyboard-response","39","227701","0.0-39.0","33F859I567ZN9EQHU38SF1KBCZIBH8","AW5O1RK3W60FC","379OL9DBSS0OLW3FFHTILCO0AJC9Y6","","","<img src=""img/flower6.png"" style=""width:200px; border:14px solid green;"">","null","","","","","",""
"687.5999999940395","","image-keyboard-response","40","228390","0.0-40.0","33F859I567ZN9EQHU38SF1KBCZIBH8","AW5O1RK3W60FC","379OL9DBSS0OLW3FFHTILCO0AJC9Y6","","","img/flower5.png","75","688.6000000089407","2","1","2","",""
"null","","html-keyboard-response","41","228701","0.0-41.0","33F859I567ZN9EQHU38SF1KBCZIBH8","AW5O1RK3W60FC","379OL9DBSS0OLW3FFHTILCO0AJC9Y6","","","<img src=""img/flower5.png"" style=""width:200px; border:14px solid green;"">","null","","","","","",""
"687.1000000089407","","image-keyboard-response","42","229389","0.0-42.0","33F859I567ZN9EQHU38SF1KBCZIBH8","AW5O1RK3W60FC","379OL9DBSS0OLW3FFHTILCO0AJC9Y6","","","img/flower4.png","74","688","1","1","1","",""
"null","","html-keyboard-response","43","229701","0.0-43.0","33F859I567ZN9EQHU38SF1KBCZIBH8","AW5O1RK3W60FC","379OL9DBSS0OLW3FFHTILCO0AJC9Y6","","","<img src=""img/flower4.png"" style=""width:200px; border:14px solid green;"">","null","","","","","",""
"599.7000000029802","","image-keyboard-response","44","230302","0.0-44.0","33F859I567ZN9EQHU38SF1KBCZIBH8","AW5O1RK3W60FC","379OL9DBSS0OLW3FFHTILCO0AJC9Y6","","","img/flower4.png","74","600.5","1","1","1","",""
"null","","html-keyboard-response","45","230618","0.0-45.0","33F859I567ZN9EQHU38SF1KBCZIBH8","AW5O1RK3W60FC","379OL9DBSS0OLW3FFHTILCO0AJC9Y6","","","<img src=""img/flower4.png"" style=""width:200px; border:14px solid green;"">","null","","","","","",""
"657.8999999910593","","image-keyboard-response","46","231277","0.0-46.0","33F859I567ZN9EQHU38SF1KBCZIBH8","AW5O1RK3W60FC","379OL9DBSS0OLW3FFHTILCO0AJC9Y6","","","img/flower5.png","75","659","2","1","2","",""
"null","","html-keyboard-response","47","231584","0.0-47.0","33F859I567ZN9EQHU38SF1KBCZIBH8","AW5O1RK3W60FC","379OL9DBSS0OLW3FFHTILCO0AJC9Y6","","","<img src=""img/flower5.png"" style=""width:200px; border:14px solid green;"">","null","","","","","",""
"620.2000000029802","","image-keyboard-response","48","232206","0.0-48.0","33F859I567ZN9EQHU38SF1KBCZIBH8","AW5O1RK3W60FC","379OL9DBSS0OLW3FFHTILCO0AJC9Y6","","","img/flower4.png","74","621.0999999940395","1","1","1","",""
"null","","html-keyboard-response","49","232517","0.0-49.0","33F859I567ZN9EQHU38SF1KBCZIBH8","AW5O1RK3W60FC","379OL9DBSS0OLW3FFHTILCO0AJC9Y6","","","<img src=""img/flower4.png"" style=""width:200px; border:14px solid green;"">","null","","","","","",""
"623.1999999880791","","image-keyboard-response","50","233142","0.0-50.0","33F859I567ZN9EQHU38SF1KBCZIBH8","AW5O1RK3W60FC","379OL9DBSS0OLW3FFHTILCO0AJC9Y6","","","img/flower4.png","74","624.1000000089407","1","1","1","",""
"null","","html-keyboard-response","51","233455","0.0-51.0","33F859I567ZN9EQHU38SF1KBCZIBH8","AW5O1RK3W60FC","379OL9DBSS0OLW3FFHTILCO0AJC9Y6","","","<img src=""img/flower4.png"" style=""width:200px; border:14px solid green;"">","null","","","","","",""
"765.9000000059605","","image-keyboard-response","52","234222","0.0-52.0","33F859I567ZN9EQHU38SF1KBCZIBH8","AW5O1RK3W60FC","379OL9DBSS0OLW3FFHTILCO0AJC9Y6","","","img/flower6.png","76","766.7999999970198","3","1","3","",""
"null","","html-keyboard-response","53","234534","0.0-53.0","33F859I567ZN9EQHU38SF1KBCZIBH8","AW5O1RK3W60FC","379OL9DBSS0OLW3FFHTILCO0AJC9Y6","","","<img src=""img/flower6.png"" style=""width:200px; border:14px solid green;"">","null","","","","","",""
"733.5","","image-keyboard-response","54","235269","0.0-54.0","33F859I567ZN9EQHU38SF1KBCZIBH8","AW5O1RK3W60FC","379OL9DBSS0OLW3FFHTILCO0AJC9Y6","","","img/flower5.png","75","734.4000000059605","2","1","2","",""
"null","","html-keyboard-response","55","235586","0.0-55.0","33F859I567ZN9EQHU38SF1KBCZIBH8","AW5O1RK3W60FC","379OL9DBSS0OLW3FFHTILCO0AJC9Y6","","","<img src=""img/flower5.png"" style=""width:200px; border:14px solid green;"">","null","","","","","",""
"610.2999999970198","","image-keyboard-response","56","236197","0.0-56.0","33F859I567ZN9EQHU38SF1KBCZIBH8","AW5O1RK3W60FC","379OL9DBSS0OLW3FFHTILCO0AJC9Y6","","","img/flower5.png","75","611.3000000119209","2","1","2","",""
"null","","html-keyboard-response","57","236501","0.0-57.0","33F859I567ZN9EQHU38SF1KBCZIBH8","AW5O1RK3W60FC","379OL9DBSS0OLW3FFHTILCO0AJC9Y6","","","<img src=""img/flower5.png"" style=""width:200px; border:14px solid green;"">","null","","","","","",""
"623.5","","image-keyboard-response","58","237126","0.0-58.0","33F859I567ZN9EQHU38SF1KBCZIBH8","AW5O1RK3W60FC","379OL9DBSS0OLW3FFHTILCO0AJC9Y6","","","img/flower5.png","75","624.3999999910593","2","1","2","",""
"null","","html-keyboard-response","59","237436","0.0-59.0","33F859I567ZN9EQHU38SF1KBCZIBH8","AW5O1RK3W60FC","379OL9DBSS0OLW3FFHTILCO0AJC9Y6","","","<img src=""img/flower5.png"" style=""width:200px; border:14px solid green;"">","null","","","","","",""
"551.7999999970198","","image-keyboard-response","60","237989","0.0-60.0","33F859I567ZN9EQHU38SF1KBCZIBH8","AW5O1RK3W60FC","379OL9DBSS0OLW3FFHTILCO0AJC9Y6","","","img/flower4.png","74","552.9000000059605","1","1","1","",""
"null","","html-keyboard-response","61","238300","0.0-61.0","33F859I567ZN9EQHU38SF1KBCZIBH8","AW5O1RK3W60FC","379OL9DBSS0OLW3FFHTILCO0AJC9Y6","","","<img src=""img/flower4.png"" style=""width:200px; border:14px solid green;"">","null","","","","","",""
"767.7999999970198","","image-keyboard-response","62","239069","0.0-62.0","33F859I567ZN9EQHU38SF1KBCZIBH8","AW5O1RK3W60FC","379OL9DBSS0OLW3FFHTILCO0AJC9Y6","","","img/flower6.png","76","768.7000000029802","3","1","3","",""
"null","","html-keyboard-response","63","239385","0.0-63.0","33F859I567ZN9EQHU38SF1KBCZIBH8","AW5O1RK3W60FC","379OL9DBSS0OLW3FFHTILCO0AJC9Y6","","","<img src=""img/flower6.png"" style=""width:200px; border:14px solid green;"">","null","","","","","",""
"32428.29999999702","","instructions","64","271814","0.0-64.0","33F859I567ZN9EQHU38SF1KBCZIBH8","AW5O1RK3W60FC","379OL9DBSS0OLW3FFHTILCO0AJC9Y6","","[{""page_index"":0,""viewing_time"":10589.59999999404},{""page_index"":1,""viewing_time"":21838.20000000298}]","","","","","","","",""
"1302.1000000089407","","image-keyboard-response","65","273117","0.0-65.0","33F859I567ZN9EQHU38SF1KBCZIBH8","AW5O1RK3W60FC","379OL9DBSS0OLW3FFHTILCO0AJC9Y6","","","img/flower6.png","74","1303.2000000029802","1","1","3","",""
"null","","html-keyboard-response","66","273430","0.0-66.0","33F859I567ZN9EQHU38SF1KBCZIBH8","AW5O1RK3W60FC","379OL9DBSS0OLW3FFHTILCO0AJC9Y6","","","<img src=""img/flower6.png"" style=""width:200px; border:14px solid green;"">","null","","","","","",""
"1485.5","","image-keyboard-response","67","274917","0.0-67.0","33F859I567ZN9EQHU38SF1KBCZIBH8","AW5O1RK3W60FC","379OL9DBSS0OLW3FFHTILCO0AJC9Y6","","","img/flower4.png","75","1486.4000000059605","2","1","1","",""
"null","","html-keyboard-response","68","275219","0.0-68.0","33F859I567ZN9EQHU38SF1KBCZIBH8","AW5O1RK3W60FC","379OL9DBSS0OLW3FFHTILCO0AJC9Y6","","","<img src=""img/flower4.png"" style=""width:200px; border:14px solid green;"">","null","","","","","",""
"784.5999999940395","","image-keyboard-response","69","276005","0.0-69.0","33F859I567ZN9EQHU38SF1KBCZIBH8","AW5O1RK3W60FC","379OL9DBSS0OLW3FFHTILCO0AJC9Y6","","","img/flower4.png","75","785.5999999940395","2","1","1","",""
"null","","html-keyboard-response","70","276317","0.0-70.0","33F859I567ZN9EQHU38SF1KBCZIBH8","AW5O1RK3W60FC","379OL9DBSS0OLW3FFHTILCO0AJC9Y6","","","<img src=""img/flower4.png"" style=""width:200px; border:14px solid green;"">","null","","","","","",""
"815.5","","image-keyboard-response","71","277134","0.0-71.0","33F859I567ZN9EQHU38SF1KBCZIBH8","AW5O1RK3W60FC","379OL9DBSS0OLW3FFHTILCO0AJC9Y6","","","img/flower4.png","75","816.4000000059605","2","1","1","",""
"null","","html-keyboard-response","72","277436","0.0-72.0","33F859I567ZN9EQHU38SF1KBCZIBH8","AW5O1RK3W60FC","379OL9DBSS0OLW3FFHTILCO0AJC9Y6","","","<img src=""img/flower4.png"" style=""width:200px; border:14px solid green;"">","null","","","","","",""
"663.6000000089407","","image-keyboard-response","73","278101","0.0-73.0","33F859I567ZN9EQHU38SF1KBCZIBH8","AW5O1RK3W60FC","379OL9DBSS0OLW3FFHTILCO0AJC9Y6","","","img/flower4.png","75","664.5999999940395","2","1","1","",""
"null","","html-keyboard-response","74","278417","0.0-74.0","33F859I567ZN9EQHU38SF1KBCZIBH8","AW5O1RK3W60FC","379OL9DBSS0OLW3FFHTILCO0AJC9Y6","","","<img src=""img/flower4.png"" style=""width:200px; border:14px solid green;"">","null","","","","","",""
"1075.4000000059605","","image-keyboard-response","75","279494","0.0-75.0","33F859I567ZN9EQHU38SF1KBCZIBH8","AW5O1RK3W60FC","379OL9DBSS0OLW3FFHTILCO0AJC9Y6","","","img/flower6.png","74","1076.2000000029802","1","1","3","",""
"null","","html-keyboard-response","76","279801","0.0-76.0","33F859I567ZN9EQHU38SF1KBCZIBH8","AW5O1RK3W60FC","379OL9DBSS0OLW3FFHTILCO0AJC9Y6","","","<img src=""img/flower6.png"" style=""width:200px; border:14px solid green;"">","null","","","","","",""
"1435.2000000029802","","image-keyboard-response","77","281237","0.0-77.0","33F859I567ZN9EQHU38SF1KBCZIBH8","AW5O1RK3W60FC","379OL9DBSS0OLW3FFHTILCO0AJC9Y6","","","img/flower5.png","76","1436","3","1","2","",""
"null","","html-keyboard-response","78","281551","0.0-78.0","33F859I567ZN9EQHU38SF1KBCZIBH8","AW5O1RK3W60FC","379OL9DBSS0OLW3FFHTILCO0AJC9Y6","","","<img src=""img/flower5.png"" style=""width:200px; border:14px solid green;"">","null","","","","","",""
"1237.7999999970198","","image-keyboard-response","79","282790","0.0-79.0","33F859I567ZN9EQHU38SF1KBCZIBH8","AW5O1RK3W60FC","379OL9DBSS0OLW3FFHTILCO0AJC9Y6","","","img/flower6.png","74","1238.7999999970198","1","0","3","",""
"null","","html-keyboard-response","80","283101","0.0-80.0","33F859I567ZN9EQHU38SF1KBCZIBH8","AW5O1RK3W60FC","379OL9DBSS0OLW3FFHTILCO0AJC9Y6","","","<img src=""img/flower6.png"" style=""width:200px;border:14px solid red;"">","null","","","","","",""
"831.4000000059605","","image-keyboard-response","81","283933","0.0-81.0","33F859I567ZN9EQHU38SF1KBCZIBH8","AW5O1RK3W60FC","379OL9DBSS0OLW3FFHTILCO0AJC9Y6","","","img/flower5.png","75","832.2999999970198","2","0","2","",""
"null","","html-keyboard-response","82","284237","0.0-82.0","33F859I567ZN9EQHU38SF1KBCZIBH8","AW5O1RK3W60FC","379OL9DBSS0OLW3FFHTILCO0AJC9Y6","","","<img src=""img/flower5.png"" style=""width:200px;border:14px solid red;"">","null","","","","","",""
"919.7999999970198","","image-keyboard-response","83","285158","0.0-83.0","33F859I567ZN9EQHU38SF1KBCZIBH8","AW5O1RK3W60FC","379OL9DBSS0OLW3FFHTILCO0AJC9Y6","","","img/flower4.png","74","920.7000000029802","1","1","1","",""
"null","","html-keyboard-response","84","285467","0.0-84.0","33F859I567ZN9EQHU38SF1KBCZIBH8","AW5O1RK3W60FC","379OL9DBSS0OLW3FFHTILCO0AJC9Y6","","","<img src=""img/flower4.png"" style=""width:200px; border:14px solid green;"">","null","","","","","",""
"586.1000000089407","","image-keyboard-response","85","286054","0.0-85.0","33F859I567ZN9EQHU38SF1KBCZIBH8","AW5O1RK3W60FC","379OL9DBSS0OLW3FFHTILCO0AJC9Y6","","","img/flower4.png","74","586.7000000029802","1","1","1","",""
"null","","html-keyboard-response","86","286368","0.0-86.0","33F859I567ZN9EQHU38SF1KBCZIBH8","AW5O1RK3W60FC","379OL9DBSS0OLW3FFHTILCO0AJC9Y6","","","<img src=""img/flower4.png"" style=""width:200px; border:14px solid green;"">","null","","","","","",""
"780.2999999970198","","image-keyboard-response","87","287150","0.0-87.0","33F859I567ZN9EQHU38SF1KBCZIBH8","AW5O1RK3W60FC","379OL9DBSS0OLW3FFHTILCO0AJC9Y6","","","img/flower6.png","76","781.4000000059605","3","1","3","",""
"null","","html-keyboard-response","88","287452","0.0-88.0","33F859I567ZN9EQHU38SF1KBCZIBH8","AW5O1RK3W60FC","379OL9DBSS0OLW3FFHTILCO0AJC9Y6","","","<img src=""img/flower6.png"" style=""width:200px; border:14px solid green;"">","null","","","","","",""
"680.2999999970198","","image-keyboard-response","89","288134","0.0-89.0","33F859I567ZN9EQHU38SF1KBCZIBH8","AW5O1RK3W60FC","379OL9DBSS0OLW3FFHTILCO0AJC9Y6","","","img/flower5.png","75","681.1999999880791","2","1","2","",""
"null","","html-keyboard-response","90","288437","0.0-90.0","33F859I567ZN9EQHU38SF1KBCZIBH8","AW5O1RK3W60FC","379OL9DBSS0OLW3FFHTILCO0AJC9Y6","","","<img src=""img/flower5.png"" style=""width:200px; border:14px solid green;"">","null","","","","","",""
"703.1000000089407","","image-keyboard-response","91","289141","0.0-91.0","33F859I567ZN9EQHU38SF1KBCZIBH8","AW5O1RK3W60FC","379OL9DBSS0OLW3FFHTILCO0AJC9Y6","","","img/flower6.png","76","704","3","1","3","",""
"null","","html-keyboard-response","92","289451","0.0-92.0","33F859I567ZN9EQHU38SF1KBCZIBH8","AW5O1RK3W60FC","379OL9DBSS0OLW3FFHTILCO0AJC9Y6","","","<img src=""img/flower6.png"" style=""width:200px; border:14px solid green;"">","null","","","","","",""
"833.3999999910593","","image-keyboard-response","93","290286","0.0-93.0","33F859I567ZN9EQHU38SF1KBCZIBH8","AW5O1RK3W60FC","379OL9DBSS0OLW3FFHTILCO0AJC9Y6","","","img/flower4.png","74","834.3999999910593","1","1","1","",""
"null","","html-keyboard-response","94","290601","0.0-94.0","33F859I567ZN9EQHU38SF1KBCZIBH8","AW5O1RK3W60FC","379OL9DBSS0OLW3FFHTILCO0AJC9Y6","","","<img src=""img/flower4.png"" style=""width:200px; border:14px solid green;"">","null","","","","","",""
"651.5","","image-keyboard-response","95","291254","0.0-95.0","33F859I567ZN9EQHU38SF1KBCZIBH8","AW5O1RK3W60FC","379OL9DBSS0OLW3FFHTILCO0AJC9Y6","","","img/flower5.png","75","652.4000000059605","2","1","2","",""
"null","","html-keyboard-response","96","291566","0.0-96.0","33F859I567ZN9EQHU38SF1KBCZIBH8","AW5O1RK3W60FC","379OL9DBSS0OLW3FFHTILCO0AJC9Y6","","","<img src=""img/flower5.png"" style=""width:200px; border:14px solid green;"">","null","","","","","",""
"629.7999999970198","","image-keyboard-response","97","292197","0.0-97.0","33F859I567ZN9EQHU38SF1KBCZIBH8","AW5O1RK3W60FC","379OL9DBSS0OLW3FFHTILCO0AJC9Y6","","","img/flower6.png","76","631","3","1","3","",""
"null","","html-keyboard-response","98","292500","0.0-98.0","33F859I567ZN9EQHU38SF1KBCZIBH8","AW5O1RK3W60FC","379OL9DBSS0OLW3FFHTILCO0AJC9Y6","","","<img src=""img/flower6.png"" style=""width:200px; border:14px solid green;"">","null","","","","","",""
"464.5","","image-keyboard-response","99","292966","0.0-99.0","33F859I567ZN9EQHU38SF1KBCZIBH8","AW5O1RK3W60FC","379OL9DBSS0OLW3FFHTILCO0AJC9Y6","","","img/flower6.png","76","465.30000001192093","3","1","3","",""
"null","","html-keyboard-response","100","293271","0.0-100.0","33F859I567ZN9EQHU38SF1KBCZIBH8","AW5O1RK3W60FC","379OL9DBSS0OLW3FFHTILCO0AJC9Y6","","","<img src=""img/flower6.png"" style=""width:200px; border:14px solid green;"">","null","","","","","",""
"636.7999999970198","","image-keyboard-response","101","293909","0.0-101.0","33F859I567ZN9EQHU38SF1KBCZIBH8","AW5O1RK3W60FC","379OL9DBSS0OLW3FFHTILCO0AJC9Y6","","","img/flower5.png","75","637.7999999970198","2","1","2","",""
"null","","html-keyboard-response","102","294217","0.0-102.0","33F859I567ZN9EQHU38SF1KBCZIBH8","AW5O1RK3W60FC","379OL9DBSS0OLW3FFHTILCO0AJC9Y6","","","<img src=""img/flower5.png"" style=""width:200px; border:14px solid green;"">","null","","","","","",""
"826.7999999970198","","image-keyboard-response","103","295045","0.0-103.0","33F859I567ZN9EQHU38SF1KBCZIBH8","AW5O1RK3W60FC","379OL9DBSS0OLW3FFHTILCO0AJC9Y6","","","img/flower6.png","76","827.8000000119209","3","1","3","",""
"null","","html-keyboard-response","104","295351","0.0-104.0","33F859I567ZN9EQHU38SF1KBCZIBH8","AW5O1RK3W60FC","379OL9DBSS0OLW3FFHTILCO0AJC9Y6","","","<img src=""img/flower6.png"" style=""width:200px; border:14px solid green;"">","null","","","","","",""
"461.19999998807907","","image-keyboard-response","105","295813","0.0-105.0","33F859I567ZN9EQHU38SF1KBCZIBH8","AW5O1RK3W60FC","379OL9DBSS0OLW3FFHTILCO0AJC9Y6","","","img/flower6.png","76","462.1000000089407","3","1","3","",""
"null","","html-keyboard-response","106","296119","0.0-106.0","33F859I567ZN9EQHU38SF1KBCZIBH8","AW5O1RK3W60FC","379OL9DBSS0OLW3FFHTILCO0AJC9Y6","","","<img src=""img/flower6.png"" style=""width:200px; border:14px solid green;"">","null","","","","","",""
"588.2000000029802","","image-keyboard-response","107","296709","0.0-107.0","33F859I567ZN9EQHU38SF1KBCZIBH8","AW5O1RK3W60FC","379OL9DBSS0OLW3FFHTILCO0AJC9Y6","","","img/flower5.png","75","589.2000000029802","2","0","2","",""
"null","","html-keyboard-response","108","297017","0.0-108.0","33F859I567ZN9EQHU38SF1KBCZIBH8","AW5O1RK3W60FC","379OL9DBSS0OLW3FFHTILCO0AJC9Y6","","","<img src=""img/flower5.png"" style=""width:200px;border:14px solid red;"">","null","","","","","",""
"611.3999999910593","","image-keyboard-response","109","297630","0.0-109.0","33F859I567ZN9EQHU38SF1KBCZIBH8","AW5O1RK3W60FC","379OL9DBSS0OLW3FFHTILCO0AJC9Y6","","","img/flower4.png","74","612.2999999970198","1","1","1","",""
"null","","html-keyboard-response","110","297946","0.0-110.0","33F859I567ZN9EQHU38SF1KBCZIBH8","AW5O1RK3W60FC","379OL9DBSS0OLW3FFHTILCO0AJC9Y6","","","<img src=""img/flower4.png"" style=""width:200px; border:14px solid green;"">","null","","","","","",""
"697.7999999970198","","image-keyboard-response","111","298646","0.0-111.0","33F859I567ZN9EQHU38SF1KBCZIBH8","AW5O1RK3W60FC","379OL9DBSS0OLW3FFHTILCO0AJC9Y6","","","img/flower5.png","75","699","2","0","2","",""
"null","","html-keyboard-response","112","298951","0.0-112.0","33F859I567ZN9EQHU38SF1KBCZIBH8","AW5O1RK3W60FC","379OL9DBSS0OLW3FFHTILCO0AJC9Y6","","","<img src=""img/flower5.png"" style=""width:200px;border:14px solid red;"">","null","","","","","",""
"613.9000000059605","","image-keyboard-response","113","299566","0.0-113.0","33F859I567ZN9EQHU38SF1KBCZIBH8","AW5O1RK3W60FC","379OL9DBSS0OLW3FFHTILCO0AJC9Y6","","","img/flower4.png","74","614.7999999970198","1","0","1","",""
"null","","html-keyboard-response","114","299868","0.0-114.0","33F859I567ZN9EQHU38SF1KBCZIBH8","AW5O1RK3W60FC","379OL9DBSS0OLW3FFHTILCO0AJC9Y6","","","<img src=""img/flower4.png"" style=""width:200px;border:14px solid red;"">","null","","","","","",""
"688","","image-keyboard-response","115","300557","0.0-115.0","33F859I567ZN9EQHU38SF1KBCZIBH8","AW5O1RK3W60FC","379OL9DBSS0OLW3FFHTILCO0AJC9Y6","","","img/flower5.png","75","688.7999999970198","2","1","2","",""
"null","","html-keyboard-response","116","300868","0.0-116.0","33F859I567ZN9EQHU38SF1KBCZIBH8","AW5O1RK3W60FC","379OL9DBSS0OLW3FFHTILCO0AJC9Y6","","","<img src=""img/flower5.png"" style=""width:200px; border:14px solid green;"">","null","","","","","",""
"593","","image-keyboard-response","117","301462","0.0-117.0","33F859I567ZN9EQHU38SF1KBCZIBH8","AW5O1RK3W60FC","379OL9DBSS0OLW3FFHTILCO0AJC9Y6","","","img/flower5.png","75","593.9000000059605","2","0","2","",""
"null","","html-keyboard-response","118","301767","0.0-118.0","33F859I567ZN9EQHU38SF1KBCZIBH8","AW5O1RK3W60FC","379OL9DBSS0OLW3FFHTILCO0AJC9Y6","","","<img src=""img/flower5.png"" style=""width:200px;border:14px solid red;"">","null","","","","","",""
"709","","image-keyboard-response","119","302477","0.0-119.0","33F859I567ZN9EQHU38SF1KBCZIBH8","AW5O1RK3W60FC","379OL9DBSS0OLW3FFHTILCO0AJC9Y6","","","img/flower6.png","76","709.7000000029802","3","0","3","",""
"null","","html-keyboard-response","120","302783","0.0-120.0","33F859I567ZN9EQHU38SF1KBCZIBH8","AW5O1RK3W60FC","379OL9DBSS0OLW3FFHTILCO0AJC9Y6","","","<img src=""img/flower6.png"" style=""width:200px;border:14px solid red;"">","null","","","","","",""
"645.7999999970198","","image-keyboard-response","121","303430","0.0-121.0","33F859I567ZN9EQHU38SF1KBCZIBH8","AW5O1RK3W60FC","379OL9DBSS0OLW3FFHTILCO0AJC9Y6","","","img/flower4.png","74","647","1","0","1","",""
"null","","html-keyboard-response","122","303734","0.0-122.0","33F859I567ZN9EQHU38SF1KBCZIBH8","AW5O1RK3W60FC","379OL9DBSS0OLW3FFHTILCO0AJC9Y6","","","<img src=""img/flower4.png"" style=""width:200px;border:14px solid red;"">","null","","","","","",""
"662.1999999880791","","image-keyboard-response","123","304397","0.0-123.0","33F859I567ZN9EQHU38SF1KBCZIBH8","AW5O1RK3W60FC","379OL9DBSS0OLW3FFHTILCO0AJC9Y6","","","img/flower5.png","75","663.2000000029802","2","1","2","",""
"null","","html-keyboard-response","124","304702","0.0-124.0","33F859I567ZN9EQHU38SF1KBCZIBH8","AW5O1RK3W60FC","379OL9DBSS0OLW3FFHTILCO0AJC9Y6","","","<img src=""img/flower5.png"" style=""width:200px; border:14px solid green;"">","null","","","","","",""
"6485.0999999940395","","instructions","125","311188","0.0-125.0","33F859I567ZN9EQHU38SF1KBCZIBH8","AW5O1RK3W60FC","379OL9DBSS0OLW3FFHTILCO0AJC9Y6","","[{""page_index"":0,""viewing_time"":6484.79999999702}]","","","","","","","",""
"1425.7999999970198","","image-keyboard-response","126","312615","0.0-126.0","33F859I567ZN9EQHU38SF1KBCZIBH8","AW5O1RK3W60FC","379OL9DBSS0OLW3FFHTILCO0AJC9Y6","","","img/flower5.png","75","1426.5999999940395","2","0","2","0.6,0.6,0,0,0.6,0.6,0.6,0,0.6",""
"null","","html-keyboard-response","127","312917","0.0-127.0","33F859I567ZN9EQHU38SF1KBCZIBH8","AW5O1RK3W60FC","379OL9DBSS0OLW3FFHTILCO0AJC9Y6","","","<img src=""img/flower5.png"" style=""width:200px;border:14px solid red;"">","null","","","","","",""
"736.4000000059605","","image-keyboard-response","128","313654","0.0-128.0","33F859I567ZN9EQHU38SF1KBCZIBH8","AW5O1RK3W60FC","379OL9DBSS0OLW3FFHTILCO0AJC9Y6","","","img/flower5.png","75","737.2000000029802","2","0","2","0.6,0.6,0,0,0.6,0.6,0.6,0,0.6",""
"null","","html-keyboard-response","129","313964","0.0-129.0","33F859I567ZN9EQHU38SF1KBCZIBH8","AW5O1RK3W60FC","379OL9DBSS0OLW3FFHTILCO0AJC9Y6","","","<img src=""img/flower5.png"" style=""width:200px;border:14px solid red;"">","null","","","","","",""
"1793","","image-keyboard-response","130","315758","0.0-130.0","33F859I567ZN9EQHU38SF1KBCZIBH8","AW5O1RK3W60FC","379OL9DBSS0OLW3FFHTILCO0AJC9Y6","","","img/flower5.png","75","1793.7999999970198","2","1","2","0.6,0.6,0,0,0.6,0.6,0.6,0,0.6",""
"null","","html-keyboard-response","131","316072","0.0-131.0","33F859I567ZN9EQHU38SF1KBCZIBH8","AW5O1RK3W60FC","379OL9DBSS0OLW3FFHTILCO0AJC9Y6","","","<img src=""img/flower5.png"" style=""width:200px; border:14px solid green;"">","null","","","","","",""
"1349","","image-keyboard-response","132","317422","0.0-132.0","33F859I567ZN9EQHU38SF1KBCZIBH8","AW5O1RK3W60FC","379OL9DBSS0OLW3FFHTILCO0AJC9Y6","","","img/flower3.png","76","1349.7999999970198","3","1","3","0.6,0.6,0,0,0.6,0.6,0.6,0,0.6",""
"null","","html-keyboard-response","133","317734","0.0-133.0","33F859I567ZN9EQHU38SF1KBCZIBH8","AW5O1RK3W60FC","379OL9DBSS0OLW3FFHTILCO0AJC9Y6","","","<img src=""img/flower3.png"" style=""width:200px; border:14px solid green;"">","null","","","","","",""
"775","","image-keyboard-response","134","318510","0.0-134.0","33F859I567ZN9EQHU38SF1KBCZIBH8","AW5O1RK3W60FC","379OL9DBSS0OLW3FFHTILCO0AJC9Y6","","","img/flower5.png","75","776","2","1","2","0.6,0.6,0,0,0.6,0.6,0.6,0,0.6",""
"null","","html-keyboard-response","135","318819","0.0-135.0","33F859I567ZN9EQHU38SF1KBCZIBH8","AW5O1RK3W60FC","379OL9DBSS0OLW3FFHTILCO0AJC9Y6","","","<img src=""img/flower5.png"" style=""width:200px; border:14px solid green;"">","null","","","","","",""
"616.8999999910593","","image-keyboard-response","136","319438","0.0-136.0","33F859I567ZN9EQHU38SF1KBCZIBH8","AW5O1RK3W60FC","379OL9DBSS0OLW3FFHTILCO0AJC9Y6","","","img/flower3.png","76","618.0999999940395","3","1","3","0.6,0.6,0,0,0.6,0.6,0.6,0,0.6",""
"null","","html-keyboard-response","137","319741","0.0-137.0","33F859I567ZN9EQHU38SF1KBCZIBH8","AW5O1RK3W60FC","379OL9DBSS0OLW3FFHTILCO0AJC9Y6","","","<img src=""img/flower3.png"" style=""width:200px; border:14px solid green;"">","null","","","","","",""
"623.3999999910593","","image-keyboard-response","138","320365","0.0-138.0","33F859I567ZN9EQHU38SF1KBCZIBH8","AW5O1RK3W60FC","379OL9DBSS0OLW3FFHTILCO0AJC9Y6","","","img/flower5.png","75","624.2999999970198","2","1","2","0.6,0.6,0,0,0.6,0.6,0.6,0,0.6",""
"null","","html-keyboard-response","139","320669","0.0-139.0","33F859I567ZN9EQHU38SF1KBCZIBH8","AW5O1RK3W60FC","379OL9DBSS0OLW3FFHTILCO0AJC9Y6","","","<img src=""img/flower5.png"" style=""width:200px; border:14px solid green;"">","null","","","","","",""
"471.70000000298023","","image-keyboard-response","140","321141","0.0-140.0","33F859I567ZN9EQHU38SF1KBCZIBH8","AW5O1RK3W60FC","379OL9DBSS0OLW3FFHTILCO0AJC9Y6","","","img/flower3.png","76","472.40000000596046","3","0","3","0.6,0.6,0,0,0.6,0.6,0.6,0,0.6",""
"null","","html-keyboard-response","141","321451","0.0-141.0","33F859I567ZN9EQHU38SF1KBCZIBH8","AW5O1RK3W60FC","379OL9DBSS0OLW3FFHTILCO0AJC9Y6","","","<img src=""img/flower3.png"" style=""width:200px;border:14px solid red;"">","null","","","","","",""
"488.8999999910593","","image-keyboard-response","142","321941","0.0-142.0","33F859I567ZN9EQHU38SF1KBCZIBH8","AW5O1RK3W60FC","379OL9DBSS0OLW3FFHTILCO0AJC9Y6","","","img/flower3.png","76","489.90000000596046","3","0","3","0.6,0.6,0,0,0.6,0.6,0.6,0,0.6",""
"null","","html-keyboard-response","143","322251","0.0-143.0","33F859I567ZN9EQHU38SF1KBCZIBH8","AW5O1RK3W60FC","379OL9DBSS0OLW3FFHTILCO0AJC9Y6","","","<img src=""img/flower3.png"" style=""width:200px;border:14px solid red;"">","null","","","","","",""
"1146.300000011921","","image-keyboard-response","144","323398","0.0-144.0","33F859I567ZN9EQHU38SF1KBCZIBH8","AW5O1RK3W60FC","379OL9DBSS0OLW3FFHTILCO0AJC9Y6","","","img/flower6.png","74","1147.2000000029802","1","0","1","0.6,0.6,0,0,0.6,0.6,0.6,0,0.6",""
"null","","html-keyboard-response","145","323700","0.0-145.0","33F859I567ZN9EQHU38SF1KBCZIBH8","AW5O1RK3W60FC","379OL9DBSS0OLW3FFHTILCO0AJC9Y6","","","<img src=""img/flower6.png"" style=""width:200px;border:14px solid red;"">","null","","","","","",""
"1849.2000000029802","","image-keyboard-response","146","325550","0.0-146.0","33F859I567ZN9EQHU38SF1KBCZIBH8","AW5O1RK3W60FC","379OL9DBSS0OLW3FFHTILCO0AJC9Y6","","","img/flower3.png","76","1850.2000000029802","3","0","3","0.6,0.6,0,0,0.6,0.6,0.6,0,0.6",""
"null","","html-keyboard-response","147","325853","0.0-147.0","33F859I567ZN9EQHU38SF1KBCZIBH8","AW5O1RK3W60FC","379OL9DBSS0OLW3FFHTILCO0AJC9Y6","","","<img src=""img/flower3.png"" style=""width:200px;border:14px solid red;"">","null","","","","","",""
"887.9000000059605","","image-keyboard-response","148","326742","0.0-148.0","33F859I567ZN9EQHU38SF1KBCZIBH8","AW5O1RK3W60FC","379OL9DBSS0OLW3FFHTILCO0AJC9Y6","","","img/flower3.png","74","889","1","1","3","0.6,0.6,0,0,0.6,0.6,0.6,0,0.6",""
"null","","html-keyboard-response","149","327051","0.0-149.0","33F859I567ZN9EQHU38SF1KBCZIBH8","AW5O1RK3W60FC","379OL9DBSS0OLW3FFHTILCO0AJC9Y6","","","<img src=""img/flower3.png"" style=""width:200px; border:14px solid green;"">","null","","","","","",""
"777.5","","image-keyboard-response","150","327830","0.0-150.0","33F859I567ZN9EQHU38SF1KBCZIBH8","AW5O1RK3W60FC","379OL9DBSS0OLW3FFHTILCO0AJC9Y6","","","img/flower6.png","76","778.7000000029802","3","0","1","0.6,0.6,0,0,0.6,0.6,0.6,0,0.6",""
"null","","html-keyboard-response","151","328134","0.0-151.0","33F859I567ZN9EQHU38SF1KBCZIBH8","AW5O1RK3W60FC","379OL9DBSS0OLW3FFHTILCO0AJC9Y6","","","<img src=""img/flower6.png"" style=""width:200px;border:14px solid red;"">","null","","","","","",""
"1086.800000011921","","image-keyboard-response","152","329222","0.0-152.0","33F859I567ZN9EQHU38SF1KBCZIBH8","AW5O1RK3W60FC","379OL9DBSS0OLW3FFHTILCO0AJC9Y6","","","img/flower5.png","75","1087.7999999970198","2","0","2","0.6,0.6,0,0,0.6,0.6,0.6,0,0.6",""
"null","","html-keyboard-response","153","329550","0.0-153.0","33F859I567ZN9EQHU38SF1KBCZIBH8","AW5O1RK3W60FC","379OL9DBSS0OLW3FFHTILCO0AJC9Y6","","","<img src=""img/flower5.png"" style=""width:200px;border:14px solid red;"">","null","","","","","",""
"830.5","","image-keyboard-response","154","330382","0.0-154.0","33F859I567ZN9EQHU38SF1KBCZIBH8","AW5O1RK3W60FC","379OL9DBSS0OLW3FFHTILCO0AJC9Y6","","","img/flower6.png","76","831.5","3","0","1","0.6,0.6,0,0,0.6,0.6,0.6,0,0.6",""
"null","","html-keyboard-response","155","330684","0.0-155.0","33F859I567ZN9EQHU38SF1KBCZIBH8","AW5O1RK3W60FC","379OL9DBSS0OLW3FFHTILCO0AJC9Y6","","","<img src=""img/flower6.png"" style=""width:200px;border:14px solid red;"">","null","","","","","",""
"912.5999999940395","","image-keyboard-response","156","331598","0.0-156.0","33F859I567ZN9EQHU38SF1KBCZIBH8","AW5O1RK3W60FC","379OL9DBSS0OLW3FFHTILCO0AJC9Y6","","","img/flower5.png","75","913.7999999970198","2","0","2","0.6,0.6,0,0,0.6,0.6,0.6,0,0.6",""
"null","","html-keyboard-response","157","331916","0.0-157.0","33F859I567ZN9EQHU38SF1KBCZIBH8","AW5O1RK3W60FC","379OL9DBSS0OLW3FFHTILCO0AJC9Y6","","","<img src=""img/flower5.png"" style=""width:200px;border:14px solid red;"">","null","","","","","",""
"825.2999999970198","","image-keyboard-response","158","332742","0.0-158.0","33F859I567ZN9EQHU38SF1KBCZIBH8","AW5O1RK3W60FC","379OL9DBSS0OLW3FFHTILCO0AJC9Y6","","","img/flower6.png","76","826.2000000029802","3","0","1","0.6,0.6,0,0,0.6,0.6,0.6,0,0.6",""
"null","","html-keyboard-response","159","333051","0.0-159.0","33F859I567ZN9EQHU38SF1KBCZIBH8","AW5O1RK3W60FC","379OL9DBSS0OLW3FFHTILCO0AJC9Y6","","","<img src=""img/flower6.png"" style=""width:200px;border:14px solid red;"">","null","","","","","",""
"1841.9000000059605","","image-keyboard-response","160","334894","0.0-160.0","33F859I567ZN9EQHU38SF1KBCZIBH8","AW5O1RK3W60FC","379OL9DBSS0OLW3FFHTILCO0AJC9Y6","","","img/flower6.png","74","1842.9000000059605","1","1","1","0.6,0.6,0,0,0.6,0.6,0.6,0,0.6",""
"null","","html-keyboard-response","161","335201","0.0-161.0","33F859I567ZN9EQHU38SF1KBCZIBH8","AW5O1RK3W60FC","379OL9DBSS0OLW3FFHTILCO0AJC9Y6","","","<img src=""img/flower6.png"" style=""width:200px; border:14px solid green;"">","null","","","","","",""
"2036.4000000059605","","image-keyboard-response","162","337238","0.0-162.0","33F859I567ZN9EQHU38SF1KBCZIBH8","AW5O1RK3W60FC","379OL9DBSS0OLW3FFHTILCO0AJC9Y6","","","img/flower5.png","75","2037.199999988079","2","1","2","0.6,0.6,0,0,0.6,0.6,0.6,0,0.6",""
"null","","html-keyboard-response","163","337551","0.0-163.0","33F859I567ZN9EQHU38SF1KBCZIBH8","AW5O1RK3W60FC","379OL9DBSS0OLW3FFHTILCO0AJC9Y6","","","<img src=""img/flower5.png"" style=""width:200px; border:14px solid green;"">","null","","","","","",""
"1150","","image-keyboard-response","164","338702","0.0-164.0","33F859I567ZN9EQHU38SF1KBCZIBH8","AW5O1RK3W60FC","379OL9DBSS0OLW3FFHTILCO0AJC9Y6","","","img/flower3.png","74","1150.800000011921","1","1","3","0.6,0.6,0,0,0.6,0.6,0.6,0,0.6",""
"null","","html-keyboard-response","165","339018","0.0-165.0","33F859I567ZN9EQHU38SF1KBCZIBH8","AW5O1RK3W60FC","379OL9DBSS0OLW3FFHTILCO0AJC9Y6","","","<img src=""img/flower3.png"" style=""width:200px; border:14px solid green;"">","null","","","","","",""
"1098.8999999910593","","image-keyboard-response","166","340118","0.0-166.0","33F859I567ZN9EQHU38SF1KBCZIBH8","AW5O1RK3W60FC","379OL9DBSS0OLW3FFHTILCO0AJC9Y6","","","img/flower5.png","75","1099.9000000059605","2","0","2","0.6,0.6,0,0,0.6,0.6,0.6,0,0.6",""
"null","","html-keyboard-response","167","340434","0.0-167.0","33F859I567ZN9EQHU38SF1KBCZIBH8","AW5O1RK3W60FC","379OL9DBSS0OLW3FFHTILCO0AJC9Y6","","","<img src=""img/flower5.png"" style=""width:200px;border:14px solid red;"">","null","","","","","",""
"1154.0999999940395","","image-keyboard-response","168","341590","0.0-168.0","33F859I567ZN9EQHU38SF1KBCZIBH8","AW5O1RK3W60FC","379OL9DBSS0OLW3FFHTILCO0AJC9Y6","","","img/flower6.png","74","1155.2000000029802","1","0","1","0.6,0.6,0,0,0.6,0.6,0.6,0,0.6",""
"null","","html-keyboard-response","169","341900","0.0-169.0","33F859I567ZN9EQHU38SF1KBCZIBH8","AW5O1RK3W60FC","379OL9DBSS0OLW3FFHTILCO0AJC9Y6","","","<img src=""img/flower6.png"" style=""width:200px;border:14px solid red;"">","null","","","","","",""
"928.1999999880791","","image-keyboard-response","170","342830","0.0-170.0","33F859I567ZN9EQHU38SF1KBCZIBH8","AW5O1RK3W60FC","379OL9DBSS0OLW3FFHTILCO0AJC9Y6","","","img/flower5.png","75","929.4000000059605","2","0","2","0.6,0.6,0,0,0.6,0.6,0.6,0,0.6",""
"null","","html-keyboard-response","171","343134","0.0-171.0","33F859I567ZN9EQHU38SF1KBCZIBH8","AW5O1RK3W60FC","379OL9DBSS0OLW3FFHTILCO0AJC9Y6","","","<img src=""img/flower5.png"" style=""width:200px;border:14px solid red;"">","null","","","","","",""
"790.5999999940395","","image-keyboard-response","172","343926","0.0-172.0","33F859I567ZN9EQHU38SF1KBCZIBH8","AW5O1RK3W60FC","379OL9DBSS0OLW3FFHTILCO0AJC9Y6","","","img/flower5.png","75","791.6000000089407","2","0","2","0.6,0.6,0,0,0.6,0.6,0.6,0,0.6",""
"null","","html-keyboard-response","173","344234","0.0-173.0","33F859I567ZN9EQHU38SF1KBCZIBH8","AW5O1RK3W60FC","379OL9DBSS0OLW3FFHTILCO0AJC9Y6","","","<img src=""img/flower5.png"" style=""width:200px;border:14px solid red;"">","null","","","","","",""
"843.2999999970198","","image-keyboard-response","174","345078","0.0-174.0","33F859I567ZN9EQHU38SF1KBCZIBH8","AW5O1RK3W60FC","379OL9DBSS0OLW3FFHTILCO0AJC9Y6","","","img/flower5.png","75","844","2","1","2","0.6,0.6,0,0,0.6,0.6,0.6,0,0.6",""
"null","","html-keyboard-response","175","345384","0.0-175.0","33F859I567ZN9EQHU38SF1KBCZIBH8","AW5O1RK3W60FC","379OL9DBSS0OLW3FFHTILCO0AJC9Y6","","","<img src=""img/flower5.png"" style=""width:200px; border:14px solid green;"">","null","","","","","",""
"1708.699999988079","","image-keyboard-response","176","347094","0.0-176.0","33F859I567ZN9EQHU38SF1KBCZIBH8","AW5O1RK3W60FC","379OL9DBSS0OLW3FFHTILCO0AJC9Y6","","","img/flower3.png","74","1709.5999999940395","1","1","3","0.6,0.6,0,0,0.6,0.6,0.6,0,0.6",""
"null","","html-keyboard-response","177","347401","0.0-177.0","33F859I567ZN9EQHU38SF1KBCZIBH8","AW5O1RK3W60FC","379OL9DBSS0OLW3FFHTILCO0AJC9Y6","","","<img src=""img/flower3.png"" style=""width:200px; border:14px solid green;"">","null","","","","","",""
"1084.5","","image-keyboard-response","178","348486","0.0-178.0","33F859I567ZN9EQHU38SF1KBCZIBH8","AW5O1RK3W60FC","379OL9DBSS0OLW3FFHTILCO0AJC9Y6","","","img/flower3.png","74","1085.2999999970198","1","1","3","0.6,0.6,0,0,0.6,0.6,0.6,0,0.6",""
"null","","html-keyboard-response","179","348801","0.0-179.0","33F859I567ZN9EQHU38SF1KBCZIBH8","AW5O1RK3W60FC","379OL9DBSS0OLW3FFHTILCO0AJC9Y6","","","<img src=""img/flower3.png"" style=""width:200px; border:14px solid green;"">","null","","","","","",""
"740.2999999970198","","image-keyboard-response","180","349542","0.0-180.0","33F859I567ZN9EQHU38SF1KBCZIBH8","AW5O1RK3W60FC","379OL9DBSS0OLW3FFHTILCO0AJC9Y6","","","img/flower3.png","74","741.1999999880791","1","0","3","0.6,0.6,0,0,0.6,0.6,0.6,0,0.6",""
"null","","html-keyboard-response","181","349851","0.0-181.0","33F859I567ZN9EQHU38SF1KBCZIBH8","AW5O1RK3W60FC","379OL9DBSS0OLW3FFHTILCO0AJC9Y6","","","<img src=""img/flower3.png"" style=""width:200px;border:14px solid red;"">","null","","","","","",""
"841.9000000059605","","image-keyboard-response","182","350694","0.0-182.0","33F859I567ZN9EQHU38SF1KBCZIBH8","AW5O1RK3W60FC","379OL9DBSS0OLW3FFHTILCO0AJC9Y6","","","img/flower5.png","75","842.7999999970198","2","0","2","0.6,0.6,0,0,0.6,0.6,0.6,0,0.6",""
"null","","html-keyboard-response","183","351000","0.0-183.0","33F859I567ZN9EQHU38SF1KBCZIBH8","AW5O1RK3W60FC","379OL9DBSS0OLW3FFHTILCO0AJC9Y6","","","<img src=""img/flower5.png"" style=""width:200px;border:14px solid red;"">","null","","","","","",""
"749","","image-keyboard-response","184","351750","0.0-184.0","33F859I567ZN9EQHU38SF1KBCZIBH8","AW5O1RK3W60FC","379OL9DBSS0OLW3FFHTILCO0AJC9Y6","","","img/flower3.png","74","749.7000000029802","1","0","3","0.6,0.6,0,0,0.6,0.6,0.6,0,0.6",""
"null","","html-keyboard-response","185","352056","0.0-185.0","33F859I567ZN9EQHU38SF1KBCZIBH8","AW5O1RK3W60FC","379OL9DBSS0OLW3FFHTILCO0AJC9Y6","","","<img src=""img/flower3.png"" style=""width:200px;border:14px solid red;"">","null","","","","","",""
"805.7999999970198","","image-keyboard-response","186","352863","0.0-186.0","33F859I567ZN9EQHU38SF1KBCZIBH8","AW5O1RK3W60FC","379OL9DBSS0OLW3FFHTILCO0AJC9Y6","","","img/flower5.png","75","806.5999999940395","2","1","2","0.6,0.6,0,0,0.6,0.6,0.6,0,0.6",""
"null","","html-keyboard-response","187","353168","0.0-187.0","33F859I567ZN9EQHU38SF1KBCZIBH8","AW5O1RK3W60FC","379OL9DBSS0OLW3FFHTILCO0AJC9Y6","","","<img src=""img/flower5.png"" style=""width:200px; border:14px solid green;"">","null","","","","","",""
"637.7999999970198","","image-keyboard-response","188","353806","0.0-188.0","33F859I567ZN9EQHU38SF1KBCZIBH8","AW5O1RK3W60FC","379OL9DBSS0OLW3FFHTILCO0AJC9Y6","","","img/flower5.png","75","638.5999999940395","2","0","2","0.6,0.6,0,0,0.6,0.6,0.6,0,0.6",""
"null","","html-keyboard-response","189","354119","0.0-189.0","33F859I567ZN9EQHU38SF1KBCZIBH8","AW5O1RK3W60FC","379OL9DBSS0OLW3FFHTILCO0AJC9Y6","","","<img src=""img/flower5.png"" style=""width:200px;border:14px solid red;"">","null","","","","","",""
"558","","image-keyboard-response","190","354678","0.0-190.0","33F859I567ZN9EQHU38SF1KBCZIBH8","AW5O1RK3W60FC","379OL9DBSS0OLW3FFHTILCO0AJC9Y6","","","img/flower3.png","74","558.8999999910593","1","1","3","0.6,0.6,0,0,0.6,0.6,0.6,0,0.6",""
"null","","html-keyboard-response","191","354985","0.0-191.0","33F859I567ZN9EQHU38SF1KBCZIBH8","AW5O1RK3W60FC","379OL9DBSS0OLW3FFHTILCO0AJC9Y6","","","<img src=""img/flower3.png"" style=""width:200px; border:14px solid green;"">","null","","","","","",""
"692","","image-keyboard-response","192","355678","0.0-192.0","33F859I567ZN9EQHU38SF1KBCZIBH8","AW5O1RK3W60FC","379OL9DBSS0OLW3FFHTILCO0AJC9Y6","","","img/flower5.png","75","692.9000000059605","2","1","2","0.6,0.6,0,0,0.6,0.6,0.6,0,0.6",""
"null","","html-keyboard-response","193","355993","0.0-193.0","33F859I567ZN9EQHU38SF1KBCZIBH8","AW5O1RK3W60FC","379OL9DBSS0OLW3FFHTILCO0AJC9Y6","","","<img src=""img/flower5.png"" style=""width:200px; border:14px solid green;"">","null","","","","","",""
"531.5999999940395","","image-keyboard-response","194","356526","0.0-194.0","33F859I567ZN9EQHU38SF1KBCZIBH8","AW5O1RK3W60FC","379OL9DBSS0OLW3FFHTILCO0AJC9Y6","","","img/flower5.png","75","532.3999999910593","2","0","2","0.6,0.6,0,0,0.6,0.6,0.6,0,0.6",""
"null","","html-keyboard-response","195","356835","0.0-195.0","33F859I567ZN9EQHU38SF1KBCZIBH8","AW5O1RK3W60FC","379OL9DBSS0OLW3FFHTILCO0AJC9Y6","","","<img src=""img/flower5.png"" style=""width:200px;border:14px solid red;"">","null","","","","","",""
"649.7999999970198","","image-keyboard-response","196","357486","0.0-196.0","33F859I567ZN9EQHU38SF1KBCZIBH8","AW5O1RK3W60FC","379OL9DBSS0OLW3FFHTILCO0AJC9Y6","","","img/flower3.png","74","650.7999999970198","1","0","3","0.6,0.6,0,0,0.6,0.6,0.6,0,0.6",""
"null","","html-keyboard-response","197","357801","0.0-197.0","33F859I567ZN9EQHU38SF1KBCZIBH8","AW5O1RK3W60FC","379OL9DBSS0OLW3FFHTILCO0AJC9Y6","","","<img src=""img/flower3.png"" style=""width:200px;border:14px solid red;"">","null","","","","","",""
"571.6999999880791","","image-keyboard-response","198","358374","0.0-198.0","33F859I567ZN9EQHU38SF1KBCZIBH8","AW5O1RK3W60FC","379OL9DBSS0OLW3FFHTILCO0AJC9Y6","","","img/flower3.png","74","572.7000000029802","1","1","3","0.6,0.6,0,0,0.6,0.6,0.6,0,0.6",""
"null","","html-keyboard-response","199","358684","0.0-199.0","33F859I567ZN9EQHU38SF1KBCZIBH8","AW5O1RK3W60FC","379OL9DBSS0OLW3FFHTILCO0AJC9Y6","","","<img src=""img/flower3.png"" style=""width:200px; border:14px solid green;"">","null","","","","","",""
"2056.7000000029802","","image-keyboard-response","200","360742","0.0-200.0","33F859I567ZN9EQHU38SF1KBCZIBH8","AW5O1RK3W60FC","379OL9DBSS0OLW3FFHTILCO0AJC9Y6","","","img/flower6.png","74","2057.7000000029802","1","1","1","0.6,0.6,0,0,0.6,0.6,0.6,0,0.6",""
"null","","html-keyboard-response","201","361051","0.0-201.0","33F859I567ZN9EQHU38SF1KBCZIBH8","AW5O1RK3W60FC","379OL9DBSS0OLW3FFHTILCO0AJC9Y6","","","<img src=""img/flower6.png"" style=""width:200px; border:14px solid green;"">","null","","","","","",""
"1745.9000000059605","","image-keyboard-response","202","362798","0.0-202.0","33F859I567ZN9EQHU38SF1KBCZIBH8","AW5O1RK3W60FC","379OL9DBSS0OLW3FFHTILCO0AJC9Y6","","","img/flower5.png","75","1747","2","0","2","0.6,0.6,0,0,0.6,0.6,0.6,0,0.6",""
"null","","html-keyboard-response","203","363101","0.0-203.0","33F859I567ZN9EQHU38SF1KBCZIBH8","AW5O1RK3W60FC","379OL9DBSS0OLW3FFHTILCO0AJC9Y6","","","<img src=""img/flower5.png"" style=""width:200px;border:14px solid red;"">","null","","","","","",""
"1511.5","","image-keyboard-response","204","364614","0.0-204.0","33F859I567ZN9EQHU38SF1KBCZIBH8","AW5O1RK3W60FC","379OL9DBSS0OLW3FFHTILCO0AJC9Y6","","","img/flower6.png","74","1512.7999999970198","1","1","1","0.6,0.6,0,0,0.6,0.6,0.6,0,0.6",""
"null","","html-keyboard-response","205","364918","0.0-205.0","33F859I567ZN9EQHU38SF1KBCZIBH8","AW5O1RK3W60FC","379OL9DBSS0OLW3FFHTILCO0AJC9Y6","","","<img src=""img/flower6.png"" style=""width:200px; border:14px solid green;"">","null","","","","","",""
"535.2999999970198","","image-keyboard-response","206","365454","0.0-206.0","33F859I567ZN9EQHU38SF1KBCZIBH8","AW5O1RK3W60FC","379OL9DBSS0OLW3FFHTILCO0AJC9Y6","","","img/flower3.png","74","536.2000000029802","1","0","3","0.6,0.6,0,0,0.6,0.6,0.6,0,0.6",""
"null","","html-keyboard-response","207","365767","0.0-207.0","33F859I567ZN9EQHU38SF1KBCZIBH8","AW5O1RK3W60FC","379OL9DBSS0OLW3FFHTILCO0AJC9Y6","","","<img src=""img/flower3.png"" style=""width:200px;border:14px solid red;"">","null","","","","","",""
"1005.7999999970198","","image-keyboard-response","208","366774","0.0-208.0","33F859I567ZN9EQHU38SF1KBCZIBH8","AW5O1RK3W60FC","379OL9DBSS0OLW3FFHTILCO0AJC9Y6","","","img/flower3.png","74","1006.7999999970198","1","0","3","0.6,0.6,0,0,0.6,0.6,0.6,0,0.6",""
"null","","html-keyboard-response","209","367084","0.0-209.0","33F859I567ZN9EQHU38SF1KBCZIBH8","AW5O1RK3W60FC","379OL9DBSS0OLW3FFHTILCO0AJC9Y6","","","<img src=""img/flower3.png"" style=""width:200px;border:14px solid red;"">","null","","","","","",""
"704.3999999910593","","image-keyboard-response","210","367790","0.0-210.0","33F859I567ZN9EQHU38SF1KBCZIBH8","AW5O1RK3W60FC","379OL9DBSS0OLW3FFHTILCO0AJC9Y6","","","img/flower6.png","74","705.4000000059605","1","1","1","0.6,0.6,0,0,0.6,0.6,0.6,0,0.6",""
"null","","html-keyboard-response","211","368104","0.0-211.0","33F859I567ZN9EQHU38SF1KBCZIBH8","AW5O1RK3W60FC","379OL9DBSS0OLW3FFHTILCO0AJC9Y6","","","<img src=""img/flower6.png"" style=""width:200px; border:14px solid green;"">","null","","","","","",""
"620.4000000059605","","image-keyboard-response","212","368726","0.0-212.0","33F859I567ZN9EQHU38SF1KBCZIBH8","AW5O1RK3W60FC","379OL9DBSS0OLW3FFHTILCO0AJC9Y6","","","img/flower5.png","75","621.2000000029802","2","0","2","0.6,0.6,0,0,0.6,0.6,0.6,0,0.6",""
"null","","html-keyboard-response","213","369033","0.0-213.0","33F859I567ZN9EQHU38SF1KBCZIBH8","AW5O1RK3W60FC","379OL9DBSS0OLW3FFHTILCO0AJC9Y6","","","<img src=""img/flower5.png"" style=""width:200px;border:14px solid red;"">","null","","","","","",""
"611.7999999970198","","image-keyboard-response","214","369646","0.0-214.0","33F859I567ZN9EQHU38SF1KBCZIBH8","AW5O1RK3W60FC","379OL9DBSS0OLW3FFHTILCO0AJC9Y6","","","img/flower5.png","75","612.6000000089407","2","1","2","0.6,0.6,0,0,0.6,0.6,0.6,0,0.6",""
"null","","html-keyboard-response","215","369963","0.0-215.0","33F859I567ZN9EQHU38SF1KBCZIBH8","AW5O1RK3W60FC","379OL9DBSS0OLW3FFHTILCO0AJC9Y6","","","<img src=""img/flower5.png"" style=""width:200px; border:14px solid green;"">","null","","","","","",""
"826.3000000119209","","image-keyboard-response","216","370790","0.0-216.0","33F859I567ZN9EQHU38SF1KBCZIBH8","AW5O1RK3W60FC","379OL9DBSS0OLW3FFHTILCO0AJC9Y6","","","img/flower6.png","74","827.2999999970198","1","1","1","0.6,0.6,0,0,0.6,0.6,0.6,0,0.6",""
"null","","html-keyboard-response","217","371102","0.0-217.0","33F859I567ZN9EQHU38SF1KBCZIBH8","AW5O1RK3W60FC","379OL9DBSS0OLW3FFHTILCO0AJC9Y6","","","<img src=""img/flower6.png"" style=""width:200px; border:14px solid green;"">","null","","","","","",""
"551","","image-keyboard-response","218","371654","0.0-218.0","33F859I567ZN9EQHU38SF1KBCZIBH8","AW5O1RK3W60FC","379OL9DBSS0OLW3FFHTILCO0AJC9Y6","","","img/flower6.png","74","551.8000000119209","1","0","1","0.6,0.6,0,0,0.6,0.6,0.6,0,0.6",""
"null","","html-keyboard-response","219","371962","0.0-219.0","33F859I567ZN9EQHU38SF1KBCZIBH8","AW5O1RK3W60FC","379OL9DBSS0OLW3FFHTILCO0AJC9Y6","","","<img src=""img/flower6.png"" style=""width:200px;border:14px solid red;"">","null","","","","","",""
"538.8999999910593","","image-keyboard-response","220","372502","0.0-220.0","33F859I567ZN9EQHU38SF1KBCZIBH8","AW5O1RK3W60FC","379OL9DBSS0OLW3FFHTILCO0AJC9Y6","","","img/flower6.png","74","539.7999999970198","1","1","1","0.6,0.6,0,0,0.6,0.6,0.6,0,0.6",""
"null","","html-keyboard-response","221","372818","0.0-221.0","33F859I567ZN9EQHU38SF1KBCZIBH8","AW5O1RK3W60FC","379OL9DBSS0OLW3FFHTILCO0AJC9Y6","","","<img src=""img/flower6.png"" style=""width:200px; border:14px solid green;"">","null","","","","","",""
"658.2999999970198","","image-keyboard-response","222","373478","0.0-222.0","33F859I567ZN9EQHU38SF1KBCZIBH8","AW5O1RK3W60FC","379OL9DBSS0OLW3FFHTILCO0AJC9Y6","","","img/flower5.png","75","659.4000000059605","2","0","2","0.6,0.6,0,0,0.6,0.6,0.6,0,0.6",""
"null","","html-keyboard-response","223","373785","0.0-223.0","33F859I567ZN9EQHU38SF1KBCZIBH8","AW5O1RK3W60FC","379OL9DBSS0OLW3FFHTILCO0AJC9Y6","","","<img src=""img/flower5.png"" style=""width:200px;border:14px solid red;"">","null","","","","","",""
"644.1000000089407","","image-keyboard-response","224","374430","0.0-224.0","33F859I567ZN9EQHU38SF1KBCZIBH8","AW5O1RK3W60FC","379OL9DBSS0OLW3FFHTILCO0AJC9Y6","","","img/flower6.png","74","645","1","1","1","0.6,0.6,0,0,0.6,0.6,0.6,0,0.6",""
"null","","html-keyboard-response","225","374734","0.0-225.0","33F859I567ZN9EQHU38SF1KBCZIBH8","AW5O1RK3W60FC","379OL9DBSS0OLW3FFHTILCO0AJC9Y6","","","<img src=""img/flower6.png"" style=""width:200px; border:14px solid green;"">","null","","","","","",""
"583.3999999910593","","image-keyboard-response","226","375318","0.0-226.0","33F859I567ZN9EQHU38SF1KBCZIBH8","AW5O1RK3W60FC","379OL9DBSS0OLW3FFHTILCO0AJC9Y6","","","img/flower6.png","74","584.3999999910593","1","0","1","0.6,0.6,0,0,0.6,0.6,0.6,0,0.6",""
"null","","html-keyboard-response","227","375634","0.0-227.0","33F859I567ZN9EQHU38SF1KBCZIBH8","AW5O1RK3W60FC","379OL9DBSS0OLW3FFHTILCO0AJC9Y6","","","<img src=""img/flower6.png"" style=""width:200px;border:14px solid red;"">","null","","","","","",""
"467.29999999701977","","image-keyboard-response","228","376102","0.0-228.0","33F859I567ZN9EQHU38SF1KBCZIBH8","AW5O1RK3W60FC","379OL9DBSS0OLW3FFHTILCO0AJC9Y6","","","img/flower6.png","74","468.29999999701977","1","0","1","0.6,0.6,0,0,0.6,0.6,0.6,0,0.6",""
"null","","html-keyboard-response","229","376417","0.0-229.0","33F859I567ZN9EQHU38SF1KBCZIBH8","AW5O1RK3W60FC","379OL9DBSS0OLW3FFHTILCO0AJC9Y6","","","<img src=""img/flower6.png"" style=""width:200px;border:14px solid red;"">","null","","","","","",""
"570.7000000029802","","image-keyboard-response","230","376989","0.0-230.0","33F859I567ZN9EQHU38SF1KBCZIBH8","AW5O1RK3W60FC","379OL9DBSS0OLW3FFHTILCO0AJC9Y6","","","img/flower6.png","74","571.9000000059605","1","0","1","0.6,0.6,0,0,0.6,0.6,0.6,0,0.6",""
"null","","html-keyboard-response","231","377299","0.0-231.0","33F859I567ZN9EQHU38SF1KBCZIBH8","AW5O1RK3W60FC","379OL9DBSS0OLW3FFHTILCO0AJC9Y6","","","<img src=""img/flower6.png"" style=""width:200px;border:14px solid red;"">","null","","","","","",""
"561","","image-keyboard-response","232","377861","0.0-232.0","33F859I567ZN9EQHU38SF1KBCZIBH8","AW5O1RK3W60FC","379OL9DBSS0OLW3FFHTILCO0AJC9Y6","","","img/flower6.png","74","561.8999999910593","1","1","1","0.6,0.6,0,0,0.6,0.6,0.6,0,0.6",""
"null","","html-keyboard-response","233","378167","0.0-233.0","33F859I567ZN9EQHU38SF1KBCZIBH8","AW5O1RK3W60FC","379OL9DBSS0OLW3FFHTILCO0AJC9Y6","","","<img src=""img/flower6.png"" style=""width:200px; border:14px solid green;"">","null","","","","","",""
"685.8999999910593","","image-keyboard-response","234","378853","0.0-234.0","33F859I567ZN9EQHU38SF1KBCZIBH8","AW5O1RK3W60FC","379OL9DBSS0OLW3FFHTILCO0AJC9Y6","","","img/flower5.png","75","686.5999999940395","2","0","2","0.6,0.6,0,0,0.6,0.6,0.6,0,0.6",""
"null","","html-keyboard-response","235","379184","0.0-235.0","33F859I567ZN9EQHU38SF1KBCZIBH8","AW5O1RK3W60FC","379OL9DBSS0OLW3FFHTILCO0AJC9Y6","","","<img src=""img/flower5.png"" style=""width:200px;border:14px solid red;"">","null","","","","","",""
"645.5","","image-keyboard-response","236","379830","0.0-236.0","33F859I567ZN9EQHU38SF1KBCZIBH8","AW5O1RK3W60FC","379OL9DBSS0OLW3FFHTILCO0AJC9Y6","","","img/flower3.png","74","646.5","1","1","3","0.6,0.6,0,0,0.6,0.6,0.6,0,0.6",""
"null","","html-keyboard-response","237","380134","0.0-237.0","33F859I567ZN9EQHU38SF1KBCZIBH8","AW5O1RK3W60FC","379OL9DBSS0OLW3FFHTILCO0AJC9Y6","","","<img src=""img/flower3.png"" style=""width:200px; border:14px solid green;"">","null","","","","","",""
"486.5","","image-keyboard-response","238","380621","0.0-238.0","33F859I567ZN9EQHU38SF1KBCZIBH8","AW5O1RK3W60FC","379OL9DBSS0OLW3FFHTILCO0AJC9Y6","","","img/flower3.png","74","487.29999999701977","1","1","3","0.6,0.6,0,0,0.6,0.6,0.6,0,0.6",""
"null","","html-keyboard-response","239","380925","0.0-239.0","33F859I567ZN9EQHU38SF1KBCZIBH8","AW5O1RK3W60FC","379OL9DBSS0OLW3FFHTILCO0AJC9Y6","","","<img src=""img/flower3.png"" style=""width:200px; border:14px solid green;"">","null","","","","","",""
"536","","image-keyboard-response","240","381462","0.0-240.0","33F859I567ZN9EQHU38SF1KBCZIBH8","AW5O1RK3W60FC","379OL9DBSS0OLW3FFHTILCO0AJC9Y6","","","img/flower3.png","74","537.1000000089407","1","0","3","0.6,0.6,0,0,0.6,0.6,0.6,0,0.6",""
"null","","html-keyboard-response","241","381768","0.0-241.0","33F859I567ZN9EQHU38SF1KBCZIBH8","AW5O1RK3W60FC","379OL9DBSS0OLW3FFHTILCO0AJC9Y6","","","<img src=""img/flower3.png"" style=""width:200px;border:14px solid red;"">","null","","","","","",""
"669.9000000059605","","image-keyboard-response","242","382438","0.0-242.0","33F859I567ZN9EQHU38SF1KBCZIBH8","AW5O1RK3W60FC","379OL9DBSS0OLW3FFHTILCO0AJC9Y6","","","img/flower5.png","75","670.7000000029802","2","0","2","0.6,0.6,0,0,0.6,0.6,0.6,0,0.6",""
"null","","html-keyboard-response","243","382751","0.0-243.0","33F859I567ZN9EQHU38SF1KBCZIBH8","AW5O1RK3W60FC","379OL9DBSS0OLW3FFHTILCO0AJC9Y6","","","<img src=""img/flower5.png"" style=""width:200px;border:14px solid red;"">","null","","","","","",""
"613.7999999970198","","image-keyboard-response","244","383366","0.0-244.0","33F859I567ZN9EQHU38SF1KBCZIBH8","AW5O1RK3W60FC","379OL9DBSS0OLW3FFHTILCO0AJC9Y6","","","img/flower6.png","74","614.6000000089407","1","1","1","0.6,0.6,0,0,0.6,0.6,0.6,0,0.6",""
"null","","html-keyboard-response","245","383685","0.0-245.0","33F859I567ZN9EQHU38SF1KBCZIBH8","AW5O1RK3W60FC","379OL9DBSS0OLW3FFHTILCO0AJC9Y6","","","<img src=""img/flower6.png"" style=""width:200px; border:14px solid green;"">","null","","","","","",""
"711.7999999970198","","image-keyboard-response","246","384398","0.0-246.0","33F859I567ZN9EQHU38SF1KBCZIBH8","AW5O1RK3W60FC","379OL9DBSS0OLW3FFHTILCO0AJC9Y6","","","img/flower6.png","74","712.7999999970198","1","1","1","0.6,0.6,0,0,0.6,0.6,0.6,0,0.6",""
"null","","html-keyboard-response","247","384701","0.0-247.0","33F859I567ZN9EQHU38SF1KBCZIBH8","AW5O1RK3W60FC","379OL9DBSS0OLW3FFHTILCO0AJC9Y6","","","<img src=""img/flower6.png"" style=""width:200px; border:14px solid green;"">","null","","","","","",""
"567.8999999910593","","image-keyboard-response","248","385270","0.0-248.0","33F859I567ZN9EQHU38SF1KBCZIBH8","AW5O1RK3W60FC","379OL9DBSS0OLW3FFHTILCO0AJC9Y6","","","img/flower5.png","75","568.9000000059605","2","0","2","0.6,0.6,0,0,0.6,0.6,0.6,0,0.6",""
"null","","html-keyboard-response","249","385584","0.0-249.0","33F859I567ZN9EQHU38SF1KBCZIBH8","AW5O1RK3W60FC","379OL9DBSS0OLW3FFHTILCO0AJC9Y6","","","<img src=""img/flower5.png"" style=""width:200px;border:14px solid red;"">","null","","","","","",""
"620.4000000059605","","image-keyboard-response","250","386207","0.0-250.0","33F859I567ZN9EQHU38SF1KBCZIBH8","AW5O1RK3W60FC","379OL9DBSS0OLW3FFHTILCO0AJC9Y6","","","img/flower3.png","74","621.2999999970198","1","1","3","0.6,0.6,0,0,0.6,0.6,0.6,0,0.6",""
"null","","html-keyboard-response","251","386534","0.0-251.0","33F859I567ZN9EQHU38SF1KBCZIBH8","AW5O1RK3W60FC","379OL9DBSS0OLW3FFHTILCO0AJC9Y6","","","<img src=""img/flower3.png"" style=""width:200px; border:14px solid green;"">","null","","","","","",""
"438.90000000596046","","image-keyboard-response","252","386974","0.0-252.0","33F859I567ZN9EQHU38SF1KBCZIBH8","AW5O1RK3W60FC","379OL9DBSS0OLW3FFHTILCO0AJC9Y6","","","img/flower3.png","74","439.90000000596046","1","1","3","0.6,0.6,0,0,0.6,0.6,0.6,0,0.6",""
"null","","html-keyboard-response","253","387285","0.0-253.0","33F859I567ZN9EQHU38SF1KBCZIBH8","AW5O1RK3W60FC","379OL9DBSS0OLW3FFHTILCO0AJC9Y6","","","<img src=""img/flower3.png"" style=""width:200px; border:14px solid green;"">","null","","","","","",""
"542.9000000059605","","image-keyboard-response","254","387830","0.0-254.0","33F859I567ZN9EQHU38SF1KBCZIBH8","AW5O1RK3W60FC","379OL9DBSS0OLW3FFHTILCO0AJC9Y6","","","img/flower3.png","74","543.8000000119209","1","0","3","0.6,0.6,0,0,0.6,0.6,0.6,0,0.6",""
"null","","html-keyboard-response","255","388134","0.0-255.0","33F859I567ZN9EQHU38SF1KBCZIBH8","AW5O1RK3W60FC","379OL9DBSS0OLW3FFHTILCO0AJC9Y6","","","<img src=""img/flower3.png"" style=""width:200px;border:14px solid red;"">","null","","","","","",""
"678.1999999880791","","image-keyboard-response","256","388814","0.0-256.0","33F859I567ZN9EQHU38SF1KBCZIBH8","AW5O1RK3W60FC","379OL9DBSS0OLW3FFHTILCO0AJC9Y6","","","img/flower6.png","75","679.2000000029802","2","1","1","0.6,0.6,0,0,0.6,0.6,0.6,0,0.6",""
"null","","html-keyboard-response","257","389117","0.0-257.0","33F859I567ZN9EQHU38SF1KBCZIBH8","AW5O1RK3W60FC","379OL9DBSS0OLW3FFHTILCO0AJC9Y6","","","<img src=""img/flower6.png"" style=""width:200px; border:14px solid green;"">","null","","","","","",""
"2248.1000000089407","","image-keyboard-response","258","391366","0.0-258.0","33F859I567ZN9EQHU38SF1KBCZIBH8","AW5O1RK3W60FC","379OL9DBSS0OLW3FFHTILCO0AJC9Y6","","","img/flower3.png","74","2249.2999999970198","1","1","3","0.6,0.6,0,0,0.6,0.6,0.6,0,0.6",""
"null","","html-keyboard-response","259","391670","0.0-259.0","33F859I567ZN9EQHU38SF1KBCZIBH8","AW5O1RK3W60FC","379OL9DBSS0OLW3FFHTILCO0AJC9Y6","","","<img src=""img/flower3.png"" style=""width:200px; border:14px solid green;"">","null","","","","","",""
"886.5","","image-keyboard-response","260","392558","0.0-260.0","33F859I567ZN9EQHU38SF1KBCZIBH8","AW5O1RK3W60FC","379OL9DBSS0OLW3FFHTILCO0AJC9Y6","","","img/flower6.png","74","887.5","1","0","1","0.6,0.6,0,0,0.6,0.6,0.6,0,0.6",""
"null","","html-keyboard-response","261","392874","0.0-261.0","33F859I567ZN9EQHU38SF1KBCZIBH8","AW5O1RK3W60FC","379OL9DBSS0OLW3FFHTILCO0AJC9Y6","","","<img src=""img/flower6.png"" style=""width:200px;border:14px solid red;"">","null","","","","","",""
"810.9000000059605","","image-keyboard-response","262","393686","0.0-262.0","33F859I567ZN9EQHU38SF1KBCZIBH8","AW5O1RK3W60FC","379OL9DBSS0OLW3FFHTILCO0AJC9Y6","","","img/flower6.png","74","811.7000000029802","1","0","1","0.6,0.6,0,0,0.6,0.6,0.6,0,0.6",""
"null","","html-keyboard-response","263","393995","0.0-263.0","33F859I567ZN9EQHU38SF1KBCZIBH8","AW5O1RK3W60FC","379OL9DBSS0OLW3FFHTILCO0AJC9Y6","","","<img src=""img/flower6.png"" style=""width:200px;border:14px solid red;"">","null","","","","","",""
"1202.5","","image-keyboard-response","264","395198","0.0-264.0","33F859I567ZN9EQHU38SF1KBCZIBH8","AW5O1RK3W60FC","379OL9DBSS0OLW3FFHTILCO0AJC9Y6","","","img/flower5.png","75","1203.4000000059605","2","1","2","0.6,0.6,0,0,0.6,0.6,0.6,0,0.6",""
"null","","html-keyboard-response","265","395501","0.0-265.0","33F859I567ZN9EQHU38SF1KBCZIBH8","AW5O1RK3W60FC","379OL9DBSS0OLW3FFHTILCO0AJC9Y6","","","<img src=""img/flower5.png"" style=""width:200px; border:14px solid green;"">","null","","","","","",""
"575.7999999970198","","image-keyboard-response","266","396078","0.0-266.0","33F859I567ZN9EQHU38SF1KBCZIBH8","AW5O1RK3W60FC","379OL9DBSS0OLW3FFHTILCO0AJC9Y6","","","img/flower5.png","75","576.7000000029802","2","0","2","0.6,0.6,0,0,0.6,0.6,0.6,0,0.6",""
"null","","html-keyboard-response","267","396384","0.0-267.0","33F859I567ZN9EQHU38SF1KBCZIBH8","AW5O1RK3W60FC","379OL9DBSS0OLW3FFHTILCO0AJC9Y6","","","<img src=""img/flower5.png"" style=""width:200px;border:14px solid red;"">","null","","","","","",""
"741.2999999970198","","image-keyboard-response","268","397126","0.0-268.0","33F859I567ZN9EQHU38SF1KBCZIBH8","AW5O1RK3W60FC","379OL9DBSS0OLW3FFHTILCO0AJC9Y6","","","img/flower6.png","74","742.1000000089407","1","0","1","0.6,0.6,0,0,0.6,0.6,0.6,0,0.6",""
"null","","html-keyboard-response","269","397434","0.0-269.0","33F859I567ZN9EQHU38SF1KBCZIBH8","AW5O1RK3W60FC","379OL9DBSS0OLW3FFHTILCO0AJC9Y6","","","<img src=""img/flower6.png"" style=""width:200px;border:14px solid red;"">","null","","","","","",""
"827.6000000089407","","image-keyboard-response","270","398262","0.0-270.0","33F859I567ZN9EQHU38SF1KBCZIBH8","AW5O1RK3W60FC","379OL9DBSS0OLW3FFHTILCO0AJC9Y6","","","img/flower5.png","75","828.5","2","1","2","0.6,0.6,0,0,0.6,0.6,0.6,0,0.6",""
"null","","html-keyboard-response","271","398567","0.0-271.0","33F859I567ZN9EQHU38SF1KBCZIBH8","AW5O1RK3W60FC","379OL9DBSS0OLW3FFHTILCO0AJC9Y6","","","<img src=""img/flower5.png"" style=""width:200px; border:14px solid green;"">","null","","","","","",""
"949.8000000119209","","image-keyboard-response","272","399518","0.0-272.0","33F859I567ZN9EQHU38SF1KBCZIBH8","AW5O1RK3W60FC","379OL9DBSS0OLW3FFHTILCO0AJC9Y6","","","img/flower3.png","74","950.7000000029802","1","1","3","0.6,0.6,0,0,0.6,0.6,0.6,0,0.6",""
"null","","html-keyboard-response","273","399834","0.0-273.0","33F859I567ZN9EQHU38SF1KBCZIBH8","AW5O1RK3W60FC","379OL9DBSS0OLW3FFHTILCO0AJC9Y6","","","<img src=""img/flower3.png"" style=""width:200px; border:14px solid green;"">","null","","","","","",""
"650.9000000059605","","image-keyboard-response","274","400486","0.0-274.0","33F859I567ZN9EQHU38SF1KBCZIBH8","AW5O1RK3W60FC","379OL9DBSS0OLW3FFHTILCO0AJC9Y6","","","img/flower5.png","75","651.7999999970198","2","1","2","0.6,0.6,0,0,0.6,0.6,0.6,0,0.6",""
"null","","html-keyboard-response","275","400801","0.0-275.0","33F859I567ZN9EQHU38SF1KBCZIBH8","AW5O1RK3W60FC","379OL9DBSS0OLW3FFHTILCO0AJC9Y6","","","<img src=""img/flower5.png"" style=""width:200px; border:14px solid green;"">","null","","","","","",""
"1059.4000000059605","","image-keyboard-response","276","401862","0.0-276.0","33F859I567ZN9EQHU38SF1KBCZIBH8","AW5O1RK3W60FC","379OL9DBSS0OLW3FFHTILCO0AJC9Y6","","","img/flower6.png","74","1060.300000011921","1","1","1","0.6,0.6,0,0,0.6,0.6,0.6,0,0.6",""
"null","","html-keyboard-response","277","402168","0.0-277.0","33F859I567ZN9EQHU38SF1KBCZIBH8","AW5O1RK3W60FC","379OL9DBSS0OLW3FFHTILCO0AJC9Y6","","","<img src=""img/flower6.png"" style=""width:200px; border:14px solid green;"">","null","","","","","",""
"453.80000001192093","","image-keyboard-response","278","402622","0.0-278.0","33F859I567ZN9EQHU38SF1KBCZIBH8","AW5O1RK3W60FC","379OL9DBSS0OLW3FFHTILCO0AJC9Y6","","","img/flower6.png","74","454.5","1","0","1","0.6,0.6,0,0,0.6,0.6,0.6,0,0.6",""
"null","","html-keyboard-response","279","402934","0.0-279.0","33F859I567ZN9EQHU38SF1KBCZIBH8","AW5O1RK3W60FC","379OL9DBSS0OLW3FFHTILCO0AJC9Y6","","","<img src=""img/flower6.png"" style=""width:200px;border:14px solid red;"">","null","","","","","",""
"895.4000000059605","","image-keyboard-response","280","403830","0.0-280.0","33F859I567ZN9EQHU38SF1KBCZIBH8","AW5O1RK3W60FC","379OL9DBSS0OLW3FFHTILCO0AJC9Y6","","","img/flower3.png","74","896.2999999970198","1","1","3","0.6,0.6,0,0,0.6,0.6,0.6,0,0.6",""
"null","","html-keyboard-response","281","404134","0.0-281.0","33F859I567ZN9EQHU38SF1KBCZIBH8","AW5O1RK3W60FC","379OL9DBSS0OLW3FFHTILCO0AJC9Y6","","","<img src=""img/flower3.png"" style=""width:200px; border:14px solid green;"">","null","","","","","",""
"510.29999999701977","","image-keyboard-response","282","404646","0.0-282.0","33F859I567ZN9EQHU38SF1KBCZIBH8","AW5O1RK3W60FC","379OL9DBSS0OLW3FFHTILCO0AJC9Y6","","","img/flower3.png","74","511.19999998807907","1","1","3","0.6,0.6,0,0,0.6,0.6,0.6,0,0.6",""
"null","","html-keyboard-response","283","404947","0.0-283.0","33F859I567ZN9EQHU38SF1KBCZIBH8","AW5O1RK3W60FC","379OL9DBSS0OLW3FFHTILCO0AJC9Y6","","","<img src=""img/flower3.png"" style=""width:200px; border:14px solid green;"">","null","","","","","",""
"466.6000000089407","","image-keyboard-response","284","405415","0.0-284.0","33F859I567ZN9EQHU38SF1KBCZIBH8","AW5O1RK3W60FC","379OL9DBSS0OLW3FFHTILCO0AJC9Y6","","","img/flower3.png","74","467.79999999701977","1","1","3","0.6,0.6,0,0,0.6,0.6,0.6,0,0.6",""
"null","","html-keyboard-response","285","405719","0.0-285.0","33F859I567ZN9EQHU38SF1KBCZIBH8","AW5O1RK3W60FC","379OL9DBSS0OLW3FFHTILCO0AJC9Y6","","","<img src=""img/flower3.png"" style=""width:200px; border:14px solid green;"">","null","","","","","",""
"542.3999999910593","","image-keyboard-response","286","406262","0.0-286.0","33F859I567ZN9EQHU38SF1KBCZIBH8","AW5O1RK3W60FC","379OL9DBSS0OLW3FFHTILCO0AJC9Y6","","","img/flower3.png","74","543.4000000059605","1","0","3","0.6,0.6,0,0,0.6,0.6,0.6,0,0.6",""
"null","","html-keyboard-response","287","406568","0.0-287.0","33F859I567ZN9EQHU38SF1KBCZIBH8","AW5O1RK3W60FC","379OL9DBSS0OLW3FFHTILCO0AJC9Y6","","","<img src=""img/flower3.png"" style=""width:200px;border:14px solid red;"">","null","","","","","",""
"789.0999999940395","","image-keyboard-response","288","407358","0.0-288.0","33F859I567ZN9EQHU38SF1KBCZIBH8","AW5O1RK3W60FC","379OL9DBSS0OLW3FFHTILCO0AJC9Y6","","","img/flower6.png","74","790.0999999940395","1","0","1","0.6,0.6,0,0,0.6,0.6,0.6,0,0.6",""
"null","","html-keyboard-response","289","407667","0.0-289.0","33F859I567ZN9EQHU38SF1KBCZIBH8","AW5O1RK3W60FC","379OL9DBSS0OLW3FFHTILCO0AJC9Y6","","","<img src=""img/flower6.png"" style=""width:200px;border:14px solid red;"">","null","","","","","",""
"586","","image-keyboard-response","290","408255","0.0-290.0","33F859I567ZN9EQHU38SF1KBCZIBH8","AW5O1RK3W60FC","379OL9DBSS0OLW3FFHTILCO0AJC9Y6","","","img/flower6.png","74","587.2000000029802","1","0","1","0.6,0.6,0,0,0.6,0.6,0.6,0,0.6",""
"null","","html-keyboard-response","291","408567","0.0-291.0","33F859I567ZN9EQHU38SF1KBCZIBH8","AW5O1RK3W60FC","379OL9DBSS0OLW3FFHTILCO0AJC9Y6","","","<img src=""img/flower6.png"" style=""width:200px;border:14px solid red;"">","null","","","","","",""
"421.5","","image-keyboard-response","292","408990","0.0-292.0","33F859I567ZN9EQHU38SF1KBCZIBH8","AW5O1RK3W60FC","379OL9DBSS0OLW3FFHTILCO0AJC9Y6","","","img/flower6.png","74","422.20000000298023","1","0","1","0.6,0.6,0,0,0.6,0.6,0.6,0,0.6",""
"null","","html-keyboard-response","293","409303","0.0-293.0","33F859I567ZN9EQHU38SF1KBCZIBH8","AW5O1RK3W60FC","379OL9DBSS0OLW3FFHTILCO0AJC9Y6","","","<img src=""img/flower6.png"" style=""width:200px;border:14px solid red;"">","null","","","","","",""
"997.5","","image-keyboard-response","294","410302","0.0-294.0","33F859I567ZN9EQHU38SF1KBCZIBH8","AW5O1RK3W60FC","379OL9DBSS0OLW3FFHTILCO0AJC9Y6","","","img/flower6.png","74","998.5","1","1","1","0.6,0.6,0,0,0.6,0.6,0.6,0,0.6",""
"null","","html-keyboard-response","295","410618","0.0-295.0","33F859I567ZN9EQHU38SF1KBCZIBH8","AW5O1RK3W60FC","379OL9DBSS0OLW3FFHTILCO0AJC9Y6","","","<img src=""img/flower6.png"" style=""width:200px; border:14px solid green;"">","null","","","","","",""
"939.5","","image-keyboard-response","296","411559","0.0-296.0","33F859I567ZN9EQHU38SF1KBCZIBH8","AW5O1RK3W60FC","379OL9DBSS0OLW3FFHTILCO0AJC9Y6","","","img/flower3.png","74","940.5","1","1","3","0.6,0.6,0,0,0.6,0.6,0.6,0,0.6",""
"null","","html-keyboard-response","297","411867","0.0-297.0","33F859I567ZN9EQHU38SF1KBCZIBH8","AW5O1RK3W60FC","379OL9DBSS0OLW3FFHTILCO0AJC9Y6","","","<img src=""img/flower3.png"" style=""width:200px; border:14px solid green;"">","null","","","","","",""
"714.3000000119209","","image-keyboard-response","298","412582","0.0-298.0","33F859I567ZN9EQHU38SF1KBCZIBH8","AW5O1RK3W60FC","379OL9DBSS0OLW3FFHTILCO0AJC9Y6","","","img/flower3.png","74","715.3999999910593","1","1","3","0.6,0.6,0,0,0.6,0.6,0.6,0,0.6",""
"null","","html-keyboard-response","299","412886","0.0-299.0","33F859I567ZN9EQHU38SF1KBCZIBH8","AW5O1RK3W60FC","379OL9DBSS0OLW3FFHTILCO0AJC9Y6","","","<img src=""img/flower3.png"" style=""width:200px; border:14px solid green;"">","null","","","","","",""
"807.3999999910593","","image-keyboard-response","300","413694","0.0-300.0","33F859I567ZN9EQHU38SF1KBCZIBH8","AW5O1RK3W60FC","379OL9DBSS0OLW3FFHTILCO0AJC9Y6","","","img/flower5.png","75","808.3999999910593","2","0","2","0.6,0.6,0,0,0.6,0.6,0.6,0,0.6",""
"null","","html-keyboard-response","301","414009","0.0-301.0","33F859I567ZN9EQHU38SF1KBCZIBH8","AW5O1RK3W60FC","379OL9DBSS0OLW3FFHTILCO0AJC9Y6","","","<img src=""img/flower5.png"" style=""width:200px;border:14px solid red;"">","null","","","","","",""
"492.40000000596046","","image-keyboard-response","302","414502","0.0-302.0","33F859I567ZN9EQHU38SF1KBCZIBH8","AW5O1RK3W60FC","379OL9DBSS0OLW3FFHTILCO0AJC9Y6","","","img/flower5.png","75","493.3999999910593","2","1","2","0.6,0.6,0,0,0.6,0.6,0.6,0,0.6",""
"null","","html-keyboard-response","303","414818","0.0-303.0","33F859I567ZN9EQHU38SF1KBCZIBH8","AW5O1RK3W60FC","379OL9DBSS0OLW3FFHTILCO0AJC9Y6","","","<img src=""img/flower5.png"" style=""width:200px; border:14px solid green;"">","null","","","","","",""
"843.5999999940395","","image-keyboard-response","304","415663","0.0-304.0","33F859I567ZN9EQHU38SF1KBCZIBH8","AW5O1RK3W60FC","379OL9DBSS0OLW3FFHTILCO0AJC9Y6","","","img/flower6.png","74","844.5999999940395","1","0","1","0.6,0.6,0,0,0.6,0.6,0.6,0,0.6",""
"null","","html-keyboard-response","305","415978","0.0-305.0","33F859I567ZN9EQHU38SF1KBCZIBH8","AW5O1RK3W60FC","379OL9DBSS0OLW3FFHTILCO0AJC9Y6","","","<img src=""img/flower6.png"" style=""width:200px;border:14px solid red;"">","null","","","","","",""
"","","html-keyboard-response","306","423032","0.0-306.0","33F859I567ZN9EQHU38SF1KBCZIBH8","AW5O1RK3W60FC","379OL9DBSS0OLW3FFHTILCO0AJC9Y6","","","","","","","","","",""
"1877.2000000029802","","image-keyboard-response","307","424910","0.0-307.0","33F859I567ZN9EQHU38SF1KBCZIBH8","AW5O1RK3W60FC","379OL9DBSS0OLW3FFHTILCO0AJC9Y6","","","img/flower9.png","74","1878.199999988079","1","1","2","0.8,0.8,0.2,0.2,0.8,0.8,0.8,0.2,0.8",""
"null","","html-keyboard-response","308","425217","0.0-308.0","33F859I567ZN9EQHU38SF1KBCZIBH8","AW5O1RK3W60FC","379OL9DBSS0OLW3FFHTILCO0AJC9Y6","","","<img src=""img/flower9.png"" style=""width:200px; border:14px solid green;"">","null","","","","","",""
"627.2999999970198","","image-keyboard-response","309","425846","0.0-309.0","33F859I567ZN9EQHU38SF1KBCZIBH8","AW5O1RK3W60FC","379OL9DBSS0OLW3FFHTILCO0AJC9Y6","","","img/flower9.png","74","628.2000000029802","1","0","2","0.8,0.8,0.2,0.2,0.8,0.8,0.8,0.2,0.8",""
"null","","html-keyboard-response","310","426150","0.0-310.0","33F859I567ZN9EQHU38SF1KBCZIBH8","AW5O1RK3W60FC","379OL9DBSS0OLW3FFHTILCO0AJC9Y6","","","<img src=""img/flower9.png"" style=""width:200px;border:14px solid red;"">","null","","","","","",""
"1231.2000000029802","","image-keyboard-response","311","427382","0.0-311.0","33F859I567ZN9EQHU38SF1KBCZIBH8","AW5O1RK3W60FC","379OL9DBSS0OLW3FFHTILCO0AJC9Y6","","","img/flower7.png","75","1232","2","1","3","0.8,0.8,0.2,0.2,0.8,0.8,0.8,0.2,0.8",""
"null","","html-keyboard-response","312","427685","0.0-312.0","33F859I567ZN9EQHU38SF1KBCZIBH8","AW5O1RK3W60FC","379OL9DBSS0OLW3FFHTILCO0AJC9Y6","","","<img src=""img/flower7.png"" style=""width:200px; border:14px solid green;"">","null","","","","","",""
"1424.1000000089407","","image-keyboard-response","313","429110","0.0-313.0","33F859I567ZN9EQHU38SF1KBCZIBH8","AW5O1RK3W60FC","379OL9DBSS0OLW3FFHTILCO0AJC9Y6","","","img/flower4.png","76","1425.0999999940395","3","0","1","0.8,0.8,0.2,0.2,0.8,0.8,0.8,0.2,0.8",""
"null","","html-keyboard-response","314","429417","0.0-314.0","33F859I567ZN9EQHU38SF1KBCZIBH8","AW5O1RK3W60FC","379OL9DBSS0OLW3FFHTILCO0AJC9Y6","","","<img src=""img/flower4.png"" style=""width:200px;border:14px solid red;"">","null","","","","","",""
"1956.699999988079","","image-keyboard-response","315","431361","0.0-315.0","33F859I567ZN9EQHU38SF1KBCZIBH8","AW5O1RK3W60FC","379OL9DBSS0OLW3FFHTILCO0AJC9Y6","","","img/flower4.png","76","1957.7000000029802","3","1","1","0.8,0.8,0.2,0.2,0.8,0.8,0.8,0.2,0.8",""
"null","","html-keyboard-response","316","431670","0.0-316.0","33F859I567ZN9EQHU38SF1KBCZIBH8","AW5O1RK3W60FC","379OL9DBSS0OLW3FFHTILCO0AJC9Y6","","","<img src=""img/flower4.png"" style=""width:200px; border:14px solid green;"">","null","","","","","",""
"1033.6000000089407","","image-keyboard-response","317","432705","0.0-317.0","33F859I567ZN9EQHU38SF1KBCZIBH8","AW5O1RK3W60FC","379OL9DBSS0OLW3FFHTILCO0AJC9Y6","","","img/flower9.png","74","1034.7000000029802","1","0","2","0.8,0.8,0.2,0.2,0.8,0.8,0.8,0.2,0.8",""
"null","","html-keyboard-response","318","433019","0.0-318.0","33F859I567ZN9EQHU38SF1KBCZIBH8","AW5O1RK3W60FC","379OL9DBSS0OLW3FFHTILCO0AJC9Y6","","","<img src=""img/flower9.png"" style=""width:200px;border:14px solid red;"">","null","","","","","",""
"1060.2000000029802","","image-keyboard-response","319","434081","0.0-319.0","33F859I567ZN9EQHU38SF1KBCZIBH8","AW5O1RK3W60FC","379OL9DBSS0OLW3FFHTILCO0AJC9Y6","","","img/flower4.png","76","1061.2000000029802","3","0","1","0.8,0.8,0.2,0.2,0.8,0.8,0.8,0.2,0.8",""
"null","","html-keyboard-response","320","434387","0.0-320.0","33F859I567ZN9EQHU38SF1KBCZIBH8","AW5O1RK3W60FC","379OL9DBSS0OLW3FFHTILCO0AJC9Y6","","","<img src=""img/flower4.png"" style=""width:200px;border:14px solid red;"">","null","","","","","",""
"860.4000000059605","","image-keyboard-response","321","435249","0.0-321.0","33F859I567ZN9EQHU38SF1KBCZIBH8","AW5O1RK3W60FC","379OL9DBSS0OLW3FFHTILCO0AJC9Y6","","","img/flower7.png","75","861.2999999970198","2","0","3","0.8,0.8,0.2,0.2,0.8,0.8,0.8,0.2,0.8",""
"null","","html-keyboard-response","322","435553","0.0-322.0","33F859I567ZN9EQHU38SF1KBCZIBH8","AW5O1RK3W60FC","379OL9DBSS0OLW3FFHTILCO0AJC9Y6","","","<img src=""img/flower7.png"" style=""width:200px;border:14px solid red;"">","null","","","","","",""
"869.3999999910593","","image-keyboard-response","323","436424","0.0-323.0","33F859I567ZN9EQHU38SF1KBCZIBH8","AW5O1RK3W60FC","379OL9DBSS0OLW3FFHTILCO0AJC9Y6","","","img/flower7.png","75","870.3000000119209","2","0","3","0.8,0.8,0.2,0.2,0.8,0.8,0.8,0.2,0.8",""
"null","","html-keyboard-response","324","436728","0.0-324.0","33F859I567ZN9EQHU38SF1KBCZIBH8","AW5O1RK3W60FC","379OL9DBSS0OLW3FFHTILCO0AJC9Y6","","","<img src=""img/flower7.png"" style=""width:200px;border:14px solid red;"">","null","","","","","",""
"655","","image-keyboard-response","325","437384","0.0-325.0","33F859I567ZN9EQHU38SF1KBCZIBH8","AW5O1RK3W60FC","379OL9DBSS0OLW3FFHTILCO0AJC9Y6","","","img/flower9.png","74","656.2000000029802","1","0","2","0.8,0.8,0.2,0.2,0.8,0.8,0.8,0.2,0.8",""
"null","","html-keyboard-response","326","437689","0.0-326.0","33F859I567ZN9EQHU38SF1KBCZIBH8","AW5O1RK3W60FC","379OL9DBSS0OLW3FFHTILCO0AJC9Y6","","","<img src=""img/flower9.png"" style=""width:200px;border:14px solid red;"">","null","","","","","",""
"766","","image-keyboard-response","327","438456","0.0-327.0","33F859I567ZN9EQHU38SF1KBCZIBH8","AW5O1RK3W60FC","379OL9DBSS0OLW3FFHTILCO0AJC9Y6","","","img/flower7.png","75","766.8999999910593","2","0","3","0.8,0.8,0.2,0.2,0.8,0.8,0.8,0.2,0.8",""
"null","","html-keyboard-response","328","438772","0.0-328.0","33F859I567ZN9EQHU38SF1KBCZIBH8","AW5O1RK3W60FC","379OL9DBSS0OLW3FFHTILCO0AJC9Y6","","","<img src=""img/flower7.png"" style=""width:200px;border:14px solid red;"">","null","","","","","",""
"579.1000000089407","","image-keyboard-response","329","439352","0.0-329.0","33F859I567ZN9EQHU38SF1KBCZIBH8","AW5O1RK3W60FC","379OL9DBSS0OLW3FFHTILCO0AJC9Y6","","","img/flower7.png","75","580.2000000029802","2","0","3","0.8,0.8,0.2,0.2,0.8,0.8,0.8,0.2,0.8",""
"null","","html-keyboard-response","330","439655","0.0-330.0","33F859I567ZN9EQHU38SF1KBCZIBH8","AW5O1RK3W60FC","379OL9DBSS0OLW3FFHTILCO0AJC9Y6","","","<img src=""img/flower7.png"" style=""width:200px;border:14px solid red;"">","null","","","","","",""
"600.6000000089407","","image-keyboard-response","331","440257","0.0-331.0","33F859I567ZN9EQHU38SF1KBCZIBH8","AW5O1RK3W60FC","379OL9DBSS0OLW3FFHTILCO0AJC9Y6","","","img/flower9.png","74","601.5999999940395","1","0","2","0.8,0.8,0.2,0.2,0.8,0.8,0.8,0.2,0.8",""
"null","","html-keyboard-response","332","440570","0.0-332.0","33F859I567ZN9EQHU38SF1KBCZIBH8","AW5O1RK3W60FC","379OL9DBSS0OLW3FFHTILCO0AJC9Y6","","","<img src=""img/flower9.png"" style=""width:200px;border:14px solid red;"">","null","","","","","",""
"597","","image-keyboard-response","333","441168","0.0-333.0","33F859I567ZN9EQHU38SF1KBCZIBH8","AW5O1RK3W60FC","379OL9DBSS0OLW3FFHTILCO0AJC9Y6","","","img/flower9.png","74","598","1","0","2","0.8,0.8,0.2,0.2,0.8,0.8,0.8,0.2,0.8",""
"null","","html-keyboard-response","334","441473","0.0-334.0","33F859I567ZN9EQHU38SF1KBCZIBH8","AW5O1RK3W60FC","379OL9DBSS0OLW3FFHTILCO0AJC9Y6","","","<img src=""img/flower9.png"" style=""width:200px;border:14px solid red;"">","null","","","","","",""
"614.3000000119209","","image-keyboard-response","335","442088","0.0-335.0","33F859I567ZN9EQHU38SF1KBCZIBH8","AW5O1RK3W60FC","379OL9DBSS0OLW3FFHTILCO0AJC9Y6","","","img/flower7.png","75","615.3999999910593","2","0","3","0.8,0.8,0.2,0.2,0.8,0.8,0.8,0.2,0.8",""
"null","","html-keyboard-response","336","442403","0.0-336.0","33F859I567ZN9EQHU38SF1KBCZIBH8","AW5O1RK3W60FC","379OL9DBSS0OLW3FFHTILCO0AJC9Y6","","","<img src=""img/flower7.png"" style=""width:200px;border:14px solid red;"">","null","","","","","",""
"628.6000000089407","","image-keyboard-response","337","443033","0.0-337.0","33F859I567ZN9EQHU38SF1KBCZIBH8","AW5O1RK3W60FC","379OL9DBSS0OLW3FFHTILCO0AJC9Y6","","","img/flower7.png","75","629.5999999940395","2","0","3","0.8,0.8,0.2,0.2,0.8,0.8,0.8,0.2,0.8",""
"null","","html-keyboard-response","338","443336","0.0-338.0","33F859I567ZN9EQHU38SF1KBCZIBH8","AW5O1RK3W60FC","379OL9DBSS0OLW3FFHTILCO0AJC9Y6","","","<img src=""img/flower7.png"" style=""width:200px;border:14px solid red;"">","null","","","","","",""
"679.3000000119209","","image-keyboard-response","339","444017","0.0-339.0","33F859I567ZN9EQHU38SF1KBCZIBH8","AW5O1RK3W60FC","379OL9DBSS0OLW3FFHTILCO0AJC9Y6","","","img/flower7.png","75","680.1000000089407","2","0","3","0.8,0.8,0.2,0.2,0.8,0.8,0.8,0.2,0.8",""
"null","","html-keyboard-response","340","444320","0.0-340.0","33F859I567ZN9EQHU38SF1KBCZIBH8","AW5O1RK3W60FC","379OL9DBSS0OLW3FFHTILCO0AJC9Y6","","","<img src=""img/flower7.png"" style=""width:200px;border:14px solid red;"">","null","","","","","",""
"910.9000000059605","","image-keyboard-response","341","445232","0.0-341.0","33F859I567ZN9EQHU38SF1KBCZIBH8","AW5O1RK3W60FC","379OL9DBSS0OLW3FFHTILCO0AJC9Y6","","","img/flower4.png","76","912","3","0","1","0.8,0.8,0.2,0.2,0.8,0.8,0.8,0.2,0.8",""
"null","","html-keyboard-response","342","445536","0.0-342.0","33F859I567ZN9EQHU38SF1KBCZIBH8","AW5O1RK3W60FC","379OL9DBSS0OLW3FFHTILCO0AJC9Y6","","","<img src=""img/flower4.png"" style=""width:200px;border:14px solid red;"">","null","","","","","",""
"559.4000000059605","","image-keyboard-response","343","446096","0.0-343.0","33F859I567ZN9EQHU38SF1KBCZIBH8","AW5O1RK3W60FC","379OL9DBSS0OLW3FFHTILCO0AJC9Y6","","","img/flower4.png","76","560.2000000029802","3","1","1","0.8,0.8,0.2,0.2,0.8,0.8,0.8,0.2,0.8",""
"null","","html-keyboard-response","344","446403","0.0-344.0","33F859I567ZN9EQHU38SF1KBCZIBH8","AW5O1RK3W60FC","379OL9DBSS0OLW3FFHTILCO0AJC9Y6","","","<img src=""img/flower4.png"" style=""width:200px; border:14px solid green;"">","null","","","","","",""
"812.2000000029802","","image-keyboard-response","345","447217","0.0-345.0","33F859I567ZN9EQHU38SF1KBCZIBH8","AW5O1RK3W60FC","379OL9DBSS0OLW3FFHTILCO0AJC9Y6","","","img/flower7.png","75","813.0999999940395","2","0","3","0.8,0.8,0.2,0.2,0.8,0.8,0.8,0.2,0.8",""
"null","","html-keyboard-response","346","447520","0.0-346.0","33F859I567ZN9EQHU38SF1KBCZIBH8","AW5O1RK3W60FC","379OL9DBSS0OLW3FFHTILCO0AJC9Y6","","","<img src=""img/flower7.png"" style=""width:200px;border:14px solid red;"">","null","","","","","",""
"663.2999999970198","","image-keyboard-response","347","448184","0.0-347.0","33F859I567ZN9EQHU38SF1KBCZIBH8","AW5O1RK3W60FC","379OL9DBSS0OLW3FFHTILCO0AJC9Y6","","","img/flower9.png","74","664.1000000089407","1","1","2","0.8,0.8,0.2,0.2,0.8,0.8,0.8,0.2,0.8",""
"null","","html-keyboard-response","348","448487","0.0-348.0","33F859I567ZN9EQHU38SF1KBCZIBH8","AW5O1RK3W60FC","379OL9DBSS0OLW3FFHTILCO0AJC9Y6","","","<img src=""img/flower9.png"" style=""width:200px; border:14px solid green;"">","null","","","","","",""
"944.8999999910593","","image-keyboard-response","349","449433","0.0-349.0","33F859I567ZN9EQHU38SF1KBCZIBH8","AW5O1RK3W60FC","379OL9DBSS0OLW3FFHTILCO0AJC9Y6","","","img/flower7.png","75","945.8999999910593","2","0","3","0.8,0.8,0.2,0.2,0.8,0.8,0.8,0.2,0.8",""
"null","","html-keyboard-response","350","449738","0.0-350.0","33F859I567ZN9EQHU38SF1KBCZIBH8","AW5O1RK3W60FC","379OL9DBSS0OLW3FFHTILCO0AJC9Y6","","","<img src=""img/flower7.png"" style=""width:200px;border:14px solid red;"">","null","","","","","",""
"517.5","","image-keyboard-response","351","450256","0.0-351.0","33F859I567ZN9EQHU38SF1KBCZIBH8","AW5O1RK3W60FC","379OL9DBSS0OLW3FFHTILCO0AJC9Y6","","","img/flower7.png","75","518.1999999880791","2","1","3","0.8,0.8,0.2,0.2,0.8,0.8,0.8,0.2,0.8",""
"null","","html-keyboard-response","352","450587","0.0-352.0","33F859I567ZN9EQHU38SF1KBCZIBH8","AW5O1RK3W60FC","379OL9DBSS0OLW3FFHTILCO0AJC9Y6","","","<img src=""img/flower7.png"" style=""width:200px; border:14px solid green;"">","null","","","","","",""
"668.1000000089407","","image-keyboard-response","353","451257","0.0-353.0","33F859I567ZN9EQHU38SF1KBCZIBH8","AW5O1RK3W60FC","379OL9DBSS0OLW3FFHTILCO0AJC9Y6","","","img/flower9.png","74","669.0999999940395","1","0","2","0.8,0.8,0.2,0.2,0.8,0.8,0.8,0.2,0.8",""
"null","","html-keyboard-response","354","451570","0.0-354.0","33F859I567ZN9EQHU38SF1KBCZIBH8","AW5O1RK3W60FC","379OL9DBSS0OLW3FFHTILCO0AJC9Y6","","","<img src=""img/flower9.png"" style=""width:200px;border:14px solid red;"">","null","","","","","",""
"717.8999999910593","","image-keyboard-response","355","452289","0.0-355.0","33F859I567ZN9EQHU38SF1KBCZIBH8","AW5O1RK3W60FC","379OL9DBSS0OLW3FFHTILCO0AJC9Y6","","","img/flower7.png","75","718.7999999970198","2","0","3","0.8,0.8,0.2,0.2,0.8,0.8,0.8,0.2,0.8",""
"null","","html-keyboard-response","356","452603","0.0-356.0","33F859I567ZN9EQHU38SF1KBCZIBH8","AW5O1RK3W60FC","379OL9DBSS0OLW3FFHTILCO0AJC9Y6","","","<img src=""img/flower7.png"" style=""width:200px;border:14px solid red;"">","null","","","","","",""
"627.3999999910593","","image-keyboard-response","357","453232","0.0-357.0","33F859I567ZN9EQHU38SF1KBCZIBH8","AW5O1RK3W60FC","379OL9DBSS0OLW3FFHTILCO0AJC9Y6","","","img/flower9.png","74","628.3000000119209","1","0","2","0.8,0.8,0.2,0.2,0.8,0.8,0.8,0.2,0.8",""
"null","","html-keyboard-response","358","453537","0.0-358.0","33F859I567ZN9EQHU38SF1KBCZIBH8","AW5O1RK3W60FC","379OL9DBSS0OLW3FFHTILCO0AJC9Y6","","","<img src=""img/flower9.png"" style=""width:200px;border:14px solid red;"">","null","","","","","",""
"558.7999999970198","","image-keyboard-response","359","454097","0.0-359.0","33F859I567ZN9EQHU38SF1KBCZIBH8","AW5O1RK3W60FC","379OL9DBSS0OLW3FFHTILCO0AJC9Y6","","","img/flower9.png","74","560","1","0","2","0.8,0.8,0.2,0.2,0.8,0.8,0.8,0.2,0.8",""
"null","","html-keyboard-response","360","454404","0.0-360.0","33F859I567ZN9EQHU38SF1KBCZIBH8","AW5O1RK3W60FC","379OL9DBSS0OLW3FFHTILCO0AJC9Y6","","","<img src=""img/flower9.png"" style=""width:200px;border:14px solid red;"">","null","","","","","",""
"627.5","","image-keyboard-response","361","455033","0.0-361.0","33F859I567ZN9EQHU38SF1KBCZIBH8","AW5O1RK3W60FC","379OL9DBSS0OLW3FFHTILCO0AJC9Y6","","","img/flower9.png","74","628.5","1","0","2","0.8,0.8,0.2,0.2,0.8,0.8,0.8,0.2,0.8",""
"null","","html-keyboard-response","362","455337","0.0-362.0","33F859I567ZN9EQHU38SF1KBCZIBH8","AW5O1RK3W60FC","379OL9DBSS0OLW3FFHTILCO0AJC9Y6","","","<img src=""img/flower9.png"" style=""width:200px;border:14px solid red;"">","null","","","","","",""
"831","","image-keyboard-response","363","456169","0.0-363.0","33F859I567ZN9EQHU38SF1KBCZIBH8","AW5O1RK3W60FC","379OL9DBSS0OLW3FFHTILCO0AJC9Y6","","","img/flower4.png","76","832","3","0","1","0.8,0.8,0.2,0.2,0.8,0.8,0.8,0.2,0.8",""
"null","","html-keyboard-response","364","456473","0.0-364.0","33F859I567ZN9EQHU38SF1KBCZIBH8","AW5O1RK3W60FC","379OL9DBSS0OLW3FFHTILCO0AJC9Y6","","","<img src=""img/flower4.png"" style=""width:200px;border:14px solid red;"">","null","","","","","",""
"510.20000000298023","","image-keyboard-response","365","456985","0.0-365.0","33F859I567ZN9EQHU38SF1KBCZIBH8","AW5O1RK3W60FC","379OL9DBSS0OLW3FFHTILCO0AJC9Y6","","","img/flower4.png","76","511.09999999403954","3","0","1","0.8,0.8,0.2,0.2,0.8,0.8,0.8,0.2,0.8",""
"null","","html-keyboard-response","366","457288","0.0-366.0","33F859I567ZN9EQHU38SF1KBCZIBH8","AW5O1RK3W60FC","379OL9DBSS0OLW3FFHTILCO0AJC9Y6","","","<img src=""img/flower4.png"" style=""width:200px;border:14px solid red;"">","null","","","","","",""
"711.7000000029802","","image-keyboard-response","367","458001","0.0-367.0","33F859I567ZN9EQHU38SF1KBCZIBH8","AW5O1RK3W60FC","379OL9DBSS0OLW3FFHTILCO0AJC9Y6","","","img/flower9.png","74","712.7999999970198","1","1","2","0.8,0.8,0.2,0.2,0.8,0.8,0.8,0.2,0.8",""
"null","","html-keyboard-response","368","458303","0.0-368.0","33F859I567ZN9EQHU38SF1KBCZIBH8","AW5O1RK3W60FC","379OL9DBSS0OLW3FFHTILCO0AJC9Y6","","","<img src=""img/flower9.png"" style=""width:200px; border:14px solid green;"">","null","","","","","",""
"712.2000000029802","","image-keyboard-response","369","459017","0.0-369.0","33F859I567ZN9EQHU38SF1KBCZIBH8","AW5O1RK3W60FC","379OL9DBSS0OLW3FFHTILCO0AJC9Y6","","","img/flower4.png","76","713.2999999970198","3","0","1","0.8,0.8,0.2,0.2,0.8,0.8,0.8,0.2,0.8",""
"null","","html-keyboard-response","370","459320","0.0-370.0","33F859I567ZN9EQHU38SF1KBCZIBH8","AW5O1RK3W60FC","379OL9DBSS0OLW3FFHTILCO0AJC9Y6","","","<img src=""img/flower4.png"" style=""width:200px;border:14px solid red;"">","null","","","","","",""
"495.29999999701977","","image-keyboard-response","371","459817","0.0-371.0","33F859I567ZN9EQHU38SF1KBCZIBH8","AW5O1RK3W60FC","379OL9DBSS0OLW3FFHTILCO0AJC9Y6","","","img/flower4.png","76","496.29999999701977","3","1","1","0.8,0.8,0.2,0.2,0.8,0.8,0.8,0.2,0.8",""
"null","","html-keyboard-response","372","460120","0.0-372.0","33F859I567ZN9EQHU38SF1KBCZIBH8","AW5O1RK3W60FC","379OL9DBSS0OLW3FFHTILCO0AJC9Y6","","","<img src=""img/flower4.png"" style=""width:200px; border:14px solid green;"">","null","","","","","",""
"703.5999999940395","","image-keyboard-response","373","460825","0.0-373.0","33F859I567ZN9EQHU38SF1KBCZIBH8","AW5O1RK3W60FC","379OL9DBSS0OLW3FFHTILCO0AJC9Y6","","","img/flower4.png","76","704.7000000029802","3","0","1","0.8,0.8,0.2,0.2,0.8,0.8,0.8,0.2,0.8",""
"null","","html-keyboard-response","374","461137","0.0-374.0","33F859I567ZN9EQHU38SF1KBCZIBH8","AW5O1RK3W60FC","379OL9DBSS0OLW3FFHTILCO0AJC9Y6","","","<img src=""img/flower4.png"" style=""width:200px;border:14px solid red;"">","null","","","","","",""
"686.2000000029802","","image-keyboard-response","375","461824","0.0-375.0","33F859I567ZN9EQHU38SF1KBCZIBH8","AW5O1RK3W60FC","379OL9DBSS0OLW3FFHTILCO0AJC9Y6","","","img/flower7.png","75","687.2999999970198","2","1","3","0.8,0.8,0.2,0.2,0.8,0.8,0.8,0.2,0.8",""
"null","","html-keyboard-response","376","462137","0.0-376.0","33F859I567ZN9EQHU38SF1KBCZIBH8","AW5O1RK3W60FC","379OL9DBSS0OLW3FFHTILCO0AJC9Y6","","","<img src=""img/flower7.png"" style=""width:200px; border:14px solid green;"">","null","","","","","",""
"790.1999999880791","","image-keyboard-response","377","462928","0.0-377.0","33F859I567ZN9EQHU38SF1KBCZIBH8","AW5O1RK3W60FC","379OL9DBSS0OLW3FFHTILCO0AJC9Y6","","","img/flower9.png","74","791.4000000059605","1","0","2","0.8,0.8,0.2,0.2,0.8,0.8,0.8,0.2,0.8",""
"null","","html-keyboard-response","378","463237","0.0-378.0","33F859I567ZN9EQHU38SF1KBCZIBH8","AW5O1RK3W60FC","379OL9DBSS0OLW3FFHTILCO0AJC9Y6","","","<img src=""img/flower9.png"" style=""width:200px;border:14px solid red;"">","null","","","","","",""
"770.2000000029802","","image-keyboard-response","379","464008","0.0-379.0","33F859I567ZN9EQHU38SF1KBCZIBH8","AW5O1RK3W60FC","379OL9DBSS0OLW3FFHTILCO0AJC9Y6","","","img/flower7.png","75","771.0999999940395","2","0","3","0.8,0.8,0.2,0.2,0.8,0.8,0.8,0.2,0.8",""
"null","","html-keyboard-response","380","464320","0.0-380.0","33F859I567ZN9EQHU38SF1KBCZIBH8","AW5O1RK3W60FC","379OL9DBSS0OLW3FFHTILCO0AJC9Y6","","","<img src=""img/flower7.png"" style=""width:200px;border:14px solid red;"">","null","","","","","",""
"631.2999999970198","","image-keyboard-response","381","464953","0.0-381.0","33F859I567ZN9EQHU38SF1KBCZIBH8","AW5O1RK3W60FC","379OL9DBSS0OLW3FFHTILCO0AJC9Y6","","","img/flower7.png","75","632.2999999970198","2","1","3","0.8,0.8,0.2,0.2,0.8,0.8,0.8,0.2,0.8",""
"null","","html-keyboard-response","382","465256","0.0-382.0","33F859I567ZN9EQHU38SF1KBCZIBH8","AW5O1RK3W60FC","379OL9DBSS0OLW3FFHTILCO0AJC9Y6","","","<img src=""img/flower7.png"" style=""width:200px; border:14px solid green;"">","null","","","","","",""
"719","","image-keyboard-response","383","465976","0.0-383.0","33F859I567ZN9EQHU38SF1KBCZIBH8","AW5O1RK3W60FC","379OL9DBSS0OLW3FFHTILCO0AJC9Y6","","","img/flower4.png","76","719.8999999910593","3","0","1","0.8,0.8,0.2,0.2,0.8,0.8,0.8,0.2,0.8",""
"null","","html-keyboard-response","384","466287","0.0-384.0","33F859I567ZN9EQHU38SF1KBCZIBH8","AW5O1RK3W60FC","379OL9DBSS0OLW3FFHTILCO0AJC9Y6","","","<img src=""img/flower4.png"" style=""width:200px;border:14px solid red;"">","null","","","","","",""
"568.7000000029802","","image-keyboard-response","385","466857","0.0-385.0","33F859I567ZN9EQHU38SF1KBCZIBH8","AW5O1RK3W60FC","379OL9DBSS0OLW3FFHTILCO0AJC9Y6","","","img/flower4.png","76","569.5","3","0","1","0.8,0.8,0.2,0.2,0.8,0.8,0.8,0.2,0.8",""
"null","","html-keyboard-response","386","467170","0.0-386.0","33F859I567ZN9EQHU38SF1KBCZIBH8","AW5O1RK3W60FC","379OL9DBSS0OLW3FFHTILCO0AJC9Y6","","","<img src=""img/flower4.png"" style=""width:200px;border:14px solid red;"">","null","","","","","",""
"637.9000000059605","","image-keyboard-response","387","467809","0.0-387.0","33F859I567ZN9EQHU38SF1KBCZIBH8","AW5O1RK3W60FC","379OL9DBSS0OLW3FFHTILCO0AJC9Y6","","","img/flower9.png","74","638.8999999910593","1","0","2","0.8,0.8,0.2,0.2,0.8,0.8,0.8,0.2,0.8",""
"null","","html-keyboard-response","388","468122","0.0-388.0","33F859I567ZN9EQHU38SF1KBCZIBH8","AW5O1RK3W60FC","379OL9DBSS0OLW3FFHTILCO0AJC9Y6","","","<img src=""img/flower9.png"" style=""width:200px;border:14px solid red;"">","null","","","","","",""
"645.4000000059605","","image-keyboard-response","389","468768","0.0-389.0","33F859I567ZN9EQHU38SF1KBCZIBH8","AW5O1RK3W60FC","379OL9DBSS0OLW3FFHTILCO0AJC9Y6","","","img/flower7.png","75","646.1999999880791","2","0","3","0.8,0.8,0.2,0.2,0.8,0.8,0.8,0.2,0.8",""
"null","","html-keyboard-response","390","469071","0.0-390.0","33F859I567ZN9EQHU38SF1KBCZIBH8","AW5O1RK3W60FC","379OL9DBSS0OLW3FFHTILCO0AJC9Y6","","","<img src=""img/flower7.png"" style=""width:200px;border:14px solid red;"">","null","","","","","",""
"536.2000000029802","","image-keyboard-response","391","469609","0.0-391.0","33F859I567ZN9EQHU38SF1KBCZIBH8","AW5O1RK3W60FC","379OL9DBSS0OLW3FFHTILCO0AJC9Y6","","","img/flower9.png","74","537.0999999940395","1","0","2","0.8,0.8,0.2,0.2,0.8,0.8,0.8,0.2,0.8",""
"null","","html-keyboard-response","392","469917","0.0-392.0","33F859I567ZN9EQHU38SF1KBCZIBH8","AW5O1RK3W60FC","379OL9DBSS0OLW3FFHTILCO0AJC9Y6","","","<img src=""img/flower9.png"" style=""width:200px;border:14px solid red;"">","null","","","","","",""
"675.2000000029802","","image-keyboard-response","393","470593","0.0-393.0","33F859I567ZN9EQHU38SF1KBCZIBH8","AW5O1RK3W60FC","379OL9DBSS0OLW3FFHTILCO0AJC9Y6","","","img/flower7.png","75","676","2","0","3","0.8,0.8,0.2,0.2,0.8,0.8,0.8,0.2,0.8",""
"null","","html-keyboard-response","394","470904","0.0-394.0","33F859I567ZN9EQHU38SF1KBCZIBH8","AW5O1RK3W60FC","379OL9DBSS0OLW3FFHTILCO0AJC9Y6","","","<img src=""img/flower7.png"" style=""width:200px;border:14px solid red;"">","null","","","","","",""
"775.7999999970198","","image-keyboard-response","395","471681","0.0-395.0","33F859I567ZN9EQHU38SF1KBCZIBH8","AW5O1RK3W60FC","379OL9DBSS0OLW3FFHTILCO0AJC9Y6","","","img/flower4.png","74","776.7000000029802","1","1","1","0.8,0.8,0.2,0.2,0.8,0.8,0.8,0.2,0.8",""
"null","","html-keyboard-response","396","471995","0.0-396.0","33F859I567ZN9EQHU38SF1KBCZIBH8","AW5O1RK3W60FC","379OL9DBSS0OLW3FFHTILCO0AJC9Y6","","","<img src=""img/flower4.png"" style=""width:200px; border:14px solid green;"">","null","","","","","",""
"804.6000000089407","","image-keyboard-response","397","472801","0.0-397.0","33F859I567ZN9EQHU38SF1KBCZIBH8","AW5O1RK3W60FC","379OL9DBSS0OLW3FFHTILCO0AJC9Y6","","","img/flower9.png","74","805.5","1","0","2","0.8,0.8,0.2,0.2,0.8,0.8,0.8,0.2,0.8",""
"null","","html-keyboard-response","398","473103","0.0-398.0","33F859I567ZN9EQHU38SF1KBCZIBH8","AW5O1RK3W60FC","379OL9DBSS0OLW3FFHTILCO0AJC9Y6","","","<img src=""img/flower9.png"" style=""width:200px;border:14px solid red;"">","null","","","","","",""
"976.4000000059605","","image-keyboard-response","399","474081","0.0-399.0","33F859I567ZN9EQHU38SF1KBCZIBH8","AW5O1RK3W60FC","379OL9DBSS0OLW3FFHTILCO0AJC9Y6","","","img/flower7.png","75","977.2999999970198","2","0","3","0.8,0.8,0.2,0.2,0.8,0.8,0.8,0.2,0.8",""
"null","","html-keyboard-response","400","474387","0.0-400.0","33F859I567ZN9EQHU38SF1KBCZIBH8","AW5O1RK3W60FC","379OL9DBSS0OLW3FFHTILCO0AJC9Y6","","","<img src=""img/flower7.png"" style=""width:200px;border:14px solid red;"">","null","","","","","",""
"596.8000000119209","","image-keyboard-response","401","474985","0.0-401.0","33F859I567ZN9EQHU38SF1KBCZIBH8","AW5O1RK3W60FC","379OL9DBSS0OLW3FFHTILCO0AJC9Y6","","","img/flower7.png","75","597.7999999970198","2","0","3","0.8,0.8,0.2,0.2,0.8,0.8,0.8,0.2,0.8",""
"null","","html-keyboard-response","402","475289","0.0-402.0","33F859I567ZN9EQHU38SF1KBCZIBH8","AW5O1RK3W60FC","379OL9DBSS0OLW3FFHTILCO0AJC9Y6","","","<img src=""img/flower7.png"" style=""width:200px;border:14px solid red;"">","null","","","","","",""
