"success","trial_type","trial_index","time_elapsed","internal_node_id","assignmentID","mturkID","hitID","view_history","rt","stimulus","key_press","reactionTime","a","r","s","cond","reward_cond","reward_cond_actual","reward_matrix_idx","responses"
"true","fullscreen","0","2631","0.0-0.0","34HJIJKLP6I86G0SKDF9MO5EEW7V4V","AYLYY6ANK0URM","3PIOQ99R7Y8STPN46QFY0SD7JTFNU0","","","","","","","","","","","","",""
"","instructions","1","30827","0.0-1.0","34HJIJKLP6I86G0SKDF9MO5EEW7V4V","AYLYY6ANK0URM","3PIOQ99R7Y8STPN46QFY0SD7JTFNU0","[{""page_index"":0,""viewing_time"":2496.2000000476837},{""page_index"":1,""viewing_time"":1590},{""page_index"":2,""viewing_time"":1551.8999998569489},{""page_index"":1,""viewing_time"":808.3000001907349},{""page_index"":2,""viewing_time"":421.59999990463257},{""page_index"":3,""viewing_time"":1030.0999999046326},{""page_index"":4,""viewing_time"":2452},{""page_index"":5,""viewing_time"":5096.100000143051},{""page_index"":6,""viewing_time"":10596.099999904633},{""page_index"":7,""viewing_time"":2151.7000000476837}]","28194.400000095367","","","","","","","","","","",""
"","image-keyboard-response","2","32053","0.0-2.0","34HJIJKLP6I86G0SKDF9MO5EEW7V4V","AYLYY6ANK0URM","3PIOQ99R7Y8STPN46QFY0SD7JTFNU0","","1224.7999999523163","img/flower3.png","74","1225.6999998092651","1","0","1","2","1,0,0,1,1,0,1,0,1","0,1,0,0,1,1,1,1,0","3",""
"","html-keyboard-response","3","32354","0.0-3.0","34HJIJKLP6I86G0SKDF9MO5EEW7V4V","AYLYY6ANK0URM","3PIOQ99R7Y8STPN46QFY0SD7JTFNU0","","null","<img src=""img/flower3.png"" style=""width:200px;border:14px solid red;"">","null","","","","","","","","",""
"","image-keyboard-response","4","32661","0.0-4.0","34HJIJKLP6I86G0SKDF9MO5EEW7V4V","AYLYY6ANK0URM","3PIOQ99R7Y8STPN46QFY0SD7JTFNU0","","305.2000000476837","img/flower3.png","75","306","2","1","1","2","1,0,0,1,1,0,1,0,1","0,1,0,0,1,1,1,1,0","3",""
"","html-keyboard-response","5","32963","0.0-5.0","34HJIJKLP6I86G0SKDF9MO5EEW7V4V","AYLYY6ANK0URM","3PIOQ99R7Y8STPN46QFY0SD7JTFNU0","","null","<img src=""img/flower3.png"" style=""width:200px; border:14px solid green;"">","null","","","","","","","","",""
"","image-keyboard-response","6","33704","0.0-6.0","34HJIJKLP6I86G0SKDF9MO5EEW7V4V","AYLYY6ANK0URM","3PIOQ99R7Y8STPN46QFY0SD7JTFNU0","","740.6000001430511","img/flower6.png","75","741.2000000476837","2","1","2","2","1,0,0,1,1,0,1,0,1","0,1,0,0,1,1,1,1,0","3",""
"","html-keyboard-response","7","34006","0.0-7.0","34HJIJKLP6I86G0SKDF9MO5EEW7V4V","AYLYY6ANK0URM","3PIOQ99R7Y8STPN46QFY0SD7JTFNU0","","null","<img src=""img/flower6.png"" style=""width:200px; border:14px solid green;"">","null","","","","","","","","",""
"","image-keyboard-response","8","34318","0.0-8.0","34HJIJKLP6I86G0SKDF9MO5EEW7V4V","AYLYY6ANK0URM","3PIOQ99R7Y8STPN46QFY0SD7JTFNU0","","311.39999985694885","img/flower6.png","75","311.80000019073486","2","1","2","2","1,0,0,1,1,0,1,0,1","0,1,0,0,1,1,1,1,0","3",""
"","html-keyboard-response","9","34619","0.0-9.0","34HJIJKLP6I86G0SKDF9MO5EEW7V4V","AYLYY6ANK0URM","3PIOQ99R7Y8STPN46QFY0SD7JTFNU0","","null","<img src=""img/flower6.png"" style=""width:200px; border:14px solid green;"">","null","","","","","","","","",""
"","image-keyboard-response","10","34905","0.0-10.0","34HJIJKLP6I86G0SKDF9MO5EEW7V4V","AYLYY6ANK0URM","3PIOQ99R7Y8STPN46QFY0SD7JTFNU0","","285.40000009536743","img/flower6.png","75","286","2","1","2","2","1,0,0,1,1,0,1,0,1","0,1,0,0,1,1,1,1,0","3",""
"","html-keyboard-response","11","35207","0.0-11.0","34HJIJKLP6I86G0SKDF9MO5EEW7V4V","AYLYY6ANK0URM","3PIOQ99R7Y8STPN46QFY0SD7JTFNU0","","null","<img src=""img/flower6.png"" style=""width:200px; border:14px solid green;"">","null","","","","","","","","",""
"","image-keyboard-response","12","35495","0.0-12.0","34HJIJKLP6I86G0SKDF9MO5EEW7V4V","AYLYY6ANK0URM","3PIOQ99R7Y8STPN46QFY0SD7JTFNU0","","287.2000000476837","img/flower6.png","75","287.7000000476837","2","1","2","2","1,0,0,1,1,0,1,0,1","0,1,0,0,1,1,1,1,0","3",""
"","html-keyboard-response","13","35796","0.0-13.0","34HJIJKLP6I86G0SKDF9MO5EEW7V4V","AYLYY6ANK0URM","3PIOQ99R7Y8STPN46QFY0SD7JTFNU0","","null","<img src=""img/flower6.png"" style=""width:200px; border:14px solid green;"">","null","","","","","","","","",""
"","image-keyboard-response","14","36018","0.0-14.0","34HJIJKLP6I86G0SKDF9MO5EEW7V4V","AYLYY6ANK0URM","3PIOQ99R7Y8STPN46QFY0SD7JTFNU0","","221","img/flower3.png","75","221.70000004768372","2","1","1","2","1,0,0,1,1,0,1,0,1","0,1,0,0,1,1,1,1,0","3",""
"","html-keyboard-response","15","36320","0.0-15.0","34HJIJKLP6I86G0SKDF9MO5EEW7V4V","AYLYY6ANK0URM","3PIOQ99R7Y8STPN46QFY0SD7JTFNU0","","null","<img src=""img/flower3.png"" style=""width:200px; border:14px solid green;"">","null","","","","","","","","",""
"","image-keyboard-response","16","36496","0.0-16.0","34HJIJKLP6I86G0SKDF9MO5EEW7V4V","AYLYY6ANK0URM","3PIOQ99R7Y8STPN46QFY0SD7JTFNU0","","175.5","img/flower1.png","75","175.90000009536743","2","1","3","2","1,0,0,1,1,0,1,0,1","0,1,0,0,1,1,1,1,0","3",""
"","html-keyboard-response","17","36797","0.0-17.0","34HJIJKLP6I86G0SKDF9MO5EEW7V4V","AYLYY6ANK0URM","3PIOQ99R7Y8STPN46QFY0SD7JTFNU0","","null","<img src=""img/flower1.png"" style=""width:200px; border:14px solid green;"">","null","","","","","","","","",""
"","image-keyboard-response","18","36944","0.0-18.0","34HJIJKLP6I86G0SKDF9MO5EEW7V4V","AYLYY6ANK0URM","3PIOQ99R7Y8STPN46QFY0SD7JTFNU0","","146.20000004768372","img/flower1.png","75","147","2","1","3","2","1,0,0,1,1,0,1,0,1","0,1,0,0,1,1,1,1,0","3",""
"","html-keyboard-response","19","37247","0.0-19.0","34HJIJKLP6I86G0SKDF9MO5EEW7V4V","AYLYY6ANK0URM","3PIOQ99R7Y8STPN46QFY0SD7JTFNU0","","null","<img src=""img/flower1.png"" style=""width:200px; border:14px solid green;"">","null","","","","","","","","",""
"","image-keyboard-response","20","37397","0.0-20.0","34HJIJKLP6I86G0SKDF9MO5EEW7V4V","AYLYY6ANK0URM","3PIOQ99R7Y8STPN46QFY0SD7JTFNU0","","149.79999995231628","img/flower6.png","75","150.40000009536743","2","1","2","2","1,0,0,1,1,0,1,0,1","0,1,0,0,1,1,1,1,0","3",""
"","html-keyboard-response","21","37700","0.0-21.0","34HJIJKLP6I86G0SKDF9MO5EEW7V4V","AYLYY6ANK0URM","3PIOQ99R7Y8STPN46QFY0SD7JTFNU0","","null","<img src=""img/flower6.png"" style=""width:200px; border:14px solid green;"">","null","","","","","","","","",""
"","image-keyboard-response","22","37817","0.0-22.0","34HJIJKLP6I86G0SKDF9MO5EEW7V4V","AYLYY6ANK0URM","3PIOQ99R7Y8STPN46QFY0SD7JTFNU0","","116.79999995231628","img/flower1.png","75","117.5","2","1","3","2","1,0,0,1,1,0,1,0,1","0,1,0,0,1,1,1,1,0","3",""
"","html-keyboard-response","23","38119","0.0-23.0","34HJIJKLP6I86G0SKDF9MO5EEW7V4V","AYLYY6ANK0URM","3PIOQ99R7Y8STPN46QFY0SD7JTFNU0","","null","<img src=""img/flower1.png"" style=""width:200px; border:14px solid green;"">","null","","","","","","","","",""
"","image-keyboard-response","24","38225","0.0-24.0","34HJIJKLP6I86G0SKDF9MO5EEW7V4V","AYLYY6ANK0URM","3PIOQ99R7Y8STPN46QFY0SD7JTFNU0","","105.59999990463257","img/flower6.png","75","106.10000014305115","2","1","2","2","1,0,0,1,1,0,1,0,1","0,1,0,0,1,1,1,1,0","3",""
"","html-keyboard-response","25","38526","0.0-25.0","34HJIJKLP6I86G0SKDF9MO5EEW7V4V","AYLYY6ANK0URM","3PIOQ99R7Y8STPN46QFY0SD7JTFNU0","","null","<img src=""img/flower6.png"" style=""width:200px; border:14px solid green;"">","null","","","","","","","","",""
"","image-keyboard-response","26","38628","0.0-26.0","34HJIJKLP6I86G0SKDF9MO5EEW7V4V","AYLYY6ANK0URM","3PIOQ99R7Y8STPN46QFY0SD7JTFNU0","","100.89999985694885","img/flower6.png","75","101.5","2","1","2","2","1,0,0,1,1,0,1,0,1","0,1,0,0,1,1,1,1,0","3",""
"","html-keyboard-response","27","38929","0.0-27.0","34HJIJKLP6I86G0SKDF9MO5EEW7V4V","AYLYY6ANK0URM","3PIOQ99R7Y8STPN46QFY0SD7JTFNU0","","null","<img src=""img/flower6.png"" style=""width:200px; border:14px solid green;"">","null","","","","","","","","",""
"","image-keyboard-response","28","39025","0.0-28.0","34HJIJKLP6I86G0SKDF9MO5EEW7V4V","AYLYY6ANK0URM","3PIOQ99R7Y8STPN46QFY0SD7JTFNU0","","94.29999995231628","img/flower1.png","75","95","2","1","3","2","1,0,0,1,1,0,1,0,1","0,1,0,0,1,1,1,1,0","3",""
"","html-keyboard-response","29","39326","0.0-29.0","34HJIJKLP6I86G0SKDF9MO5EEW7V4V","AYLYY6ANK0URM","3PIOQ99R7Y8STPN46QFY0SD7JTFNU0","","null","<img src=""img/flower1.png"" style=""width:200px; border:14px solid green;"">","null","","","","","","","","",""
"","image-keyboard-response","30","39416","0.0-30.0","34HJIJKLP6I86G0SKDF9MO5EEW7V4V","AYLYY6ANK0URM","3PIOQ99R7Y8STPN46QFY0SD7JTFNU0","","89.09999990463257","img/flower6.png","75","89.70000004768372","2","1","2","2","1,0,0,1,1,0,1,0,1","0,1,0,0,1,1,1,1,0","3",""
"","html-keyboard-response","31","39717","0.0-31.0","34HJIJKLP6I86G0SKDF9MO5EEW7V4V","AYLYY6ANK0URM","3PIOQ99R7Y8STPN46QFY0SD7JTFNU0","","null","<img src=""img/flower6.png"" style=""width:200px; border:14px solid green;"">","null","","","","","","","","",""
"","image-keyboard-response","32","39788","0.0-32.0","34HJIJKLP6I86G0SKDF9MO5EEW7V4V","AYLYY6ANK0URM","3PIOQ99R7Y8STPN46QFY0SD7JTFNU0","","70","img/flower3.png","75","70.5","2","1","1","2","1,0,0,1,1,0,1,0,1","0,1,0,0,1,1,1,1,0","3",""
"","html-keyboard-response","33","40090","0.0-33.0","34HJIJKLP6I86G0SKDF9MO5EEW7V4V","AYLYY6ANK0URM","3PIOQ99R7Y8STPN46QFY0SD7JTFNU0","","null","<img src=""img/flower3.png"" style=""width:200px; border:14px solid green;"">","null","","","","","","","","",""
"","image-keyboard-response","34","40184","0.0-34.0","34HJIJKLP6I86G0SKDF9MO5EEW7V4V","AYLYY6ANK0URM","3PIOQ99R7Y8STPN46QFY0SD7JTFNU0","","93.90000009536743","img/flower3.png","75","94.5","2","1","1","2","1,0,0,1,1,0,1,0,1","0,1,0,0,1,1,1,1,0","3",""
"","html-keyboard-response","35","40485","0.0-35.0","34HJIJKLP6I86G0SKDF9MO5EEW7V4V","AYLYY6ANK0URM","3PIOQ99R7Y8STPN46QFY0SD7JTFNU0","","null","<img src=""img/flower3.png"" style=""width:200px; border:14px solid green;"">","null","","","","","","","","",""
"","image-keyboard-response","36","40538","0.0-36.0","34HJIJKLP6I86G0SKDF9MO5EEW7V4V","AYLYY6ANK0URM","3PIOQ99R7Y8STPN46QFY0SD7JTFNU0","","52.59999990463257","img/flower6.png","75","53.10000014305115","2","1","2","2","1,0,0,1,1,0,1,0,1","0,1,0,0,1,1,1,1,0","3",""
"","html-keyboard-response","37","40841","0.0-37.0","34HJIJKLP6I86G0SKDF9MO5EEW7V4V","AYLYY6ANK0URM","3PIOQ99R7Y8STPN46QFY0SD7JTFNU0","","null","<img src=""img/flower6.png"" style=""width:200px; border:14px solid green;"">","null","","","","","","","","",""
"","image-keyboard-response","38","40913","0.0-38.0","34HJIJKLP6I86G0SKDF9MO5EEW7V4V","AYLYY6ANK0URM","3PIOQ99R7Y8STPN46QFY0SD7JTFNU0","","71.20000004768372","img/flower1.png","75","72","2","1","3","2","1,0,0,1,1,0,1,0,1","0,1,0,0,1,1,1,1,0","3",""
"","html-keyboard-response","39","41215","0.0-39.0","34HJIJKLP6I86G0SKDF9MO5EEW7V4V","AYLYY6ANK0URM","3PIOQ99R7Y8STPN46QFY0SD7JTFNU0","","null","<img src=""img/flower1.png"" style=""width:200px; border:14px solid green;"">","null","","","","","","","","",""
"","image-keyboard-response","40","41220","0.0-40.0","34HJIJKLP6I86G0SKDF9MO5EEW7V4V","AYLYY6ANK0URM","3PIOQ99R7Y8STPN46QFY0SD7JTFNU0","","3.5999999046325684","img/flower6.png","75","4.200000047683716","2","1","2","2","1,0,0,1,1,0,1,0,1","0,1,0,0,1,1,1,1,0","3",""
"","html-keyboard-response","41","41521","0.0-41.0","34HJIJKLP6I86G0SKDF9MO5EEW7V4V","AYLYY6ANK0URM","3PIOQ99R7Y8STPN46QFY0SD7JTFNU0","","null","<img src=""img/flower6.png"" style=""width:200px; border:14px solid green;"">","null","","","","","","","","",""
"","image-keyboard-response","42","41797","0.0-42.0","34HJIJKLP6I86G0SKDF9MO5EEW7V4V","AYLYY6ANK0URM","3PIOQ99R7Y8STPN46QFY0SD7JTFNU0","","275.39999985694885","img/flower3.png","75","276","2","1","1","2","1,0,0,1,1,0,1,0,1","0,1,0,0,1,1,1,1,0","3",""
"","html-keyboard-response","43","42099","0.0-43.0","34HJIJKLP6I86G0SKDF9MO5EEW7V4V","AYLYY6ANK0URM","3PIOQ99R7Y8STPN46QFY0SD7JTFNU0","","null","<img src=""img/flower3.png"" style=""width:200px; border:14px solid green;"">","null","","","","","","","","",""
"","image-keyboard-response","44","42181","0.0-44.0","34HJIJKLP6I86G0SKDF9MO5EEW7V4V","AYLYY6ANK0URM","3PIOQ99R7Y8STPN46QFY0SD7JTFNU0","","80.89999985694885","img/flower6.png","75","81.70000004768372","2","1","2","2","1,0,0,1,1,0,1,0,1","0,1,0,0,1,1,1,1,0","3",""
"","html-keyboard-response","45","42483","0.0-45.0","34HJIJKLP6I86G0SKDF9MO5EEW7V4V","AYLYY6ANK0URM","3PIOQ99R7Y8STPN46QFY0SD7JTFNU0","","null","<img src=""img/flower6.png"" style=""width:200px; border:14px solid green;"">","null","","","","","","","","",""
"","image-keyboard-response","46","42570","0.0-46.0","34HJIJKLP6I86G0SKDF9MO5EEW7V4V","AYLYY6ANK0URM","3PIOQ99R7Y8STPN46QFY0SD7JTFNU0","","85.89999985694885","img/flower6.png","75","86.40000009536743","2","1","2","2","1,0,0,1,1,0,1,0,1","0,1,0,0,1,1,1,1,0","3",""
"","html-keyboard-response","47","42871","0.0-47.0","34HJIJKLP6I86G0SKDF9MO5EEW7V4V","AYLYY6ANK0URM","3PIOQ99R7Y8STPN46QFY0SD7JTFNU0","","null","<img src=""img/flower6.png"" style=""width:200px; border:14px solid green;"">","null","","","","","","","","",""
"","image-keyboard-response","48","42923","0.0-48.0","34HJIJKLP6I86G0SKDF9MO5EEW7V4V","AYLYY6ANK0URM","3PIOQ99R7Y8STPN46QFY0SD7JTFNU0","","50.700000047683716","img/flower3.png","75","51.40000009536743","2","1","1","2","1,0,0,1,1,0,1,0,1","0,1,0,0,1,1,1,1,0","3",""
"","html-keyboard-response","49","43225","0.0-49.0","34HJIJKLP6I86G0SKDF9MO5EEW7V4V","AYLYY6ANK0URM","3PIOQ99R7Y8STPN46QFY0SD7JTFNU0","","null","<img src=""img/flower3.png"" style=""width:200px; border:14px solid green;"">","null","","","","","","","","",""
"","image-keyboard-response","50","43281","0.0-50.0","34HJIJKLP6I86G0SKDF9MO5EEW7V4V","AYLYY6ANK0URM","3PIOQ99R7Y8STPN46QFY0SD7JTFNU0","","55.700000047683716","img/flower1.png","75","56.299999952316284","2","1","3","2","1,0,0,1,1,0,1,0,1","0,1,0,0,1,1,1,1,0","3",""
"","html-keyboard-response","51","43583","0.0-51.0","34HJIJKLP6I86G0SKDF9MO5EEW7V4V","AYLYY6ANK0URM","3PIOQ99R7Y8STPN46QFY0SD7JTFNU0","","null","<img src=""img/flower1.png"" style=""width:200px; border:14px solid green;"">","null","","","","","","","","",""
"","image-keyboard-response","52","43647","0.0-52.0","34HJIJKLP6I86G0SKDF9MO5EEW7V4V","AYLYY6ANK0URM","3PIOQ99R7Y8STPN46QFY0SD7JTFNU0","","63.5","img/flower3.png","75","63.90000009536743","2","1","1","2","1,0,0,1,1,0,1,0,1","0,1,0,0,1,1,1,1,0","3",""
"","html-keyboard-response","53","43948","0.0-53.0","34HJIJKLP6I86G0SKDF9MO5EEW7V4V","AYLYY6ANK0URM","3PIOQ99R7Y8STPN46QFY0SD7JTFNU0","","null","<img src=""img/flower3.png"" style=""width:200px; border:14px solid green;"">","null","","","","","","","","",""
"","image-keyboard-response","54","43969","0.0-54.0","34HJIJKLP6I86G0SKDF9MO5EEW7V4V","AYLYY6ANK0URM","3PIOQ99R7Y8STPN46QFY0SD7JTFNU0","","20","img/flower1.png","75","20.299999952316284","2","1","3","2","1,0,0,1,1,0,1,0,1","0,1,0,0,1,1,1,1,0","3",""
"","html-keyboard-response","55","44271","0.0-55.0","34HJIJKLP6I86G0SKDF9MO5EEW7V4V","AYLYY6ANK0URM","3PIOQ99R7Y8STPN46QFY0SD7JTFNU0","","null","<img src=""img/flower1.png"" style=""width:200px; border:14px solid green;"">","null","","","","","","","","",""
"","image-keyboard-response","56","44282","0.0-56.0","34HJIJKLP6I86G0SKDF9MO5EEW7V4V","AYLYY6ANK0URM","3PIOQ99R7Y8STPN46QFY0SD7JTFNU0","","10.399999856948853","img/flower1.png","75","11","2","1","3","2","1,0,0,1,1,0,1,0,1","0,1,0,0,1,1,1,1,0","3",""
"","html-keyboard-response","57","44583","0.0-57.0","34HJIJKLP6I86G0SKDF9MO5EEW7V4V","AYLYY6ANK0URM","3PIOQ99R7Y8STPN46QFY0SD7JTFNU0","","null","<img src=""img/flower1.png"" style=""width:200px; border:14px solid green;"">","null","","","","","","","","",""
"","image-keyboard-response","58","44597","0.0-58.0","34HJIJKLP6I86G0SKDF9MO5EEW7V4V","AYLYY6ANK0URM","3PIOQ99R7Y8STPN46QFY0SD7JTFNU0","","13.100000143051147","img/flower6.png","75","13.699999809265137","2","1","2","2","1,0,0,1,1,0,1,0,1","0,1,0,0,1,1,1,1,0","3",""
"","html-keyboard-response","59","44898","0.0-59.0","34HJIJKLP6I86G0SKDF9MO5EEW7V4V","AYLYY6ANK0URM","3PIOQ99R7Y8STPN46QFY0SD7JTFNU0","","null","<img src=""img/flower6.png"" style=""width:200px; border:14px solid green;"">","null","","","","","","","","",""
"","image-keyboard-response","60","45199","0.0-60.0","34HJIJKLP6I86G0SKDF9MO5EEW7V4V","AYLYY6ANK0URM","3PIOQ99R7Y8STPN46QFY0SD7JTFNU0","","300.7999999523163","img/flower1.png","75","301.2999999523163","2","1","3","2","1,0,0,1,1,0,1,0,1","0,1,0,0,1,1,1,1,0","3",""
"","html-keyboard-response","61","45501","0.0-61.0","34HJIJKLP6I86G0SKDF9MO5EEW7V4V","AYLYY6ANK0URM","3PIOQ99R7Y8STPN46QFY0SD7JTFNU0","","null","<img src=""img/flower1.png"" style=""width:200px; border:14px solid green;"">","null","","","","","","","","",""
"","image-keyboard-response","62","45535","0.0-62.0","34HJIJKLP6I86G0SKDF9MO5EEW7V4V","AYLYY6ANK0URM","3PIOQ99R7Y8STPN46QFY0SD7JTFNU0","","33","img/flower1.png","75","33.5","2","1","3","2","1,0,0,1,1,0,1,0,1","0,1,0,0,1,1,1,1,0","3",""
"","html-keyboard-response","63","45836","0.0-63.0","34HJIJKLP6I86G0SKDF9MO5EEW7V4V","AYLYY6ANK0URM","3PIOQ99R7Y8STPN46QFY0SD7JTFNU0","","null","<img src=""img/flower1.png"" style=""width:200px; border:14px solid green;"">","null","","","","","","","","",""
"","image-keyboard-response","64","45863","0.0-64.0","34HJIJKLP6I86G0SKDF9MO5EEW7V4V","AYLYY6ANK0URM","3PIOQ99R7Y8STPN46QFY0SD7JTFNU0","","26.399999856948853","img/flower3.png","75","27.09999990463257","2","1","1","2","1,0,0,1,1,0,1,0,1","0,1,0,0,1,1,1,1,0","3",""
"","html-keyboard-response","65","46165","0.0-65.0","34HJIJKLP6I86G0SKDF9MO5EEW7V4V","AYLYY6ANK0URM","3PIOQ99R7Y8STPN46QFY0SD7JTFNU0","","null","<img src=""img/flower3.png"" style=""width:200px; border:14px solid green;"">","null","","","","","","","","",""
"","image-keyboard-response","66","46170","0.0-66.0","34HJIJKLP6I86G0SKDF9MO5EEW7V4V","AYLYY6ANK0URM","3PIOQ99R7Y8STPN46QFY0SD7JTFNU0","","4.5","img/flower6.png","75","5.199999809265137","2","1","2","2","1,0,0,1,1,0,1,0,1","0,1,0,0,1,1,1,1,0","3",""
"","html-keyboard-response","67","46471","0.0-67.0","34HJIJKLP6I86G0SKDF9MO5EEW7V4V","AYLYY6ANK0URM","3PIOQ99R7Y8STPN46QFY0SD7JTFNU0","","null","<img src=""img/flower6.png"" style=""width:200px; border:14px solid green;"">","null","","","","","","","","",""
"","image-keyboard-response","68","46489","0.0-68.0","34HJIJKLP6I86G0SKDF9MO5EEW7V4V","AYLYY6ANK0URM","3PIOQ99R7Y8STPN46QFY0SD7JTFNU0","","16.899999856948853","img/flower3.png","75","17.40000009536743","2","1","1","2","1,0,0,1,1,0,1,0,1","0,1,0,0,1,1,1,1,0","3",""
"","html-keyboard-response","69","46790","0.0-69.0","34HJIJKLP6I86G0SKDF9MO5EEW7V4V","AYLYY6ANK0URM","3PIOQ99R7Y8STPN46QFY0SD7JTFNU0","","null","<img src=""img/flower3.png"" style=""width:200px; border:14px solid green;"">","null","","","","","","","","",""
"","image-keyboard-response","70","47062","0.0-70.0","34HJIJKLP6I86G0SKDF9MO5EEW7V4V","AYLYY6ANK0URM","3PIOQ99R7Y8STPN46QFY0SD7JTFNU0","","270.2000000476837","img/flower1.png","75","270.7999999523163","2","1","3","2","1,0,0,1,1,0,1,0,1","0,1,0,0,1,1,1,1,0","3",""
"","html-keyboard-response","71","47364","0.0-71.0","34HJIJKLP6I86G0SKDF9MO5EEW7V4V","AYLYY6ANK0URM","3PIOQ99R7Y8STPN46QFY0SD7JTFNU0","","null","<img src=""img/flower1.png"" style=""width:200px; border:14px solid green;"">","null","","","","","","","","",""
"","image-keyboard-response","72","47593","0.0-72.0","34HJIJKLP6I86G0SKDF9MO5EEW7V4V","AYLYY6ANK0URM","3PIOQ99R7Y8STPN46QFY0SD7JTFNU0","","228.89999985694885","img/flower6.png","75","229.40000009536743","2","1","2","2","1,0,0,1,1,0,1,0,1","0,1,0,0,1,1,1,1,0","3",""
"","html-keyboard-response","73","47895","0.0-73.0","34HJIJKLP6I86G0SKDF9MO5EEW7V4V","AYLYY6ANK0URM","3PIOQ99R7Y8STPN46QFY0SD7JTFNU0","","null","<img src=""img/flower6.png"" style=""width:200px; border:14px solid green;"">","null","","","","","","","","",""
"","image-keyboard-response","74","47985","0.0-74.0","34HJIJKLP6I86G0SKDF9MO5EEW7V4V","AYLYY6ANK0URM","3PIOQ99R7Y8STPN46QFY0SD7JTFNU0","","89.70000004768372","img/flower1.png","75","90.40000009536743","2","1","3","2","1,0,0,1,1,0,1,0,1","0,1,0,0,1,1,1,1,0","3",""
"","html-keyboard-response","75","48287","0.0-75.0","34HJIJKLP6I86G0SKDF9MO5EEW7V4V","AYLYY6ANK0URM","3PIOQ99R7Y8STPN46QFY0SD7JTFNU0","","null","<img src=""img/flower1.png"" style=""width:200px; border:14px solid green;"">","null","","","","","","","","",""
"","image-keyboard-response","76","48306","0.0-76.0","34HJIJKLP6I86G0SKDF9MO5EEW7V4V","AYLYY6ANK0URM","3PIOQ99R7Y8STPN46QFY0SD7JTFNU0","","18.5","img/flower1.png","75","19","2","1","3","2","1,0,0,1,1,0,1,0,1","0,1,0,0,1,1,1,1,0","3",""
"","html-keyboard-response","77","48607","0.0-77.0","34HJIJKLP6I86G0SKDF9MO5EEW7V4V","AYLYY6ANK0URM","3PIOQ99R7Y8STPN46QFY0SD7JTFNU0","","null","<img src=""img/flower1.png"" style=""width:200px; border:14px solid green;"">","null","","","","","","","","",""
"","image-keyboard-response","78","48852","0.0-78.0","34HJIJKLP6I86G0SKDF9MO5EEW7V4V","AYLYY6ANK0URM","3PIOQ99R7Y8STPN46QFY0SD7JTFNU0","","244.29999995231628","img/flower6.png","75","244.89999985694885","2","1","2","2","1,0,0,1,1,0,1,0,1","0,1,0,0,1,1,1,1,0","3",""
"","html-keyboard-response","79","49155","0.0-79.0","34HJIJKLP6I86G0SKDF9MO5EEW7V4V","AYLYY6ANK0URM","3PIOQ99R7Y8STPN46QFY0SD7JTFNU0","","null","<img src=""img/flower6.png"" style=""width:200px; border:14px solid green;"">","null","","","","","","","","",""
"","image-keyboard-response","80","49183","0.0-80.0","34HJIJKLP6I86G0SKDF9MO5EEW7V4V","AYLYY6ANK0URM","3PIOQ99R7Y8STPN46QFY0SD7JTFNU0","","28.200000047683716","img/flower1.png","75","28.5","2","1","3","2","1,0,0,1,1,0,1,0,1","0,1,0,0,1,1,1,1,0","3",""
"","html-keyboard-response","81","49485","0.0-81.0","34HJIJKLP6I86G0SKDF9MO5EEW7V4V","AYLYY6ANK0URM","3PIOQ99R7Y8STPN46QFY0SD7JTFNU0","","null","<img src=""img/flower1.png"" style=""width:200px; border:14px solid green;"">","null","","","","","","","","",""
"","image-keyboard-response","82","49505","0.0-82.0","34HJIJKLP6I86G0SKDF9MO5EEW7V4V","AYLYY6ANK0URM","3PIOQ99R7Y8STPN46QFY0SD7JTFNU0","","19.59999990463257","img/flower6.png","75","20.200000047683716","2","1","2","2","1,0,0,1,1,0,1,0,1","0,1,0,0,1,1,1,1,0","3",""
"","html-keyboard-response","83","49807","0.0-83.0","34HJIJKLP6I86G0SKDF9MO5EEW7V4V","AYLYY6ANK0URM","3PIOQ99R7Y8STPN46QFY0SD7JTFNU0","","null","<img src=""img/flower6.png"" style=""width:200px; border:14px solid green;"">","null","","","","","","","","",""
"","image-keyboard-response","84","49817","0.0-84.0","34HJIJKLP6I86G0SKDF9MO5EEW7V4V","AYLYY6ANK0URM","3PIOQ99R7Y8STPN46QFY0SD7JTFNU0","","10.099999904632568","img/flower3.png","75","10.5","2","1","1","2","1,0,0,1,1,0,1,0,1","0,1,0,0,1,1,1,1,0","3",""
"","html-keyboard-response","85","50125","0.0-85.0","34HJIJKLP6I86G0SKDF9MO5EEW7V4V","AYLYY6ANK0URM","3PIOQ99R7Y8STPN46QFY0SD7JTFNU0","","null","<img src=""img/flower3.png"" style=""width:200px; border:14px solid green;"">","null","","","","","","","","",""
"","image-keyboard-response","86","50144","0.0-86.0","34HJIJKLP6I86G0SKDF9MO5EEW7V4V","AYLYY6ANK0URM","3PIOQ99R7Y8STPN46QFY0SD7JTFNU0","","18.299999952316284","img/flower6.png","75","18.800000190734863","2","1","2","2","1,0,0,1,1,0,1,0,1","0,1,0,0,1,1,1,1,0","3",""
"","html-keyboard-response","87","50445","0.0-87.0","34HJIJKLP6I86G0SKDF9MO5EEW7V4V","AYLYY6ANK0URM","3PIOQ99R7Y8STPN46QFY0SD7JTFNU0","","null","<img src=""img/flower6.png"" style=""width:200px; border:14px solid green;"">","null","","","","","","","","",""
"","image-keyboard-response","88","50456","0.0-88.0","34HJIJKLP6I86G0SKDF9MO5EEW7V4V","AYLYY6ANK0URM","3PIOQ99R7Y8STPN46QFY0SD7JTFNU0","","10.200000047683716","img/flower3.png","75","10.799999952316284","2","1","1","2","1,0,0,1,1,0,1,0,1","0,1,0,0,1,1,1,1,0","3",""
"","html-keyboard-response","89","50768","0.0-89.0","34HJIJKLP6I86G0SKDF9MO5EEW7V4V","AYLYY6ANK0URM","3PIOQ99R7Y8STPN46QFY0SD7JTFNU0","","null","<img src=""img/flower3.png"" style=""width:200px; border:14px solid green;"">","null","","","","","","","","",""
"","image-keyboard-response","90","50784","0.0-90.0","34HJIJKLP6I86G0SKDF9MO5EEW7V4V","AYLYY6ANK0URM","3PIOQ99R7Y8STPN46QFY0SD7JTFNU0","","15.099999904632568","img/flower3.png","75","15.799999952316284","2","1","1","2","1,0,0,1,1,0,1,0,1","0,1,0,0,1,1,1,1,0","3",""
"","html-keyboard-response","91","51085","0.0-91.0","34HJIJKLP6I86G0SKDF9MO5EEW7V4V","AYLYY6ANK0URM","3PIOQ99R7Y8STPN46QFY0SD7JTFNU0","","null","<img src=""img/flower3.png"" style=""width:200px; border:14px solid green;"">","null","","","","","","","","",""
"","image-keyboard-response","92","51103","0.0-92.0","34HJIJKLP6I86G0SKDF9MO5EEW7V4V","AYLYY6ANK0URM","3PIOQ99R7Y8STPN46QFY0SD7JTFNU0","","17.59999990463257","img/flower3.png","75","18.09999990463257","2","1","1","2","1,0,0,1,1,0,1,0,1","0,1,0,0,1,1,1,1,0","3",""
"","html-keyboard-response","93","51406","0.0-93.0","34HJIJKLP6I86G0SKDF9MO5EEW7V4V","AYLYY6ANK0URM","3PIOQ99R7Y8STPN46QFY0SD7JTFNU0","","null","<img src=""img/flower3.png"" style=""width:200px; border:14px solid green;"">","null","","","","","","","","",""
"","image-keyboard-response","94","51430","0.0-94.0","34HJIJKLP6I86G0SKDF9MO5EEW7V4V","AYLYY6ANK0URM","3PIOQ99R7Y8STPN46QFY0SD7JTFNU0","","24.299999952316284","img/flower1.png","75","24.799999952316284","2","1","3","2","1,0,0,1,1,0,1,0,1","0,1,0,0,1,1,1,1,0","3",""
"","html-keyboard-response","95","51732","0.0-95.0","34HJIJKLP6I86G0SKDF9MO5EEW7V4V","AYLYY6ANK0URM","3PIOQ99R7Y8STPN46QFY0SD7JTFNU0","","null","<img src=""img/flower1.png"" style=""width:200px; border:14px solid green;"">","null","","","","","","","","",""
"","image-keyboard-response","96","51766","0.0-96.0","34HJIJKLP6I86G0SKDF9MO5EEW7V4V","AYLYY6ANK0URM","3PIOQ99R7Y8STPN46QFY0SD7JTFNU0","","33.200000047683716","img/flower1.png","75","34","2","1","3","2","1,0,0,1,1,0,1,0,1","0,1,0,0,1,1,1,1,0","3",""
"","html-keyboard-response","97","52067","0.0-97.0","34HJIJKLP6I86G0SKDF9MO5EEW7V4V","AYLYY6ANK0URM","3PIOQ99R7Y8STPN46QFY0SD7JTFNU0","","null","<img src=""img/flower1.png"" style=""width:200px; border:14px solid green;"">","null","","","","","","","","",""
"","image-keyboard-response","98","52073","0.0-98.0","34HJIJKLP6I86G0SKDF9MO5EEW7V4V","AYLYY6ANK0URM","3PIOQ99R7Y8STPN46QFY0SD7JTFNU0","","4.900000095367432","img/flower6.png","75","5.3999998569488525","2","1","2","2","1,0,0,1,1,0,1,0,1","0,1,0,0,1,1,1,1,0","3",""
"","html-keyboard-response","99","52374","0.0-99.0","34HJIJKLP6I86G0SKDF9MO5EEW7V4V","AYLYY6ANK0URM","3PIOQ99R7Y8STPN46QFY0SD7JTFNU0","","null","<img src=""img/flower6.png"" style=""width:200px; border:14px solid green;"">","null","","","","","","","","",""
"","image-keyboard-response","100","52392","0.0-100.0","34HJIJKLP6I86G0SKDF9MO5EEW7V4V","AYLYY6ANK0URM","3PIOQ99R7Y8STPN46QFY0SD7JTFNU0","","17.299999952316284","img/flower1.png","75","17.90000009536743","2","1","3","2","1,0,0,1,1,0,1,0,1","0,1,0,0,1,1,1,1,0","3",""
"","html-keyboard-response","101","52693","0.0-101.0","34HJIJKLP6I86G0SKDF9MO5EEW7V4V","AYLYY6ANK0URM","3PIOQ99R7Y8STPN46QFY0SD7JTFNU0","","null","<img src=""img/flower1.png"" style=""width:200px; border:14px solid green;"">","null","","","","","","","","",""
"","image-keyboard-response","102","52997","0.0-102.0","34HJIJKLP6I86G0SKDF9MO5EEW7V4V","AYLYY6ANK0URM","3PIOQ99R7Y8STPN46QFY0SD7JTFNU0","","302.59999990463257","img/flower6.png","75","303.09999990463257","2","1","2","2","1,0,0,1,1,0,1,0,1","0,1,0,0,1,1,1,1,0","3",""
"","html-keyboard-response","103","53299","0.0-103.0","34HJIJKLP6I86G0SKDF9MO5EEW7V4V","AYLYY6ANK0URM","3PIOQ99R7Y8STPN46QFY0SD7JTFNU0","","null","<img src=""img/flower6.png"" style=""width:200px; border:14px solid green;"">","null","","","","","","","","",""
"","image-keyboard-response","104","53328","0.0-104.0","34HJIJKLP6I86G0SKDF9MO5EEW7V4V","AYLYY6ANK0URM","3PIOQ99R7Y8STPN46QFY0SD7JTFNU0","","28.799999952316284","img/flower3.png","75","29.299999952316284","2","1","1","2","1,0,0,1,1,0,1,0,1","0,1,0,0,1,1,1,1,0","3",""
"","html-keyboard-response","105","53630","0.0-105.0","34HJIJKLP6I86G0SKDF9MO5EEW7V4V","AYLYY6ANK0URM","3PIOQ99R7Y8STPN46QFY0SD7JTFNU0","","null","<img src=""img/flower3.png"" style=""width:200px; border:14px solid green;"">","null","","","","","","","","",""
"","image-keyboard-response","106","53701","0.0-106.0","34HJIJKLP6I86G0SKDF9MO5EEW7V4V","AYLYY6ANK0URM","3PIOQ99R7Y8STPN46QFY0SD7JTFNU0","","70.70000004768372","img/flower1.png","75","71.39999985694885","2","1","3","2","1,0,0,1,1,0,1,0,1","0,1,0,0,1,1,1,1,0","3",""
"","html-keyboard-response","107","54003","0.0-107.0","34HJIJKLP6I86G0SKDF9MO5EEW7V4V","AYLYY6ANK0URM","3PIOQ99R7Y8STPN46QFY0SD7JTFNU0","","null","<img src=""img/flower1.png"" style=""width:200px; border:14px solid green;"">","null","","","","","","","","",""
"","image-keyboard-response","108","54061","0.0-108.0","34HJIJKLP6I86G0SKDF9MO5EEW7V4V","AYLYY6ANK0URM","3PIOQ99R7Y8STPN46QFY0SD7JTFNU0","","57.700000047683716","img/flower3.png","75","58.299999952316284","2","1","1","2","1,0,0,1,1,0,1,0,1","0,1,0,0,1,1,1,1,0","3",""
"","html-keyboard-response","109","54363","0.0-109.0","34HJIJKLP6I86G0SKDF9MO5EEW7V4V","AYLYY6ANK0URM","3PIOQ99R7Y8STPN46QFY0SD7JTFNU0","","null","<img src=""img/flower3.png"" style=""width:200px; border:14px solid green;"">","null","","","","","","","","",""
"","image-keyboard-response","110","54401","0.0-110.0","34HJIJKLP6I86G0SKDF9MO5EEW7V4V","AYLYY6ANK0URM","3PIOQ99R7Y8STPN46QFY0SD7JTFNU0","","37.30000019073486","img/flower3.png","75","37.799999952316284","2","1","1","2","1,0,0,1,1,0,1,0,1","0,1,0,0,1,1,1,1,0","3",""
"","html-keyboard-response","111","54703","0.0-111.0","34HJIJKLP6I86G0SKDF9MO5EEW7V4V","AYLYY6ANK0URM","3PIOQ99R7Y8STPN46QFY0SD7JTFNU0","","null","<img src=""img/flower3.png"" style=""width:200px; border:14px solid green;"">","null","","","","","","","","",""
"","image-keyboard-response","112","54753","0.0-112.0","34HJIJKLP6I86G0SKDF9MO5EEW7V4V","AYLYY6ANK0URM","3PIOQ99R7Y8STPN46QFY0SD7JTFNU0","","49.09999990463257","img/flower1.png","75","49.60000014305115","2","1","3","2","1,0,0,1,1,0,1,0,1","0,1,0,0,1,1,1,1,0","3",""
"","html-keyboard-response","113","55054","0.0-113.0","34HJIJKLP6I86G0SKDF9MO5EEW7V4V","AYLYY6ANK0URM","3PIOQ99R7Y8STPN46QFY0SD7JTFNU0","","null","<img src=""img/flower1.png"" style=""width:200px; border:14px solid green;"">","null","","","","","","","","",""
"","image-keyboard-response","114","55070","0.0-114.0","34HJIJKLP6I86G0SKDF9MO5EEW7V4V","AYLYY6ANK0URM","3PIOQ99R7Y8STPN46QFY0SD7JTFNU0","","15.5","img/flower3.png","75","15.900000095367432","2","1","1","2","1,0,0,1,1,0,1,0,1","0,1,0,0,1,1,1,1,0","3",""
"","html-keyboard-response","115","55373","0.0-115.0","34HJIJKLP6I86G0SKDF9MO5EEW7V4V","AYLYY6ANK0URM","3PIOQ99R7Y8STPN46QFY0SD7JTFNU0","","null","<img src=""img/flower3.png"" style=""width:200px; border:14px solid green;"">","null","","","","","","","","",""
"","image-keyboard-response","116","55395","0.0-116.0","34HJIJKLP6I86G0SKDF9MO5EEW7V4V","AYLYY6ANK0URM","3PIOQ99R7Y8STPN46QFY0SD7JTFNU0","","21.59999990463257","img/flower1.png","75","22.09999990463257","2","1","3","2","1,0,0,1,1,0,1,0,1","0,1,0,0,1,1,1,1,0","3",""
"","html-keyboard-response","117","55696","0.0-117.0","34HJIJKLP6I86G0SKDF9MO5EEW7V4V","AYLYY6ANK0URM","3PIOQ99R7Y8STPN46QFY0SD7JTFNU0","","null","<img src=""img/flower1.png"" style=""width:200px; border:14px solid green;"">","null","","","","","","","","",""
"","image-keyboard-response","118","55731","0.0-118.0","34HJIJKLP6I86G0SKDF9MO5EEW7V4V","AYLYY6ANK0URM","3PIOQ99R7Y8STPN46QFY0SD7JTFNU0","","34.5","img/flower3.png","75","35","2","1","1","2","1,0,0,1,1,0,1,0,1","0,1,0,0,1,1,1,1,0","3",""
"","html-keyboard-response","119","56033","0.0-119.0","34HJIJKLP6I86G0SKDF9MO5EEW7V4V","AYLYY6ANK0URM","3PIOQ99R7Y8STPN46QFY0SD7JTFNU0","","null","<img src=""img/flower3.png"" style=""width:200px; border:14px solid green;"">","null","","","","","","","","",""
"","image-keyboard-response","120","56066","0.0-120.0","34HJIJKLP6I86G0SKDF9MO5EEW7V4V","AYLYY6ANK0URM","3PIOQ99R7Y8STPN46QFY0SD7JTFNU0","","32.700000047683716","img/flower6.png","75","33.40000009536743","2","1","2","2","1,0,0,1,1,0,1,0,1","0,1,0,0,1,1,1,1,0","3",""
"","html-keyboard-response","121","56369","0.0-121.0","34HJIJKLP6I86G0SKDF9MO5EEW7V4V","AYLYY6ANK0URM","3PIOQ99R7Y8STPN46QFY0SD7JTFNU0","","null","<img src=""img/flower6.png"" style=""width:200px; border:14px solid green;"">","null","","","","","","","","",""
"","image-keyboard-response","122","56390","0.0-122.0","34HJIJKLP6I86G0SKDF9MO5EEW7V4V","AYLYY6ANK0URM","3PIOQ99R7Y8STPN46QFY0SD7JTFNU0","","21.199999809265137","img/flower1.png","75","21.700000047683716","2","1","3","2","1,0,0,1,1,0,1,0,1","0,1,0,0,1,1,1,1,0","3",""
"","html-keyboard-response","123","56692","0.0-123.0","34HJIJKLP6I86G0SKDF9MO5EEW7V4V","AYLYY6ANK0URM","3PIOQ99R7Y8STPN46QFY0SD7JTFNU0","","null","<img src=""img/flower1.png"" style=""width:200px; border:14px solid green;"">","null","","","","","","","","",""
"","image-keyboard-response","124","56718","0.0-124.0","34HJIJKLP6I86G0SKDF9MO5EEW7V4V","AYLYY6ANK0URM","3PIOQ99R7Y8STPN46QFY0SD7JTFNU0","","25.59999990463257","img/flower3.png","75","26.200000047683716","2","1","1","2","1,0,0,1,1,0,1,0,1","0,1,0,0,1,1,1,1,0","3",""
"","html-keyboard-response","125","57020","0.0-125.0","34HJIJKLP6I86G0SKDF9MO5EEW7V4V","AYLYY6ANK0URM","3PIOQ99R7Y8STPN46QFY0SD7JTFNU0","","null","<img src=""img/flower3.png"" style=""width:200px; border:14px solid green;"">","null","","","","","","","","",""
"","image-keyboard-response","126","57052","0.0-126.0","34HJIJKLP6I86G0SKDF9MO5EEW7V4V","AYLYY6ANK0URM","3PIOQ99R7Y8STPN46QFY0SD7JTFNU0","","31.700000047683716","img/flower1.png","75","32.299999952316284","2","1","3","2","1,0,0,1,1,0,1,0,1","0,1,0,0,1,1,1,1,0","3",""
"","html-keyboard-response","127","57354","0.0-127.0","34HJIJKLP6I86G0SKDF9MO5EEW7V4V","AYLYY6ANK0URM","3PIOQ99R7Y8STPN46QFY0SD7JTFNU0","","null","<img src=""img/flower1.png"" style=""width:200px; border:14px solid green;"">","null","","","","","","","","",""
"","image-keyboard-response","128","57416","0.0-128.0","34HJIJKLP6I86G0SKDF9MO5EEW7V4V","AYLYY6ANK0URM","3PIOQ99R7Y8STPN46QFY0SD7JTFNU0","","62.09999990463257","img/flower6.png","75","62.40000009536743","2","1","2","2","1,0,0,1,1,0,1,0,1","0,1,0,0,1,1,1,1,0","3",""
"","html-keyboard-response","129","57725","0.0-129.0","34HJIJKLP6I86G0SKDF9MO5EEW7V4V","AYLYY6ANK0URM","3PIOQ99R7Y8STPN46QFY0SD7JTFNU0","","null","<img src=""img/flower6.png"" style=""width:200px; border:14px solid green;"">","null","","","","","","","","",""
"","image-keyboard-response","130","57737","0.0-130.0","34HJIJKLP6I86G0SKDF9MO5EEW7V4V","AYLYY6ANK0URM","3PIOQ99R7Y8STPN46QFY0SD7JTFNU0","","11.5","img/flower6.png","75","12.200000047683716","2","1","2","2","1,0,0,1,1,0,1,0,1","0,1,0,0,1,1,1,1,0","3",""
"","html-keyboard-response","131","58038","0.0-131.0","34HJIJKLP6I86G0SKDF9MO5EEW7V4V","AYLYY6ANK0URM","3PIOQ99R7Y8STPN46QFY0SD7JTFNU0","","null","<img src=""img/flower6.png"" style=""width:200px; border:14px solid green;"">","null","","","","","","","","",""
"","image-keyboard-response","132","58066","0.0-132.0","34HJIJKLP6I86G0SKDF9MO5EEW7V4V","AYLYY6ANK0URM","3PIOQ99R7Y8STPN46QFY0SD7JTFNU0","","27.59999990463257","img/flower6.png","75","28.100000143051147","2","1","2","2","1,0,0,1,1,0,1,0,1","0,1,0,0,1,1,1,1,0","3",""
"","html-keyboard-response","133","58368","0.0-133.0","34HJIJKLP6I86G0SKDF9MO5EEW7V4V","AYLYY6ANK0URM","3PIOQ99R7Y8STPN46QFY0SD7JTFNU0","","null","<img src=""img/flower6.png"" style=""width:200px; border:14px solid green;"">","null","","","","","","","","",""
"","image-keyboard-response","134","58376","0.0-134.0","34HJIJKLP6I86G0SKDF9MO5EEW7V4V","AYLYY6ANK0URM","3PIOQ99R7Y8STPN46QFY0SD7JTFNU0","","7.5","img/flower1.png","75","7.900000095367432","2","1","3","2","1,0,0,1,1,0,1,0,1","0,1,0,0,1,1,1,1,0","3",""
"","html-keyboard-response","135","58678","0.0-135.0","34HJIJKLP6I86G0SKDF9MO5EEW7V4V","AYLYY6ANK0URM","3PIOQ99R7Y8STPN46QFY0SD7JTFNU0","","null","<img src=""img/flower1.png"" style=""width:200px; border:14px solid green;"">","null","","","","","","","","",""
"","image-keyboard-response","136","58698","0.0-136.0","34HJIJKLP6I86G0SKDF9MO5EEW7V4V","AYLYY6ANK0URM","3PIOQ99R7Y8STPN46QFY0SD7JTFNU0","","20","img/flower3.png","75","20.40000009536743","2","1","1","2","1,0,0,1,1,0,1,0,1","0,1,0,0,1,1,1,1,0","3",""
"","html-keyboard-response","137","59000","0.0-137.0","34HJIJKLP6I86G0SKDF9MO5EEW7V4V","AYLYY6ANK0URM","3PIOQ99R7Y8STPN46QFY0SD7JTFNU0","","null","<img src=""img/flower3.png"" style=""width:200px; border:14px solid green;"">","null","","","","","","","","",""
"","image-keyboard-response","138","59018","0.0-138.0","34HJIJKLP6I86G0SKDF9MO5EEW7V4V","AYLYY6ANK0URM","3PIOQ99R7Y8STPN46QFY0SD7JTFNU0","","17.40000009536743","img/flower3.png","75","18","2","1","1","2","1,0,0,1,1,0,1,0,1","0,1,0,0,1,1,1,1,0","3",""
"","html-keyboard-response","139","59329","0.0-139.0","34HJIJKLP6I86G0SKDF9MO5EEW7V4V","AYLYY6ANK0URM","3PIOQ99R7Y8STPN46QFY0SD7JTFNU0","","null","<img src=""img/flower3.png"" style=""width:200px; border:14px solid green;"">","null","","","","","","","","",""
"","image-keyboard-response","140","59361","0.0-140.0","34HJIJKLP6I86G0SKDF9MO5EEW7V4V","AYLYY6ANK0URM","3PIOQ99R7Y8STPN46QFY0SD7JTFNU0","","31.100000143051147","img/flower6.png","75","32","2","1","2","2","1,0,0,1,1,0,1,0,1","0,1,0,0,1,1,1,1,0","3",""
"","html-keyboard-response","141","59662","0.0-141.0","34HJIJKLP6I86G0SKDF9MO5EEW7V4V","AYLYY6ANK0URM","3PIOQ99R7Y8STPN46QFY0SD7JTFNU0","","null","<img src=""img/flower6.png"" style=""width:200px; border:14px solid green;"">","null","","","","","","","","",""
"","image-keyboard-response","142","59672","0.0-142.0","34HJIJKLP6I86G0SKDF9MO5EEW7V4V","AYLYY6ANK0URM","3PIOQ99R7Y8STPN46QFY0SD7JTFNU0","","9.700000047683716","img/flower1.png","75","10.200000047683716","2","1","3","2","1,0,0,1,1,0,1,0,1","0,1,0,0,1,1,1,1,0","3",""
"","html-keyboard-response","143","59973","0.0-143.0","34HJIJKLP6I86G0SKDF9MO5EEW7V4V","AYLYY6ANK0URM","3PIOQ99R7Y8STPN46QFY0SD7JTFNU0","","null","<img src=""img/flower1.png"" style=""width:200px; border:14px solid green;"">","null","","","","","","","","",""
"","image-keyboard-response","144","60018","0.0-144.0","34HJIJKLP6I86G0SKDF9MO5EEW7V4V","AYLYY6ANK0URM","3PIOQ99R7Y8STPN46QFY0SD7JTFNU0","","43.5","img/flower6.png","75","44.200000047683716","2","1","2","2","1,0,0,1,1,0,1,0,1","0,1,0,0,1,1,1,1,0","3",""
"","html-keyboard-response","145","60320","0.0-145.0","34HJIJKLP6I86G0SKDF9MO5EEW7V4V","AYLYY6ANK0URM","3PIOQ99R7Y8STPN46QFY0SD7JTFNU0","","null","<img src=""img/flower6.png"" style=""width:200px; border:14px solid green;"">","null","","","","","","","","",""
"","image-keyboard-response","146","60326","0.0-146.0","34HJIJKLP6I86G0SKDF9MO5EEW7V4V","AYLYY6ANK0URM","3PIOQ99R7Y8STPN46QFY0SD7JTFNU0","","5.6000001430511475","img/flower6.png","75","6.199999809265137","2","1","2","2","1,0,0,1,1,0,1,0,1","0,1,0,0,1,1,1,1,0","3",""
"","html-keyboard-response","147","60627","0.0-147.0","34HJIJKLP6I86G0SKDF9MO5EEW7V4V","AYLYY6ANK0URM","3PIOQ99R7Y8STPN46QFY0SD7JTFNU0","","null","<img src=""img/flower6.png"" style=""width:200px; border:14px solid green;"">","null","","","","","","","","",""
"","image-keyboard-response","148","60647","0.0-148.0","34HJIJKLP6I86G0SKDF9MO5EEW7V4V","AYLYY6ANK0URM","3PIOQ99R7Y8STPN46QFY0SD7JTFNU0","","19.100000143051147","img/flower3.png","75","19.799999952316284","2","1","1","2","1,0,0,1,1,0,1,0,1","0,1,0,0,1,1,1,1,0","3",""
"","html-keyboard-response","149","60947","0.0-149.0","34HJIJKLP6I86G0SKDF9MO5EEW7V4V","AYLYY6ANK0URM","3PIOQ99R7Y8STPN46QFY0SD7JTFNU0","","null","<img src=""img/flower3.png"" style=""width:200px; border:14px solid green;"">","null","","","","","","","","",""
"","image-keyboard-response","150","61611","0.0-150.0","34HJIJKLP6I86G0SKDF9MO5EEW7V4V","AYLYY6ANK0URM","3PIOQ99R7Y8STPN46QFY0SD7JTFNU0","","663.1999998092651","img/flower6.png","75","663.8999998569489","2","1","2","2","1,0,0,1,1,0,1,0,1","0,1,0,0,1,1,1,1,0","3",""
"","html-keyboard-response","151","61913","0.0-151.0","34HJIJKLP6I86G0SKDF9MO5EEW7V4V","AYLYY6ANK0URM","3PIOQ99R7Y8STPN46QFY0SD7JTFNU0","","null","<img src=""img/flower6.png"" style=""width:200px; border:14px solid green;"">","null","","","","","","","","",""
"","image-keyboard-response","152","61923","0.0-152.0","34HJIJKLP6I86G0SKDF9MO5EEW7V4V","AYLYY6ANK0URM","3PIOQ99R7Y8STPN46QFY0SD7JTFNU0","","8.900000095367432","img/flower1.png","75","9.399999856948853","2","1","3","2","1,0,0,1,1,0,1,0,1","0,1,0,0,1,1,1,1,0","3",""
"","html-keyboard-response","153","62224","0.0-153.0","34HJIJKLP6I86G0SKDF9MO5EEW7V4V","AYLYY6ANK0URM","3PIOQ99R7Y8STPN46QFY0SD7JTFNU0","","null","<img src=""img/flower1.png"" style=""width:200px; border:14px solid green;"">","null","","","","","","","","",""
"","image-keyboard-response","154","62278","0.0-154.0","34HJIJKLP6I86G0SKDF9MO5EEW7V4V","AYLYY6ANK0URM","3PIOQ99R7Y8STPN46QFY0SD7JTFNU0","","53.40000009536743","img/flower6.png","75","53.89999985694885","2","1","2","2","1,0,0,1,1,0,1,0,1","0,1,0,0,1,1,1,1,0","3",""
"","html-keyboard-response","155","62579","0.0-155.0","34HJIJKLP6I86G0SKDF9MO5EEW7V4V","AYLYY6ANK0URM","3PIOQ99R7Y8STPN46QFY0SD7JTFNU0","","null","<img src=""img/flower6.png"" style=""width:200px; border:14px solid green;"">","null","","","","","","","","",""
"","image-keyboard-response","156","62585","0.0-156.0","34HJIJKLP6I86G0SKDF9MO5EEW7V4V","AYLYY6ANK0URM","3PIOQ99R7Y8STPN46QFY0SD7JTFNU0","","5.900000095367432","img/flower1.png","75","6.5","2","1","3","2","1,0,0,1,1,0,1,0,1","0,1,0,0,1,1,1,1,0","3",""
"","html-keyboard-response","157","62887","0.0-157.0","34HJIJKLP6I86G0SKDF9MO5EEW7V4V","AYLYY6ANK0URM","3PIOQ99R7Y8STPN46QFY0SD7JTFNU0","","null","<img src=""img/flower1.png"" style=""width:200px; border:14px solid green;"">","null","","","","","","","","",""
"","image-keyboard-response","158","62907","0.0-158.0","34HJIJKLP6I86G0SKDF9MO5EEW7V4V","AYLYY6ANK0URM","3PIOQ99R7Y8STPN46QFY0SD7JTFNU0","","18.799999952316284","img/flower1.png","75","19.5","2","1","3","2","1,0,0,1,1,0,1,0,1","0,1,0,0,1,1,1,1,0","3",""
"","html-keyboard-response","159","63208","0.0-159.0","34HJIJKLP6I86G0SKDF9MO5EEW7V4V","AYLYY6ANK0URM","3PIOQ99R7Y8STPN46QFY0SD7JTFNU0","","null","<img src=""img/flower1.png"" style=""width:200px; border:14px solid green;"">","null","","","","","","","","",""
"","image-keyboard-response","160","63231","0.0-160.0","34HJIJKLP6I86G0SKDF9MO5EEW7V4V","AYLYY6ANK0URM","3PIOQ99R7Y8STPN46QFY0SD7JTFNU0","","21.899999856948853","img/flower1.png","75","22.399999856948853","2","1","3","2","1,0,0,1,1,0,1,0,1","0,1,0,0,1,1,1,1,0","3",""
"","html-keyboard-response","161","63532","0.0-161.0","34HJIJKLP6I86G0SKDF9MO5EEW7V4V","AYLYY6ANK0URM","3PIOQ99R7Y8STPN46QFY0SD7JTFNU0","","null","<img src=""img/flower1.png"" style=""width:200px; border:14px solid green;"">","null","","","","","","","","",""
"","image-keyboard-response","162","63540","0.0-162.0","34HJIJKLP6I86G0SKDF9MO5EEW7V4V","AYLYY6ANK0URM","3PIOQ99R7Y8STPN46QFY0SD7JTFNU0","","7.200000047683716","img/flower3.png","75","7.799999952316284","2","1","1","2","1,0,0,1,1,0,1,0,1","0,1,0,0,1,1,1,1,0","3",""
"","html-keyboard-response","163","63841","0.0-163.0","34HJIJKLP6I86G0SKDF9MO5EEW7V4V","AYLYY6ANK0URM","3PIOQ99R7Y8STPN46QFY0SD7JTFNU0","","null","<img src=""img/flower3.png"" style=""width:200px; border:14px solid green;"">","null","","","","","","","","",""
"","image-keyboard-response","164","64150","0.0-164.0","34HJIJKLP6I86G0SKDF9MO5EEW7V4V","AYLYY6ANK0URM","3PIOQ99R7Y8STPN46QFY0SD7JTFNU0","","307.7999999523163","img/flower3.png","75","308.2000000476837","2","1","1","2","1,0,0,1,1,0,1,0,1","0,1,0,0,1,1,1,1,0","3",""
"","html-keyboard-response","165","64451","0.0-165.0","34HJIJKLP6I86G0SKDF9MO5EEW7V4V","AYLYY6ANK0URM","3PIOQ99R7Y8STPN46QFY0SD7JTFNU0","","null","<img src=""img/flower3.png"" style=""width:200px; border:14px solid green;"">","null","","","","","","","","",""
"","image-keyboard-response","166","64484","0.0-166.0","34HJIJKLP6I86G0SKDF9MO5EEW7V4V","AYLYY6ANK0URM","3PIOQ99R7Y8STPN46QFY0SD7JTFNU0","","32.700000047683716","img/flower1.png","75","33.09999990463257","2","1","3","2","1,0,0,1,1,0,1,0,1","0,1,0,0,1,1,1,1,0","3",""
"","html-keyboard-response","167","64786","0.0-167.0","34HJIJKLP6I86G0SKDF9MO5EEW7V4V","AYLYY6ANK0URM","3PIOQ99R7Y8STPN46QFY0SD7JTFNU0","","null","<img src=""img/flower1.png"" style=""width:200px; border:14px solid green;"">","null","","","","","","","","",""
"","image-keyboard-response","168","64827","0.0-168.0","34HJIJKLP6I86G0SKDF9MO5EEW7V4V","AYLYY6ANK0URM","3PIOQ99R7Y8STPN46QFY0SD7JTFNU0","","40.299999952316284","img/flower3.png","75","40.799999952316284","2","1","1","2","1,0,0,1,1,0,1,0,1","0,1,0,0,1,1,1,1,0","3",""
"","html-keyboard-response","169","65127","0.0-169.0","34HJIJKLP6I86G0SKDF9MO5EEW7V4V","AYLYY6ANK0URM","3PIOQ99R7Y8STPN46QFY0SD7JTFNU0","","null","<img src=""img/flower3.png"" style=""width:200px; border:14px solid green;"">","null","","","","","","","","",""
"","image-keyboard-response","170","65161","0.0-170.0","34HJIJKLP6I86G0SKDF9MO5EEW7V4V","AYLYY6ANK0URM","3PIOQ99R7Y8STPN46QFY0SD7JTFNU0","","32.799999952316284","img/flower6.png","75","33.39999985694885","2","1","2","2","1,0,0,1,1,0,1,0,1","0,1,0,0,1,1,1,1,0","3",""
"","html-keyboard-response","171","65463","0.0-171.0","34HJIJKLP6I86G0SKDF9MO5EEW7V4V","AYLYY6ANK0URM","3PIOQ99R7Y8STPN46QFY0SD7JTFNU0","","null","<img src=""img/flower6.png"" style=""width:200px; border:14px solid green;"">","null","","","","","","","","",""
"","image-keyboard-response","172","65774","0.0-172.0","34HJIJKLP6I86G0SKDF9MO5EEW7V4V","AYLYY6ANK0URM","3PIOQ99R7Y8STPN46QFY0SD7JTFNU0","","310.7000000476837","img/flower3.png","75","311.2000000476837","2","1","1","2","1,0,0,1,1,0,1,0,1","0,1,0,0,1,1,1,1,0","3",""
"","html-keyboard-response","173","66075","0.0-173.0","34HJIJKLP6I86G0SKDF9MO5EEW7V4V","AYLYY6ANK0URM","3PIOQ99R7Y8STPN46QFY0SD7JTFNU0","","null","<img src=""img/flower3.png"" style=""width:200px; border:14px solid green;"">","null","","","","","","","","",""
"","image-keyboard-response","174","66138","0.0-174.0","34HJIJKLP6I86G0SKDF9MO5EEW7V4V","AYLYY6ANK0URM","3PIOQ99R7Y8STPN46QFY0SD7JTFNU0","","62.40000009536743","img/flower1.png","75","62.799999952316284","2","1","3","2","1,0,0,1,1,0,1,0,1","0,1,0,0,1,1,1,1,0","3",""
"","html-keyboard-response","175","66451","0.0-175.0","34HJIJKLP6I86G0SKDF9MO5EEW7V4V","AYLYY6ANK0URM","3PIOQ99R7Y8STPN46QFY0SD7JTFNU0","","null","<img src=""img/flower1.png"" style=""width:200px; border:14px solid green;"">","null","","","","","","","","",""
"","image-keyboard-response","176","66516","0.0-176.0","34HJIJKLP6I86G0SKDF9MO5EEW7V4V","AYLYY6ANK0URM","3PIOQ99R7Y8STPN46QFY0SD7JTFNU0","","64.29999995231628","img/flower3.png","75","64.79999995231628","2","1","1","2","1,0,0,1,1,0,1,0,1","0,1,0,0,1,1,1,1,0","3",""
"","html-keyboard-response","177","66817","0.0-177.0","34HJIJKLP6I86G0SKDF9MO5EEW7V4V","AYLYY6ANK0URM","3PIOQ99R7Y8STPN46QFY0SD7JTFNU0","","null","<img src=""img/flower3.png"" style=""width:200px; border:14px solid green;"">","null","","","","","","","","",""
"","image-keyboard-response","178","66851","0.0-178.0","34HJIJKLP6I86G0SKDF9MO5EEW7V4V","AYLYY6ANK0URM","3PIOQ99R7Y8STPN46QFY0SD7JTFNU0","","33.5","img/flower3.png","75","34.09999990463257","2","1","1","2","1,0,0,1,1,0,1,0,1","0,1,0,0,1,1,1,1,0","3",""
"","html-keyboard-response","179","67153","0.0-179.0","34HJIJKLP6I86G0SKDF9MO5EEW7V4V","AYLYY6ANK0URM","3PIOQ99R7Y8STPN46QFY0SD7JTFNU0","","null","<img src=""img/flower3.png"" style=""width:200px; border:14px solid green;"">","null","","","","","","","","",""
"","image-keyboard-response","180","67202","0.0-180.0","34HJIJKLP6I86G0SKDF9MO5EEW7V4V","AYLYY6ANK0URM","3PIOQ99R7Y8STPN46QFY0SD7JTFNU0","","49.19999980926514","img/flower3.png","75","49.700000047683716","2","1","1","2","1,0,0,1,1,0,1,0,1","0,1,0,0,1,1,1,1,0","3",""
"","html-keyboard-response","181","67504","0.0-181.0","34HJIJKLP6I86G0SKDF9MO5EEW7V4V","AYLYY6ANK0URM","3PIOQ99R7Y8STPN46QFY0SD7JTFNU0","","null","<img src=""img/flower3.png"" style=""width:200px; border:14px solid green;"">","null","","","","","","","","",""
"","image-keyboard-response","182","67520","0.0-182.0","34HJIJKLP6I86G0SKDF9MO5EEW7V4V","AYLYY6ANK0URM","3PIOQ99R7Y8STPN46QFY0SD7JTFNU0","","15.299999952316284","img/flower5.png","75","15.900000095367432","2","1","2","1","1,0.333,0.333,0.333,1,0.333,0.333,0.333,1","1,0.333,0.333,0.333,1,0.333,0.333,0.333,1","1",""
"","html-keyboard-response","183","67821","0.0-183.0","34HJIJKLP6I86G0SKDF9MO5EEW7V4V","AYLYY6ANK0URM","3PIOQ99R7Y8STPN46QFY0SD7JTFNU0","","null","<img src=""img/flower5.png"" style=""width:200px; border:14px solid green;"">","null","","","","","","","","",""
"","image-keyboard-response","184","67854","0.0-184.0","34HJIJKLP6I86G0SKDF9MO5EEW7V4V","AYLYY6ANK0URM","3PIOQ99R7Y8STPN46QFY0SD7JTFNU0","","32","img/flower4.png","75","32.39999985694885","2","0","3","1","1,0.333,0.333,0.333,1,0.333,0.333,0.333,1","1,0.333,0.333,0.333,1,0.333,0.333,0.333,1","1",""
"","html-keyboard-response","185","68155","0.0-185.0","34HJIJKLP6I86G0SKDF9MO5EEW7V4V","AYLYY6ANK0URM","3PIOQ99R7Y8STPN46QFY0SD7JTFNU0","","null","<img src=""img/flower4.png"" style=""width:200px;border:14px solid red;"">","null","","","","","","","","",""
"","image-keyboard-response","186","68185","0.0-186.0","34HJIJKLP6I86G0SKDF9MO5EEW7V4V","AYLYY6ANK0URM","3PIOQ99R7Y8STPN46QFY0SD7JTFNU0","","28.90000009536743","img/flower5.png","75","29.40000009536743","2","1","2","1","1,0.333,0.333,0.333,1,0.333,0.333,0.333,1","1,0.333,0.333,0.333,1,0.333,0.333,0.333,1","1",""
"","html-keyboard-response","187","68487","0.0-187.0","34HJIJKLP6I86G0SKDF9MO5EEW7V4V","AYLYY6ANK0URM","3PIOQ99R7Y8STPN46QFY0SD7JTFNU0","","null","<img src=""img/flower5.png"" style=""width:200px; border:14px solid green;"">","null","","","","","","","","",""
"","image-keyboard-response","188","68630","0.0-188.0","34HJIJKLP6I86G0SKDF9MO5EEW7V4V","AYLYY6ANK0URM","3PIOQ99R7Y8STPN46QFY0SD7JTFNU0","","142.5","img/flower4.png","75","143.19999980926514","2","1","3","1","1,0.333,0.333,0.333,1,0.333,0.333,0.333,1","1,0.333,0.333,0.333,1,0.333,0.333,0.333,1","1",""
"","html-keyboard-response","189","68932","0.0-189.0","34HJIJKLP6I86G0SKDF9MO5EEW7V4V","AYLYY6ANK0URM","3PIOQ99R7Y8STPN46QFY0SD7JTFNU0","","null","<img src=""img/flower4.png"" style=""width:200px; border:14px solid green;"">","null","","","","","","","","",""
"","image-keyboard-response","190","68948","0.0-190.0","34HJIJKLP6I86G0SKDF9MO5EEW7V4V","AYLYY6ANK0URM","3PIOQ99R7Y8STPN46QFY0SD7JTFNU0","","15","img/flower4.png","75","15.599999904632568","2","0","3","1","1,0.333,0.333,0.333,1,0.333,0.333,0.333,1","1,0.333,0.333,0.333,1,0.333,0.333,0.333,1","1",""
"","html-keyboard-response","191","69249","0.0-191.0","34HJIJKLP6I86G0SKDF9MO5EEW7V4V","AYLYY6ANK0URM","3PIOQ99R7Y8STPN46QFY0SD7JTFNU0","","null","<img src=""img/flower4.png"" style=""width:200px;border:14px solid red;"">","null","","","","","","","","",""
"","image-keyboard-response","192","69308","0.0-192.0","34HJIJKLP6I86G0SKDF9MO5EEW7V4V","AYLYY6ANK0URM","3PIOQ99R7Y8STPN46QFY0SD7JTFNU0","","58.40000009536743","img/flower4.png","75","58.799999952316284","2","0","3","1","1,0.333,0.333,0.333,1,0.333,0.333,0.333,1","1,0.333,0.333,0.333,1,0.333,0.333,0.333,1","1",""
"","html-keyboard-response","193","69610","0.0-193.0","34HJIJKLP6I86G0SKDF9MO5EEW7V4V","AYLYY6ANK0URM","3PIOQ99R7Y8STPN46QFY0SD7JTFNU0","","null","<img src=""img/flower4.png"" style=""width:200px;border:14px solid red;"">","null","","","","","","","","",""
"","image-keyboard-response","194","69612","0.0-194.0","34HJIJKLP6I86G0SKDF9MO5EEW7V4V","AYLYY6ANK0URM","3PIOQ99R7Y8STPN46QFY0SD7JTFNU0","","1.5","img/flower5.png","75","2.0999999046325684","2","1","2","1","1,0.333,0.333,0.333,1,0.333,0.333,0.333,1","1,0.333,0.333,0.333,1,0.333,0.333,0.333,1","1",""
"","html-keyboard-response","195","69914","0.0-195.0","34HJIJKLP6I86G0SKDF9MO5EEW7V4V","AYLYY6ANK0URM","3PIOQ99R7Y8STPN46QFY0SD7JTFNU0","","null","<img src=""img/flower5.png"" style=""width:200px; border:14px solid green;"">","null","","","","","","","","",""
"","image-keyboard-response","196","69925","0.0-196.0","34HJIJKLP6I86G0SKDF9MO5EEW7V4V","AYLYY6ANK0URM","3PIOQ99R7Y8STPN46QFY0SD7JTFNU0","","11","img/flower4.png","75","11.5","2","0","3","1","1,0.333,0.333,0.333,1,0.333,0.333,0.333,1","1,0.333,0.333,0.333,1,0.333,0.333,0.333,1","1",""
"","html-keyboard-response","197","70227","0.0-197.0","34HJIJKLP6I86G0SKDF9MO5EEW7V4V","AYLYY6ANK0URM","3PIOQ99R7Y8STPN46QFY0SD7JTFNU0","","null","<img src=""img/flower4.png"" style=""width:200px;border:14px solid red;"">","null","","","","","","","","",""
"","image-keyboard-response","198","70249","0.0-198.0","34HJIJKLP6I86G0SKDF9MO5EEW7V4V","AYLYY6ANK0URM","3PIOQ99R7Y8STPN46QFY0SD7JTFNU0","","21.799999952316284","img/flower2.png","75","22.40000009536743","2","0","1","1","1,0.333,0.333,0.333,1,0.333,0.333,0.333,1","1,0.333,0.333,0.333,1,0.333,0.333,0.333,1","1",""
"","html-keyboard-response","199","70550","0.0-199.0","34HJIJKLP6I86G0SKDF9MO5EEW7V4V","AYLYY6ANK0URM","3PIOQ99R7Y8STPN46QFY0SD7JTFNU0","","null","<img src=""img/flower2.png"" style=""width:200px;border:14px solid red;"">","null","","","","","","","","",""
"","image-keyboard-response","200","70573","0.0-200.0","34HJIJKLP6I86G0SKDF9MO5EEW7V4V","AYLYY6ANK0URM","3PIOQ99R7Y8STPN46QFY0SD7JTFNU0","","21.799999952316284","img/flower5.png","75","22.299999952316284","2","1","2","1","1,0.333,0.333,0.333,1,0.333,0.333,0.333,1","1,0.333,0.333,0.333,1,0.333,0.333,0.333,1","1",""
"","html-keyboard-response","201","70874","0.0-201.0","34HJIJKLP6I86G0SKDF9MO5EEW7V4V","AYLYY6ANK0URM","3PIOQ99R7Y8STPN46QFY0SD7JTFNU0","","null","<img src=""img/flower5.png"" style=""width:200px; border:14px solid green;"">","null","","","","","","","","",""
"","image-keyboard-response","202","70892","0.0-202.0","34HJIJKLP6I86G0SKDF9MO5EEW7V4V","AYLYY6ANK0URM","3PIOQ99R7Y8STPN46QFY0SD7JTFNU0","","16.90000009536743","img/flower2.png","75","17.5","2","0","1","1","1,0.333,0.333,0.333,1,0.333,0.333,0.333,1","1,0.333,0.333,0.333,1,0.333,0.333,0.333,1","1",""
"","html-keyboard-response","203","71193","0.0-203.0","34HJIJKLP6I86G0SKDF9MO5EEW7V4V","AYLYY6ANK0URM","3PIOQ99R7Y8STPN46QFY0SD7JTFNU0","","null","<img src=""img/flower2.png"" style=""width:200px;border:14px solid red;"">","null","","","","","","","","",""
"","image-keyboard-response","204","71212","0.0-204.0","34HJIJKLP6I86G0SKDF9MO5EEW7V4V","AYLYY6ANK0URM","3PIOQ99R7Y8STPN46QFY0SD7JTFNU0","","17.700000047683716","img/flower5.png","75","18.200000047683716","2","1","2","1","1,0.333,0.333,0.333,1,0.333,0.333,0.333,1","1,0.333,0.333,0.333,1,0.333,0.333,0.333,1","1",""
"","html-keyboard-response","205","71514","0.0-205.0","34HJIJKLP6I86G0SKDF9MO5EEW7V4V","AYLYY6ANK0URM","3PIOQ99R7Y8STPN46QFY0SD7JTFNU0","","null","<img src=""img/flower5.png"" style=""width:200px; border:14px solid green;"">","null","","","","","","","","",""
"","image-keyboard-response","206","71542","0.0-206.0","34HJIJKLP6I86G0SKDF9MO5EEW7V4V","AYLYY6ANK0URM","3PIOQ99R7Y8STPN46QFY0SD7JTFNU0","","27.399999856948853","img/flower2.png","75","28","2","1","1","1","1,0.333,0.333,0.333,1,0.333,0.333,0.333,1","1,0.333,0.333,0.333,1,0.333,0.333,0.333,1","1",""
"","html-keyboard-response","207","71843","0.0-207.0","34HJIJKLP6I86G0SKDF9MO5EEW7V4V","AYLYY6ANK0URM","3PIOQ99R7Y8STPN46QFY0SD7JTFNU0","","null","<img src=""img/flower2.png"" style=""width:200px; border:14px solid green;"">","null","","","","","","","","",""
"","image-keyboard-response","208","72151","0.0-208.0","34HJIJKLP6I86G0SKDF9MO5EEW7V4V","AYLYY6ANK0URM","3PIOQ99R7Y8STPN46QFY0SD7JTFNU0","","307.2000000476837","img/flower4.png","75","307.90000009536743","2","1","3","1","1,0.333,0.333,0.333,1,0.333,0.333,0.333,1","1,0.333,0.333,0.333,1,0.333,0.333,0.333,1","1",""
"","html-keyboard-response","209","72453","0.0-209.0","34HJIJKLP6I86G0SKDF9MO5EEW7V4V","AYLYY6ANK0URM","3PIOQ99R7Y8STPN46QFY0SD7JTFNU0","","null","<img src=""img/flower4.png"" style=""width:200px; border:14px solid green;"">","null","","","","","","","","",""
"","image-keyboard-response","210","72483","0.0-210.0","34HJIJKLP6I86G0SKDF9MO5EEW7V4V","AYLYY6ANK0URM","3PIOQ99R7Y8STPN46QFY0SD7JTFNU0","","28.700000047683716","img/flower4.png","75","29.199999809265137","2","1","3","1","1,0.333,0.333,0.333,1,0.333,0.333,0.333,1","1,0.333,0.333,0.333,1,0.333,0.333,0.333,1","1",""
"","html-keyboard-response","211","72784","0.0-211.0","34HJIJKLP6I86G0SKDF9MO5EEW7V4V","AYLYY6ANK0URM","3PIOQ99R7Y8STPN46QFY0SD7JTFNU0","","null","<img src=""img/flower4.png"" style=""width:200px; border:14px solid green;"">","null","","","","","","","","",""
"","image-keyboard-response","212","72853","0.0-212.0","34HJIJKLP6I86G0SKDF9MO5EEW7V4V","AYLYY6ANK0URM","3PIOQ99R7Y8STPN46QFY0SD7JTFNU0","","68.70000004768372","img/flower5.png","75","69.20000004768372","2","1","2","1","1,0.333,0.333,0.333,1,0.333,0.333,0.333,1","1,0.333,0.333,0.333,1,0.333,0.333,0.333,1","1",""
"","html-keyboard-response","213","73155","0.0-213.0","34HJIJKLP6I86G0SKDF9MO5EEW7V4V","AYLYY6ANK0URM","3PIOQ99R7Y8STPN46QFY0SD7JTFNU0","","null","<img src=""img/flower5.png"" style=""width:200px; border:14px solid green;"">","null","","","","","","","","",""
"","image-keyboard-response","214","73211","0.0-214.0","34HJIJKLP6I86G0SKDF9MO5EEW7V4V","AYLYY6ANK0URM","3PIOQ99R7Y8STPN46QFY0SD7JTFNU0","","54.80000019073486","img/flower4.png","75","55.200000047683716","2","0","3","1","1,0.333,0.333,0.333,1,0.333,0.333,0.333,1","1,0.333,0.333,0.333,1,0.333,0.333,0.333,1","1",""
"","html-keyboard-response","215","73512","0.0-215.0","34HJIJKLP6I86G0SKDF9MO5EEW7V4V","AYLYY6ANK0URM","3PIOQ99R7Y8STPN46QFY0SD7JTFNU0","","null","<img src=""img/flower4.png"" style=""width:200px;border:14px solid red;"">","null","","","","","","","","",""
"","image-keyboard-response","216","73540","0.0-216.0","34HJIJKLP6I86G0SKDF9MO5EEW7V4V","AYLYY6ANK0URM","3PIOQ99R7Y8STPN46QFY0SD7JTFNU0","","26.799999952316284","img/flower5.png","75","27.200000047683716","2","1","2","1","1,0.333,0.333,0.333,1,0.333,0.333,0.333,1","1,0.333,0.333,0.333,1,0.333,0.333,0.333,1","1",""
"","html-keyboard-response","217","73841","0.0-217.0","34HJIJKLP6I86G0SKDF9MO5EEW7V4V","AYLYY6ANK0URM","3PIOQ99R7Y8STPN46QFY0SD7JTFNU0","","null","<img src=""img/flower5.png"" style=""width:200px; border:14px solid green;"">","null","","","","","","","","",""
"","image-keyboard-response","218","73985","0.0-218.0","34HJIJKLP6I86G0SKDF9MO5EEW7V4V","AYLYY6ANK0URM","3PIOQ99R7Y8STPN46QFY0SD7JTFNU0","","143.80000019073486","img/flower5.png","75","144.29999995231628","2","1","2","1","1,0.333,0.333,0.333,1,0.333,0.333,0.333,1","1,0.333,0.333,0.333,1,0.333,0.333,0.333,1","1",""
"","html-keyboard-response","219","74286","0.0-219.0","34HJIJKLP6I86G0SKDF9MO5EEW7V4V","AYLYY6ANK0URM","3PIOQ99R7Y8STPN46QFY0SD7JTFNU0","","null","<img src=""img/flower5.png"" style=""width:200px; border:14px solid green;"">","null","","","","","","","","",""
"","image-keyboard-response","220","74335","0.0-220.0","34HJIJKLP6I86G0SKDF9MO5EEW7V4V","AYLYY6ANK0URM","3PIOQ99R7Y8STPN46QFY0SD7JTFNU0","","48","img/flower4.png","75","48.5","2","0","3","1","1,0.333,0.333,0.333,1,0.333,0.333,0.333,1","1,0.333,0.333,0.333,1,0.333,0.333,0.333,1","1",""
"","html-keyboard-response","221","74637","0.0-221.0","34HJIJKLP6I86G0SKDF9MO5EEW7V4V","AYLYY6ANK0URM","3PIOQ99R7Y8STPN46QFY0SD7JTFNU0","","null","<img src=""img/flower4.png"" style=""width:200px;border:14px solid red;"">","null","","","","","","","","",""
"","image-keyboard-response","222","74701","0.0-222.0","34HJIJKLP6I86G0SKDF9MO5EEW7V4V","AYLYY6ANK0URM","3PIOQ99R7Y8STPN46QFY0SD7JTFNU0","","64.20000004768372","img/flower4.png","75","64.79999995231628","2","0","3","1","1,0.333,0.333,0.333,1,0.333,0.333,0.333,1","1,0.333,0.333,0.333,1,0.333,0.333,0.333,1","1",""
"","html-keyboard-response","223","75002","0.0-223.0","34HJIJKLP6I86G0SKDF9MO5EEW7V4V","AYLYY6ANK0URM","3PIOQ99R7Y8STPN46QFY0SD7JTFNU0","","null","<img src=""img/flower4.png"" style=""width:200px;border:14px solid red;"">","null","","","","","","","","",""
"","image-keyboard-response","224","75399","0.0-224.0","34HJIJKLP6I86G0SKDF9MO5EEW7V4V","AYLYY6ANK0URM","3PIOQ99R7Y8STPN46QFY0SD7JTFNU0","","396.2000000476837","img/flower5.png","75","396.7000000476837","2","1","2","1","1,0.333,0.333,0.333,1,0.333,0.333,0.333,1","1,0.333,0.333,0.333,1,0.333,0.333,0.333,1","1",""
"","html-keyboard-response","225","75700","0.0-225.0","34HJIJKLP6I86G0SKDF9MO5EEW7V4V","AYLYY6ANK0URM","3PIOQ99R7Y8STPN46QFY0SD7JTFNU0","","null","<img src=""img/flower5.png"" style=""width:200px; border:14px solid green;"">","null","","","","","","","","",""
"","image-keyboard-response","226","76038","0.0-226.0","34HJIJKLP6I86G0SKDF9MO5EEW7V4V","AYLYY6ANK0URM","3PIOQ99R7Y8STPN46QFY0SD7JTFNU0","","336.80000019073486","img/flower2.png","75","337.2999999523163","2","1","1","1","1,0.333,0.333,0.333,1,0.333,0.333,0.333,1","1,0.333,0.333,0.333,1,0.333,0.333,0.333,1","1",""
"","html-keyboard-response","227","76339","0.0-227.0","34HJIJKLP6I86G0SKDF9MO5EEW7V4V","AYLYY6ANK0URM","3PIOQ99R7Y8STPN46QFY0SD7JTFNU0","","null","<img src=""img/flower2.png"" style=""width:200px; border:14px solid green;"">","null","","","","","","","","",""
"","image-keyboard-response","228","76692","0.0-228.0","34HJIJKLP6I86G0SKDF9MO5EEW7V4V","AYLYY6ANK0URM","3PIOQ99R7Y8STPN46QFY0SD7JTFNU0","","352.7999999523163","img/flower2.png","75","353.39999985694885","2","1","1","1","1,0.333,0.333,0.333,1,0.333,0.333,0.333,1","1,0.333,0.333,0.333,1,0.333,0.333,0.333,1","1",""
"","html-keyboard-response","229","76995","0.0-229.0","34HJIJKLP6I86G0SKDF9MO5EEW7V4V","AYLYY6ANK0URM","3PIOQ99R7Y8STPN46QFY0SD7JTFNU0","","null","<img src=""img/flower2.png"" style=""width:200px; border:14px solid green;"">","null","","","","","","","","",""
"","image-keyboard-response","230","77242","0.0-230.0","34HJIJKLP6I86G0SKDF9MO5EEW7V4V","AYLYY6ANK0URM","3PIOQ99R7Y8STPN46QFY0SD7JTFNU0","","246.79999995231628","img/flower5.png","75","247.29999995231628","2","1","2","1","1,0.333,0.333,0.333,1,0.333,0.333,0.333,1","1,0.333,0.333,0.333,1,0.333,0.333,0.333,1","1",""
"","html-keyboard-response","231","77543","0.0-231.0","34HJIJKLP6I86G0SKDF9MO5EEW7V4V","AYLYY6ANK0URM","3PIOQ99R7Y8STPN46QFY0SD7JTFNU0","","null","<img src=""img/flower5.png"" style=""width:200px; border:14px solid green;"">","null","","","","","","","","",""
"","image-keyboard-response","232","77904","0.0-232.0","34HJIJKLP6I86G0SKDF9MO5EEW7V4V","AYLYY6ANK0URM","3PIOQ99R7Y8STPN46QFY0SD7JTFNU0","","360","img/flower2.png","75","360.5","2","0","1","1","1,0.333,0.333,0.333,1,0.333,0.333,0.333,1","1,0.333,0.333,0.333,1,0.333,0.333,0.333,1","1",""
"","html-keyboard-response","233","78206","0.0-233.0","34HJIJKLP6I86G0SKDF9MO5EEW7V4V","AYLYY6ANK0URM","3PIOQ99R7Y8STPN46QFY0SD7JTFNU0","","null","<img src=""img/flower2.png"" style=""width:200px;border:14px solid red;"">","null","","","","","","","","",""
"","image-keyboard-response","234","78531","0.0-234.0","34HJIJKLP6I86G0SKDF9MO5EEW7V4V","AYLYY6ANK0URM","3PIOQ99R7Y8STPN46QFY0SD7JTFNU0","","324.40000009536743","img/flower2.png","75","325","2","1","1","1","1,0.333,0.333,0.333,1,0.333,0.333,0.333,1","1,0.333,0.333,0.333,1,0.333,0.333,0.333,1","1",""
"","html-keyboard-response","235","78832","0.0-235.0","34HJIJKLP6I86G0SKDF9MO5EEW7V4V","AYLYY6ANK0URM","3PIOQ99R7Y8STPN46QFY0SD7JTFNU0","","null","<img src=""img/flower2.png"" style=""width:200px; border:14px solid green;"">","null","","","","","","","","",""
"","image-keyboard-response","236","79345","0.0-236.0","34HJIJKLP6I86G0SKDF9MO5EEW7V4V","AYLYY6ANK0URM","3PIOQ99R7Y8STPN46QFY0SD7JTFNU0","","512.6000001430511","img/flower4.png","74","513.4000000953674","1","1","3","1","1,0.333,0.333,0.333,1,0.333,0.333,0.333,1","1,0.333,0.333,0.333,1,0.333,0.333,0.333,1","1",""
"","html-keyboard-response","237","79647","0.0-237.0","34HJIJKLP6I86G0SKDF9MO5EEW7V4V","AYLYY6ANK0URM","3PIOQ99R7Y8STPN46QFY0SD7JTFNU0","","null","<img src=""img/flower4.png"" style=""width:200px; border:14px solid green;"">","null","","","","","","","","",""
"","image-keyboard-response","238","79835","0.0-238.0","34HJIJKLP6I86G0SKDF9MO5EEW7V4V","AYLYY6ANK0URM","3PIOQ99R7Y8STPN46QFY0SD7JTFNU0","","186.79999995231628","img/flower4.png","75","187.40000009536743","2","0","3","1","1,0.333,0.333,0.333,1,0.333,0.333,0.333,1","1,0.333,0.333,0.333,1,0.333,0.333,0.333,1","1",""
"","html-keyboard-response","239","80136","0.0-239.0","34HJIJKLP6I86G0SKDF9MO5EEW7V4V","AYLYY6ANK0URM","3PIOQ99R7Y8STPN46QFY0SD7JTFNU0","","null","<img src=""img/flower4.png"" style=""width:200px;border:14px solid red;"">","null","","","","","","","","",""
"","image-keyboard-response","240","80618","0.0-240.0","34HJIJKLP6I86G0SKDF9MO5EEW7V4V","AYLYY6ANK0URM","3PIOQ99R7Y8STPN46QFY0SD7JTFNU0","","480.5","img/flower5.png","75","481.09999990463257","2","1","2","1","1,0.333,0.333,0.333,1,0.333,0.333,0.333,1","1,0.333,0.333,0.333,1,0.333,0.333,0.333,1","1",""
"","html-keyboard-response","241","80919","0.0-241.0","34HJIJKLP6I86G0SKDF9MO5EEW7V4V","AYLYY6ANK0URM","3PIOQ99R7Y8STPN46QFY0SD7JTFNU0","","null","<img src=""img/flower5.png"" style=""width:200px; border:14px solid green;"">","null","","","","","","","","",""
"","image-keyboard-response","242","81200","0.0-242.0","34HJIJKLP6I86G0SKDF9MO5EEW7V4V","AYLYY6ANK0URM","3PIOQ99R7Y8STPN46QFY0SD7JTFNU0","","280.7999999523163","img/flower2.png","75","281.2999999523163","2","1","1","1","1,0.333,0.333,0.333,1,0.333,0.333,0.333,1","1,0.333,0.333,0.333,1,0.333,0.333,0.333,1","1",""
"","html-keyboard-response","243","81503","0.0-243.0","34HJIJKLP6I86G0SKDF9MO5EEW7V4V","AYLYY6ANK0URM","3PIOQ99R7Y8STPN46QFY0SD7JTFNU0","","null","<img src=""img/flower2.png"" style=""width:200px; border:14px solid green;"">","null","","","","","","","","",""
"","image-keyboard-response","244","81792","0.0-244.0","34HJIJKLP6I86G0SKDF9MO5EEW7V4V","AYLYY6ANK0URM","3PIOQ99R7Y8STPN46QFY0SD7JTFNU0","","288.19999980926514","img/flower2.png","75","288.7000000476837","2","1","1","1","1,0.333,0.333,0.333,1,0.333,0.333,0.333,1","1,0.333,0.333,0.333,1,0.333,0.333,0.333,1","1",""
"","html-keyboard-response","245","82092","0.0-245.0","34HJIJKLP6I86G0SKDF9MO5EEW7V4V","AYLYY6ANK0URM","3PIOQ99R7Y8STPN46QFY0SD7JTFNU0","","null","<img src=""img/flower2.png"" style=""width:200px; border:14px solid green;"">","null","","","","","","","","",""
"","image-keyboard-response","246","82374","0.0-246.0","34HJIJKLP6I86G0SKDF9MO5EEW7V4V","AYLYY6ANK0URM","3PIOQ99R7Y8STPN46QFY0SD7JTFNU0","","280.2999999523163","img/flower2.png","75","281.09999990463257","2","0","1","1","1,0.333,0.333,0.333,1,0.333,0.333,0.333,1","1,0.333,0.333,0.333,1,0.333,0.333,0.333,1","1",""
"","html-keyboard-response","247","82689","0.0-247.0","34HJIJKLP6I86G0SKDF9MO5EEW7V4V","AYLYY6ANK0URM","3PIOQ99R7Y8STPN46QFY0SD7JTFNU0","","null","<img src=""img/flower2.png"" style=""width:200px;border:14px solid red;"">","null","","","","","","","","",""
"","image-keyboard-response","248","83064","0.0-248.0","34HJIJKLP6I86G0SKDF9MO5EEW7V4V","AYLYY6ANK0URM","3PIOQ99R7Y8STPN46QFY0SD7JTFNU0","","373.2000000476837","img/flower2.png","75","373.89999985694885","2","0","1","1","1,0.333,0.333,0.333,1,0.333,0.333,0.333,1","1,0.333,0.333,0.333,1,0.333,0.333,0.333,1","1",""
"","html-keyboard-response","249","83366","0.0-249.0","34HJIJKLP6I86G0SKDF9MO5EEW7V4V","AYLYY6ANK0URM","3PIOQ99R7Y8STPN46QFY0SD7JTFNU0","","null","<img src=""img/flower2.png"" style=""width:200px;border:14px solid red;"">","null","","","","","","","","",""
"","image-keyboard-response","250","83632","0.0-250.0","34HJIJKLP6I86G0SKDF9MO5EEW7V4V","AYLYY6ANK0URM","3PIOQ99R7Y8STPN46QFY0SD7JTFNU0","","265.90000009536743","img/flower2.png","75","266.2999999523163","2","0","1","1","1,0.333,0.333,0.333,1,0.333,0.333,0.333,1","1,0.333,0.333,0.333,1,0.333,0.333,0.333,1","1",""
"","html-keyboard-response","251","83934","0.0-251.0","34HJIJKLP6I86G0SKDF9MO5EEW7V4V","AYLYY6ANK0URM","3PIOQ99R7Y8STPN46QFY0SD7JTFNU0","","null","<img src=""img/flower2.png"" style=""width:200px;border:14px solid red;"">","null","","","","","","","","",""
"","image-keyboard-response","252","84386","0.0-252.0","34HJIJKLP6I86G0SKDF9MO5EEW7V4V","AYLYY6ANK0URM","3PIOQ99R7Y8STPN46QFY0SD7JTFNU0","","451.89999985694885","img/flower5.png","75","452.5","2","1","2","1","1,0.333,0.333,0.333,1,0.333,0.333,0.333,1","1,0.333,0.333,0.333,1,0.333,0.333,0.333,1","1",""
"","html-keyboard-response","253","84688","0.0-253.0","34HJIJKLP6I86G0SKDF9MO5EEW7V4V","AYLYY6ANK0URM","3PIOQ99R7Y8STPN46QFY0SD7JTFNU0","","null","<img src=""img/flower5.png"" style=""width:200px; border:14px solid green;"">","null","","","","","","","","",""
"","image-keyboard-response","254","85037","0.0-254.0","34HJIJKLP6I86G0SKDF9MO5EEW7V4V","AYLYY6ANK0URM","3PIOQ99R7Y8STPN46QFY0SD7JTFNU0","","348.2000000476837","img/flower5.png","75","348.7999999523163","2","1","2","1","1,0.333,0.333,0.333,1,0.333,0.333,0.333,1","1,0.333,0.333,0.333,1,0.333,0.333,0.333,1","1",""
"","html-keyboard-response","255","85339","0.0-255.0","34HJIJKLP6I86G0SKDF9MO5EEW7V4V","AYLYY6ANK0URM","3PIOQ99R7Y8STPN46QFY0SD7JTFNU0","","null","<img src=""img/flower5.png"" style=""width:200px; border:14px solid green;"">","null","","","","","","","","",""
"","image-keyboard-response","256","85666","0.0-256.0","34HJIJKLP6I86G0SKDF9MO5EEW7V4V","AYLYY6ANK0URM","3PIOQ99R7Y8STPN46QFY0SD7JTFNU0","","326.10000014305115","img/flower5.png","75","326.90000009536743","2","1","2","1","1,0.333,0.333,0.333,1,0.333,0.333,0.333,1","1,0.333,0.333,0.333,1,0.333,0.333,0.333,1","1",""
"","html-keyboard-response","257","85968","0.0-257.0","34HJIJKLP6I86G0SKDF9MO5EEW7V4V","AYLYY6ANK0URM","3PIOQ99R7Y8STPN46QFY0SD7JTFNU0","","null","<img src=""img/flower5.png"" style=""width:200px; border:14px solid green;"">","null","","","","","","","","",""
"","image-keyboard-response","258","86488","0.0-258.0","34HJIJKLP6I86G0SKDF9MO5EEW7V4V","AYLYY6ANK0URM","3PIOQ99R7Y8STPN46QFY0SD7JTFNU0","","519.4000000953674","img/flower4.png","75","519.8999998569489","2","0","3","1","1,0.333,0.333,0.333,1,0.333,0.333,0.333,1","1,0.333,0.333,0.333,1,0.333,0.333,0.333,1","1",""
"","html-keyboard-response","259","86789","0.0-259.0","34HJIJKLP6I86G0SKDF9MO5EEW7V4V","AYLYY6ANK0URM","3PIOQ99R7Y8STPN46QFY0SD7JTFNU0","","null","<img src=""img/flower4.png"" style=""width:200px;border:14px solid red;"">","null","","","","","","","","",""
"","image-keyboard-response","260","87284","0.0-260.0","34HJIJKLP6I86G0SKDF9MO5EEW7V4V","AYLYY6ANK0URM","3PIOQ99R7Y8STPN46QFY0SD7JTFNU0","","494","img/flower5.png","75","494.40000009536743","2","1","2","1","1,0.333,0.333,0.333,1,0.333,0.333,0.333,1","1,0.333,0.333,0.333,1,0.333,0.333,0.333,1","1",""
"","html-keyboard-response","261","87585","0.0-261.0","34HJIJKLP6I86G0SKDF9MO5EEW7V4V","AYLYY6ANK0URM","3PIOQ99R7Y8STPN46QFY0SD7JTFNU0","","null","<img src=""img/flower5.png"" style=""width:200px; border:14px solid green;"">","null","","","","","","","","",""
"","image-keyboard-response","262","88068","0.0-262.0","34HJIJKLP6I86G0SKDF9MO5EEW7V4V","AYLYY6ANK0URM","3PIOQ99R7Y8STPN46QFY0SD7JTFNU0","","481.90000009536743","img/flower2.png","74","482.39999985694885","1","1","1","1","1,0.333,0.333,0.333,1,0.333,0.333,0.333,1","1,0.333,0.333,0.333,1,0.333,0.333,0.333,1","1",""
"","html-keyboard-response","263","88370","0.0-263.0","34HJIJKLP6I86G0SKDF9MO5EEW7V4V","AYLYY6ANK0URM","3PIOQ99R7Y8STPN46QFY0SD7JTFNU0","","null","<img src=""img/flower2.png"" style=""width:200px; border:14px solid green;"">","null","","","","","","","","",""
"","image-keyboard-response","264","88709","0.0-264.0","34HJIJKLP6I86G0SKDF9MO5EEW7V4V","AYLYY6ANK0URM","3PIOQ99R7Y8STPN46QFY0SD7JTFNU0","","338.7000000476837","img/flower4.png","75","339.2999999523163","2","1","3","1","1,0.333,0.333,0.333,1,0.333,0.333,0.333,1","1,0.333,0.333,0.333,1,0.333,0.333,0.333,1","1",""
"","html-keyboard-response","265","89010","0.0-265.0","34HJIJKLP6I86G0SKDF9MO5EEW7V4V","AYLYY6ANK0URM","3PIOQ99R7Y8STPN46QFY0SD7JTFNU0","","null","<img src=""img/flower4.png"" style=""width:200px; border:14px solid green;"">","null","","","","","","","","",""
"","image-keyboard-response","266","89706","0.0-266.0","34HJIJKLP6I86G0SKDF9MO5EEW7V4V","AYLYY6ANK0URM","3PIOQ99R7Y8STPN46QFY0SD7JTFNU0","","695.1000001430511","img/flower2.png","75","695.5999999046326","2","0","1","1","1,0.333,0.333,0.333,1,0.333,0.333,0.333,1","1,0.333,0.333,0.333,1,0.333,0.333,0.333,1","1",""
"","html-keyboard-response","267","90008","0.0-267.0","34HJIJKLP6I86G0SKDF9MO5EEW7V4V","AYLYY6ANK0URM","3PIOQ99R7Y8STPN46QFY0SD7JTFNU0","","null","<img src=""img/flower2.png"" style=""width:200px;border:14px solid red;"">","null","","","","","","","","",""
"","image-keyboard-response","268","90578","0.0-268.0","34HJIJKLP6I86G0SKDF9MO5EEW7V4V","AYLYY6ANK0URM","3PIOQ99R7Y8STPN46QFY0SD7JTFNU0","","569","img/flower2.png","74","569.6999998092651","1","1","1","1","1,0.333,0.333,0.333,1,0.333,0.333,0.333,1","1,0.333,0.333,0.333,1,0.333,0.333,0.333,1","1",""
"","html-keyboard-response","269","90880","0.0-269.0","34HJIJKLP6I86G0SKDF9MO5EEW7V4V","AYLYY6ANK0URM","3PIOQ99R7Y8STPN46QFY0SD7JTFNU0","","null","<img src=""img/flower2.png"" style=""width:200px; border:14px solid green;"">","null","","","","","","","","",""
"","image-keyboard-response","270","91240","0.0-270.0","34HJIJKLP6I86G0SKDF9MO5EEW7V4V","AYLYY6ANK0URM","3PIOQ99R7Y8STPN46QFY0SD7JTFNU0","","360.19999980926514","img/flower2.png","74","360.7999999523163","1","1","1","1","1,0.333,0.333,0.333,1,0.333,0.333,0.333,1","1,0.333,0.333,0.333,1,0.333,0.333,0.333,1","1",""
"","html-keyboard-response","271","91542","0.0-271.0","34HJIJKLP6I86G0SKDF9MO5EEW7V4V","AYLYY6ANK0URM","3PIOQ99R7Y8STPN46QFY0SD7JTFNU0","","null","<img src=""img/flower2.png"" style=""width:200px; border:14px solid green;"">","null","","","","","","","","",""
"","image-keyboard-response","272","92265","0.0-272.0","34HJIJKLP6I86G0SKDF9MO5EEW7V4V","AYLYY6ANK0URM","3PIOQ99R7Y8STPN46QFY0SD7JTFNU0","","722.4000000953674","img/flower5.png","75","723","2","1","2","1","1,0.333,0.333,0.333,1,0.333,0.333,0.333,1","1,0.333,0.333,0.333,1,0.333,0.333,0.333,1","1",""
"","html-keyboard-response","273","92567","0.0-273.0","34HJIJKLP6I86G0SKDF9MO5EEW7V4V","AYLYY6ANK0URM","3PIOQ99R7Y8STPN46QFY0SD7JTFNU0","","null","<img src=""img/flower5.png"" style=""width:200px; border:14px solid green;"">","null","","","","","","","","",""
"","image-keyboard-response","274","93098","0.0-274.0","34HJIJKLP6I86G0SKDF9MO5EEW7V4V","AYLYY6ANK0URM","3PIOQ99R7Y8STPN46QFY0SD7JTFNU0","","531","img/flower4.png","74","531.5","1","0","3","1","1,0.333,0.333,0.333,1,0.333,0.333,0.333,1","1,0.333,0.333,0.333,1,0.333,0.333,0.333,1","1",""
"","html-keyboard-response","275","93400","0.0-275.0","34HJIJKLP6I86G0SKDF9MO5EEW7V4V","AYLYY6ANK0URM","3PIOQ99R7Y8STPN46QFY0SD7JTFNU0","","null","<img src=""img/flower4.png"" style=""width:200px;border:14px solid red;"">","null","","","","","","","","",""
"","image-keyboard-response","276","93696","0.0-276.0","34HJIJKLP6I86G0SKDF9MO5EEW7V4V","AYLYY6ANK0URM","3PIOQ99R7Y8STPN46QFY0SD7JTFNU0","","294.7999999523163","img/flower2.png","75","295.5","2","1","1","1","1,0.333,0.333,0.333,1,0.333,0.333,0.333,1","1,0.333,0.333,0.333,1,0.333,0.333,0.333,1","1",""
"","html-keyboard-response","277","94001","0.0-277.0","34HJIJKLP6I86G0SKDF9MO5EEW7V4V","AYLYY6ANK0URM","3PIOQ99R7Y8STPN46QFY0SD7JTFNU0","","null","<img src=""img/flower2.png"" style=""width:200px; border:14px solid green;"">","null","","","","","","","","",""
"","image-keyboard-response","278","94877","0.0-278.0","34HJIJKLP6I86G0SKDF9MO5EEW7V4V","AYLYY6ANK0URM","3PIOQ99R7Y8STPN46QFY0SD7JTFNU0","","874.5","img/flower5.png","75","875.0999999046326","2","1","2","1","1,0.333,0.333,0.333,1,0.333,0.333,0.333,1","1,0.333,0.333,0.333,1,0.333,0.333,0.333,1","1",""
"","html-keyboard-response","279","95179","0.0-279.0","34HJIJKLP6I86G0SKDF9MO5EEW7V4V","AYLYY6ANK0URM","3PIOQ99R7Y8STPN46QFY0SD7JTFNU0","","null","<img src=""img/flower5.png"" style=""width:200px; border:14px solid green;"">","null","","","","","","","","",""
"","image-keyboard-response","280","95724","0.0-280.0","34HJIJKLP6I86G0SKDF9MO5EEW7V4V","AYLYY6ANK0URM","3PIOQ99R7Y8STPN46QFY0SD7JTFNU0","","544.2000000476837","img/flower4.png","76","544.8000001907349","3","1","3","1","1,0.333,0.333,0.333,1,0.333,0.333,0.333,1","1,0.333,0.333,0.333,1,0.333,0.333,0.333,1","1",""
"","html-keyboard-response","281","96025","0.0-281.0","34HJIJKLP6I86G0SKDF9MO5EEW7V4V","AYLYY6ANK0URM","3PIOQ99R7Y8STPN46QFY0SD7JTFNU0","","null","<img src=""img/flower4.png"" style=""width:200px; border:14px solid green;"">","null","","","","","","","","",""
"","image-keyboard-response","282","96487","0.0-282.0","34HJIJKLP6I86G0SKDF9MO5EEW7V4V","AYLYY6ANK0URM","3PIOQ99R7Y8STPN46QFY0SD7JTFNU0","","460.7000000476837","img/flower5.png","75","461.5","2","1","2","1","1,0.333,0.333,0.333,1,0.333,0.333,0.333,1","1,0.333,0.333,0.333,1,0.333,0.333,0.333,1","1",""
"","html-keyboard-response","283","96788","0.0-283.0","34HJIJKLP6I86G0SKDF9MO5EEW7V4V","AYLYY6ANK0URM","3PIOQ99R7Y8STPN46QFY0SD7JTFNU0","","null","<img src=""img/flower5.png"" style=""width:200px; border:14px solid green;"">","null","","","","","","","","",""
"","image-keyboard-response","284","97194","0.0-284.0","34HJIJKLP6I86G0SKDF9MO5EEW7V4V","AYLYY6ANK0URM","3PIOQ99R7Y8STPN46QFY0SD7JTFNU0","","405.5","img/flower4.png","76","406.2000000476837","3","1","3","1","1,0.333,0.333,0.333,1,0.333,0.333,0.333,1","1,0.333,0.333,0.333,1,0.333,0.333,0.333,1","1",""
"","html-keyboard-response","285","97495","0.0-285.0","34HJIJKLP6I86G0SKDF9MO5EEW7V4V","AYLYY6ANK0URM","3PIOQ99R7Y8STPN46QFY0SD7JTFNU0","","null","<img src=""img/flower4.png"" style=""width:200px; border:14px solid green;"">","null","","","","","","","","",""
"","image-keyboard-response","286","98058","0.0-286.0","34HJIJKLP6I86G0SKDF9MO5EEW7V4V","AYLYY6ANK0URM","3PIOQ99R7Y8STPN46QFY0SD7JTFNU0","","562.2000000476837","img/flower2.png","74","562.7999999523163","1","1","1","1","1,0.333,0.333,0.333,1,0.333,0.333,0.333,1","1,0.333,0.333,0.333,1,0.333,0.333,0.333,1","1",""
"","html-keyboard-response","287","98369","0.0-287.0","34HJIJKLP6I86G0SKDF9MO5EEW7V4V","AYLYY6ANK0URM","3PIOQ99R7Y8STPN46QFY0SD7JTFNU0","","null","<img src=""img/flower2.png"" style=""width:200px; border:14px solid green;"">","null","","","","","","","","",""
"","image-keyboard-response","288","99101","0.0-288.0","34HJIJKLP6I86G0SKDF9MO5EEW7V4V","AYLYY6ANK0URM","3PIOQ99R7Y8STPN46QFY0SD7JTFNU0","","730.5999999046326","img/flower4.png","76","731.5999999046326","3","1","3","1","1,0.333,0.333,0.333,1,0.333,0.333,0.333,1","1,0.333,0.333,0.333,1,0.333,0.333,0.333,1","1",""
"","html-keyboard-response","289","99403","0.0-289.0","34HJIJKLP6I86G0SKDF9MO5EEW7V4V","AYLYY6ANK0URM","3PIOQ99R7Y8STPN46QFY0SD7JTFNU0","","null","<img src=""img/flower4.png"" style=""width:200px; border:14px solid green;"">","null","","","","","","","","",""
"","image-keyboard-response","290","99879","0.0-290.0","34HJIJKLP6I86G0SKDF9MO5EEW7V4V","AYLYY6ANK0URM","3PIOQ99R7Y8STPN46QFY0SD7JTFNU0","","475.2000000476837","img/flower4.png","76","476","3","1","3","1","1,0.333,0.333,0.333,1,0.333,0.333,0.333,1","1,0.333,0.333,0.333,1,0.333,0.333,0.333,1","1",""
"","html-keyboard-response","291","100181","0.0-291.0","34HJIJKLP6I86G0SKDF9MO5EEW7V4V","AYLYY6ANK0URM","3PIOQ99R7Y8STPN46QFY0SD7JTFNU0","","null","<img src=""img/flower4.png"" style=""width:200px; border:14px solid green;"">","null","","","","","","","","",""
"","image-keyboard-response","292","100806","0.0-292.0","34HJIJKLP6I86G0SKDF9MO5EEW7V4V","AYLYY6ANK0URM","3PIOQ99R7Y8STPN46QFY0SD7JTFNU0","","623.9000000953674","img/flower5.png","75","624.5","2","1","2","1","1,0.333,0.333,0.333,1,0.333,0.333,0.333,1","1,0.333,0.333,0.333,1,0.333,0.333,0.333,1","1",""
"","html-keyboard-response","293","101106","0.0-293.0","34HJIJKLP6I86G0SKDF9MO5EEW7V4V","AYLYY6ANK0URM","3PIOQ99R7Y8STPN46QFY0SD7JTFNU0","","null","<img src=""img/flower5.png"" style=""width:200px; border:14px solid green;"">","null","","","","","","","","",""
"","image-keyboard-response","294","101678","0.0-294.0","34HJIJKLP6I86G0SKDF9MO5EEW7V4V","AYLYY6ANK0URM","3PIOQ99R7Y8STPN46QFY0SD7JTFNU0","","570.7999999523163","img/flower2.png","74","571.4000000953674","1","1","1","1","1,0.333,0.333,0.333,1,0.333,0.333,0.333,1","1,0.333,0.333,0.333,1,0.333,0.333,0.333,1","1",""
"","html-keyboard-response","295","101979","0.0-295.0","34HJIJKLP6I86G0SKDF9MO5EEW7V4V","AYLYY6ANK0URM","3PIOQ99R7Y8STPN46QFY0SD7JTFNU0","","null","<img src=""img/flower2.png"" style=""width:200px; border:14px solid green;"">","null","","","","","","","","",""
"","image-keyboard-response","296","102516","0.0-296.0","34HJIJKLP6I86G0SKDF9MO5EEW7V4V","AYLYY6ANK0URM","3PIOQ99R7Y8STPN46QFY0SD7JTFNU0","","536.2999999523163","img/flower4.png","76","536.7999999523163","3","1","3","1","1,0.333,0.333,0.333,1,0.333,0.333,0.333,1","1,0.333,0.333,0.333,1,0.333,0.333,0.333,1","1",""
"","html-keyboard-response","297","102817","0.0-297.0","34HJIJKLP6I86G0SKDF9MO5EEW7V4V","AYLYY6ANK0URM","3PIOQ99R7Y8STPN46QFY0SD7JTFNU0","","null","<img src=""img/flower4.png"" style=""width:200px; border:14px solid green;"">","null","","","","","","","","",""
"","image-keyboard-response","298","103400","0.0-298.0","34HJIJKLP6I86G0SKDF9MO5EEW7V4V","AYLYY6ANK0URM","3PIOQ99R7Y8STPN46QFY0SD7JTFNU0","","581.7000000476837","img/flower2.png","74","582.2999999523163","1","1","1","1","1,0.333,0.333,0.333,1,0.333,0.333,0.333,1","1,0.333,0.333,0.333,1,0.333,0.333,0.333,1","1",""
"","html-keyboard-response","299","103702","0.0-299.0","34HJIJKLP6I86G0SKDF9MO5EEW7V4V","AYLYY6ANK0URM","3PIOQ99R7Y8STPN46QFY0SD7JTFNU0","","null","<img src=""img/flower2.png"" style=""width:200px; border:14px solid green;"">","null","","","","","","","","",""
"","image-keyboard-response","300","104265","0.0-300.0","34HJIJKLP6I86G0SKDF9MO5EEW7V4V","AYLYY6ANK0URM","3PIOQ99R7Y8STPN46QFY0SD7JTFNU0","","563.1000001430511","img/flower5.png","75","563.5999999046326","2","1","2","1","1,0.333,0.333,0.333,1,0.333,0.333,0.333,1","1,0.333,0.333,0.333,1,0.333,0.333,0.333,1","1",""
"","html-keyboard-response","301","104567","0.0-301.0","34HJIJKLP6I86G0SKDF9MO5EEW7V4V","AYLYY6ANK0URM","3PIOQ99R7Y8STPN46QFY0SD7JTFNU0","","null","<img src=""img/flower5.png"" style=""width:200px; border:14px solid green;"">","null","","","","","","","","",""
"","image-keyboard-response","302","105019","0.0-302.0","34HJIJKLP6I86G0SKDF9MO5EEW7V4V","AYLYY6ANK0URM","3PIOQ99R7Y8STPN46QFY0SD7JTFNU0","","451.7000000476837","img/flower5.png","75","452.2999999523163","2","1","2","1","1,0.333,0.333,0.333,1,0.333,0.333,0.333,1","1,0.333,0.333,0.333,1,0.333,0.333,0.333,1","1",""
"","html-keyboard-response","303","105334","0.0-303.0","34HJIJKLP6I86G0SKDF9MO5EEW7V4V","AYLYY6ANK0URM","3PIOQ99R7Y8STPN46QFY0SD7JTFNU0","","null","<img src=""img/flower5.png"" style=""width:200px; border:14px solid green;"">","null","","","","","","","","",""
"","image-keyboard-response","304","105698","0.0-304.0","34HJIJKLP6I86G0SKDF9MO5EEW7V4V","AYLYY6ANK0URM","3PIOQ99R7Y8STPN46QFY0SD7JTFNU0","","363.7000000476837","img/flower5.png","75","364.2000000476837","2","1","2","1","1,0.333,0.333,0.333,1,0.333,0.333,0.333,1","1,0.333,0.333,0.333,1,0.333,0.333,0.333,1","1",""
"","html-keyboard-response","305","105999","0.0-305.0","34HJIJKLP6I86G0SKDF9MO5EEW7V4V","AYLYY6ANK0URM","3PIOQ99R7Y8STPN46QFY0SD7JTFNU0","","null","<img src=""img/flower5.png"" style=""width:200px; border:14px solid green;"">","null","","","","","","","","",""
"","image-keyboard-response","306","106890","0.0-306.0","34HJIJKLP6I86G0SKDF9MO5EEW7V4V","AYLYY6ANK0URM","3PIOQ99R7Y8STPN46QFY0SD7JTFNU0","","890.5","img/flower2.png","74","890.8999998569489","1","1","1","1","1,0.333,0.333,0.333,1,0.333,0.333,0.333,1","1,0.333,0.333,0.333,1,0.333,0.333,0.333,1","1",""
"","html-keyboard-response","307","107191","0.0-307.0","34HJIJKLP6I86G0SKDF9MO5EEW7V4V","AYLYY6ANK0URM","3PIOQ99R7Y8STPN46QFY0SD7JTFNU0","","null","<img src=""img/flower2.png"" style=""width:200px; border:14px solid green;"">","null","","","","","","","","",""
"","image-keyboard-response","308","107582","0.0-308.0","34HJIJKLP6I86G0SKDF9MO5EEW7V4V","AYLYY6ANK0URM","3PIOQ99R7Y8STPN46QFY0SD7JTFNU0","","389.80000019073486","img/flower2.png","74","390.40000009536743","1","1","1","1","1,0.333,0.333,0.333,1,0.333,0.333,0.333,1","1,0.333,0.333,0.333,1,0.333,0.333,0.333,1","1",""
"","html-keyboard-response","309","107883","0.0-309.0","34HJIJKLP6I86G0SKDF9MO5EEW7V4V","AYLYY6ANK0URM","3PIOQ99R7Y8STPN46QFY0SD7JTFNU0","","null","<img src=""img/flower2.png"" style=""width:200px; border:14px solid green;"">","null","","","","","","","","",""
"","image-keyboard-response","310","108495","0.0-310.0","34HJIJKLP6I86G0SKDF9MO5EEW7V4V","AYLYY6ANK0URM","3PIOQ99R7Y8STPN46QFY0SD7JTFNU0","","611","img/flower5.png","75","611.7000000476837","2","1","2","1","1,0.333,0.333,0.333,1,0.333,0.333,0.333,1","1,0.333,0.333,0.333,1,0.333,0.333,0.333,1","1",""
"","html-keyboard-response","311","108796","0.0-311.0","34HJIJKLP6I86G0SKDF9MO5EEW7V4V","AYLYY6ANK0URM","3PIOQ99R7Y8STPN46QFY0SD7JTFNU0","","null","<img src=""img/flower5.png"" style=""width:200px; border:14px solid green;"">","null","","","","","","","","",""
"","image-keyboard-response","312","109237","0.0-312.0","34HJIJKLP6I86G0SKDF9MO5EEW7V4V","AYLYY6ANK0URM","3PIOQ99R7Y8STPN46QFY0SD7JTFNU0","","440","img/flower4.png","76","440.7000000476837","3","1","3","1","1,0.333,0.333,0.333,1,0.333,0.333,0.333,1","1,0.333,0.333,0.333,1,0.333,0.333,0.333,1","1",""
"","html-keyboard-response","313","109539","0.0-313.0","34HJIJKLP6I86G0SKDF9MO5EEW7V4V","AYLYY6ANK0URM","3PIOQ99R7Y8STPN46QFY0SD7JTFNU0","","null","<img src=""img/flower4.png"" style=""width:200px; border:14px solid green;"">","null","","","","","","","","",""
"","image-keyboard-response","314","110108","0.0-314.0","34HJIJKLP6I86G0SKDF9MO5EEW7V4V","AYLYY6ANK0URM","3PIOQ99R7Y8STPN46QFY0SD7JTFNU0","","568.9000000953674","img/flower2.png","74","569.5","1","1","1","1","1,0.333,0.333,0.333,1,0.333,0.333,0.333,1","1,0.333,0.333,0.333,1,0.333,0.333,0.333,1","1",""
"","html-keyboard-response","315","110410","0.0-315.0","34HJIJKLP6I86G0SKDF9MO5EEW7V4V","AYLYY6ANK0URM","3PIOQ99R7Y8STPN46QFY0SD7JTFNU0","","null","<img src=""img/flower2.png"" style=""width:200px; border:14px solid green;"">","null","","","","","","","","",""
"","image-keyboard-response","316","111022","0.0-316.0","34HJIJKLP6I86G0SKDF9MO5EEW7V4V","AYLYY6ANK0URM","3PIOQ99R7Y8STPN46QFY0SD7JTFNU0","","612.3999998569489","img/flower5.png","75","612.7999999523163","2","1","2","1","1,0.333,0.333,0.333,1,0.333,0.333,0.333,1","1,0.333,0.333,0.333,1,0.333,0.333,0.333,1","1",""
"","html-keyboard-response","317","111324","0.0-317.0","34HJIJKLP6I86G0SKDF9MO5EEW7V4V","AYLYY6ANK0URM","3PIOQ99R7Y8STPN46QFY0SD7JTFNU0","","null","<img src=""img/flower5.png"" style=""width:200px; border:14px solid green;"">","null","","","","","","","","",""
"","image-keyboard-response","318","111814","0.0-318.0","34HJIJKLP6I86G0SKDF9MO5EEW7V4V","AYLYY6ANK0URM","3PIOQ99R7Y8STPN46QFY0SD7JTFNU0","","489.2000000476837","img/flower2.png","74","489.60000014305115","1","1","1","1","1,0.333,0.333,0.333,1,0.333,0.333,0.333,1","1,0.333,0.333,0.333,1,0.333,0.333,0.333,1","1",""
"","html-keyboard-response","319","112116","0.0-319.0","34HJIJKLP6I86G0SKDF9MO5EEW7V4V","AYLYY6ANK0URM","3PIOQ99R7Y8STPN46QFY0SD7JTFNU0","","null","<img src=""img/flower2.png"" style=""width:200px; border:14px solid green;"">","null","","","","","","","","",""
"","image-keyboard-response","320","112582","0.0-320.0","34HJIJKLP6I86G0SKDF9MO5EEW7V4V","AYLYY6ANK0URM","3PIOQ99R7Y8STPN46QFY0SD7JTFNU0","","464.7999999523163","img/flower2.png","74","465.5","1","1","1","1","1,0.333,0.333,0.333,1,0.333,0.333,0.333,1","1,0.333,0.333,0.333,1,0.333,0.333,0.333,1","1",""
"","html-keyboard-response","321","112884","0.0-321.0","34HJIJKLP6I86G0SKDF9MO5EEW7V4V","AYLYY6ANK0URM","3PIOQ99R7Y8STPN46QFY0SD7JTFNU0","","null","<img src=""img/flower2.png"" style=""width:200px; border:14px solid green;"">","null","","","","","","","","",""
"","image-keyboard-response","322","113405","0.0-322.0","34HJIJKLP6I86G0SKDF9MO5EEW7V4V","AYLYY6ANK0URM","3PIOQ99R7Y8STPN46QFY0SD7JTFNU0","","520.3999998569489","img/flower4.png","76","521","3","1","3","1","1,0.333,0.333,0.333,1,0.333,0.333,0.333,1","1,0.333,0.333,0.333,1,0.333,0.333,0.333,1","1",""
"","html-keyboard-response","323","113707","0.0-323.0","34HJIJKLP6I86G0SKDF9MO5EEW7V4V","AYLYY6ANK0URM","3PIOQ99R7Y8STPN46QFY0SD7JTFNU0","","null","<img src=""img/flower4.png"" style=""width:200px; border:14px solid green;"">","null","","","","","","","","",""
"","image-keyboard-response","324","114101","0.0-324.0","34HJIJKLP6I86G0SKDF9MO5EEW7V4V","AYLYY6ANK0URM","3PIOQ99R7Y8STPN46QFY0SD7JTFNU0","","393.60000014305115","img/flower4.png","76","394.19999980926514","3","1","3","1","1,0.333,0.333,0.333,1,0.333,0.333,0.333,1","1,0.333,0.333,0.333,1,0.333,0.333,0.333,1","1",""
"","html-keyboard-response","325","114415","0.0-325.0","34HJIJKLP6I86G0SKDF9MO5EEW7V4V","AYLYY6ANK0URM","3PIOQ99R7Y8STPN46QFY0SD7JTFNU0","","null","<img src=""img/flower4.png"" style=""width:200px; border:14px solid green;"">","null","","","","","","","","",""
"","image-keyboard-response","326","114770","0.0-326.0","34HJIJKLP6I86G0SKDF9MO5EEW7V4V","AYLYY6ANK0URM","3PIOQ99R7Y8STPN46QFY0SD7JTFNU0","","354.5","img/flower4.png","76","355.10000014305115","3","1","3","1","1,0.333,0.333,0.333,1,0.333,0.333,0.333,1","1,0.333,0.333,0.333,1,0.333,0.333,0.333,1","1",""
"","html-keyboard-response","327","115072","0.0-327.0","34HJIJKLP6I86G0SKDF9MO5EEW7V4V","AYLYY6ANK0URM","3PIOQ99R7Y8STPN46QFY0SD7JTFNU0","","null","<img src=""img/flower4.png"" style=""width:200px; border:14px solid green;"">","null","","","","","","","","",""
"","image-keyboard-response","328","115389","0.0-328.0","34HJIJKLP6I86G0SKDF9MO5EEW7V4V","AYLYY6ANK0URM","3PIOQ99R7Y8STPN46QFY0SD7JTFNU0","","316.40000009536743","img/flower4.png","76","316.89999985694885","3","1","3","1","1,0.333,0.333,0.333,1,0.333,0.333,0.333,1","1,0.333,0.333,0.333,1,0.333,0.333,0.333,1","1",""
"","html-keyboard-response","329","115691","0.0-329.0","34HJIJKLP6I86G0SKDF9MO5EEW7V4V","AYLYY6ANK0URM","3PIOQ99R7Y8STPN46QFY0SD7JTFNU0","","null","<img src=""img/flower4.png"" style=""width:200px; border:14px solid green;"">","null","","","","","","","","",""
"","image-keyboard-response","330","116368","0.0-330.0","34HJIJKLP6I86G0SKDF9MO5EEW7V4V","AYLYY6ANK0URM","3PIOQ99R7Y8STPN46QFY0SD7JTFNU0","","676.9000000953674","img/flower2.png","74","677.6000001430511","1","1","1","1","1,0.333,0.333,0.333,1,0.333,0.333,0.333,1","1,0.333,0.333,0.333,1,0.333,0.333,0.333,1","1",""
"","html-keyboard-response","331","116670","0.0-331.0","34HJIJKLP6I86G0SKDF9MO5EEW7V4V","AYLYY6ANK0URM","3PIOQ99R7Y8STPN46QFY0SD7JTFNU0","","null","<img src=""img/flower2.png"" style=""width:200px; border:14px solid green;"">","null","","","","","","","","",""
"","image-keyboard-response","332","117280","0.0-332.0","34HJIJKLP6I86G0SKDF9MO5EEW7V4V","AYLYY6ANK0URM","3PIOQ99R7Y8STPN46QFY0SD7JTFNU0","","609.2000000476837","img/flower5.png","75","609.7999999523163","2","1","2","1","1,0.333,0.333,0.333,1,0.333,0.333,0.333,1","1,0.333,0.333,0.333,1,0.333,0.333,0.333,1","1",""
"","html-keyboard-response","333","117581","0.0-333.0","34HJIJKLP6I86G0SKDF9MO5EEW7V4V","AYLYY6ANK0URM","3PIOQ99R7Y8STPN46QFY0SD7JTFNU0","","null","<img src=""img/flower5.png"" style=""width:200px; border:14px solid green;"">","null","","","","","","","","",""
"","image-keyboard-response","334","117926","0.0-334.0","34HJIJKLP6I86G0SKDF9MO5EEW7V4V","AYLYY6ANK0URM","3PIOQ99R7Y8STPN46QFY0SD7JTFNU0","","343.7000000476837","img/flower5.png","75","344.09999990463257","2","1","2","1","1,0.333,0.333,0.333,1,0.333,0.333,0.333,1","1,0.333,0.333,0.333,1,0.333,0.333,0.333,1","1",""
"","html-keyboard-response","335","118227","0.0-335.0","34HJIJKLP6I86G0SKDF9MO5EEW7V4V","AYLYY6ANK0URM","3PIOQ99R7Y8STPN46QFY0SD7JTFNU0","","null","<img src=""img/flower5.png"" style=""width:200px; border:14px solid green;"">","null","","","","","","","","",""
"","image-keyboard-response","336","118562","0.0-336.0","34HJIJKLP6I86G0SKDF9MO5EEW7V4V","AYLYY6ANK0URM","3PIOQ99R7Y8STPN46QFY0SD7JTFNU0","","334.09999990463257","img/flower5.png","75","334.80000019073486","2","1","2","1","1,0.333,0.333,0.333,1,0.333,0.333,0.333,1","1,0.333,0.333,0.333,1,0.333,0.333,0.333,1","1",""
"","html-keyboard-response","337","118863","0.0-337.0","34HJIJKLP6I86G0SKDF9MO5EEW7V4V","AYLYY6ANK0URM","3PIOQ99R7Y8STPN46QFY0SD7JTFNU0","","null","<img src=""img/flower5.png"" style=""width:200px; border:14px solid green;"">","null","","","","","","","","",""
"","image-keyboard-response","338","119199","0.0-338.0","34HJIJKLP6I86G0SKDF9MO5EEW7V4V","AYLYY6ANK0URM","3PIOQ99R7Y8STPN46QFY0SD7JTFNU0","","334.60000014305115","img/flower5.png","75","335.10000014305115","2","1","2","1","1,0.333,0.333,0.333,1,0.333,0.333,0.333,1","1,0.333,0.333,0.333,1,0.333,0.333,0.333,1","1",""
"","html-keyboard-response","339","119500","0.0-339.0","34HJIJKLP6I86G0SKDF9MO5EEW7V4V","AYLYY6ANK0URM","3PIOQ99R7Y8STPN46QFY0SD7JTFNU0","","null","<img src=""img/flower5.png"" style=""width:200px; border:14px solid green;"">","null","","","","","","","","",""
"","image-keyboard-response","340","119785","0.0-340.0","34HJIJKLP6I86G0SKDF9MO5EEW7V4V","AYLYY6ANK0URM","3PIOQ99R7Y8STPN46QFY0SD7JTFNU0","","284.5","img/flower2.png","75","285.2000000476837","2","0","1","1","1,0.333,0.333,0.333,1,0.333,0.333,0.333,1","1,0.333,0.333,0.333,1,0.333,0.333,0.333,1","1",""
"","html-keyboard-response","341","120087","0.0-341.0","34HJIJKLP6I86G0SKDF9MO5EEW7V4V","AYLYY6ANK0URM","3PIOQ99R7Y8STPN46QFY0SD7JTFNU0","","null","<img src=""img/flower2.png"" style=""width:200px;border:14px solid red;"">","null","","","","","","","","",""
"","image-keyboard-response","342","120573","0.0-342.0","34HJIJKLP6I86G0SKDF9MO5EEW7V4V","AYLYY6ANK0URM","3PIOQ99R7Y8STPN46QFY0SD7JTFNU0","","485","img/flower4.png","76","485.40000009536743","3","1","3","1","1,0.333,0.333,0.333,1,0.333,0.333,0.333,1","1,0.333,0.333,0.333,1,0.333,0.333,0.333,1","1",""
"","html-keyboard-response","343","120874","0.0-343.0","34HJIJKLP6I86G0SKDF9MO5EEW7V4V","AYLYY6ANK0URM","3PIOQ99R7Y8STPN46QFY0SD7JTFNU0","","null","<img src=""img/flower4.png"" style=""width:200px; border:14px solid green;"">","null","","","","","","","","",""
"","image-keyboard-response","344","121456","0.0-344.0","34HJIJKLP6I86G0SKDF9MO5EEW7V4V","AYLYY6ANK0URM","3PIOQ99R7Y8STPN46QFY0SD7JTFNU0","","581.3000001907349","img/flower2.png","74","581.7999999523163","1","1","1","1","1,0.333,0.333,0.333,1,0.333,0.333,0.333,1","1,0.333,0.333,0.333,1,0.333,0.333,0.333,1","1",""
"","html-keyboard-response","345","121758","0.0-345.0","34HJIJKLP6I86G0SKDF9MO5EEW7V4V","AYLYY6ANK0URM","3PIOQ99R7Y8STPN46QFY0SD7JTFNU0","","null","<img src=""img/flower2.png"" style=""width:200px; border:14px solid green;"">","null","","","","","","","","",""
"","image-keyboard-response","346","122151","0.0-346.0","34HJIJKLP6I86G0SKDF9MO5EEW7V4V","AYLYY6ANK0URM","3PIOQ99R7Y8STPN46QFY0SD7JTFNU0","","392.7000000476837","img/flower2.png","74","393.2999999523163","1","1","1","1","1,0.333,0.333,0.333,1,0.333,0.333,0.333,1","1,0.333,0.333,0.333,1,0.333,0.333,0.333,1","1",""
"","html-keyboard-response","347","122453","0.0-347.0","34HJIJKLP6I86G0SKDF9MO5EEW7V4V","AYLYY6ANK0URM","3PIOQ99R7Y8STPN46QFY0SD7JTFNU0","","null","<img src=""img/flower2.png"" style=""width:200px; border:14px solid green;"">","null","","","","","","","","",""
"","image-keyboard-response","348","123018","0.0-348.0","34HJIJKLP6I86G0SKDF9MO5EEW7V4V","AYLYY6ANK0URM","3PIOQ99R7Y8STPN46QFY0SD7JTFNU0","","565.2999999523163","img/flower4.png","76","565.7999999523163","3","1","3","1","1,0.333,0.333,0.333,1,0.333,0.333,0.333,1","1,0.333,0.333,0.333,1,0.333,0.333,0.333,1","1",""
"","html-keyboard-response","349","123321","0.0-349.0","34HJIJKLP6I86G0SKDF9MO5EEW7V4V","AYLYY6ANK0URM","3PIOQ99R7Y8STPN46QFY0SD7JTFNU0","","null","<img src=""img/flower4.png"" style=""width:200px; border:14px solid green;"">","null","","","","","","","","",""
"","image-keyboard-response","350","123954","0.0-350.0","34HJIJKLP6I86G0SKDF9MO5EEW7V4V","AYLYY6ANK0URM","3PIOQ99R7Y8STPN46QFY0SD7JTFNU0","","631.9000000953674","img/flower5.png","75","632.3999998569489","2","1","2","1","1,0.333,0.333,0.333,1,0.333,0.333,0.333,1","1,0.333,0.333,0.333,1,0.333,0.333,0.333,1","1",""
"","html-keyboard-response","351","124255","0.0-351.0","34HJIJKLP6I86G0SKDF9MO5EEW7V4V","AYLYY6ANK0URM","3PIOQ99R7Y8STPN46QFY0SD7JTFNU0","","null","<img src=""img/flower5.png"" style=""width:200px; border:14px solid green;"">","null","","","","","","","","",""
"","image-keyboard-response","352","125116","0.0-352.0","34HJIJKLP6I86G0SKDF9MO5EEW7V4V","AYLYY6ANK0URM","3PIOQ99R7Y8STPN46QFY0SD7JTFNU0","","860.0999999046326","img/flower4.png","76","860.5999999046326","3","1","3","1","1,0.333,0.333,0.333,1,0.333,0.333,0.333,1","1,0.333,0.333,0.333,1,0.333,0.333,0.333,1","1",""
"","html-keyboard-response","353","125418","0.0-353.0","34HJIJKLP6I86G0SKDF9MO5EEW7V4V","AYLYY6ANK0URM","3PIOQ99R7Y8STPN46QFY0SD7JTFNU0","","null","<img src=""img/flower4.png"" style=""width:200px; border:14px solid green;"">","null","","","","","","","","",""
"","image-keyboard-response","354","126534","0.0-354.0","34HJIJKLP6I86G0SKDF9MO5EEW7V4V","AYLYY6ANK0URM","3PIOQ99R7Y8STPN46QFY0SD7JTFNU0","","1116","img/flower2.png","74","1116.4000000953674","1","1","1","1","1,0.333,0.333,0.333,1,0.333,0.333,0.333,1","1,0.333,0.333,0.333,1,0.333,0.333,0.333,1","1",""
"","html-keyboard-response","355","126836","0.0-355.0","34HJIJKLP6I86G0SKDF9MO5EEW7V4V","AYLYY6ANK0URM","3PIOQ99R7Y8STPN46QFY0SD7JTFNU0","","null","<img src=""img/flower2.png"" style=""width:200px; border:14px solid green;"">","null","","","","","","","","",""
"","image-keyboard-response","356","127404","0.0-356.0","34HJIJKLP6I86G0SKDF9MO5EEW7V4V","AYLYY6ANK0URM","3PIOQ99R7Y8STPN46QFY0SD7JTFNU0","","567.2000000476837","img/flower4.png","76","567.8000001907349","3","1","3","1","1,0.333,0.333,0.333,1,0.333,0.333,0.333,1","1,0.333,0.333,0.333,1,0.333,0.333,0.333,1","1",""
"","html-keyboard-response","357","127705","0.0-357.0","34HJIJKLP6I86G0SKDF9MO5EEW7V4V","AYLYY6ANK0URM","3PIOQ99R7Y8STPN46QFY0SD7JTFNU0","","null","<img src=""img/flower4.png"" style=""width:200px; border:14px solid green;"">","null","","","","","","","","",""
"","image-keyboard-response","358","128170","0.0-358.0","34HJIJKLP6I86G0SKDF9MO5EEW7V4V","AYLYY6ANK0URM","3PIOQ99R7Y8STPN46QFY0SD7JTFNU0","","463.7000000476837","img/flower4.png","76","464.30000019073486","3","1","3","1","1,0.333,0.333,0.333,1,0.333,0.333,0.333,1","1,0.333,0.333,0.333,1,0.333,0.333,0.333,1","1",""
"","html-keyboard-response","359","128472","0.0-359.0","34HJIJKLP6I86G0SKDF9MO5EEW7V4V","AYLYY6ANK0URM","3PIOQ99R7Y8STPN46QFY0SD7JTFNU0","","null","<img src=""img/flower4.png"" style=""width:200px; border:14px solid green;"">","null","","","","","","","","",""
"","image-keyboard-response","360","129025","0.0-360.0","34HJIJKLP6I86G0SKDF9MO5EEW7V4V","AYLYY6ANK0URM","3PIOQ99R7Y8STPN46QFY0SD7JTFNU0","","552.1000001430511","img/flower5.png","75","552.9000000953674","2","1","2","1","1,0.333,0.333,0.333,1,0.333,0.333,0.333,1","1,0.333,0.333,0.333,1,0.333,0.333,0.333,1","1",""
"","html-keyboard-response","361","129327","0.0-361.0","34HJIJKLP6I86G0SKDF9MO5EEW7V4V","AYLYY6ANK0URM","3PIOQ99R7Y8STPN46QFY0SD7JTFNU0","","null","<img src=""img/flower5.png"" style=""width:200px; border:14px solid green;"">","null","","","","","","","","",""
"","html-keyboard-response","362","131580","0.0-362.0","34HJIJKLP6I86G0SKDF9MO5EEW7V4V","AYLYY6ANK0URM","3PIOQ99R7Y8STPN46QFY0SD7JTFNU0","","","","","","","","","","","","",""
"","instructions","363","132778","0.0-363.0","34HJIJKLP6I86G0SKDF9MO5EEW7V4V","AYLYY6ANK0URM","3PIOQ99R7Y8STPN46QFY0SD7JTFNU0","[{""page_index"":0,""viewing_time"":1197.1000001430511}]","1197.2000000476837","","","","","","","","","","",""
"","survey-text","364","136161","0.0-364.0","34HJIJKLP6I86G0SKDF9MO5EEW7V4V","AYLYY6ANK0URM","3PIOQ99R7Y8STPN46QFY0SD7JTFNU0","","3379.800000190735","","","","","","","","","","","{""Q0"":""AYLYY6ANK0URM""}"
