"success","trial_type","trial_index","time_elapsed","internal_node_id","assignmentID","mturkID","hitID","view_history","rt","stimulus","key_press","reactionTime","a","r","s","cond","reward_cond","reward_cond_actual","reward_matrix_idx","responses"
"true","fullscreen","0","5367","0.0-0.0","3UJ1CZ6IZIBAA7NO4NTEGTRLFV15SC","AZKFSYWVPF6JL","3P520RYKCHSO30HY2QJC6BDLS9Z5UE","","","","","","","","","","","","",""
"","instructions","1","20921","0.0-1.0","3UJ1CZ6IZIBAA7NO4NTEGTRLFV15SC","AZKFSYWVPF6JL","3P520RYKCHSO30HY2QJC6BDLS9Z5UE","[{""page_index"":0,""viewing_time"":1393.3999999761581},{""page_index"":1,""viewing_time"":1306},{""page_index"":2,""viewing_time"":1072},{""page_index"":3,""viewing_time"":1476},{""page_index"":4,""viewing_time"":2724},{""page_index"":5,""viewing_time"":1770},{""page_index"":6,""viewing_time"":4056},{""page_index"":7,""viewing_time"":1756}]","15553.599999964237","","","","","","","","","","",""
"","image-keyboard-response","2","21518","0.0-2.0","3UJ1CZ6IZIBAA7NO4NTEGTRLFV15SC","AZKFSYWVPF6JL","3P520RYKCHSO30HY2QJC6BDLS9Z5UE","","595.9000000357628","img/flower5.png","74","596.5","1","0","1","2","1,0,0,1,1,0,1,0,1","0,1,0,0,1,1,1,1,0","3",""
"","html-keyboard-response","3","21825","0.0-3.0","3UJ1CZ6IZIBAA7NO4NTEGTRLFV15SC","AZKFSYWVPF6JL","3P520RYKCHSO30HY2QJC6BDLS9Z5UE","","null","<img src=""img/flower5.png"" style=""width:200px;border:14px solid red;"">","null","","","","","","","","",""
"","image-keyboard-response","4","22662","0.0-4.0","3UJ1CZ6IZIBAA7NO4NTEGTRLFV15SC","AZKFSYWVPF6JL","3P520RYKCHSO30HY2QJC6BDLS9Z5UE","","836.1999999880791","img/flower4.png","75","836.6999999880791","2","1","3","2","1,0,0,1,1,0,1,0,1","0,1,0,0,1,1,1,1,0","3",""
"","html-keyboard-response","5","22971","0.0-5.0","3UJ1CZ6IZIBAA7NO4NTEGTRLFV15SC","AZKFSYWVPF6JL","3P520RYKCHSO30HY2QJC6BDLS9Z5UE","","null","<img src=""img/flower4.png"" style=""width:200px; border:14px solid green;"">","null","","","","","","","","",""
"","image-keyboard-response","6","23438","0.0-6.0","3UJ1CZ6IZIBAA7NO4NTEGTRLFV15SC","AZKFSYWVPF6JL","3P520RYKCHSO30HY2QJC6BDLS9Z5UE","","465.89999997615814","img/flower4.png","75","466.39999997615814","2","1","3","2","1,0,0,1,1,0,1,0,1","0,1,0,0,1,1,1,1,0","3",""
"","html-keyboard-response","7","23741","0.0-7.0","3UJ1CZ6IZIBAA7NO4NTEGTRLFV15SC","AZKFSYWVPF6JL","3P520RYKCHSO30HY2QJC6BDLS9Z5UE","","null","<img src=""img/flower4.png"" style=""width:200px; border:14px solid green;"">","null","","","","","","","","",""
"","image-keyboard-response","8","24494","0.0-8.0","3UJ1CZ6IZIBAA7NO4NTEGTRLFV15SC","AZKFSYWVPF6JL","3P520RYKCHSO30HY2QJC6BDLS9Z5UE","","751.7000000476837","img/flower5.png","76","752.1999999880791","3","0","1","2","1,0,0,1,1,0,1,0,1","0,1,0,0,1,1,1,1,0","3",""
"","html-keyboard-response","9","24801","0.0-9.0","3UJ1CZ6IZIBAA7NO4NTEGTRLFV15SC","AZKFSYWVPF6JL","3P520RYKCHSO30HY2QJC6BDLS9Z5UE","","null","<img src=""img/flower5.png"" style=""width:200px;border:14px solid red;"">","null","","","","","","","","",""
"","image-keyboard-response","10","25278","0.0-10.0","3UJ1CZ6IZIBAA7NO4NTEGTRLFV15SC","AZKFSYWVPF6JL","3P520RYKCHSO30HY2QJC6BDLS9Z5UE","","476.19999998807907","img/flower5.png","76","476.7999999523163","3","0","1","2","1,0,0,1,1,0,1,0,1","0,1,0,0,1,1,1,1,0","3",""
"","html-keyboard-response","11","25582","0.0-11.0","3UJ1CZ6IZIBAA7NO4NTEGTRLFV15SC","AZKFSYWVPF6JL","3P520RYKCHSO30HY2QJC6BDLS9Z5UE","","null","<img src=""img/flower5.png"" style=""width:200px;border:14px solid red;"">","null","","","","","","","","",""
"","image-keyboard-response","12","26422","0.0-12.0","3UJ1CZ6IZIBAA7NO4NTEGTRLFV15SC","AZKFSYWVPF6JL","3P520RYKCHSO30HY2QJC6BDLS9Z5UE","","838.6999999880791","img/flower6.png","74","839.1999999880791","1","0","2","2","1,0,0,1,1,0,1,0,1","0,1,0,0,1,1,1,1,0","3",""
"","html-keyboard-response","13","26725","0.0-13.0","3UJ1CZ6IZIBAA7NO4NTEGTRLFV15SC","AZKFSYWVPF6JL","3P520RYKCHSO30HY2QJC6BDLS9Z5UE","","null","<img src=""img/flower6.png"" style=""width:200px;border:14px solid red;"">","null","","","","","","","","",""
"","image-keyboard-response","14","27126","0.0-14.0","3UJ1CZ6IZIBAA7NO4NTEGTRLFV15SC","AZKFSYWVPF6JL","3P520RYKCHSO30HY2QJC6BDLS9Z5UE","","400.19999998807907","img/flower6.png","75","400.69999998807907","2","1","2","2","1,0,0,1,1,0,1,0,1","0,1,0,0,1,1,1,1,0","3",""
"","html-keyboard-response","15","27441","0.0-15.0","3UJ1CZ6IZIBAA7NO4NTEGTRLFV15SC","AZKFSYWVPF6JL","3P520RYKCHSO30HY2QJC6BDLS9Z5UE","","null","<img src=""img/flower6.png"" style=""width:200px; border:14px solid green;"">","null","","","","","","","","",""
"","image-keyboard-response","16","27862","0.0-16.0","3UJ1CZ6IZIBAA7NO4NTEGTRLFV15SC","AZKFSYWVPF6JL","3P520RYKCHSO30HY2QJC6BDLS9Z5UE","","419.80000001192093","img/flower6.png","75","420.2999999523163","2","1","2","2","1,0,0,1,1,0,1,0,1","0,1,0,0,1,1,1,1,0","3",""
"","html-keyboard-response","17","28177","0.0-17.0","3UJ1CZ6IZIBAA7NO4NTEGTRLFV15SC","AZKFSYWVPF6JL","3P520RYKCHSO30HY2QJC6BDLS9Z5UE","","null","<img src=""img/flower6.png"" style=""width:200px; border:14px solid green;"">","null","","","","","","","","",""
"","image-keyboard-response","18","28526","0.0-18.0","3UJ1CZ6IZIBAA7NO4NTEGTRLFV15SC","AZKFSYWVPF6JL","3P520RYKCHSO30HY2QJC6BDLS9Z5UE","","348.30000001192093","img/flower6.png","75","348.69999998807907","2","1","2","2","1,0,0,1,1,0,1,0,1","0,1,0,0,1,1,1,1,0","3",""
"","html-keyboard-response","19","28833","0.0-19.0","3UJ1CZ6IZIBAA7NO4NTEGTRLFV15SC","AZKFSYWVPF6JL","3P520RYKCHSO30HY2QJC6BDLS9Z5UE","","null","<img src=""img/flower6.png"" style=""width:200px; border:14px solid green;"">","null","","","","","","","","",""
"","image-keyboard-response","20","29334","0.0-20.0","3UJ1CZ6IZIBAA7NO4NTEGTRLFV15SC","AZKFSYWVPF6JL","3P520RYKCHSO30HY2QJC6BDLS9Z5UE","","500.30000001192093","img/flower4.png","75","500.7999999523163","2","1","3","2","1,0,0,1,1,0,1,0,1","0,1,0,0,1,1,1,1,0","3",""
"","html-keyboard-response","21","29644","0.0-21.0","3UJ1CZ6IZIBAA7NO4NTEGTRLFV15SC","AZKFSYWVPF6JL","3P520RYKCHSO30HY2QJC6BDLS9Z5UE","","null","<img src=""img/flower4.png"" style=""width:200px; border:14px solid green;"">","null","","","","","","","","",""
"","image-keyboard-response","22","29974","0.0-22.0","3UJ1CZ6IZIBAA7NO4NTEGTRLFV15SC","AZKFSYWVPF6JL","3P520RYKCHSO30HY2QJC6BDLS9Z5UE","","328.89999997615814","img/flower4.png","75","329.39999997615814","2","1","3","2","1,0,0,1,1,0,1,0,1","0,1,0,0,1,1,1,1,0","3",""
"","html-keyboard-response","23","30276","0.0-23.0","3UJ1CZ6IZIBAA7NO4NTEGTRLFV15SC","AZKFSYWVPF6JL","3P520RYKCHSO30HY2QJC6BDLS9Z5UE","","null","<img src=""img/flower4.png"" style=""width:200px; border:14px solid green;"">","null","","","","","","","","",""
"","image-keyboard-response","24","30574","0.0-24.0","3UJ1CZ6IZIBAA7NO4NTEGTRLFV15SC","AZKFSYWVPF6JL","3P520RYKCHSO30HY2QJC6BDLS9Z5UE","","297.30000001192093","img/flower4.png","75","297.69999998807907","2","1","3","2","1,0,0,1,1,0,1,0,1","0,1,0,0,1,1,1,1,0","3",""
"","html-keyboard-response","25","30875","0.0-25.0","3UJ1CZ6IZIBAA7NO4NTEGTRLFV15SC","AZKFSYWVPF6JL","3P520RYKCHSO30HY2QJC6BDLS9Z5UE","","null","<img src=""img/flower4.png"" style=""width:200px; border:14px solid green;"">","null","","","","","","","","",""
"","image-keyboard-response","26","31222","0.0-26.0","3UJ1CZ6IZIBAA7NO4NTEGTRLFV15SC","AZKFSYWVPF6JL","3P520RYKCHSO30HY2QJC6BDLS9Z5UE","","346.7999999523163","img/flower4.png","75","347.19999998807907","2","1","3","2","1,0,0,1,1,0,1,0,1","0,1,0,0,1,1,1,1,0","3",""
"","html-keyboard-response","27","31523","0.0-27.0","3UJ1CZ6IZIBAA7NO4NTEGTRLFV15SC","AZKFSYWVPF6JL","3P520RYKCHSO30HY2QJC6BDLS9Z5UE","","null","<img src=""img/flower4.png"" style=""width:200px; border:14px solid green;"">","null","","","","","","","","",""
"","image-keyboard-response","28","31918","0.0-28.0","3UJ1CZ6IZIBAA7NO4NTEGTRLFV15SC","AZKFSYWVPF6JL","3P520RYKCHSO30HY2QJC6BDLS9Z5UE","","393.89999997615814","img/flower4.png","75","394.39999997615814","2","1","3","2","1,0,0,1,1,0,1,0,1","0,1,0,0,1,1,1,1,0","3",""
"","html-keyboard-response","29","32219","0.0-29.0","3UJ1CZ6IZIBAA7NO4NTEGTRLFV15SC","AZKFSYWVPF6JL","3P520RYKCHSO30HY2QJC6BDLS9Z5UE","","null","<img src=""img/flower4.png"" style=""width:200px; border:14px solid green;"">","null","","","","","","","","",""
"","image-keyboard-response","30","32534","0.0-30.0","3UJ1CZ6IZIBAA7NO4NTEGTRLFV15SC","AZKFSYWVPF6JL","3P520RYKCHSO30HY2QJC6BDLS9Z5UE","","314.39999997615814","img/flower4.png","75","314.9000000357628","2","1","3","2","1,0,0,1,1,0,1,0,1","0,1,0,0,1,1,1,1,0","3",""
"","html-keyboard-response","31","32835","0.0-31.0","3UJ1CZ6IZIBAA7NO4NTEGTRLFV15SC","AZKFSYWVPF6JL","3P520RYKCHSO30HY2QJC6BDLS9Z5UE","","null","<img src=""img/flower4.png"" style=""width:200px; border:14px solid green;"">","null","","","","","","","","",""
"","image-keyboard-response","32","33470","0.0-32.0","3UJ1CZ6IZIBAA7NO4NTEGTRLFV15SC","AZKFSYWVPF6JL","3P520RYKCHSO30HY2QJC6BDLS9Z5UE","","633.8999999761581","img/flower5.png","76","634.5","3","0","1","2","1,0,0,1,1,0,1,0,1","0,1,0,0,1,1,1,1,0","3",""
"","html-keyboard-response","33","33771","0.0-33.0","3UJ1CZ6IZIBAA7NO4NTEGTRLFV15SC","AZKFSYWVPF6JL","3P520RYKCHSO30HY2QJC6BDLS9Z5UE","","null","<img src=""img/flower5.png"" style=""width:200px;border:14px solid red;"">","null","","","","","","","","",""
"","image-keyboard-response","34","34310","0.0-34.0","3UJ1CZ6IZIBAA7NO4NTEGTRLFV15SC","AZKFSYWVPF6JL","3P520RYKCHSO30HY2QJC6BDLS9Z5UE","","538.1999999880791","img/flower4.png","75","538.8999999761581","2","1","3","2","1,0,0,1,1,0,1,0,1","0,1,0,0,1,1,1,1,0","3",""
"","html-keyboard-response","35","34612","0.0-35.0","3UJ1CZ6IZIBAA7NO4NTEGTRLFV15SC","AZKFSYWVPF6JL","3P520RYKCHSO30HY2QJC6BDLS9Z5UE","","null","<img src=""img/flower4.png"" style=""width:200px; border:14px solid green;"">","null","","","","","","","","",""
"","image-keyboard-response","36","34902","0.0-36.0","3UJ1CZ6IZIBAA7NO4NTEGTRLFV15SC","AZKFSYWVPF6JL","3P520RYKCHSO30HY2QJC6BDLS9Z5UE","","289.30000001192093","img/flower4.png","75","289.7999999523163","2","1","3","2","1,0,0,1,1,0,1,0,1","0,1,0,0,1,1,1,1,0","3",""
"","html-keyboard-response","37","35213","0.0-37.0","3UJ1CZ6IZIBAA7NO4NTEGTRLFV15SC","AZKFSYWVPF6JL","3P520RYKCHSO30HY2QJC6BDLS9Z5UE","","null","<img src=""img/flower4.png"" style=""width:200px; border:14px solid green;"">","null","","","","","","","","",""
"","image-keyboard-response","38","35646","0.0-38.0","3UJ1CZ6IZIBAA7NO4NTEGTRLFV15SC","AZKFSYWVPF6JL","3P520RYKCHSO30HY2QJC6BDLS9Z5UE","","432.30000001192093","img/flower5.png","75","432.7999999523163","2","1","1","2","1,0,0,1,1,0,1,0,1","0,1,0,0,1,1,1,1,0","3",""
"","html-keyboard-response","39","35947","0.0-39.0","3UJ1CZ6IZIBAA7NO4NTEGTRLFV15SC","AZKFSYWVPF6JL","3P520RYKCHSO30HY2QJC6BDLS9Z5UE","","null","<img src=""img/flower5.png"" style=""width:200px; border:14px solid green;"">","null","","","","","","","","",""
"","image-keyboard-response","40","36222","0.0-40.0","3UJ1CZ6IZIBAA7NO4NTEGTRLFV15SC","AZKFSYWVPF6JL","3P520RYKCHSO30HY2QJC6BDLS9Z5UE","","274","img/flower6.png","75","274.5","2","1","2","2","1,0,0,1,1,0,1,0,1","0,1,0,0,1,1,1,1,0","3",""
"","html-keyboard-response","41","36523","0.0-41.0","3UJ1CZ6IZIBAA7NO4NTEGTRLFV15SC","AZKFSYWVPF6JL","3P520RYKCHSO30HY2QJC6BDLS9Z5UE","","null","<img src=""img/flower6.png"" style=""width:200px; border:14px solid green;"">","null","","","","","","","","",""
"","image-keyboard-response","42","36734","0.0-42.0","3UJ1CZ6IZIBAA7NO4NTEGTRLFV15SC","AZKFSYWVPF6JL","3P520RYKCHSO30HY2QJC6BDLS9Z5UE","","210.19999998807907","img/flower6.png","75","210.79999995231628","2","1","2","2","1,0,0,1,1,0,1,0,1","0,1,0,0,1,1,1,1,0","3",""
"","html-keyboard-response","43","37036","0.0-43.0","3UJ1CZ6IZIBAA7NO4NTEGTRLFV15SC","AZKFSYWVPF6JL","3P520RYKCHSO30HY2QJC6BDLS9Z5UE","","null","<img src=""img/flower6.png"" style=""width:200px; border:14px solid green;"">","null","","","","","","","","",""
"","image-keyboard-response","44","37118","0.0-44.0","3UJ1CZ6IZIBAA7NO4NTEGTRLFV15SC","AZKFSYWVPF6JL","3P520RYKCHSO30HY2QJC6BDLS9Z5UE","","81.30000001192093","img/flower6.png","75","81.69999998807907","2","1","2","2","1,0,0,1,1,0,1,0,1","0,1,0,0,1,1,1,1,0","3",""
"","html-keyboard-response","45","37420","0.0-45.0","3UJ1CZ6IZIBAA7NO4NTEGTRLFV15SC","AZKFSYWVPF6JL","3P520RYKCHSO30HY2QJC6BDLS9Z5UE","","null","<img src=""img/flower6.png"" style=""width:200px; border:14px solid green;"">","null","","","","","","","","",""
"","image-keyboard-response","46","37510","0.0-46.0","3UJ1CZ6IZIBAA7NO4NTEGTRLFV15SC","AZKFSYWVPF6JL","3P520RYKCHSO30HY2QJC6BDLS9Z5UE","","89.40000003576279","img/flower6.png","75","89.79999995231628","2","1","2","2","1,0,0,1,1,0,1,0,1","0,1,0,0,1,1,1,1,0","3",""
"","html-keyboard-response","47","37811","0.0-47.0","3UJ1CZ6IZIBAA7NO4NTEGTRLFV15SC","AZKFSYWVPF6JL","3P520RYKCHSO30HY2QJC6BDLS9Z5UE","","null","<img src=""img/flower6.png"" style=""width:200px; border:14px solid green;"">","null","","","","","","","","",""
"","image-keyboard-response","48","37854","0.0-48.0","3UJ1CZ6IZIBAA7NO4NTEGTRLFV15SC","AZKFSYWVPF6JL","3P520RYKCHSO30HY2QJC6BDLS9Z5UE","","42.30000001192093","img/flower5.png","75","42.69999998807907","2","1","1","2","1,0,0,1,1,0,1,0,1","0,1,0,0,1,1,1,1,0","3",""
"","html-keyboard-response","49","38155","0.0-49.0","3UJ1CZ6IZIBAA7NO4NTEGTRLFV15SC","AZKFSYWVPF6JL","3P520RYKCHSO30HY2QJC6BDLS9Z5UE","","null","<img src=""img/flower5.png"" style=""width:200px; border:14px solid green;"">","null","","","","","","","","",""
"","image-keyboard-response","50","38230","0.0-50.0","3UJ1CZ6IZIBAA7NO4NTEGTRLFV15SC","AZKFSYWVPF6JL","3P520RYKCHSO30HY2QJC6BDLS9Z5UE","","74.09999996423721","img/flower4.png","75","74.60000002384186","2","1","3","2","1,0,0,1,1,0,1,0,1","0,1,0,0,1,1,1,1,0","3",""
"","html-keyboard-response","51","38530","0.0-51.0","3UJ1CZ6IZIBAA7NO4NTEGTRLFV15SC","AZKFSYWVPF6JL","3P520RYKCHSO30HY2QJC6BDLS9Z5UE","","null","<img src=""img/flower4.png"" style=""width:200px; border:14px solid green;"">","null","","","","","","","","",""
"","image-keyboard-response","52","38590","0.0-52.0","3UJ1CZ6IZIBAA7NO4NTEGTRLFV15SC","AZKFSYWVPF6JL","3P520RYKCHSO30HY2QJC6BDLS9Z5UE","","59.09999996423721","img/flower6.png","75","59.39999997615814","2","1","2","2","1,0,0,1,1,0,1,0,1","0,1,0,0,1,1,1,1,0","3",""
"","html-keyboard-response","53","38892","0.0-53.0","3UJ1CZ6IZIBAA7NO4NTEGTRLFV15SC","AZKFSYWVPF6JL","3P520RYKCHSO30HY2QJC6BDLS9Z5UE","","null","<img src=""img/flower6.png"" style=""width:200px; border:14px solid green;"">","null","","","","","","","","",""
"","image-keyboard-response","54","38910","0.0-54.0","3UJ1CZ6IZIBAA7NO4NTEGTRLFV15SC","AZKFSYWVPF6JL","3P520RYKCHSO30HY2QJC6BDLS9Z5UE","","17","img/flower5.png","75","17.5","2","1","1","2","1,0,0,1,1,0,1,0,1","0,1,0,0,1,1,1,1,0","3",""
"","html-keyboard-response","55","39211","0.0-55.0","3UJ1CZ6IZIBAA7NO4NTEGTRLFV15SC","AZKFSYWVPF6JL","3P520RYKCHSO30HY2QJC6BDLS9Z5UE","","null","<img src=""img/flower5.png"" style=""width:200px; border:14px solid green;"">","null","","","","","","","","",""
"","image-keyboard-response","56","39254","0.0-56.0","3UJ1CZ6IZIBAA7NO4NTEGTRLFV15SC","AZKFSYWVPF6JL","3P520RYKCHSO30HY2QJC6BDLS9Z5UE","","42.30000001192093","img/flower6.png","75","42.80000001192093","2","1","2","2","1,0,0,1,1,0,1,0,1","0,1,0,0,1,1,1,1,0","3",""
"","html-keyboard-response","57","39555","0.0-57.0","3UJ1CZ6IZIBAA7NO4NTEGTRLFV15SC","AZKFSYWVPF6JL","3P520RYKCHSO30HY2QJC6BDLS9Z5UE","","null","<img src=""img/flower6.png"" style=""width:200px; border:14px solid green;"">","null","","","","","","","","",""
"","image-keyboard-response","58","39574","0.0-58.0","3UJ1CZ6IZIBAA7NO4NTEGTRLFV15SC","AZKFSYWVPF6JL","3P520RYKCHSO30HY2QJC6BDLS9Z5UE","","18.400000035762787","img/flower4.png","75","18.799999952316284","2","1","3","2","1,0,0,1,1,0,1,0,1","0,1,0,0,1,1,1,1,0","3",""
"","html-keyboard-response","59","39874","0.0-59.0","3UJ1CZ6IZIBAA7NO4NTEGTRLFV15SC","AZKFSYWVPF6JL","3P520RYKCHSO30HY2QJC6BDLS9Z5UE","","null","<img src=""img/flower4.png"" style=""width:200px; border:14px solid green;"">","null","","","","","","","","",""
"","image-keyboard-response","60","40054","0.0-60.0","3UJ1CZ6IZIBAA7NO4NTEGTRLFV15SC","AZKFSYWVPF6JL","3P520RYKCHSO30HY2QJC6BDLS9Z5UE","","178.69999998807907","img/flower5.png","75","179.19999998807907","2","1","1","2","1,0,0,1,1,0,1,0,1","0,1,0,0,1,1,1,1,0","3",""
"","html-keyboard-response","61","40355","0.0-61.0","3UJ1CZ6IZIBAA7NO4NTEGTRLFV15SC","AZKFSYWVPF6JL","3P520RYKCHSO30HY2QJC6BDLS9Z5UE","","null","<img src=""img/flower5.png"" style=""width:200px; border:14px solid green;"">","null","","","","","","","","",""
"","image-keyboard-response","62","40398","0.0-62.0","3UJ1CZ6IZIBAA7NO4NTEGTRLFV15SC","AZKFSYWVPF6JL","3P520RYKCHSO30HY2QJC6BDLS9Z5UE","","42.40000003576279","img/flower5.png","75","42.799999952316284","2","1","1","2","1,0,0,1,1,0,1,0,1","0,1,0,0,1,1,1,1,0","3",""
"","html-keyboard-response","63","40698","0.0-63.0","3UJ1CZ6IZIBAA7NO4NTEGTRLFV15SC","AZKFSYWVPF6JL","3P520RYKCHSO30HY2QJC6BDLS9Z5UE","","null","<img src=""img/flower5.png"" style=""width:200px; border:14px solid green;"">","null","","","","","","","","",""
"","image-keyboard-response","64","40774","0.0-64.0","3UJ1CZ6IZIBAA7NO4NTEGTRLFV15SC","AZKFSYWVPF6JL","3P520RYKCHSO30HY2QJC6BDLS9Z5UE","","74.80000001192093","img/flower6.png","75","75.5","2","1","2","2","1,0,0,1,1,0,1,0,1","0,1,0,0,1,1,1,1,0","3",""
"","html-keyboard-response","65","41075","0.0-65.0","3UJ1CZ6IZIBAA7NO4NTEGTRLFV15SC","AZKFSYWVPF6JL","3P520RYKCHSO30HY2QJC6BDLS9Z5UE","","null","<img src=""img/flower6.png"" style=""width:200px; border:14px solid green;"">","null","","","","","","","","",""
"","image-keyboard-response","66","41126","0.0-66.0","3UJ1CZ6IZIBAA7NO4NTEGTRLFV15SC","AZKFSYWVPF6JL","3P520RYKCHSO30HY2QJC6BDLS9Z5UE","","49.89999997615814","img/flower4.png","75","50.40000003576279","2","1","3","2","1,0,0,1,1,0,1,0,1","0,1,0,0,1,1,1,1,0","3",""
"","html-keyboard-response","67","41427","0.0-67.0","3UJ1CZ6IZIBAA7NO4NTEGTRLFV15SC","AZKFSYWVPF6JL","3P520RYKCHSO30HY2QJC6BDLS9Z5UE","","null","<img src=""img/flower4.png"" style=""width:200px; border:14px solid green;"">","null","","","","","","","","",""
"","image-keyboard-response","68","41462","0.0-68.0","3UJ1CZ6IZIBAA7NO4NTEGTRLFV15SC","AZKFSYWVPF6JL","3P520RYKCHSO30HY2QJC6BDLS9Z5UE","","34.40000003576279","img/flower4.png","75","34.799999952316284","2","1","3","2","1,0,0,1,1,0,1,0,1","0,1,0,0,1,1,1,1,0","3",""
"","html-keyboard-response","69","41763","0.0-69.0","3UJ1CZ6IZIBAA7NO4NTEGTRLFV15SC","AZKFSYWVPF6JL","3P520RYKCHSO30HY2QJC6BDLS9Z5UE","","null","<img src=""img/flower4.png"" style=""width:200px; border:14px solid green;"">","null","","","","","","","","",""
"","image-keyboard-response","70","41822","0.0-70.0","3UJ1CZ6IZIBAA7NO4NTEGTRLFV15SC","AZKFSYWVPF6JL","3P520RYKCHSO30HY2QJC6BDLS9Z5UE","","58.19999998807907","img/flower6.png","75","58.69999998807907","2","1","2","2","1,0,0,1,1,0,1,0,1","0,1,0,0,1,1,1,1,0","3",""
"","html-keyboard-response","71","42123","0.0-71.0","3UJ1CZ6IZIBAA7NO4NTEGTRLFV15SC","AZKFSYWVPF6JL","3P520RYKCHSO30HY2QJC6BDLS9Z5UE","","null","<img src=""img/flower6.png"" style=""width:200px; border:14px solid green;"">","null","","","","","","","","",""
"","image-keyboard-response","72","42174","0.0-72.0","3UJ1CZ6IZIBAA7NO4NTEGTRLFV15SC","AZKFSYWVPF6JL","3P520RYKCHSO30HY2QJC6BDLS9Z5UE","","50.10000002384186","img/flower4.png","75","50.5","2","1","3","2","1,0,0,1,1,0,1,0,1","0,1,0,0,1,1,1,1,0","3",""
"","html-keyboard-response","73","42475","0.0-73.0","3UJ1CZ6IZIBAA7NO4NTEGTRLFV15SC","AZKFSYWVPF6JL","3P520RYKCHSO30HY2QJC6BDLS9Z5UE","","null","<img src=""img/flower4.png"" style=""width:200px; border:14px solid green;"">","null","","","","","","","","",""
"","image-keyboard-response","74","42526","0.0-74.0","3UJ1CZ6IZIBAA7NO4NTEGTRLFV15SC","AZKFSYWVPF6JL","3P520RYKCHSO30HY2QJC6BDLS9Z5UE","","50.69999998807907","img/flower5.png","75","51.10000002384186","2","1","1","2","1,0,0,1,1,0,1,0,1","0,1,0,0,1,1,1,1,0","3",""
"","html-keyboard-response","75","42827","0.0-75.0","3UJ1CZ6IZIBAA7NO4NTEGTRLFV15SC","AZKFSYWVPF6JL","3P520RYKCHSO30HY2QJC6BDLS9Z5UE","","null","<img src=""img/flower5.png"" style=""width:200px; border:14px solid green;"">","null","","","","","","","","",""
"","image-keyboard-response","76","42894","0.0-76.0","3UJ1CZ6IZIBAA7NO4NTEGTRLFV15SC","AZKFSYWVPF6JL","3P520RYKCHSO30HY2QJC6BDLS9Z5UE","","66.5","img/flower6.png","75","67","2","1","2","2","1,0,0,1,1,0,1,0,1","0,1,0,0,1,1,1,1,0","3",""
"","html-keyboard-response","77","43194","0.0-77.0","3UJ1CZ6IZIBAA7NO4NTEGTRLFV15SC","AZKFSYWVPF6JL","3P520RYKCHSO30HY2QJC6BDLS9Z5UE","","null","<img src=""img/flower6.png"" style=""width:200px; border:14px solid green;"">","null","","","","","","","","",""
"","image-keyboard-response","78","43246","0.0-78.0","3UJ1CZ6IZIBAA7NO4NTEGTRLFV15SC","AZKFSYWVPF6JL","3P520RYKCHSO30HY2QJC6BDLS9Z5UE","","50.69999998807907","img/flower5.png","75","51.299999952316284","2","1","1","2","1,0,0,1,1,0,1,0,1","0,1,0,0,1,1,1,1,0","3",""
"","html-keyboard-response","79","43546","0.0-79.0","3UJ1CZ6IZIBAA7NO4NTEGTRLFV15SC","AZKFSYWVPF6JL","3P520RYKCHSO30HY2QJC6BDLS9Z5UE","","null","<img src=""img/flower5.png"" style=""width:200px; border:14px solid green;"">","null","","","","","","","","",""
"","image-keyboard-response","80","43598","0.0-80.0","3UJ1CZ6IZIBAA7NO4NTEGTRLFV15SC","AZKFSYWVPF6JL","3P520RYKCHSO30HY2QJC6BDLS9Z5UE","","50.80000001192093","img/flower4.png","75","51.19999998807907","2","1","3","2","1,0,0,1,1,0,1,0,1","0,1,0,0,1,1,1,1,0","3",""
"","html-keyboard-response","81","43901","0.0-81.0","3UJ1CZ6IZIBAA7NO4NTEGTRLFV15SC","AZKFSYWVPF6JL","3P520RYKCHSO30HY2QJC6BDLS9Z5UE","","null","<img src=""img/flower4.png"" style=""width:200px; border:14px solid green;"">","null","","","","","","","","",""
"","image-keyboard-response","82","43966","0.0-82.0","3UJ1CZ6IZIBAA7NO4NTEGTRLFV15SC","AZKFSYWVPF6JL","3P520RYKCHSO30HY2QJC6BDLS9Z5UE","","63.90000003576279","img/flower6.png","75","64.19999998807907","2","1","2","2","1,0,0,1,1,0,1,0,1","0,1,0,0,1,1,1,1,0","3",""
"","html-keyboard-response","83","44267","0.0-83.0","3UJ1CZ6IZIBAA7NO4NTEGTRLFV15SC","AZKFSYWVPF6JL","3P520RYKCHSO30HY2QJC6BDLS9Z5UE","","null","<img src=""img/flower6.png"" style=""width:200px; border:14px solid green;"">","null","","","","","","","","",""
"","image-keyboard-response","84","44334","0.0-84.0","3UJ1CZ6IZIBAA7NO4NTEGTRLFV15SC","AZKFSYWVPF6JL","3P520RYKCHSO30HY2QJC6BDLS9Z5UE","","66","img/flower6.png","75","66.5","2","1","2","2","1,0,0,1,1,0,1,0,1","0,1,0,0,1,1,1,1,0","3",""
"","html-keyboard-response","85","44635","0.0-85.0","3UJ1CZ6IZIBAA7NO4NTEGTRLFV15SC","AZKFSYWVPF6JL","3P520RYKCHSO30HY2QJC6BDLS9Z5UE","","null","<img src=""img/flower6.png"" style=""width:200px; border:14px solid green;"">","null","","","","","","","","",""
"","image-keyboard-response","86","44686","0.0-86.0","3UJ1CZ6IZIBAA7NO4NTEGTRLFV15SC","AZKFSYWVPF6JL","3P520RYKCHSO30HY2QJC6BDLS9Z5UE","","50.39999997615814","img/flower6.png","75","51","2","1","2","2","1,0,0,1,1,0,1,0,1","0,1,0,0,1,1,1,1,0","3",""
"","html-keyboard-response","87","44988","0.0-87.0","3UJ1CZ6IZIBAA7NO4NTEGTRLFV15SC","AZKFSYWVPF6JL","3P520RYKCHSO30HY2QJC6BDLS9Z5UE","","null","<img src=""img/flower6.png"" style=""width:200px; border:14px solid green;"">","null","","","","","","","","",""
"","image-keyboard-response","88","45030","0.0-88.0","3UJ1CZ6IZIBAA7NO4NTEGTRLFV15SC","AZKFSYWVPF6JL","3P520RYKCHSO30HY2QJC6BDLS9Z5UE","","41.19999998807907","img/flower4.png","75","41.69999998807907","2","1","3","2","1,0,0,1,1,0,1,0,1","0,1,0,0,1,1,1,1,0","3",""
"","html-keyboard-response","89","45331","0.0-89.0","3UJ1CZ6IZIBAA7NO4NTEGTRLFV15SC","AZKFSYWVPF6JL","3P520RYKCHSO30HY2QJC6BDLS9Z5UE","","null","<img src=""img/flower4.png"" style=""width:200px; border:14px solid green;"">","null","","","","","","","","",""
"","image-keyboard-response","90","45382","0.0-90.0","3UJ1CZ6IZIBAA7NO4NTEGTRLFV15SC","AZKFSYWVPF6JL","3P520RYKCHSO30HY2QJC6BDLS9Z5UE","","50","img/flower6.png","75","50.5","2","1","2","2","1,0,0,1,1,0,1,0,1","0,1,0,0,1,1,1,1,0","3",""
"","html-keyboard-response","91","45684","0.0-91.0","3UJ1CZ6IZIBAA7NO4NTEGTRLFV15SC","AZKFSYWVPF6JL","3P520RYKCHSO30HY2QJC6BDLS9Z5UE","","null","<img src=""img/flower6.png"" style=""width:200px; border:14px solid green;"">","null","","","","","","","","",""
"","image-keyboard-response","92","45702","0.0-92.0","3UJ1CZ6IZIBAA7NO4NTEGTRLFV15SC","AZKFSYWVPF6JL","3P520RYKCHSO30HY2QJC6BDLS9Z5UE","","17.19999998807907","img/flower5.png","75","17.600000023841858","2","1","1","2","1,0,0,1,1,0,1,0,1","0,1,0,0,1,1,1,1,0","3",""
"","html-keyboard-response","93","46002","0.0-93.0","3UJ1CZ6IZIBAA7NO4NTEGTRLFV15SC","AZKFSYWVPF6JL","3P520RYKCHSO30HY2QJC6BDLS9Z5UE","","null","<img src=""img/flower5.png"" style=""width:200px; border:14px solid green;"">","null","","","","","","","","",""
"","image-keyboard-response","94","46022","0.0-94.0","3UJ1CZ6IZIBAA7NO4NTEGTRLFV15SC","AZKFSYWVPF6JL","3P520RYKCHSO30HY2QJC6BDLS9Z5UE","","18.899999976158142","img/flower4.png","75","19.30000001192093","2","1","3","2","1,0,0,1,1,0,1,0,1","0,1,0,0,1,1,1,1,0","3",""
"","html-keyboard-response","95","46323","0.0-95.0","3UJ1CZ6IZIBAA7NO4NTEGTRLFV15SC","AZKFSYWVPF6JL","3P520RYKCHSO30HY2QJC6BDLS9Z5UE","","null","<img src=""img/flower4.png"" style=""width:200px; border:14px solid green;"">","null","","","","","","","","",""
"","image-keyboard-response","96","46358","0.0-96.0","3UJ1CZ6IZIBAA7NO4NTEGTRLFV15SC","AZKFSYWVPF6JL","3P520RYKCHSO30HY2QJC6BDLS9Z5UE","","33.80000001192093","img/flower5.png","75","34.30000001192093","2","1","1","2","1,0,0,1,1,0,1,0,1","0,1,0,0,1,1,1,1,0","3",""
"","html-keyboard-response","97","46659","0.0-97.0","3UJ1CZ6IZIBAA7NO4NTEGTRLFV15SC","AZKFSYWVPF6JL","3P520RYKCHSO30HY2QJC6BDLS9Z5UE","","null","<img src=""img/flower5.png"" style=""width:200px; border:14px solid green;"">","null","","","","","","","","",""
"","image-keyboard-response","98","46678","0.0-98.0","3UJ1CZ6IZIBAA7NO4NTEGTRLFV15SC","AZKFSYWVPF6JL","3P520RYKCHSO30HY2QJC6BDLS9Z5UE","","18.100000023841858","img/flower5.png","75","18.5","2","1","1","2","1,0,0,1,1,0,1,0,1","0,1,0,0,1,1,1,1,0","3",""
"","html-keyboard-response","99","46978","0.0-99.0","3UJ1CZ6IZIBAA7NO4NTEGTRLFV15SC","AZKFSYWVPF6JL","3P520RYKCHSO30HY2QJC6BDLS9Z5UE","","null","<img src=""img/flower5.png"" style=""width:200px; border:14px solid green;"">","null","","","","","","","","",""
"","image-keyboard-response","100","46998","0.0-100.0","3UJ1CZ6IZIBAA7NO4NTEGTRLFV15SC","AZKFSYWVPF6JL","3P520RYKCHSO30HY2QJC6BDLS9Z5UE","","19","img/flower6.png","75","19.299999952316284","2","1","2","2","1,0,0,1,1,0,1,0,1","0,1,0,0,1,1,1,1,0","3",""
"","html-keyboard-response","101","47299","0.0-101.0","3UJ1CZ6IZIBAA7NO4NTEGTRLFV15SC","AZKFSYWVPF6JL","3P520RYKCHSO30HY2QJC6BDLS9Z5UE","","null","<img src=""img/flower6.png"" style=""width:200px; border:14px solid green;"">","null","","","","","","","","",""
"","image-keyboard-response","102","47334","0.0-102.0","3UJ1CZ6IZIBAA7NO4NTEGTRLFV15SC","AZKFSYWVPF6JL","3P520RYKCHSO30HY2QJC6BDLS9Z5UE","","33.80000001192093","img/flower4.png","75","34.39999997615814","2","1","3","2","1,0,0,1,1,0,1,0,1","0,1,0,0,1,1,1,1,0","3",""
"","html-keyboard-response","103","47634","0.0-103.0","3UJ1CZ6IZIBAA7NO4NTEGTRLFV15SC","AZKFSYWVPF6JL","3P520RYKCHSO30HY2QJC6BDLS9Z5UE","","null","<img src=""img/flower4.png"" style=""width:200px; border:14px solid green;"">","null","","","","","","","","",""
"","image-keyboard-response","104","47702","0.0-104.0","3UJ1CZ6IZIBAA7NO4NTEGTRLFV15SC","AZKFSYWVPF6JL","3P520RYKCHSO30HY2QJC6BDLS9Z5UE","","66.69999998807907","img/flower6.png","75","67.29999995231628","2","1","2","2","1,0,0,1,1,0,1,0,1","0,1,0,0,1,1,1,1,0","3",""
"","html-keyboard-response","105","48002","0.0-105.0","3UJ1CZ6IZIBAA7NO4NTEGTRLFV15SC","AZKFSYWVPF6JL","3P520RYKCHSO30HY2QJC6BDLS9Z5UE","","null","<img src=""img/flower6.png"" style=""width:200px; border:14px solid green;"">","null","","","","","","","","",""
"","image-keyboard-response","106","48158","0.0-106.0","3UJ1CZ6IZIBAA7NO4NTEGTRLFV15SC","AZKFSYWVPF6JL","3P520RYKCHSO30HY2QJC6BDLS9Z5UE","","154.80000001192093","img/flower6.png","75","155.39999997615814","2","1","2","2","1,0,0,1,1,0,1,0,1","0,1,0,0,1,1,1,1,0","3",""
"","html-keyboard-response","107","48458","0.0-107.0","3UJ1CZ6IZIBAA7NO4NTEGTRLFV15SC","AZKFSYWVPF6JL","3P520RYKCHSO30HY2QJC6BDLS9Z5UE","","null","<img src=""img/flower6.png"" style=""width:200px; border:14px solid green;"">","null","","","","","","","","",""
"","image-keyboard-response","108","48462","0.0-108.0","3UJ1CZ6IZIBAA7NO4NTEGTRLFV15SC","AZKFSYWVPF6JL","3P520RYKCHSO30HY2QJC6BDLS9Z5UE","","2.899999976158142","img/flower5.png","75","3.399999976158142","2","1","1","2","1,0,0,1,1,0,1,0,1","0,1,0,0,1,1,1,1,0","3",""
"","html-keyboard-response","109","48763","0.0-109.0","3UJ1CZ6IZIBAA7NO4NTEGTRLFV15SC","AZKFSYWVPF6JL","3P520RYKCHSO30HY2QJC6BDLS9Z5UE","","null","<img src=""img/flower5.png"" style=""width:200px; border:14px solid green;"">","null","","","","","","","","",""
"","image-keyboard-response","110","48894","0.0-110.0","3UJ1CZ6IZIBAA7NO4NTEGTRLFV15SC","AZKFSYWVPF6JL","3P520RYKCHSO30HY2QJC6BDLS9Z5UE","","129.80000001192093","img/flower4.png","75","130.39999997615814","2","1","3","2","1,0,0,1,1,0,1,0,1","0,1,0,0,1,1,1,1,0","3",""
"","html-keyboard-response","111","49194","0.0-111.0","3UJ1CZ6IZIBAA7NO4NTEGTRLFV15SC","AZKFSYWVPF6JL","3P520RYKCHSO30HY2QJC6BDLS9Z5UE","","null","<img src=""img/flower4.png"" style=""width:200px; border:14px solid green;"">","null","","","","","","","","",""
"","image-keyboard-response","112","49310","0.0-112.0","3UJ1CZ6IZIBAA7NO4NTEGTRLFV15SC","AZKFSYWVPF6JL","3P520RYKCHSO30HY2QJC6BDLS9Z5UE","","114.89999997615814","img/flower5.png","75","115.39999997615814","2","1","1","2","1,0,0,1,1,0,1,0,1","0,1,0,0,1,1,1,1,0","3",""
"","html-keyboard-response","113","49611","0.0-113.0","3UJ1CZ6IZIBAA7NO4NTEGTRLFV15SC","AZKFSYWVPF6JL","3P520RYKCHSO30HY2QJC6BDLS9Z5UE","","null","<img src=""img/flower5.png"" style=""width:200px; border:14px solid green;"">","null","","","","","","","","",""
"","image-keyboard-response","114","49774","0.0-114.0","3UJ1CZ6IZIBAA7NO4NTEGTRLFV15SC","AZKFSYWVPF6JL","3P520RYKCHSO30HY2QJC6BDLS9Z5UE","","162","img/flower5.png","75","162.5","2","1","1","2","1,0,0,1,1,0,1,0,1","0,1,0,0,1,1,1,1,0","3",""
"","html-keyboard-response","115","50074","0.0-115.0","3UJ1CZ6IZIBAA7NO4NTEGTRLFV15SC","AZKFSYWVPF6JL","3P520RYKCHSO30HY2QJC6BDLS9Z5UE","","null","<img src=""img/flower5.png"" style=""width:200px; border:14px solid green;"">","null","","","","","","","","",""
"","image-keyboard-response","116","50222","0.0-116.0","3UJ1CZ6IZIBAA7NO4NTEGTRLFV15SC","AZKFSYWVPF6JL","3P520RYKCHSO30HY2QJC6BDLS9Z5UE","","146.80000001192093","img/flower5.png","75","147.19999998807907","2","1","1","2","1,0,0,1,1,0,1,0,1","0,1,0,0,1,1,1,1,0","3",""
"","html-keyboard-response","117","50522","0.0-117.0","3UJ1CZ6IZIBAA7NO4NTEGTRLFV15SC","AZKFSYWVPF6JL","3P520RYKCHSO30HY2QJC6BDLS9Z5UE","","null","<img src=""img/flower5.png"" style=""width:200px; border:14px solid green;"">","null","","","","","","","","",""
"","image-keyboard-response","118","50542","0.0-118.0","3UJ1CZ6IZIBAA7NO4NTEGTRLFV15SC","AZKFSYWVPF6JL","3P520RYKCHSO30HY2QJC6BDLS9Z5UE","","18.80000001192093","img/flower4.png","75","19.19999998807907","2","1","3","2","1,0,0,1,1,0,1,0,1","0,1,0,0,1,1,1,1,0","3",""
"","html-keyboard-response","119","50843","0.0-119.0","3UJ1CZ6IZIBAA7NO4NTEGTRLFV15SC","AZKFSYWVPF6JL","3P520RYKCHSO30HY2QJC6BDLS9Z5UE","","null","<img src=""img/flower4.png"" style=""width:200px; border:14px solid green;"">","null","","","","","","","","",""
"","image-keyboard-response","120","50862","0.0-120.0","3UJ1CZ6IZIBAA7NO4NTEGTRLFV15SC","AZKFSYWVPF6JL","3P520RYKCHSO30HY2QJC6BDLS9Z5UE","","18.099999964237213","img/flower5.png","75","18.5","2","1","1","2","1,0,0,1,1,0,1,0,1","0,1,0,0,1,1,1,1,0","3",""
"","html-keyboard-response","121","51163","0.0-121.0","3UJ1CZ6IZIBAA7NO4NTEGTRLFV15SC","AZKFSYWVPF6JL","3P520RYKCHSO30HY2QJC6BDLS9Z5UE","","null","<img src=""img/flower5.png"" style=""width:200px; border:14px solid green;"">","null","","","","","","","","",""
"","image-keyboard-response","122","51182","0.0-122.0","3UJ1CZ6IZIBAA7NO4NTEGTRLFV15SC","AZKFSYWVPF6JL","3P520RYKCHSO30HY2QJC6BDLS9Z5UE","","18.399999976158142","img/flower5.png","75","19","2","1","1","2","1,0,0,1,1,0,1,0,1","0,1,0,0,1,1,1,1,0","3",""
"","html-keyboard-response","123","51483","0.0-123.0","3UJ1CZ6IZIBAA7NO4NTEGTRLFV15SC","AZKFSYWVPF6JL","3P520RYKCHSO30HY2QJC6BDLS9Z5UE","","null","<img src=""img/flower5.png"" style=""width:200px; border:14px solid green;"">","null","","","","","","","","",""
"","image-keyboard-response","124","51566","0.0-124.0","3UJ1CZ6IZIBAA7NO4NTEGTRLFV15SC","AZKFSYWVPF6JL","3P520RYKCHSO30HY2QJC6BDLS9Z5UE","","82.30000001192093","img/flower5.png","75","82.69999998807907","2","1","1","2","1,0,0,1,1,0,1,0,1","0,1,0,0,1,1,1,1,0","3",""
"","html-keyboard-response","125","51867","0.0-125.0","3UJ1CZ6IZIBAA7NO4NTEGTRLFV15SC","AZKFSYWVPF6JL","3P520RYKCHSO30HY2QJC6BDLS9Z5UE","","null","<img src=""img/flower5.png"" style=""width:200px; border:14px solid green;"">","null","","","","","","","","",""
"","image-keyboard-response","126","51926","0.0-126.0","3UJ1CZ6IZIBAA7NO4NTEGTRLFV15SC","AZKFSYWVPF6JL","3P520RYKCHSO30HY2QJC6BDLS9Z5UE","","58","img/flower5.png","75","58.39999997615814","2","1","1","2","1,0,0,1,1,0,1,0,1","0,1,0,0,1,1,1,1,0","3",""
"","html-keyboard-response","127","52226","0.0-127.0","3UJ1CZ6IZIBAA7NO4NTEGTRLFV15SC","AZKFSYWVPF6JL","3P520RYKCHSO30HY2QJC6BDLS9Z5UE","","null","<img src=""img/flower5.png"" style=""width:200px; border:14px solid green;"">","null","","","","","","","","",""
"","image-keyboard-response","128","52318","0.0-128.0","3UJ1CZ6IZIBAA7NO4NTEGTRLFV15SC","AZKFSYWVPF6JL","3P520RYKCHSO30HY2QJC6BDLS9Z5UE","","90.90000003576279","img/flower5.png","75","91.29999995231628","2","1","1","2","1,0,0,1,1,0,1,0,1","0,1,0,0,1,1,1,1,0","3",""
"","html-keyboard-response","129","52619","0.0-129.0","3UJ1CZ6IZIBAA7NO4NTEGTRLFV15SC","AZKFSYWVPF6JL","3P520RYKCHSO30HY2QJC6BDLS9Z5UE","","null","<img src=""img/flower5.png"" style=""width:200px; border:14px solid green;"">","null","","","","","","","","",""
"","image-keyboard-response","130","52670","0.0-130.0","3UJ1CZ6IZIBAA7NO4NTEGTRLFV15SC","AZKFSYWVPF6JL","3P520RYKCHSO30HY2QJC6BDLS9Z5UE","","50.59999996423721","img/flower4.png","75","51.19999998807907","2","1","3","2","1,0,0,1,1,0,1,0,1","0,1,0,0,1,1,1,1,0","3",""
"","html-keyboard-response","131","52971","0.0-131.0","3UJ1CZ6IZIBAA7NO4NTEGTRLFV15SC","AZKFSYWVPF6JL","3P520RYKCHSO30HY2QJC6BDLS9Z5UE","","null","<img src=""img/flower4.png"" style=""width:200px; border:14px solid green;"">","null","","","","","","","","",""
"","image-keyboard-response","132","53070","0.0-132.0","3UJ1CZ6IZIBAA7NO4NTEGTRLFV15SC","AZKFSYWVPF6JL","3P520RYKCHSO30HY2QJC6BDLS9Z5UE","","98.60000002384186","img/flower6.png","75","99.70000004768372","2","1","2","2","1,0,0,1,1,0,1,0,1","0,1,0,0,1,1,1,1,0","3",""
"","html-keyboard-response","133","53372","0.0-133.0","3UJ1CZ6IZIBAA7NO4NTEGTRLFV15SC","AZKFSYWVPF6JL","3P520RYKCHSO30HY2QJC6BDLS9Z5UE","","null","<img src=""img/flower6.png"" style=""width:200px; border:14px solid green;"">","null","","","","","","","","",""
"","image-keyboard-response","134","53470","0.0-134.0","3UJ1CZ6IZIBAA7NO4NTEGTRLFV15SC","AZKFSYWVPF6JL","3P520RYKCHSO30HY2QJC6BDLS9Z5UE","","97.60000002384186","img/flower5.png","75","98","2","1","1","2","1,0,0,1,1,0,1,0,1","0,1,0,0,1,1,1,1,0","3",""
"","html-keyboard-response","135","53770","0.0-135.0","3UJ1CZ6IZIBAA7NO4NTEGTRLFV15SC","AZKFSYWVPF6JL","3P520RYKCHSO30HY2QJC6BDLS9Z5UE","","null","<img src=""img/flower5.png"" style=""width:200px; border:14px solid green;"">","null","","","","","","","","",""
"","image-keyboard-response","136","53926","0.0-136.0","3UJ1CZ6IZIBAA7NO4NTEGTRLFV15SC","AZKFSYWVPF6JL","3P520RYKCHSO30HY2QJC6BDLS9Z5UE","","154.89999997615814","img/flower6.png","75","155.39999997615814","2","1","2","2","1,0,0,1,1,0,1,0,1","0,1,0,0,1,1,1,1,0","3",""
"","html-keyboard-response","137","54227","0.0-137.0","3UJ1CZ6IZIBAA7NO4NTEGTRLFV15SC","AZKFSYWVPF6JL","3P520RYKCHSO30HY2QJC6BDLS9Z5UE","","null","<img src=""img/flower6.png"" style=""width:200px; border:14px solid green;"">","null","","","","","","","","",""
"","image-keyboard-response","138","54374","0.0-138.0","3UJ1CZ6IZIBAA7NO4NTEGTRLFV15SC","AZKFSYWVPF6JL","3P520RYKCHSO30HY2QJC6BDLS9Z5UE","","146","img/flower6.png","75","146.5","2","1","2","2","1,0,0,1,1,0,1,0,1","0,1,0,0,1,1,1,1,0","3",""
"","html-keyboard-response","139","54676","0.0-139.0","3UJ1CZ6IZIBAA7NO4NTEGTRLFV15SC","AZKFSYWVPF6JL","3P520RYKCHSO30HY2QJC6BDLS9Z5UE","","null","<img src=""img/flower6.png"" style=""width:200px; border:14px solid green;"">","null","","","","","","","","",""
"","image-keyboard-response","140","54822","0.0-140.0","3UJ1CZ6IZIBAA7NO4NTEGTRLFV15SC","AZKFSYWVPF6JL","3P520RYKCHSO30HY2QJC6BDLS9Z5UE","","145","img/flower6.png","75","145.39999997615814","2","1","2","2","1,0,0,1,1,0,1,0,1","0,1,0,0,1,1,1,1,0","3",""
"","html-keyboard-response","141","55122","0.0-141.0","3UJ1CZ6IZIBAA7NO4NTEGTRLFV15SC","AZKFSYWVPF6JL","3P520RYKCHSO30HY2QJC6BDLS9Z5UE","","null","<img src=""img/flower6.png"" style=""width:200px; border:14px solid green;"">","null","","","","","","","","",""
"","image-keyboard-response","142","55254","0.0-142.0","3UJ1CZ6IZIBAA7NO4NTEGTRLFV15SC","AZKFSYWVPF6JL","3P520RYKCHSO30HY2QJC6BDLS9Z5UE","","130.9000000357628","img/flower4.png","75","131.29999995231628","2","1","3","2","1,0,0,1,1,0,1,0,1","0,1,0,0,1,1,1,1,0","3",""
"","html-keyboard-response","143","55555","0.0-143.0","3UJ1CZ6IZIBAA7NO4NTEGTRLFV15SC","AZKFSYWVPF6JL","3P520RYKCHSO30HY2QJC6BDLS9Z5UE","","null","<img src=""img/flower4.png"" style=""width:200px; border:14px solid green;"">","null","","","","","","","","",""
"","image-keyboard-response","144","55718","0.0-144.0","3UJ1CZ6IZIBAA7NO4NTEGTRLFV15SC","AZKFSYWVPF6JL","3P520RYKCHSO30HY2QJC6BDLS9Z5UE","","162","img/flower4.png","75","162.39999997615814","2","1","3","2","1,0,0,1,1,0,1,0,1","0,1,0,0,1,1,1,1,0","3",""
"","html-keyboard-response","145","56019","0.0-145.0","3UJ1CZ6IZIBAA7NO4NTEGTRLFV15SC","AZKFSYWVPF6JL","3P520RYKCHSO30HY2QJC6BDLS9Z5UE","","null","<img src=""img/flower4.png"" style=""width:200px; border:14px solid green;"">","null","","","","","","","","",""
"","image-keyboard-response","146","56166","0.0-146.0","3UJ1CZ6IZIBAA7NO4NTEGTRLFV15SC","AZKFSYWVPF6JL","3P520RYKCHSO30HY2QJC6BDLS9Z5UE","","145.9000000357628","img/flower6.png","75","146.5","2","1","2","2","1,0,0,1,1,0,1,0,1","0,1,0,0,1,1,1,1,0","3",""
"","html-keyboard-response","147","56467","0.0-147.0","3UJ1CZ6IZIBAA7NO4NTEGTRLFV15SC","AZKFSYWVPF6JL","3P520RYKCHSO30HY2QJC6BDLS9Z5UE","","null","<img src=""img/flower6.png"" style=""width:200px; border:14px solid green;"">","null","","","","","","","","",""
"","image-keyboard-response","148","56694","0.0-148.0","3UJ1CZ6IZIBAA7NO4NTEGTRLFV15SC","AZKFSYWVPF6JL","3P520RYKCHSO30HY2QJC6BDLS9Z5UE","","225.9000000357628","img/flower5.png","75","226.39999997615814","2","1","1","2","1,0,0,1,1,0,1,0,1","0,1,0,0,1,1,1,1,0","3",""
"","html-keyboard-response","149","56995","0.0-149.0","3UJ1CZ6IZIBAA7NO4NTEGTRLFV15SC","AZKFSYWVPF6JL","3P520RYKCHSO30HY2QJC6BDLS9Z5UE","","null","<img src=""img/flower5.png"" style=""width:200px; border:14px solid green;"">","null","","","","","","","","",""
"","image-keyboard-response","150","57254","0.0-150.0","3UJ1CZ6IZIBAA7NO4NTEGTRLFV15SC","AZKFSYWVPF6JL","3P520RYKCHSO30HY2QJC6BDLS9Z5UE","","258.80000001192093","img/flower4.png","75","259.30000001192093","2","1","3","2","1,0,0,1,1,0,1,0,1","0,1,0,0,1,1,1,1,0","3",""
"","html-keyboard-response","151","57555","0.0-151.0","3UJ1CZ6IZIBAA7NO4NTEGTRLFV15SC","AZKFSYWVPF6JL","3P520RYKCHSO30HY2QJC6BDLS9Z5UE","","null","<img src=""img/flower4.png"" style=""width:200px; border:14px solid green;"">","null","","","","","","","","",""
"","image-keyboard-response","152","57590","0.0-152.0","3UJ1CZ6IZIBAA7NO4NTEGTRLFV15SC","AZKFSYWVPF6JL","3P520RYKCHSO30HY2QJC6BDLS9Z5UE","","34.60000002384186","img/flower5.png","75","35.10000002384186","2","1","1","2","1,0,0,1,1,0,1,0,1","0,1,0,0,1,1,1,1,0","3",""
"","html-keyboard-response","153","57892","0.0-153.0","3UJ1CZ6IZIBAA7NO4NTEGTRLFV15SC","AZKFSYWVPF6JL","3P520RYKCHSO30HY2QJC6BDLS9Z5UE","","null","<img src=""img/flower5.png"" style=""width:200px; border:14px solid green;"">","null","","","","","","","","",""
"","image-keyboard-response","154","58022","0.0-154.0","3UJ1CZ6IZIBAA7NO4NTEGTRLFV15SC","AZKFSYWVPF6JL","3P520RYKCHSO30HY2QJC6BDLS9Z5UE","","129.19999998807907","img/flower4.png","75","129.69999998807907","2","1","3","2","1,0,0,1,1,0,1,0,1","0,1,0,0,1,1,1,1,0","3",""
"","html-keyboard-response","155","58324","0.0-155.0","3UJ1CZ6IZIBAA7NO4NTEGTRLFV15SC","AZKFSYWVPF6JL","3P520RYKCHSO30HY2QJC6BDLS9Z5UE","","null","<img src=""img/flower4.png"" style=""width:200px; border:14px solid green;"">","null","","","","","","","","",""
"","image-keyboard-response","156","58390","0.0-156.0","3UJ1CZ6IZIBAA7NO4NTEGTRLFV15SC","AZKFSYWVPF6JL","3P520RYKCHSO30HY2QJC6BDLS9Z5UE","","65.30000001192093","img/flower5.png","75","65.69999998807907","2","1","1","2","1,0,0,1,1,0,1,0,1","0,1,0,0,1,1,1,1,0","3",""
"","html-keyboard-response","157","58691","0.0-157.0","3UJ1CZ6IZIBAA7NO4NTEGTRLFV15SC","AZKFSYWVPF6JL","3P520RYKCHSO30HY2QJC6BDLS9Z5UE","","null","<img src=""img/flower5.png"" style=""width:200px; border:14px solid green;"">","null","","","","","","","","",""
"","image-keyboard-response","158","58750","0.0-158.0","3UJ1CZ6IZIBAA7NO4NTEGTRLFV15SC","AZKFSYWVPF6JL","3P520RYKCHSO30HY2QJC6BDLS9Z5UE","","58.10000002384186","img/flower6.png","75","58.59999996423721","2","1","2","2","1,0,0,1,1,0,1,0,1","0,1,0,0,1,1,1,1,0","3",""
"","html-keyboard-response","159","59051","0.0-159.0","3UJ1CZ6IZIBAA7NO4NTEGTRLFV15SC","AZKFSYWVPF6JL","3P520RYKCHSO30HY2QJC6BDLS9Z5UE","","null","<img src=""img/flower6.png"" style=""width:200px; border:14px solid green;"">","null","","","","","","","","",""
"","image-keyboard-response","160","59070","0.0-160.0","3UJ1CZ6IZIBAA7NO4NTEGTRLFV15SC","AZKFSYWVPF6JL","3P520RYKCHSO30HY2QJC6BDLS9Z5UE","","18.600000023841858","img/flower6.png","75","19","2","1","2","2","1,0,0,1,1,0,1,0,1","0,1,0,0,1,1,1,1,0","3",""
"","html-keyboard-response","161","59371","0.0-161.0","3UJ1CZ6IZIBAA7NO4NTEGTRLFV15SC","AZKFSYWVPF6JL","3P520RYKCHSO30HY2QJC6BDLS9Z5UE","","null","<img src=""img/flower6.png"" style=""width:200px; border:14px solid green;"">","null","","","","","","","","",""
"","image-keyboard-response","162","59654","0.0-162.0","3UJ1CZ6IZIBAA7NO4NTEGTRLFV15SC","AZKFSYWVPF6JL","3P520RYKCHSO30HY2QJC6BDLS9Z5UE","","282.69999998807907","img/flower4.png","75","283.19999998807907","2","1","3","2","1,0,0,1,1,0,1,0,1","0,1,0,0,1,1,1,1,0","3",""
"","html-keyboard-response","163","59955","0.0-163.0","3UJ1CZ6IZIBAA7NO4NTEGTRLFV15SC","AZKFSYWVPF6JL","3P520RYKCHSO30HY2QJC6BDLS9Z5UE","","null","<img src=""img/flower4.png"" style=""width:200px; border:14px solid green;"">","null","","","","","","","","",""
"","image-keyboard-response","164","59958","0.0-164.0","3UJ1CZ6IZIBAA7NO4NTEGTRLFV15SC","AZKFSYWVPF6JL","3P520RYKCHSO30HY2QJC6BDLS9Z5UE","","2.800000011920929","img/flower4.png","75","3.199999988079071","2","1","3","2","1,0,0,1,1,0,1,0,1","0,1,0,0,1,1,1,1,0","3",""
"","html-keyboard-response","165","60259","0.0-165.0","3UJ1CZ6IZIBAA7NO4NTEGTRLFV15SC","AZKFSYWVPF6JL","3P520RYKCHSO30HY2QJC6BDLS9Z5UE","","null","<img src=""img/flower4.png"" style=""width:200px; border:14px solid green;"">","null","","","","","","","","",""
"","image-keyboard-response","166","60574","0.0-166.0","3UJ1CZ6IZIBAA7NO4NTEGTRLFV15SC","AZKFSYWVPF6JL","3P520RYKCHSO30HY2QJC6BDLS9Z5UE","","314.89999997615814","img/flower4.png","75","315.30000001192093","2","1","3","2","1,0,0,1,1,0,1,0,1","0,1,0,0,1,1,1,1,0","3",""
"","html-keyboard-response","167","60876","0.0-167.0","3UJ1CZ6IZIBAA7NO4NTEGTRLFV15SC","AZKFSYWVPF6JL","3P520RYKCHSO30HY2QJC6BDLS9Z5UE","","null","<img src=""img/flower4.png"" style=""width:200px; border:14px solid green;"">","null","","","","","","","","",""
"","image-keyboard-response","168","61182","0.0-168.0","3UJ1CZ6IZIBAA7NO4NTEGTRLFV15SC","AZKFSYWVPF6JL","3P520RYKCHSO30HY2QJC6BDLS9Z5UE","","305.9000000357628","img/flower4.png","75","306.39999997615814","2","1","3","2","1,0,0,1,1,0,1,0,1","0,1,0,0,1,1,1,1,0","3",""
"","html-keyboard-response","169","61484","0.0-169.0","3UJ1CZ6IZIBAA7NO4NTEGTRLFV15SC","AZKFSYWVPF6JL","3P520RYKCHSO30HY2QJC6BDLS9Z5UE","","null","<img src=""img/flower4.png"" style=""width:200px; border:14px solid green;"">","null","","","","","","","","",""
"","image-keyboard-response","170","61502","0.0-170.0","3UJ1CZ6IZIBAA7NO4NTEGTRLFV15SC","AZKFSYWVPF6JL","3P520RYKCHSO30HY2QJC6BDLS9Z5UE","","18","img/flower6.png","75","18.399999976158142","2","1","2","2","1,0,0,1,1,0,1,0,1","0,1,0,0,1,1,1,1,0","3",""
"","html-keyboard-response","171","61804","0.0-171.0","3UJ1CZ6IZIBAA7NO4NTEGTRLFV15SC","AZKFSYWVPF6JL","3P520RYKCHSO30HY2QJC6BDLS9Z5UE","","null","<img src=""img/flower6.png"" style=""width:200px; border:14px solid green;"">","null","","","","","","","","",""
"","image-keyboard-response","172","61806","0.0-172.0","3UJ1CZ6IZIBAA7NO4NTEGTRLFV15SC","AZKFSYWVPF6JL","3P520RYKCHSO30HY2QJC6BDLS9Z5UE","","1.800000011920929","img/flower6.png","75","2.199999988079071","2","1","2","2","1,0,0,1,1,0,1,0,1","0,1,0,0,1,1,1,1,0","3",""
"","html-keyboard-response","173","62107","0.0-173.0","3UJ1CZ6IZIBAA7NO4NTEGTRLFV15SC","AZKFSYWVPF6JL","3P520RYKCHSO30HY2QJC6BDLS9Z5UE","","null","<img src=""img/flower6.png"" style=""width:200px; border:14px solid green;"">","null","","","","","","","","",""
"","image-keyboard-response","174","62110","0.0-174.0","3UJ1CZ6IZIBAA7NO4NTEGTRLFV15SC","AZKFSYWVPF6JL","3P520RYKCHSO30HY2QJC6BDLS9Z5UE","","2.699999988079071","img/flower6.png","75","3.199999988079071","2","1","2","2","1,0,0,1,1,0,1,0,1","0,1,0,0,1,1,1,1,0","3",""
"","html-keyboard-response","175","62411","0.0-175.0","3UJ1CZ6IZIBAA7NO4NTEGTRLFV15SC","AZKFSYWVPF6JL","3P520RYKCHSO30HY2QJC6BDLS9Z5UE","","null","<img src=""img/flower6.png"" style=""width:200px; border:14px solid green;"">","null","","","","","","","","",""
"","image-keyboard-response","176","62686","0.0-176.0","3UJ1CZ6IZIBAA7NO4NTEGTRLFV15SC","AZKFSYWVPF6JL","3P520RYKCHSO30HY2QJC6BDLS9Z5UE","","274.9000000357628","img/flower5.png","75","275.30000001192093","2","1","1","2","1,0,0,1,1,0,1,0,1","0,1,0,0,1,1,1,1,0","3",""
"","html-keyboard-response","177","62987","0.0-177.0","3UJ1CZ6IZIBAA7NO4NTEGTRLFV15SC","AZKFSYWVPF6JL","3P520RYKCHSO30HY2QJC6BDLS9Z5UE","","null","<img src=""img/flower5.png"" style=""width:200px; border:14px solid green;"">","null","","","","","","","","",""
"","image-keyboard-response","178","62990","0.0-178.0","3UJ1CZ6IZIBAA7NO4NTEGTRLFV15SC","AZKFSYWVPF6JL","3P520RYKCHSO30HY2QJC6BDLS9Z5UE","","2.900000035762787","img/flower5.png","75","3.199999988079071","2","1","1","2","1,0,0,1,1,0,1,0,1","0,1,0,0,1,1,1,1,0","3",""
"","html-keyboard-response","179","63291","0.0-179.0","3UJ1CZ6IZIBAA7NO4NTEGTRLFV15SC","AZKFSYWVPF6JL","3P520RYKCHSO30HY2QJC6BDLS9Z5UE","","null","<img src=""img/flower5.png"" style=""width:200px; border:14px solid green;"">","null","","","","","","","","",""
"","image-keyboard-response","180","63630","0.0-180.0","3UJ1CZ6IZIBAA7NO4NTEGTRLFV15SC","AZKFSYWVPF6JL","3P520RYKCHSO30HY2QJC6BDLS9Z5UE","","338.89999997615814","img/flower5.png","75","339.30000001192093","2","1","1","2","1,0,0,1,1,0,1,0,1","0,1,0,0,1,1,1,1,0","3",""
"","html-keyboard-response","181","63931","0.0-181.0","3UJ1CZ6IZIBAA7NO4NTEGTRLFV15SC","AZKFSYWVPF6JL","3P520RYKCHSO30HY2QJC6BDLS9Z5UE","","null","<img src=""img/flower5.png"" style=""width:200px; border:14px solid green;"">","null","","","","","","","","",""
"","image-keyboard-response","182","63934","0.0-182.0","3UJ1CZ6IZIBAA7NO4NTEGTRLFV15SC","AZKFSYWVPF6JL","3P520RYKCHSO30HY2QJC6BDLS9Z5UE","","2.800000011920929","img/flower1.png","75","3.299999952316284","2","0","1","1","1,0.333,0.333,0.333,1,0.333,0.333,0.333,1","1,0.333,0.333,0.333,1,0.333,0.333,0.333,1","1",""
"","html-keyboard-response","183","64235","0.0-183.0","3UJ1CZ6IZIBAA7NO4NTEGTRLFV15SC","AZKFSYWVPF6JL","3P520RYKCHSO30HY2QJC6BDLS9Z5UE","","null","<img src=""img/flower1.png"" style=""width:200px;border:14px solid red;"">","null","","","","","","","","",""
"","image-keyboard-response","184","64270","0.0-184.0","3UJ1CZ6IZIBAA7NO4NTEGTRLFV15SC","AZKFSYWVPF6JL","3P520RYKCHSO30HY2QJC6BDLS9Z5UE","","34.69999998807907","img/flower3.png","75","35.19999998807907","2","0","3","1","1,0.333,0.333,0.333,1,0.333,0.333,0.333,1","1,0.333,0.333,0.333,1,0.333,0.333,0.333,1","1",""
"","html-keyboard-response","185","64571","0.0-185.0","3UJ1CZ6IZIBAA7NO4NTEGTRLFV15SC","AZKFSYWVPF6JL","3P520RYKCHSO30HY2QJC6BDLS9Z5UE","","null","<img src=""img/flower3.png"" style=""width:200px;border:14px solid red;"">","null","","","","","","","","",""
"","image-keyboard-response","186","64662","0.0-186.0","3UJ1CZ6IZIBAA7NO4NTEGTRLFV15SC","AZKFSYWVPF6JL","3P520RYKCHSO30HY2QJC6BDLS9Z5UE","","90.19999998807907","img/flower2.png","75","90.59999996423721","2","1","2","1","1,0.333,0.333,0.333,1,0.333,0.333,0.333,1","1,0.333,0.333,0.333,1,0.333,0.333,0.333,1","1",""
"","html-keyboard-response","187","64964","0.0-187.0","3UJ1CZ6IZIBAA7NO4NTEGTRLFV15SC","AZKFSYWVPF6JL","3P520RYKCHSO30HY2QJC6BDLS9Z5UE","","null","<img src=""img/flower2.png"" style=""width:200px; border:14px solid green;"">","null","","","","","","","","",""
"","image-keyboard-response","188","65046","0.0-188.0","3UJ1CZ6IZIBAA7NO4NTEGTRLFV15SC","AZKFSYWVPF6JL","3P520RYKCHSO30HY2QJC6BDLS9Z5UE","","81.69999998807907","img/flower3.png","75","82.19999998807907","2","1","3","1","1,0.333,0.333,0.333,1,0.333,0.333,0.333,1","1,0.333,0.333,0.333,1,0.333,0.333,0.333,1","1",""
"","html-keyboard-response","189","65361","0.0-189.0","3UJ1CZ6IZIBAA7NO4NTEGTRLFV15SC","AZKFSYWVPF6JL","3P520RYKCHSO30HY2QJC6BDLS9Z5UE","","null","<img src=""img/flower3.png"" style=""width:200px; border:14px solid green;"">","null","","","","","","","","",""
"","image-keyboard-response","190","65846","0.0-190.0","3UJ1CZ6IZIBAA7NO4NTEGTRLFV15SC","AZKFSYWVPF6JL","3P520RYKCHSO30HY2QJC6BDLS9Z5UE","","484.19999998807907","img/flower2.png","75","484.80000001192093","2","1","2","1","1,0.333,0.333,0.333,1,0.333,0.333,0.333,1","1,0.333,0.333,0.333,1,0.333,0.333,0.333,1","1",""
"","html-keyboard-response","191","66148","0.0-191.0","3UJ1CZ6IZIBAA7NO4NTEGTRLFV15SC","AZKFSYWVPF6JL","3P520RYKCHSO30HY2QJC6BDLS9Z5UE","","null","<img src=""img/flower2.png"" style=""width:200px; border:14px solid green;"">","null","","","","","","","","",""
"","image-keyboard-response","192","66590","0.0-192.0","3UJ1CZ6IZIBAA7NO4NTEGTRLFV15SC","AZKFSYWVPF6JL","3P520RYKCHSO30HY2QJC6BDLS9Z5UE","","441.89999997615814","img/flower3.png","75","442.39999997615814","2","0","3","1","1,0.333,0.333,0.333,1,0.333,0.333,0.333,1","1,0.333,0.333,0.333,1,0.333,0.333,0.333,1","1",""
"","html-keyboard-response","193","66891","0.0-193.0","3UJ1CZ6IZIBAA7NO4NTEGTRLFV15SC","AZKFSYWVPF6JL","3P520RYKCHSO30HY2QJC6BDLS9Z5UE","","null","<img src=""img/flower3.png"" style=""width:200px;border:14px solid red;"">","null","","","","","","","","",""
"","image-keyboard-response","194","67430","0.0-194.0","3UJ1CZ6IZIBAA7NO4NTEGTRLFV15SC","AZKFSYWVPF6JL","3P520RYKCHSO30HY2QJC6BDLS9Z5UE","","538.1999999880791","img/flower3.png","76","538.5","3","1","3","1","1,0.333,0.333,0.333,1,0.333,0.333,0.333,1","1,0.333,0.333,0.333,1,0.333,0.333,0.333,1","1",""
"","html-keyboard-response","195","67731","0.0-195.0","3UJ1CZ6IZIBAA7NO4NTEGTRLFV15SC","AZKFSYWVPF6JL","3P520RYKCHSO30HY2QJC6BDLS9Z5UE","","null","<img src=""img/flower3.png"" style=""width:200px; border:14px solid green;"">","null","","","","","","","","",""
"","image-keyboard-response","196","68054","0.0-196.0","3UJ1CZ6IZIBAA7NO4NTEGTRLFV15SC","AZKFSYWVPF6JL","3P520RYKCHSO30HY2QJC6BDLS9Z5UE","","322.19999998807907","img/flower2.png","75","322.69999998807907","2","1","2","1","1,0.333,0.333,0.333,1,0.333,0.333,0.333,1","1,0.333,0.333,0.333,1,0.333,0.333,0.333,1","1",""
"","html-keyboard-response","197","68355","0.0-197.0","3UJ1CZ6IZIBAA7NO4NTEGTRLFV15SC","AZKFSYWVPF6JL","3P520RYKCHSO30HY2QJC6BDLS9Z5UE","","null","<img src=""img/flower2.png"" style=""width:200px; border:14px solid green;"">","null","","","","","","","","",""
"","image-keyboard-response","198","68710","0.0-198.0","3UJ1CZ6IZIBAA7NO4NTEGTRLFV15SC","AZKFSYWVPF6JL","3P520RYKCHSO30HY2QJC6BDLS9Z5UE","","354.0999999642372","img/flower2.png","75","354.60000002384186","2","1","2","1","1,0.333,0.333,0.333,1,0.333,0.333,0.333,1","1,0.333,0.333,0.333,1,0.333,0.333,0.333,1","1",""
"","html-keyboard-response","199","69012","0.0-199.0","3UJ1CZ6IZIBAA7NO4NTEGTRLFV15SC","AZKFSYWVPF6JL","3P520RYKCHSO30HY2QJC6BDLS9Z5UE","","null","<img src=""img/flower2.png"" style=""width:200px; border:14px solid green;"">","null","","","","","","","","",""
"","image-keyboard-response","200","69470","0.0-200.0","3UJ1CZ6IZIBAA7NO4NTEGTRLFV15SC","AZKFSYWVPF6JL","3P520RYKCHSO30HY2QJC6BDLS9Z5UE","","457.89999997615814","img/flower1.png","75","458.30000001192093","2","0","1","1","1,0.333,0.333,0.333,1,0.333,0.333,0.333,1","1,0.333,0.333,0.333,1,0.333,0.333,0.333,1","1",""
"","html-keyboard-response","201","69771","0.0-201.0","3UJ1CZ6IZIBAA7NO4NTEGTRLFV15SC","AZKFSYWVPF6JL","3P520RYKCHSO30HY2QJC6BDLS9Z5UE","","null","<img src=""img/flower1.png"" style=""width:200px;border:14px solid red;"">","null","","","","","","","","",""
"","image-keyboard-response","202","70110","0.0-202.0","3UJ1CZ6IZIBAA7NO4NTEGTRLFV15SC","AZKFSYWVPF6JL","3P520RYKCHSO30HY2QJC6BDLS9Z5UE","","338.69999998807907","img/flower1.png","74","339.19999998807907","1","1","1","1","1,0.333,0.333,0.333,1,0.333,0.333,0.333,1","1,0.333,0.333,0.333,1,0.333,0.333,0.333,1","1",""
"","html-keyboard-response","203","70411","0.0-203.0","3UJ1CZ6IZIBAA7NO4NTEGTRLFV15SC","AZKFSYWVPF6JL","3P520RYKCHSO30HY2QJC6BDLS9Z5UE","","null","<img src=""img/flower1.png"" style=""width:200px; border:14px solid green;"">","null","","","","","","","","",""
"","image-keyboard-response","204","70822","0.0-204.0","3UJ1CZ6IZIBAA7NO4NTEGTRLFV15SC","AZKFSYWVPF6JL","3P520RYKCHSO30HY2QJC6BDLS9Z5UE","","410.4000000357628","img/flower1.png","74","411","1","1","1","1","1,0.333,0.333,0.333,1,0.333,0.333,0.333,1","1,0.333,0.333,0.333,1,0.333,0.333,0.333,1","1",""
"","html-keyboard-response","205","71125","0.0-205.0","3UJ1CZ6IZIBAA7NO4NTEGTRLFV15SC","AZKFSYWVPF6JL","3P520RYKCHSO30HY2QJC6BDLS9Z5UE","","null","<img src=""img/flower1.png"" style=""width:200px; border:14px solid green;"">","null","","","","","","","","",""
"","image-keyboard-response","206","71438","0.0-206.0","3UJ1CZ6IZIBAA7NO4NTEGTRLFV15SC","AZKFSYWVPF6JL","3P520RYKCHSO30HY2QJC6BDLS9Z5UE","","312.89999997615814","img/flower1.png","74","313.39999997615814","1","1","1","1","1,0.333,0.333,0.333,1,0.333,0.333,0.333,1","1,0.333,0.333,0.333,1,0.333,0.333,0.333,1","1",""
"","html-keyboard-response","207","71739","0.0-207.0","3UJ1CZ6IZIBAA7NO4NTEGTRLFV15SC","AZKFSYWVPF6JL","3P520RYKCHSO30HY2QJC6BDLS9Z5UE","","null","<img src=""img/flower1.png"" style=""width:200px; border:14px solid green;"">","null","","","","","","","","",""
"","image-keyboard-response","208","71990","0.0-208.0","3UJ1CZ6IZIBAA7NO4NTEGTRLFV15SC","AZKFSYWVPF6JL","3P520RYKCHSO30HY2QJC6BDLS9Z5UE","","250.60000002384186","img/flower1.png","74","251","1","1","1","1","1,0.333,0.333,0.333,1,0.333,0.333,0.333,1","1,0.333,0.333,0.333,1,0.333,0.333,0.333,1","1",""
"","html-keyboard-response","209","72292","0.0-209.0","3UJ1CZ6IZIBAA7NO4NTEGTRLFV15SC","AZKFSYWVPF6JL","3P520RYKCHSO30HY2QJC6BDLS9Z5UE","","null","<img src=""img/flower1.png"" style=""width:200px; border:14px solid green;"">","null","","","","","","","","",""
"","image-keyboard-response","210","72526","0.0-210.0","3UJ1CZ6IZIBAA7NO4NTEGTRLFV15SC","AZKFSYWVPF6JL","3P520RYKCHSO30HY2QJC6BDLS9Z5UE","","233.80000001192093","img/flower3.png","74","234.30000001192093","1","0","3","1","1,0.333,0.333,0.333,1,0.333,0.333,0.333,1","1,0.333,0.333,0.333,1,0.333,0.333,0.333,1","1",""
"","html-keyboard-response","211","72827","0.0-211.0","3UJ1CZ6IZIBAA7NO4NTEGTRLFV15SC","AZKFSYWVPF6JL","3P520RYKCHSO30HY2QJC6BDLS9Z5UE","","null","<img src=""img/flower3.png"" style=""width:200px;border:14px solid red;"">","null","","","","","","","","",""
"","image-keyboard-response","212","73462","0.0-212.0","3UJ1CZ6IZIBAA7NO4NTEGTRLFV15SC","AZKFSYWVPF6JL","3P520RYKCHSO30HY2QJC6BDLS9Z5UE","","634.3999999761581","img/flower2.png","75","634.8999999761581","2","1","2","1","1,0.333,0.333,0.333,1,0.333,0.333,0.333,1","1,0.333,0.333,0.333,1,0.333,0.333,0.333,1","1",""
"","html-keyboard-response","213","73763","0.0-213.0","3UJ1CZ6IZIBAA7NO4NTEGTRLFV15SC","AZKFSYWVPF6JL","3P520RYKCHSO30HY2QJC6BDLS9Z5UE","","null","<img src=""img/flower2.png"" style=""width:200px; border:14px solid green;"">","null","","","","","","","","",""
"","image-keyboard-response","214","74062","0.0-214.0","3UJ1CZ6IZIBAA7NO4NTEGTRLFV15SC","AZKFSYWVPF6JL","3P520RYKCHSO30HY2QJC6BDLS9Z5UE","","298.0999999642372","img/flower2.png","75","298.60000002384186","2","1","2","1","1,0.333,0.333,0.333,1,0.333,0.333,0.333,1","1,0.333,0.333,0.333,1,0.333,0.333,0.333,1","1",""
"","html-keyboard-response","215","74363","0.0-215.0","3UJ1CZ6IZIBAA7NO4NTEGTRLFV15SC","AZKFSYWVPF6JL","3P520RYKCHSO30HY2QJC6BDLS9Z5UE","","null","<img src=""img/flower2.png"" style=""width:200px; border:14px solid green;"">","null","","","","","","","","",""
"","image-keyboard-response","216","74766","0.0-216.0","3UJ1CZ6IZIBAA7NO4NTEGTRLFV15SC","AZKFSYWVPF6JL","3P520RYKCHSO30HY2QJC6BDLS9Z5UE","","403","img/flower2.png","75","403.5","2","1","2","1","1,0.333,0.333,0.333,1,0.333,0.333,0.333,1","1,0.333,0.333,0.333,1,0.333,0.333,0.333,1","1",""
"","html-keyboard-response","217","75068","0.0-217.0","3UJ1CZ6IZIBAA7NO4NTEGTRLFV15SC","AZKFSYWVPF6JL","3P520RYKCHSO30HY2QJC6BDLS9Z5UE","","null","<img src=""img/flower2.png"" style=""width:200px; border:14px solid green;"">","null","","","","","","","","",""
"","image-keyboard-response","218","75526","0.0-218.0","3UJ1CZ6IZIBAA7NO4NTEGTRLFV15SC","AZKFSYWVPF6JL","3P520RYKCHSO30HY2QJC6BDLS9Z5UE","","458","img/flower3.png","76","458.5","3","1","3","1","1,0.333,0.333,0.333,1,0.333,0.333,0.333,1","1,0.333,0.333,0.333,1,0.333,0.333,0.333,1","1",""
"","html-keyboard-response","219","75829","0.0-219.0","3UJ1CZ6IZIBAA7NO4NTEGTRLFV15SC","AZKFSYWVPF6JL","3P520RYKCHSO30HY2QJC6BDLS9Z5UE","","null","<img src=""img/flower3.png"" style=""width:200px; border:14px solid green;"">","null","","","","","","","","",""
"","image-keyboard-response","220","76358","0.0-220.0","3UJ1CZ6IZIBAA7NO4NTEGTRLFV15SC","AZKFSYWVPF6JL","3P520RYKCHSO30HY2QJC6BDLS9Z5UE","","528.8999999761581","img/flower2.png","75","529.3999999761581","2","1","2","1","1,0.333,0.333,0.333,1,0.333,0.333,0.333,1","1,0.333,0.333,0.333,1,0.333,0.333,0.333,1","1",""
"","html-keyboard-response","221","76659","0.0-221.0","3UJ1CZ6IZIBAA7NO4NTEGTRLFV15SC","AZKFSYWVPF6JL","3P520RYKCHSO30HY2QJC6BDLS9Z5UE","","null","<img src=""img/flower2.png"" style=""width:200px; border:14px solid green;"">","null","","","","","","","","",""
"","image-keyboard-response","222","77110","0.0-222.0","3UJ1CZ6IZIBAA7NO4NTEGTRLFV15SC","AZKFSYWVPF6JL","3P520RYKCHSO30HY2QJC6BDLS9Z5UE","","451.10000002384186","img/flower3.png","76","451.5999999642372","3","1","3","1","1,0.333,0.333,0.333,1,0.333,0.333,0.333,1","1,0.333,0.333,0.333,1,0.333,0.333,0.333,1","1",""
"","html-keyboard-response","223","77411","0.0-223.0","3UJ1CZ6IZIBAA7NO4NTEGTRLFV15SC","AZKFSYWVPF6JL","3P520RYKCHSO30HY2QJC6BDLS9Z5UE","","null","<img src=""img/flower3.png"" style=""width:200px; border:14px solid green;"">","null","","","","","","","","",""
"","image-keyboard-response","224","77942","0.0-224.0","3UJ1CZ6IZIBAA7NO4NTEGTRLFV15SC","AZKFSYWVPF6JL","3P520RYKCHSO30HY2QJC6BDLS9Z5UE","","530.6999999880791","img/flower1.png","74","531.1999999880791","1","1","1","1","1,0.333,0.333,0.333,1,0.333,0.333,0.333,1","1,0.333,0.333,0.333,1,0.333,0.333,0.333,1","1",""
"","html-keyboard-response","225","78244","0.0-225.0","3UJ1CZ6IZIBAA7NO4NTEGTRLFV15SC","AZKFSYWVPF6JL","3P520RYKCHSO30HY2QJC6BDLS9Z5UE","","null","<img src=""img/flower1.png"" style=""width:200px; border:14px solid green;"">","null","","","","","","","","",""
"","image-keyboard-response","226","78662","0.0-226.0","3UJ1CZ6IZIBAA7NO4NTEGTRLFV15SC","AZKFSYWVPF6JL","3P520RYKCHSO30HY2QJC6BDLS9Z5UE","","418","img/flower1.png","74","418.5","1","1","1","1","1,0.333,0.333,0.333,1,0.333,0.333,0.333,1","1,0.333,0.333,0.333,1,0.333,0.333,0.333,1","1",""
"","html-keyboard-response","227","78963","0.0-227.0","3UJ1CZ6IZIBAA7NO4NTEGTRLFV15SC","AZKFSYWVPF6JL","3P520RYKCHSO30HY2QJC6BDLS9Z5UE","","null","<img src=""img/flower1.png"" style=""width:200px; border:14px solid green;"">","null","","","","","","","","",""
"","image-keyboard-response","228","79478","0.0-228.0","3UJ1CZ6IZIBAA7NO4NTEGTRLFV15SC","AZKFSYWVPF6JL","3P520RYKCHSO30HY2QJC6BDLS9Z5UE","","514.8999999761581","img/flower2.png","75","515.4000000357628","2","1","2","1","1,0.333,0.333,0.333,1,0.333,0.333,0.333,1","1,0.333,0.333,0.333,1,0.333,0.333,0.333,1","1",""
"","html-keyboard-response","229","79780","0.0-229.0","3UJ1CZ6IZIBAA7NO4NTEGTRLFV15SC","AZKFSYWVPF6JL","3P520RYKCHSO30HY2QJC6BDLS9Z5UE","","null","<img src=""img/flower2.png"" style=""width:200px; border:14px solid green;"">","null","","","","","","","","",""
"","image-keyboard-response","230","80342","0.0-230.0","3UJ1CZ6IZIBAA7NO4NTEGTRLFV15SC","AZKFSYWVPF6JL","3P520RYKCHSO30HY2QJC6BDLS9Z5UE","","562","img/flower1.png","74","562.3000000119209","1","1","1","1","1,0.333,0.333,0.333,1,0.333,0.333,0.333,1","1,0.333,0.333,0.333,1,0.333,0.333,0.333,1","1",""
"","html-keyboard-response","231","80648","0.0-231.0","3UJ1CZ6IZIBAA7NO4NTEGTRLFV15SC","AZKFSYWVPF6JL","3P520RYKCHSO30HY2QJC6BDLS9Z5UE","","null","<img src=""img/flower1.png"" style=""width:200px; border:14px solid green;"">","null","","","","","","","","",""
"","image-keyboard-response","232","81286","0.0-232.0","3UJ1CZ6IZIBAA7NO4NTEGTRLFV15SC","AZKFSYWVPF6JL","3P520RYKCHSO30HY2QJC6BDLS9Z5UE","","637.8999999761581","img/flower3.png","75","638.4000000357628","2","0","3","1","1,0.333,0.333,0.333,1,0.333,0.333,0.333,1","1,0.333,0.333,0.333,1,0.333,0.333,0.333,1","1",""
"","html-keyboard-response","233","81588","0.0-233.0","3UJ1CZ6IZIBAA7NO4NTEGTRLFV15SC","AZKFSYWVPF6JL","3P520RYKCHSO30HY2QJC6BDLS9Z5UE","","null","<img src=""img/flower3.png"" style=""width:200px;border:14px solid red;"">","null","","","","","","","","",""
"","image-keyboard-response","234","81958","0.0-234.0","3UJ1CZ6IZIBAA7NO4NTEGTRLFV15SC","AZKFSYWVPF6JL","3P520RYKCHSO30HY2QJC6BDLS9Z5UE","","369.89999997615814","img/flower3.png","76","370.5","3","1","3","1","1,0.333,0.333,0.333,1,0.333,0.333,0.333,1","1,0.333,0.333,0.333,1,0.333,0.333,0.333,1","1",""
"","html-keyboard-response","235","82259","0.0-235.0","3UJ1CZ6IZIBAA7NO4NTEGTRLFV15SC","AZKFSYWVPF6JL","3P520RYKCHSO30HY2QJC6BDLS9Z5UE","","null","<img src=""img/flower3.png"" style=""width:200px; border:14px solid green;"">","null","","","","","","","","",""
"","image-keyboard-response","236","82790","0.0-236.0","3UJ1CZ6IZIBAA7NO4NTEGTRLFV15SC","AZKFSYWVPF6JL","3P520RYKCHSO30HY2QJC6BDLS9Z5UE","","530.5999999642372","img/flower2.png","75","530.9000000357628","2","1","2","1","1,0.333,0.333,0.333,1,0.333,0.333,0.333,1","1,0.333,0.333,0.333,1,0.333,0.333,0.333,1","1",""
"","html-keyboard-response","237","83098","0.0-237.0","3UJ1CZ6IZIBAA7NO4NTEGTRLFV15SC","AZKFSYWVPF6JL","3P520RYKCHSO30HY2QJC6BDLS9Z5UE","","null","<img src=""img/flower2.png"" style=""width:200px; border:14px solid green;"">","null","","","","","","","","",""
"","image-keyboard-response","238","83446","0.0-238.0","3UJ1CZ6IZIBAA7NO4NTEGTRLFV15SC","AZKFSYWVPF6JL","3P520RYKCHSO30HY2QJC6BDLS9Z5UE","","348","img/flower2.png","75","348.60000002384186","2","1","2","1","1,0.333,0.333,0.333,1,0.333,0.333,0.333,1","1,0.333,0.333,0.333,1,0.333,0.333,0.333,1","1",""
"","html-keyboard-response","239","83748","0.0-239.0","3UJ1CZ6IZIBAA7NO4NTEGTRLFV15SC","AZKFSYWVPF6JL","3P520RYKCHSO30HY2QJC6BDLS9Z5UE","","null","<img src=""img/flower2.png"" style=""width:200px; border:14px solid green;"">","null","","","","","","","","",""
"","image-keyboard-response","240","84238","0.0-240.0","3UJ1CZ6IZIBAA7NO4NTEGTRLFV15SC","AZKFSYWVPF6JL","3P520RYKCHSO30HY2QJC6BDLS9Z5UE","","490","img/flower3.png","76","490.39999997615814","3","1","3","1","1,0.333,0.333,0.333,1,0.333,0.333,0.333,1","1,0.333,0.333,0.333,1,0.333,0.333,0.333,1","1",""
"","html-keyboard-response","241","84539","0.0-241.0","3UJ1CZ6IZIBAA7NO4NTEGTRLFV15SC","AZKFSYWVPF6JL","3P520RYKCHSO30HY2QJC6BDLS9Z5UE","","null","<img src=""img/flower3.png"" style=""width:200px; border:14px solid green;"">","null","","","","","","","","",""
"","image-keyboard-response","242","85238","0.0-242.0","3UJ1CZ6IZIBAA7NO4NTEGTRLFV15SC","AZKFSYWVPF6JL","3P520RYKCHSO30HY2QJC6BDLS9Z5UE","","698.1999999880791","img/flower2.png","75","698.7000000476837","2","1","2","1","1,0.333,0.333,0.333,1,0.333,0.333,0.333,1","1,0.333,0.333,0.333,1,0.333,0.333,0.333,1","1",""
"","html-keyboard-response","243","85539","0.0-243.0","3UJ1CZ6IZIBAA7NO4NTEGTRLFV15SC","AZKFSYWVPF6JL","3P520RYKCHSO30HY2QJC6BDLS9Z5UE","","null","<img src=""img/flower2.png"" style=""width:200px; border:14px solid green;"">","null","","","","","","","","",""
"","image-keyboard-response","244","86110","0.0-244.0","3UJ1CZ6IZIBAA7NO4NTEGTRLFV15SC","AZKFSYWVPF6JL","3P520RYKCHSO30HY2QJC6BDLS9Z5UE","","570.6999999880791","img/flower3.png","76","571","3","1","3","1","1,0.333,0.333,0.333,1,0.333,0.333,0.333,1","1,0.333,0.333,0.333,1,0.333,0.333,0.333,1","1",""
"","html-keyboard-response","245","86412","0.0-245.0","3UJ1CZ6IZIBAA7NO4NTEGTRLFV15SC","AZKFSYWVPF6JL","3P520RYKCHSO30HY2QJC6BDLS9Z5UE","","null","<img src=""img/flower3.png"" style=""width:200px; border:14px solid green;"">","null","","","","","","","","",""
"","image-keyboard-response","246","86814","0.0-246.0","3UJ1CZ6IZIBAA7NO4NTEGTRLFV15SC","AZKFSYWVPF6JL","3P520RYKCHSO30HY2QJC6BDLS9Z5UE","","402","img/flower3.png","76","402.60000002384186","3","1","3","1","1,0.333,0.333,0.333,1,0.333,0.333,0.333,1","1,0.333,0.333,0.333,1,0.333,0.333,0.333,1","1",""
"","html-keyboard-response","247","87116","0.0-247.0","3UJ1CZ6IZIBAA7NO4NTEGTRLFV15SC","AZKFSYWVPF6JL","3P520RYKCHSO30HY2QJC6BDLS9Z5UE","","null","<img src=""img/flower3.png"" style=""width:200px; border:14px solid green;"">","null","","","","","","","","",""
"","image-keyboard-response","248","87486","0.0-248.0","3UJ1CZ6IZIBAA7NO4NTEGTRLFV15SC","AZKFSYWVPF6JL","3P520RYKCHSO30HY2QJC6BDLS9Z5UE","","370.10000002384186","img/flower3.png","76","370.5","3","1","3","1","1,0.333,0.333,0.333,1,0.333,0.333,0.333,1","1,0.333,0.333,0.333,1,0.333,0.333,0.333,1","1",""
"","html-keyboard-response","249","87787","0.0-249.0","3UJ1CZ6IZIBAA7NO4NTEGTRLFV15SC","AZKFSYWVPF6JL","3P520RYKCHSO30HY2QJC6BDLS9Z5UE","","null","<img src=""img/flower3.png"" style=""width:200px; border:14px solid green;"">","null","","","","","","","","",""
"","image-keyboard-response","250","88414","0.0-250.0","3UJ1CZ6IZIBAA7NO4NTEGTRLFV15SC","AZKFSYWVPF6JL","3P520RYKCHSO30HY2QJC6BDLS9Z5UE","","626","img/flower1.png","74","626.5","1","1","1","1","1,0.333,0.333,0.333,1,0.333,0.333,0.333,1","1,0.333,0.333,0.333,1,0.333,0.333,0.333,1","1",""
"","html-keyboard-response","251","88715","0.0-251.0","3UJ1CZ6IZIBAA7NO4NTEGTRLFV15SC","AZKFSYWVPF6JL","3P520RYKCHSO30HY2QJC6BDLS9Z5UE","","null","<img src=""img/flower1.png"" style=""width:200px; border:14px solid green;"">","null","","","","","","","","",""
"","image-keyboard-response","252","89078","0.0-252.0","3UJ1CZ6IZIBAA7NO4NTEGTRLFV15SC","AZKFSYWVPF6JL","3P520RYKCHSO30HY2QJC6BDLS9Z5UE","","362.19999998807907","img/flower1.png","74","362.60000002384186","1","1","1","1","1,0.333,0.333,0.333,1,0.333,0.333,0.333,1","1,0.333,0.333,0.333,1,0.333,0.333,0.333,1","1",""
"","html-keyboard-response","253","89379","0.0-253.0","3UJ1CZ6IZIBAA7NO4NTEGTRLFV15SC","AZKFSYWVPF6JL","3P520RYKCHSO30HY2QJC6BDLS9Z5UE","","null","<img src=""img/flower1.png"" style=""width:200px; border:14px solid green;"">","null","","","","","","","","",""
"","image-keyboard-response","254","89862","0.0-254.0","3UJ1CZ6IZIBAA7NO4NTEGTRLFV15SC","AZKFSYWVPF6JL","3P520RYKCHSO30HY2QJC6BDLS9Z5UE","","482.89999997615814","img/flower2.png","75","483.30000001192093","2","1","2","1","1,0.333,0.333,0.333,1,0.333,0.333,0.333,1","1,0.333,0.333,0.333,1,0.333,0.333,0.333,1","1",""
"","html-keyboard-response","255","90164","0.0-255.0","3UJ1CZ6IZIBAA7NO4NTEGTRLFV15SC","AZKFSYWVPF6JL","3P520RYKCHSO30HY2QJC6BDLS9Z5UE","","null","<img src=""img/flower2.png"" style=""width:200px; border:14px solid green;"">","null","","","","","","","","",""
"","image-keyboard-response","256","90678","0.0-256.0","3UJ1CZ6IZIBAA7NO4NTEGTRLFV15SC","AZKFSYWVPF6JL","3P520RYKCHSO30HY2QJC6BDLS9Z5UE","","513.7999999523163","img/flower1.png","74","514.3000000119209","1","1","1","1","1,0.333,0.333,0.333,1,0.333,0.333,0.333,1","1,0.333,0.333,0.333,1,0.333,0.333,0.333,1","1",""
"","html-keyboard-response","257","90980","0.0-257.0","3UJ1CZ6IZIBAA7NO4NTEGTRLFV15SC","AZKFSYWVPF6JL","3P520RYKCHSO30HY2QJC6BDLS9Z5UE","","null","<img src=""img/flower1.png"" style=""width:200px; border:14px solid green;"">","null","","","","","","","","",""
"","image-keyboard-response","258","91534","0.0-258.0","3UJ1CZ6IZIBAA7NO4NTEGTRLFV15SC","AZKFSYWVPF6JL","3P520RYKCHSO30HY2QJC6BDLS9Z5UE","","553.8999999761581","img/flower3.png","76","554.5999999642372","3","1","3","1","1,0.333,0.333,0.333,1,0.333,0.333,0.333,1","1,0.333,0.333,0.333,1,0.333,0.333,0.333,1","1",""
"","html-keyboard-response","259","91836","0.0-259.0","3UJ1CZ6IZIBAA7NO4NTEGTRLFV15SC","AZKFSYWVPF6JL","3P520RYKCHSO30HY2QJC6BDLS9Z5UE","","null","<img src=""img/flower3.png"" style=""width:200px; border:14px solid green;"">","null","","","","","","","","",""
"","image-keyboard-response","260","92374","0.0-260.0","3UJ1CZ6IZIBAA7NO4NTEGTRLFV15SC","AZKFSYWVPF6JL","3P520RYKCHSO30HY2QJC6BDLS9Z5UE","","537.7999999523163","img/flower1.png","74","538.4000000357628","1","1","1","1","1,0.333,0.333,0.333,1,0.333,0.333,0.333,1","1,0.333,0.333,0.333,1,0.333,0.333,0.333,1","1",""
"","html-keyboard-response","261","92675","0.0-261.0","3UJ1CZ6IZIBAA7NO4NTEGTRLFV15SC","AZKFSYWVPF6JL","3P520RYKCHSO30HY2QJC6BDLS9Z5UE","","null","<img src=""img/flower1.png"" style=""width:200px; border:14px solid green;"">","null","","","","","","","","",""
"","image-keyboard-response","262","93070","0.0-262.0","3UJ1CZ6IZIBAA7NO4NTEGTRLFV15SC","AZKFSYWVPF6JL","3P520RYKCHSO30HY2QJC6BDLS9Z5UE","","394.30000001192093","img/flower2.png","75","394.80000001192093","2","1","2","1","1,0.333,0.333,0.333,1,0.333,0.333,0.333,1","1,0.333,0.333,0.333,1,0.333,0.333,0.333,1","1",""
"","html-keyboard-response","263","93372","0.0-263.0","3UJ1CZ6IZIBAA7NO4NTEGTRLFV15SC","AZKFSYWVPF6JL","3P520RYKCHSO30HY2QJC6BDLS9Z5UE","","null","<img src=""img/flower2.png"" style=""width:200px; border:14px solid green;"">","null","","","","","","","","",""
"","image-keyboard-response","264","94078","0.0-264.0","3UJ1CZ6IZIBAA7NO4NTEGTRLFV15SC","AZKFSYWVPF6JL","3P520RYKCHSO30HY2QJC6BDLS9Z5UE","","705.7999999523163","img/flower1.png","74","706.4000000357628","1","1","1","1","1,0.333,0.333,0.333,1,0.333,0.333,0.333,1","1,0.333,0.333,0.333,1,0.333,0.333,0.333,1","1",""
"","html-keyboard-response","265","94379","0.0-265.0","3UJ1CZ6IZIBAA7NO4NTEGTRLFV15SC","AZKFSYWVPF6JL","3P520RYKCHSO30HY2QJC6BDLS9Z5UE","","null","<img src=""img/flower1.png"" style=""width:200px; border:14px solid green;"">","null","","","","","","","","",""
"","image-keyboard-response","266","95422","0.0-266.0","3UJ1CZ6IZIBAA7NO4NTEGTRLFV15SC","AZKFSYWVPF6JL","3P520RYKCHSO30HY2QJC6BDLS9Z5UE","","1042.5","img/flower2.png","75","1043","2","1","2","1","1,0.333,0.333,0.333,1,0.333,0.333,0.333,1","1,0.333,0.333,0.333,1,0.333,0.333,0.333,1","1",""
"","html-keyboard-response","267","95724","0.0-267.0","3UJ1CZ6IZIBAA7NO4NTEGTRLFV15SC","AZKFSYWVPF6JL","3P520RYKCHSO30HY2QJC6BDLS9Z5UE","","null","<img src=""img/flower2.png"" style=""width:200px; border:14px solid green;"">","null","","","","","","","","",""
"","image-keyboard-response","268","96318","0.0-268.0","3UJ1CZ6IZIBAA7NO4NTEGTRLFV15SC","AZKFSYWVPF6JL","3P520RYKCHSO30HY2QJC6BDLS9Z5UE","","593.6000000238419","img/flower1.png","74","594.1000000238419","1","1","1","1","1,0.333,0.333,0.333,1,0.333,0.333,0.333,1","1,0.333,0.333,0.333,1,0.333,0.333,0.333,1","1",""
"","html-keyboard-response","269","96619","0.0-269.0","3UJ1CZ6IZIBAA7NO4NTEGTRLFV15SC","AZKFSYWVPF6JL","3P520RYKCHSO30HY2QJC6BDLS9Z5UE","","null","<img src=""img/flower1.png"" style=""width:200px; border:14px solid green;"">","null","","","","","","","","",""
"","image-keyboard-response","270","97118","0.0-270.0","3UJ1CZ6IZIBAA7NO4NTEGTRLFV15SC","AZKFSYWVPF6JL","3P520RYKCHSO30HY2QJC6BDLS9Z5UE","","498.60000002384186","img/flower3.png","76","499.5999999642372","3","1","3","1","1,0.333,0.333,0.333,1,0.333,0.333,0.333,1","1,0.333,0.333,0.333,1,0.333,0.333,0.333,1","1",""
"","html-keyboard-response","271","97420","0.0-271.0","3UJ1CZ6IZIBAA7NO4NTEGTRLFV15SC","AZKFSYWVPF6JL","3P520RYKCHSO30HY2QJC6BDLS9Z5UE","","null","<img src=""img/flower3.png"" style=""width:200px; border:14px solid green;"">","null","","","","","","","","",""
"","image-keyboard-response","272","97838","0.0-272.0","3UJ1CZ6IZIBAA7NO4NTEGTRLFV15SC","AZKFSYWVPF6JL","3P520RYKCHSO30HY2QJC6BDLS9Z5UE","","417.7999999523163","img/flower2.png","75","418.4000000357628","2","1","2","1","1,0.333,0.333,0.333,1,0.333,0.333,0.333,1","1,0.333,0.333,0.333,1,0.333,0.333,0.333,1","1",""
"","html-keyboard-response","273","98141","0.0-273.0","3UJ1CZ6IZIBAA7NO4NTEGTRLFV15SC","AZKFSYWVPF6JL","3P520RYKCHSO30HY2QJC6BDLS9Z5UE","","null","<img src=""img/flower2.png"" style=""width:200px; border:14px solid green;"">","null","","","","","","","","",""
"","image-keyboard-response","274","98750","0.0-274.0","3UJ1CZ6IZIBAA7NO4NTEGTRLFV15SC","AZKFSYWVPF6JL","3P520RYKCHSO30HY2QJC6BDLS9Z5UE","","609","img/flower3.png","76","609.3000000119209","3","1","3","1","1,0.333,0.333,0.333,1,0.333,0.333,0.333,1","1,0.333,0.333,0.333,1,0.333,0.333,0.333,1","1",""
"","html-keyboard-response","275","99060","0.0-275.0","3UJ1CZ6IZIBAA7NO4NTEGTRLFV15SC","AZKFSYWVPF6JL","3P520RYKCHSO30HY2QJC6BDLS9Z5UE","","null","<img src=""img/flower3.png"" style=""width:200px; border:14px solid green;"">","null","","","","","","","","",""
"","image-keyboard-response","276","99582","0.0-276.0","3UJ1CZ6IZIBAA7NO4NTEGTRLFV15SC","AZKFSYWVPF6JL","3P520RYKCHSO30HY2QJC6BDLS9Z5UE","","521.3000000119209","img/flower1.png","74","521.7000000476837","1","1","1","1","1,0.333,0.333,0.333,1,0.333,0.333,0.333,1","1,0.333,0.333,0.333,1,0.333,0.333,0.333,1","1",""
"","html-keyboard-response","277","99884","0.0-277.0","3UJ1CZ6IZIBAA7NO4NTEGTRLFV15SC","AZKFSYWVPF6JL","3P520RYKCHSO30HY2QJC6BDLS9Z5UE","","null","<img src=""img/flower1.png"" style=""width:200px; border:14px solid green;"">","null","","","","","","","","",""
"","image-keyboard-response","278","100310","0.0-278.0","3UJ1CZ6IZIBAA7NO4NTEGTRLFV15SC","AZKFSYWVPF6JL","3P520RYKCHSO30HY2QJC6BDLS9Z5UE","","425.30000001192093","img/flower1.png","74","425.7000000476837","1","1","1","1","1,0.333,0.333,0.333,1,0.333,0.333,0.333,1","1,0.333,0.333,0.333,1,0.333,0.333,0.333,1","1",""
"","html-keyboard-response","279","100611","0.0-279.0","3UJ1CZ6IZIBAA7NO4NTEGTRLFV15SC","AZKFSYWVPF6JL","3P520RYKCHSO30HY2QJC6BDLS9Z5UE","","null","<img src=""img/flower1.png"" style=""width:200px; border:14px solid green;"">","null","","","","","","","","",""
"","image-keyboard-response","280","101182","0.0-280.0","3UJ1CZ6IZIBAA7NO4NTEGTRLFV15SC","AZKFSYWVPF6JL","3P520RYKCHSO30HY2QJC6BDLS9Z5UE","","570.6000000238419","img/flower2.png","75","571","2","1","2","1","1,0.333,0.333,0.333,1,0.333,0.333,0.333,1","1,0.333,0.333,0.333,1,0.333,0.333,0.333,1","1",""
"","html-keyboard-response","281","101483","0.0-281.0","3UJ1CZ6IZIBAA7NO4NTEGTRLFV15SC","AZKFSYWVPF6JL","3P520RYKCHSO30HY2QJC6BDLS9Z5UE","","null","<img src=""img/flower2.png"" style=""width:200px; border:14px solid green;"">","null","","","","","","","","",""
"","image-keyboard-response","282","101926","0.0-282.0","3UJ1CZ6IZIBAA7NO4NTEGTRLFV15SC","AZKFSYWVPF6JL","3P520RYKCHSO30HY2QJC6BDLS9Z5UE","","442.30000001192093","img/flower3.png","76","442.7000000476837","3","1","3","1","1,0.333,0.333,0.333,1,0.333,0.333,0.333,1","1,0.333,0.333,0.333,1,0.333,0.333,0.333,1","1",""
"","html-keyboard-response","283","102228","0.0-283.0","3UJ1CZ6IZIBAA7NO4NTEGTRLFV15SC","AZKFSYWVPF6JL","3P520RYKCHSO30HY2QJC6BDLS9Z5UE","","null","<img src=""img/flower3.png"" style=""width:200px; border:14px solid green;"">","null","","","","","","","","",""
"","image-keyboard-response","284","102750","0.0-284.0","3UJ1CZ6IZIBAA7NO4NTEGTRLFV15SC","AZKFSYWVPF6JL","3P520RYKCHSO30HY2QJC6BDLS9Z5UE","","521.6999999880791","img/flower1.png","74","522.1999999880791","1","1","1","1","1,0.333,0.333,0.333,1,0.333,0.333,0.333,1","1,0.333,0.333,0.333,1,0.333,0.333,0.333,1","1",""
"","html-keyboard-response","285","103059","0.0-285.0","3UJ1CZ6IZIBAA7NO4NTEGTRLFV15SC","AZKFSYWVPF6JL","3P520RYKCHSO30HY2QJC6BDLS9Z5UE","","null","<img src=""img/flower1.png"" style=""width:200px; border:14px solid green;"">","null","","","","","","","","",""
"","image-keyboard-response","286","103478","0.0-286.0","3UJ1CZ6IZIBAA7NO4NTEGTRLFV15SC","AZKFSYWVPF6JL","3P520RYKCHSO30HY2QJC6BDLS9Z5UE","","418.5","img/flower2.png","75","419","2","1","2","1","1,0.333,0.333,0.333,1,0.333,0.333,0.333,1","1,0.333,0.333,0.333,1,0.333,0.333,0.333,1","1",""
"","html-keyboard-response","287","103780","0.0-287.0","3UJ1CZ6IZIBAA7NO4NTEGTRLFV15SC","AZKFSYWVPF6JL","3P520RYKCHSO30HY2QJC6BDLS9Z5UE","","null","<img src=""img/flower2.png"" style=""width:200px; border:14px solid green;"">","null","","","","","","","","",""
"","image-keyboard-response","288","104318","0.0-288.0","3UJ1CZ6IZIBAA7NO4NTEGTRLFV15SC","AZKFSYWVPF6JL","3P520RYKCHSO30HY2QJC6BDLS9Z5UE","","538","img/flower3.png","76","538.3999999761581","3","1","3","1","1,0.333,0.333,0.333,1,0.333,0.333,0.333,1","1,0.333,0.333,0.333,1,0.333,0.333,0.333,1","1",""
"","html-keyboard-response","289","104620","0.0-289.0","3UJ1CZ6IZIBAA7NO4NTEGTRLFV15SC","AZKFSYWVPF6JL","3P520RYKCHSO30HY2QJC6BDLS9Z5UE","","null","<img src=""img/flower3.png"" style=""width:200px; border:14px solid green;"">","null","","","","","","","","",""
"","image-keyboard-response","290","105206","0.0-290.0","3UJ1CZ6IZIBAA7NO4NTEGTRLFV15SC","AZKFSYWVPF6JL","3P520RYKCHSO30HY2QJC6BDLS9Z5UE","","585.8999999761581","img/flower2.png","75","586.5","2","1","2","1","1,0.333,0.333,0.333,1,0.333,0.333,0.333,1","1,0.333,0.333,0.333,1,0.333,0.333,0.333,1","1",""
"","html-keyboard-response","291","105508","0.0-291.0","3UJ1CZ6IZIBAA7NO4NTEGTRLFV15SC","AZKFSYWVPF6JL","3P520RYKCHSO30HY2QJC6BDLS9Z5UE","","null","<img src=""img/flower2.png"" style=""width:200px; border:14px solid green;"">","null","","","","","","","","",""
"","image-keyboard-response","292","105982","0.0-292.0","3UJ1CZ6IZIBAA7NO4NTEGTRLFV15SC","AZKFSYWVPF6JL","3P520RYKCHSO30HY2QJC6BDLS9Z5UE","","473.39999997615814","img/flower2.png","75","473.89999997615814","2","1","2","1","1,0.333,0.333,0.333,1,0.333,0.333,0.333,1","1,0.333,0.333,0.333,1,0.333,0.333,0.333,1","1",""
"","html-keyboard-response","293","106284","0.0-293.0","3UJ1CZ6IZIBAA7NO4NTEGTRLFV15SC","AZKFSYWVPF6JL","3P520RYKCHSO30HY2QJC6BDLS9Z5UE","","null","<img src=""img/flower2.png"" style=""width:200px; border:14px solid green;"">","null","","","","","","","","",""
"","image-keyboard-response","294","106838","0.0-294.0","3UJ1CZ6IZIBAA7NO4NTEGTRLFV15SC","AZKFSYWVPF6JL","3P520RYKCHSO30HY2QJC6BDLS9Z5UE","","553.6999999880791","img/flower3.png","76","554.3000000119209","3","1","3","1","1,0.333,0.333,0.333,1,0.333,0.333,0.333,1","1,0.333,0.333,0.333,1,0.333,0.333,0.333,1","1",""
"","html-keyboard-response","295","107154","0.0-295.0","3UJ1CZ6IZIBAA7NO4NTEGTRLFV15SC","AZKFSYWVPF6JL","3P520RYKCHSO30HY2QJC6BDLS9Z5UE","","null","<img src=""img/flower3.png"" style=""width:200px; border:14px solid green;"">","null","","","","","","","","",""
"","image-keyboard-response","296","107694","0.0-296.0","3UJ1CZ6IZIBAA7NO4NTEGTRLFV15SC","AZKFSYWVPF6JL","3P520RYKCHSO30HY2QJC6BDLS9Z5UE","","539.3999999761581","img/flower2.png","75","539.8999999761581","2","1","2","1","1,0.333,0.333,0.333,1,0.333,0.333,0.333,1","1,0.333,0.333,0.333,1,0.333,0.333,0.333,1","1",""
"","html-keyboard-response","297","107995","0.0-297.0","3UJ1CZ6IZIBAA7NO4NTEGTRLFV15SC","AZKFSYWVPF6JL","3P520RYKCHSO30HY2QJC6BDLS9Z5UE","","null","<img src=""img/flower2.png"" style=""width:200px; border:14px solid green;"">","null","","","","","","","","",""
"","image-keyboard-response","298","108574","0.0-298.0","3UJ1CZ6IZIBAA7NO4NTEGTRLFV15SC","AZKFSYWVPF6JL","3P520RYKCHSO30HY2QJC6BDLS9Z5UE","","578.3999999761581","img/flower1.png","74","579","1","1","1","1","1,0.333,0.333,0.333,1,0.333,0.333,0.333,1","1,0.333,0.333,0.333,1,0.333,0.333,0.333,1","1",""
"","html-keyboard-response","299","108875","0.0-299.0","3UJ1CZ6IZIBAA7NO4NTEGTRLFV15SC","AZKFSYWVPF6JL","3P520RYKCHSO30HY2QJC6BDLS9Z5UE","","null","<img src=""img/flower1.png"" style=""width:200px; border:14px solid green;"">","null","","","","","","","","",""
"","image-keyboard-response","300","109550","0.0-300.0","3UJ1CZ6IZIBAA7NO4NTEGTRLFV15SC","AZKFSYWVPF6JL","3P520RYKCHSO30HY2QJC6BDLS9Z5UE","","674.3000000119209","img/flower3.png","76","674.8000000119209","3","1","3","1","1,0.333,0.333,0.333,1,0.333,0.333,0.333,1","1,0.333,0.333,0.333,1,0.333,0.333,0.333,1","1",""
"","html-keyboard-response","301","109851","0.0-301.0","3UJ1CZ6IZIBAA7NO4NTEGTRLFV15SC","AZKFSYWVPF6JL","3P520RYKCHSO30HY2QJC6BDLS9Z5UE","","null","<img src=""img/flower3.png"" style=""width:200px; border:14px solid green;"">","null","","","","","","","","",""
"","image-keyboard-response","302","110334","0.0-302.0","3UJ1CZ6IZIBAA7NO4NTEGTRLFV15SC","AZKFSYWVPF6JL","3P520RYKCHSO30HY2QJC6BDLS9Z5UE","","482.30000001192093","img/flower3.png","76","482.7000000476837","3","1","3","1","1,0.333,0.333,0.333,1,0.333,0.333,0.333,1","1,0.333,0.333,0.333,1,0.333,0.333,0.333,1","1",""
"","html-keyboard-response","303","110635","0.0-303.0","3UJ1CZ6IZIBAA7NO4NTEGTRLFV15SC","AZKFSYWVPF6JL","3P520RYKCHSO30HY2QJC6BDLS9Z5UE","","null","<img src=""img/flower3.png"" style=""width:200px; border:14px solid green;"">","null","","","","","","","","",""
"","image-keyboard-response","304","111094","0.0-304.0","3UJ1CZ6IZIBAA7NO4NTEGTRLFV15SC","AZKFSYWVPF6JL","3P520RYKCHSO30HY2QJC6BDLS9Z5UE","","458.39999997615814","img/flower3.png","76","458.89999997615814","3","1","3","1","1,0.333,0.333,0.333,1,0.333,0.333,0.333,1","1,0.333,0.333,0.333,1,0.333,0.333,0.333,1","1",""
"","html-keyboard-response","305","111398","0.0-305.0","3UJ1CZ6IZIBAA7NO4NTEGTRLFV15SC","AZKFSYWVPF6JL","3P520RYKCHSO30HY2QJC6BDLS9Z5UE","","null","<img src=""img/flower3.png"" style=""width:200px; border:14px solid green;"">","null","","","","","","","","",""
"","image-keyboard-response","306","112038","0.0-306.0","3UJ1CZ6IZIBAA7NO4NTEGTRLFV15SC","AZKFSYWVPF6JL","3P520RYKCHSO30HY2QJC6BDLS9Z5UE","","639.5","img/flower1.png","74","640","1","1","1","1","1,0.333,0.333,0.333,1,0.333,0.333,0.333,1","1,0.333,0.333,0.333,1,0.333,0.333,0.333,1","1",""
"","html-keyboard-response","307","112340","0.0-307.0","3UJ1CZ6IZIBAA7NO4NTEGTRLFV15SC","AZKFSYWVPF6JL","3P520RYKCHSO30HY2QJC6BDLS9Z5UE","","null","<img src=""img/flower1.png"" style=""width:200px; border:14px solid green;"">","null","","","","","","","","",""
"","image-keyboard-response","308","112870","0.0-308.0","3UJ1CZ6IZIBAA7NO4NTEGTRLFV15SC","AZKFSYWVPF6JL","3P520RYKCHSO30HY2QJC6BDLS9Z5UE","","529.6000000238419","img/flower2.png","75","529.8999999761581","2","1","2","1","1,0.333,0.333,0.333,1,0.333,0.333,0.333,1","1,0.333,0.333,0.333,1,0.333,0.333,0.333,1","1",""
"","html-keyboard-response","309","113171","0.0-309.0","3UJ1CZ6IZIBAA7NO4NTEGTRLFV15SC","AZKFSYWVPF6JL","3P520RYKCHSO30HY2QJC6BDLS9Z5UE","","null","<img src=""img/flower2.png"" style=""width:200px; border:14px solid green;"">","null","","","","","","","","",""
"","image-keyboard-response","310","113686","0.0-310.0","3UJ1CZ6IZIBAA7NO4NTEGTRLFV15SC","AZKFSYWVPF6JL","3P520RYKCHSO30HY2QJC6BDLS9Z5UE","","514.4000000357628","img/flower1.png","76","514.9000000357628","3","0","1","1","1,0.333,0.333,0.333,1,0.333,0.333,0.333,1","1,0.333,0.333,0.333,1,0.333,0.333,0.333,1","1",""
"","html-keyboard-response","311","113987","0.0-311.0","3UJ1CZ6IZIBAA7NO4NTEGTRLFV15SC","AZKFSYWVPF6JL","3P520RYKCHSO30HY2QJC6BDLS9Z5UE","","null","<img src=""img/flower1.png"" style=""width:200px;border:14px solid red;"">","null","","","","","","","","",""
"","image-keyboard-response","312","114614","0.0-312.0","3UJ1CZ6IZIBAA7NO4NTEGTRLFV15SC","AZKFSYWVPF6JL","3P520RYKCHSO30HY2QJC6BDLS9Z5UE","","626.5","img/flower2.png","75","627","2","1","2","1","1,0.333,0.333,0.333,1,0.333,0.333,0.333,1","1,0.333,0.333,0.333,1,0.333,0.333,0.333,1","1",""
"","html-keyboard-response","313","114916","0.0-313.0","3UJ1CZ6IZIBAA7NO4NTEGTRLFV15SC","AZKFSYWVPF6JL","3P520RYKCHSO30HY2QJC6BDLS9Z5UE","","null","<img src=""img/flower2.png"" style=""width:200px; border:14px solid green;"">","null","","","","","","","","",""
"","image-keyboard-response","314","115326","0.0-314.0","3UJ1CZ6IZIBAA7NO4NTEGTRLFV15SC","AZKFSYWVPF6JL","3P520RYKCHSO30HY2QJC6BDLS9Z5UE","","410.10000002384186","img/flower2.png","75","410.69999998807907","2","1","2","1","1,0.333,0.333,0.333,1,0.333,0.333,0.333,1","1,0.333,0.333,0.333,1,0.333,0.333,0.333,1","1",""
"","html-keyboard-response","315","115627","0.0-315.0","3UJ1CZ6IZIBAA7NO4NTEGTRLFV15SC","AZKFSYWVPF6JL","3P520RYKCHSO30HY2QJC6BDLS9Z5UE","","null","<img src=""img/flower2.png"" style=""width:200px; border:14px solid green;"">","null","","","","","","","","",""
"","image-keyboard-response","316","116206","0.0-316.0","3UJ1CZ6IZIBAA7NO4NTEGTRLFV15SC","AZKFSYWVPF6JL","3P520RYKCHSO30HY2QJC6BDLS9Z5UE","","578.8000000119209","img/flower1.png","74","579.3000000119209","1","1","1","1","1,0.333,0.333,0.333,1,0.333,0.333,0.333,1","1,0.333,0.333,0.333,1,0.333,0.333,0.333,1","1",""
"","html-keyboard-response","317","116507","0.0-317.0","3UJ1CZ6IZIBAA7NO4NTEGTRLFV15SC","AZKFSYWVPF6JL","3P520RYKCHSO30HY2QJC6BDLS9Z5UE","","null","<img src=""img/flower1.png"" style=""width:200px; border:14px solid green;"">","null","","","","","","","","",""
"","image-keyboard-response","318","117078","0.0-318.0","3UJ1CZ6IZIBAA7NO4NTEGTRLFV15SC","AZKFSYWVPF6JL","3P520RYKCHSO30HY2QJC6BDLS9Z5UE","","570.3999999761581","img/flower1.png","75","571","2","0","1","1","1,0.333,0.333,0.333,1,0.333,0.333,0.333,1","1,0.333,0.333,0.333,1,0.333,0.333,0.333,1","1",""
"","html-keyboard-response","319","117380","0.0-319.0","3UJ1CZ6IZIBAA7NO4NTEGTRLFV15SC","AZKFSYWVPF6JL","3P520RYKCHSO30HY2QJC6BDLS9Z5UE","","null","<img src=""img/flower1.png"" style=""width:200px;border:14px solid red;"">","null","","","","","","","","",""
"","image-keyboard-response","320","117758","0.0-320.0","3UJ1CZ6IZIBAA7NO4NTEGTRLFV15SC","AZKFSYWVPF6JL","3P520RYKCHSO30HY2QJC6BDLS9Z5UE","","377.80000001192093","img/flower1.png","74","378.30000001192093","1","1","1","1","1,0.333,0.333,0.333,1,0.333,0.333,0.333,1","1,0.333,0.333,0.333,1,0.333,0.333,0.333,1","1",""
"","html-keyboard-response","321","118059","0.0-321.0","3UJ1CZ6IZIBAA7NO4NTEGTRLFV15SC","AZKFSYWVPF6JL","3P520RYKCHSO30HY2QJC6BDLS9Z5UE","","null","<img src=""img/flower1.png"" style=""width:200px; border:14px solid green;"">","null","","","","","","","","",""
"","image-keyboard-response","322","118750","0.0-322.0","3UJ1CZ6IZIBAA7NO4NTEGTRLFV15SC","AZKFSYWVPF6JL","3P520RYKCHSO30HY2QJC6BDLS9Z5UE","","691","img/flower3.png","76","691.3999999761581","3","1","3","1","1,0.333,0.333,0.333,1,0.333,0.333,0.333,1","1,0.333,0.333,0.333,1,0.333,0.333,0.333,1","1",""
"","html-keyboard-response","323","119051","0.0-323.0","3UJ1CZ6IZIBAA7NO4NTEGTRLFV15SC","AZKFSYWVPF6JL","3P520RYKCHSO30HY2QJC6BDLS9Z5UE","","null","<img src=""img/flower3.png"" style=""width:200px; border:14px solid green;"">","null","","","","","","","","",""
"","image-keyboard-response","324","119638","0.0-324.0","3UJ1CZ6IZIBAA7NO4NTEGTRLFV15SC","AZKFSYWVPF6JL","3P520RYKCHSO30HY2QJC6BDLS9Z5UE","","586.6000000238419","img/flower1.png","74","587.0999999642372","1","1","1","1","1,0.333,0.333,0.333,1,0.333,0.333,0.333,1","1,0.333,0.333,0.333,1,0.333,0.333,0.333,1","1",""
"","html-keyboard-response","325","119950","0.0-325.0","3UJ1CZ6IZIBAA7NO4NTEGTRLFV15SC","AZKFSYWVPF6JL","3P520RYKCHSO30HY2QJC6BDLS9Z5UE","","null","<img src=""img/flower1.png"" style=""width:200px; border:14px solid green;"">","null","","","","","","","","",""
"","image-keyboard-response","326","120439","0.0-326.0","3UJ1CZ6IZIBAA7NO4NTEGTRLFV15SC","AZKFSYWVPF6JL","3P520RYKCHSO30HY2QJC6BDLS9Z5UE","","487.60000002384186","img/flower1.png","74","488","1","1","1","1","1,0.333,0.333,0.333,1,0.333,0.333,0.333,1","1,0.333,0.333,0.333,1,0.333,0.333,0.333,1","1",""
"","html-keyboard-response","327","120739","0.0-327.0","3UJ1CZ6IZIBAA7NO4NTEGTRLFV15SC","AZKFSYWVPF6JL","3P520RYKCHSO30HY2QJC6BDLS9Z5UE","","null","<img src=""img/flower1.png"" style=""width:200px; border:14px solid green;"">","null","","","","","","","","",""
"","image-keyboard-response","328","121239","0.0-328.0","3UJ1CZ6IZIBAA7NO4NTEGTRLFV15SC","AZKFSYWVPF6JL","3P520RYKCHSO30HY2QJC6BDLS9Z5UE","","498.5","img/flower3.png","75","499.0999999642372","2","0","3","1","1,0.333,0.333,0.333,1,0.333,0.333,0.333,1","1,0.333,0.333,0.333,1,0.333,0.333,0.333,1","1",""
"","html-keyboard-response","329","121543","0.0-329.0","3UJ1CZ6IZIBAA7NO4NTEGTRLFV15SC","AZKFSYWVPF6JL","3P520RYKCHSO30HY2QJC6BDLS9Z5UE","","null","<img src=""img/flower3.png"" style=""width:200px;border:14px solid red;"">","null","","","","","","","","",""
"","image-keyboard-response","330","121999","0.0-330.0","3UJ1CZ6IZIBAA7NO4NTEGTRLFV15SC","AZKFSYWVPF6JL","3P520RYKCHSO30HY2QJC6BDLS9Z5UE","","455.4000000357628","img/flower3.png","76","455.89999997615814","3","1","3","1","1,0.333,0.333,0.333,1,0.333,0.333,0.333,1","1,0.333,0.333,0.333,1,0.333,0.333,0.333,1","1",""
"","html-keyboard-response","331","122300","0.0-331.0","3UJ1CZ6IZIBAA7NO4NTEGTRLFV15SC","AZKFSYWVPF6JL","3P520RYKCHSO30HY2QJC6BDLS9Z5UE","","null","<img src=""img/flower3.png"" style=""width:200px; border:14px solid green;"">","null","","","","","","","","",""
"","image-keyboard-response","332","122935","0.0-332.0","3UJ1CZ6IZIBAA7NO4NTEGTRLFV15SC","AZKFSYWVPF6JL","3P520RYKCHSO30HY2QJC6BDLS9Z5UE","","633.8000000119209","img/flower1.png","74","634.3999999761581","1","1","1","1","1,0.333,0.333,0.333,1,0.333,0.333,0.333,1","1,0.333,0.333,0.333,1,0.333,0.333,0.333,1","1",""
"","html-keyboard-response","333","123235","0.0-333.0","3UJ1CZ6IZIBAA7NO4NTEGTRLFV15SC","AZKFSYWVPF6JL","3P520RYKCHSO30HY2QJC6BDLS9Z5UE","","null","<img src=""img/flower1.png"" style=""width:200px; border:14px solid green;"">","null","","","","","","","","",""
"","image-keyboard-response","334","123679","0.0-334.0","3UJ1CZ6IZIBAA7NO4NTEGTRLFV15SC","AZKFSYWVPF6JL","3P520RYKCHSO30HY2QJC6BDLS9Z5UE","","442.9000000357628","img/flower1.png","74","443.39999997615814","1","1","1","1","1,0.333,0.333,0.333,1,0.333,0.333,0.333,1","1,0.333,0.333,0.333,1,0.333,0.333,0.333,1","1",""
"","html-keyboard-response","335","123984","0.0-335.0","3UJ1CZ6IZIBAA7NO4NTEGTRLFV15SC","AZKFSYWVPF6JL","3P520RYKCHSO30HY2QJC6BDLS9Z5UE","","null","<img src=""img/flower1.png"" style=""width:200px; border:14px solid green;"">","null","","","","","","","","",""
"","image-keyboard-response","336","124487","0.0-336.0","3UJ1CZ6IZIBAA7NO4NTEGTRLFV15SC","AZKFSYWVPF6JL","3P520RYKCHSO30HY2QJC6BDLS9Z5UE","","502.0999999642372","img/flower2.png","75","502.5","2","1","2","1","1,0.333,0.333,0.333,1,0.333,0.333,0.333,1","1,0.333,0.333,0.333,1,0.333,0.333,0.333,1","1",""
"","html-keyboard-response","337","124789","0.0-337.0","3UJ1CZ6IZIBAA7NO4NTEGTRLFV15SC","AZKFSYWVPF6JL","3P520RYKCHSO30HY2QJC6BDLS9Z5UE","","null","<img src=""img/flower2.png"" style=""width:200px; border:14px solid green;"">","null","","","","","","","","",""
"","image-keyboard-response","338","125191","0.0-338.0","3UJ1CZ6IZIBAA7NO4NTEGTRLFV15SC","AZKFSYWVPF6JL","3P520RYKCHSO30HY2QJC6BDLS9Z5UE","","401","img/flower2.png","75","401.60000002384186","2","1","2","1","1,0.333,0.333,0.333,1,0.333,0.333,0.333,1","1,0.333,0.333,0.333,1,0.333,0.333,0.333,1","1",""
"","html-keyboard-response","339","125491","0.0-339.0","3UJ1CZ6IZIBAA7NO4NTEGTRLFV15SC","AZKFSYWVPF6JL","3P520RYKCHSO30HY2QJC6BDLS9Z5UE","","null","<img src=""img/flower2.png"" style=""width:200px; border:14px solid green;"">","null","","","","","","","","",""
"","image-keyboard-response","340","125967","0.0-340.0","3UJ1CZ6IZIBAA7NO4NTEGTRLFV15SC","AZKFSYWVPF6JL","3P520RYKCHSO30HY2QJC6BDLS9Z5UE","","474.80000001192093","img/flower3.png","76","475.19999998807907","3","1","3","1","1,0.333,0.333,0.333,1,0.333,0.333,0.333,1","1,0.333,0.333,0.333,1,0.333,0.333,0.333,1","1",""
"","html-keyboard-response","341","126268","0.0-341.0","3UJ1CZ6IZIBAA7NO4NTEGTRLFV15SC","AZKFSYWVPF6JL","3P520RYKCHSO30HY2QJC6BDLS9Z5UE","","null","<img src=""img/flower3.png"" style=""width:200px; border:14px solid green;"">","null","","","","","","","","",""
"","image-keyboard-response","342","126735","0.0-342.0","3UJ1CZ6IZIBAA7NO4NTEGTRLFV15SC","AZKFSYWVPF6JL","3P520RYKCHSO30HY2QJC6BDLS9Z5UE","","466.30000001192093","img/flower3.png","76","466.9000000357628","3","1","3","1","1,0.333,0.333,0.333,1,0.333,0.333,0.333,1","1,0.333,0.333,0.333,1,0.333,0.333,0.333,1","1",""
"","html-keyboard-response","343","127036","0.0-343.0","3UJ1CZ6IZIBAA7NO4NTEGTRLFV15SC","AZKFSYWVPF6JL","3P520RYKCHSO30HY2QJC6BDLS9Z5UE","","null","<img src=""img/flower3.png"" style=""width:200px; border:14px solid green;"">","null","","","","","","","","",""
"","image-keyboard-response","344","127487","0.0-344.0","3UJ1CZ6IZIBAA7NO4NTEGTRLFV15SC","AZKFSYWVPF6JL","3P520RYKCHSO30HY2QJC6BDLS9Z5UE","","450.4000000357628","img/flower3.png","76","450.9000000357628","3","1","3","1","1,0.333,0.333,0.333,1,0.333,0.333,0.333,1","1,0.333,0.333,0.333,1,0.333,0.333,0.333,1","1",""
"","html-keyboard-response","345","127788","0.0-345.0","3UJ1CZ6IZIBAA7NO4NTEGTRLFV15SC","AZKFSYWVPF6JL","3P520RYKCHSO30HY2QJC6BDLS9Z5UE","","null","<img src=""img/flower3.png"" style=""width:200px; border:14px solid green;"">","null","","","","","","","","",""
"","image-keyboard-response","346","128423","0.0-346.0","3UJ1CZ6IZIBAA7NO4NTEGTRLFV15SC","AZKFSYWVPF6JL","3P520RYKCHSO30HY2QJC6BDLS9Z5UE","","634.1000000238419","img/flower2.png","74","634.6999999880791","1","0","2","1","1,0.333,0.333,0.333,1,0.333,0.333,0.333,1","1,0.333,0.333,0.333,1,0.333,0.333,0.333,1","1",""
"","html-keyboard-response","347","128724","0.0-347.0","3UJ1CZ6IZIBAA7NO4NTEGTRLFV15SC","AZKFSYWVPF6JL","3P520RYKCHSO30HY2QJC6BDLS9Z5UE","","null","<img src=""img/flower2.png"" style=""width:200px;border:14px solid red;"">","null","","","","","","","","",""
"","image-keyboard-response","348","129447","0.0-348.0","3UJ1CZ6IZIBAA7NO4NTEGTRLFV15SC","AZKFSYWVPF6JL","3P520RYKCHSO30HY2QJC6BDLS9Z5UE","","722.1999999880791","img/flower3.png","76","722.8000000119209","3","1","3","1","1,0.333,0.333,0.333,1,0.333,0.333,0.333,1","1,0.333,0.333,0.333,1,0.333,0.333,0.333,1","1",""
"","html-keyboard-response","349","129747","0.0-349.0","3UJ1CZ6IZIBAA7NO4NTEGTRLFV15SC","AZKFSYWVPF6JL","3P520RYKCHSO30HY2QJC6BDLS9Z5UE","","null","<img src=""img/flower3.png"" style=""width:200px; border:14px solid green;"">","null","","","","","","","","",""
"","image-keyboard-response","350","130231","0.0-350.0","3UJ1CZ6IZIBAA7NO4NTEGTRLFV15SC","AZKFSYWVPF6JL","3P520RYKCHSO30HY2QJC6BDLS9Z5UE","","482.80000001192093","img/flower2.png","75","483.0999999642372","2","1","2","1","1,0.333,0.333,0.333,1,0.333,0.333,0.333,1","1,0.333,0.333,0.333,1,0.333,0.333,0.333,1","1",""
"","html-keyboard-response","351","130531","0.0-351.0","3UJ1CZ6IZIBAA7NO4NTEGTRLFV15SC","AZKFSYWVPF6JL","3P520RYKCHSO30HY2QJC6BDLS9Z5UE","","null","<img src=""img/flower2.png"" style=""width:200px; border:14px solid green;"">","null","","","","","","","","",""
"","image-keyboard-response","352","131119","0.0-352.0","3UJ1CZ6IZIBAA7NO4NTEGTRLFV15SC","AZKFSYWVPF6JL","3P520RYKCHSO30HY2QJC6BDLS9Z5UE","","586.5","img/flower1.png","74","587.1999999880791","1","1","1","1","1,0.333,0.333,0.333,1,0.333,0.333,0.333,1","1,0.333,0.333,0.333,1,0.333,0.333,0.333,1","1",""
"","html-keyboard-response","353","131420","0.0-353.0","3UJ1CZ6IZIBAA7NO4NTEGTRLFV15SC","AZKFSYWVPF6JL","3P520RYKCHSO30HY2QJC6BDLS9Z5UE","","null","<img src=""img/flower1.png"" style=""width:200px; border:14px solid green;"">","null","","","","","","","","",""
"","image-keyboard-response","354","131935","0.0-354.0","3UJ1CZ6IZIBAA7NO4NTEGTRLFV15SC","AZKFSYWVPF6JL","3P520RYKCHSO30HY2QJC6BDLS9Z5UE","","513.7000000476837","img/flower2.png","75","514.1999999880791","2","1","2","1","1,0.333,0.333,0.333,1,0.333,0.333,0.333,1","1,0.333,0.333,0.333,1,0.333,0.333,0.333,1","1",""
"","html-keyboard-response","355","132235","0.0-355.0","3UJ1CZ6IZIBAA7NO4NTEGTRLFV15SC","AZKFSYWVPF6JL","3P520RYKCHSO30HY2QJC6BDLS9Z5UE","","null","<img src=""img/flower2.png"" style=""width:200px; border:14px solid green;"">","null","","","","","","","","",""
"","image-keyboard-response","356","132743","0.0-356.0","3UJ1CZ6IZIBAA7NO4NTEGTRLFV15SC","AZKFSYWVPF6JL","3P520RYKCHSO30HY2QJC6BDLS9Z5UE","","506.80000001192093","img/flower1.png","74","507.30000001192093","1","1","1","1","1,0.333,0.333,0.333,1,0.333,0.333,0.333,1","1,0.333,0.333,0.333,1,0.333,0.333,0.333,1","1",""
"","html-keyboard-response","357","133044","0.0-357.0","3UJ1CZ6IZIBAA7NO4NTEGTRLFV15SC","AZKFSYWVPF6JL","3P520RYKCHSO30HY2QJC6BDLS9Z5UE","","null","<img src=""img/flower1.png"" style=""width:200px; border:14px solid green;"">","null","","","","","","","","",""
"","image-keyboard-response","358","133663","0.0-358.0","3UJ1CZ6IZIBAA7NO4NTEGTRLFV15SC","AZKFSYWVPF6JL","3P520RYKCHSO30HY2QJC6BDLS9Z5UE","","618.1000000238419","img/flower2.png","75","618.3999999761581","2","1","2","1","1,0.333,0.333,0.333,1,0.333,0.333,0.333,1","1,0.333,0.333,0.333,1,0.333,0.333,0.333,1","1",""
"","html-keyboard-response","359","133965","0.0-359.0","3UJ1CZ6IZIBAA7NO4NTEGTRLFV15SC","AZKFSYWVPF6JL","3P520RYKCHSO30HY2QJC6BDLS9Z5UE","","null","<img src=""img/flower2.png"" style=""width:200px; border:14px solid green;"">","null","","","","","","","","",""
"","image-keyboard-response","360","134559","0.0-360.0","3UJ1CZ6IZIBAA7NO4NTEGTRLFV15SC","AZKFSYWVPF6JL","3P520RYKCHSO30HY2QJC6BDLS9Z5UE","","593.3999999761581","img/flower3.png","76","594","3","1","3","1","1,0.333,0.333,0.333,1,0.333,0.333,0.333,1","1,0.333,0.333,0.333,1,0.333,0.333,0.333,1","1",""
"","html-keyboard-response","361","134860","0.0-361.0","3UJ1CZ6IZIBAA7NO4NTEGTRLFV15SC","AZKFSYWVPF6JL","3P520RYKCHSO30HY2QJC6BDLS9Z5UE","","null","<img src=""img/flower3.png"" style=""width:200px; border:14px solid green;"">","null","","","","","","","","",""
"","html-keyboard-response","362","139056","0.0-362.0","3UJ1CZ6IZIBAA7NO4NTEGTRLFV15SC","AZKFSYWVPF6JL","3P520RYKCHSO30HY2QJC6BDLS9Z5UE","","","","","","","","","","","","",""
"","instructions","363","141450","0.0-363.0","3UJ1CZ6IZIBAA7NO4NTEGTRLFV15SC","AZKFSYWVPF6JL","3P520RYKCHSO30HY2QJC6BDLS9Z5UE","[{""page_index"":0,""viewing_time"":2393.2000000476837}]","2393.400000035763","","","","","","","","","","",""
"","survey-text","364","146616","0.0-364.0","3UJ1CZ6IZIBAA7NO4NTEGTRLFV15SC","AZKFSYWVPF6JL","3P520RYKCHSO30HY2QJC6BDLS9Z5UE","","5164.5","","","","","","","","","","","{""Q0"":""AZKFSYWVPF6JL""}"
